"rt","url","trial_type","trial_index","time_elapsed","internal_node_id","view_history","stimulus","key_press","test_part","correct_response","correct","use_rew","which_stim","reward","responses"
"4017.5799999997253","consent.html","external-html","0","4150","0.0-0.0","","","","","","","","","",""
"1152972.1750000026","","instructions","1","1157123","0.0-1.0","[{""page_index"":0,""viewing_time"":2853.8100000005215},{""page_index"":1,""viewing_time"":1123678.0150000122},{""page_index"":2,""viewing_time"":3143.844999998575},{""page_index"":3,""viewing_time"":1871.9049999925774},{""page_index"":4,""viewing_time"":1088.1150000060443},{""page_index"":5,""viewing_time"":895.9449999965727},{""page_index"":6,""viewing_time"":19440.00499999686}]","","","","","","","","",""
"null","","image-keyboard-response","2","1158625","0.0-2.0-0.0","","img/test2.PNG","null","practice","null","true","","","",""
"null","","html-keyboard-response","3","1159626","0.0-2.0-1.0","","<img src=""img/test2-reward.PNG"">","null","","","","","","",""
"null","","html-keyboard-response","4","1160628","0.0-2.0-2.0","","<div style=""font-size:60px;"">+</div>","null","","","","","","",""
"null","","image-keyboard-response","5","1162130","0.0-2.0-0.1","","img/test3.PNG","null","practice","null","true","","","",""
"null","","html-keyboard-response","6","1163131","0.0-2.0-1.1","","<img src=""img/test3-reward.PNG"">","null","","","","","","",""
"null","","html-keyboard-response","7","1164132","0.0-2.0-2.1","","<div style=""font-size:60px;"">+</div>","null","","","","","","",""
"415.58000000054017","","image-keyboard-response","8","1164548","0.0-2.0-0.2","","img/test1.PNG","32","practice","32","true","","","",""
"null","","html-keyboard-response","9","1165550","0.0-2.0-1.2","","<img src=""img/test1-reward.PNG"" border=""10px; grey"">","null","","","","","","",""
"null","","html-keyboard-response","10","1166552","0.0-2.0-2.2","","<div style=""font-size:60px;"">+</div>","null","","","","","","",""
"null","","image-keyboard-response","11","1168054","0.0-2.0-0.3","","img/test3.PNG","null","practice","null","true","","","",""
"null","","html-keyboard-response","12","1169055","0.0-2.0-1.3","","<img src=""img/test3-reward.PNG"">","null","","","","","","",""
"null","","html-keyboard-response","13","1170056","0.0-2.0-2.3","","<div style=""font-size:60px;"">+</div>","null","","","","","","",""
"605.2250000066124","","image-keyboard-response","14","1170662","0.0-2.0-0.4","","img/test1.PNG","32","practice","32","true","","","",""
"null","","html-keyboard-response","15","1171664","0.0-2.0-1.4","","<img src=""img/test1-reward.PNG"" border=""10px; grey"">","null","","","","","","",""
"null","","html-keyboard-response","16","1172665","0.0-2.0-2.4","","<div style=""font-size:60px;"">+</div>","null","","","","","","",""
"null","","image-keyboard-response","17","1174167","0.0-2.0-0.5","","img/test2.PNG","null","practice","null","true","","","",""
"null","","html-keyboard-response","18","1175169","0.0-2.0-1.5","","<img src=""img/test2-reward.PNG"">","null","","","","","","",""
"null","","html-keyboard-response","19","1176170","0.0-2.0-2.5","","<div style=""font-size:60px;"">+</div>","null","","","","","","",""
"null","","image-keyboard-response","20","1177672","0.0-2.0-0.6","","img/test2.PNG","null","practice","null","true","","","",""
"null","","html-keyboard-response","21","1178674","0.0-2.0-1.6","","<img src=""img/test2-reward.PNG"">","null","","","","","","",""
"null","","html-keyboard-response","22","1179675","0.0-2.0-2.6","","<div style=""font-size:60px;"">+</div>","null","","","","","","",""
"null","","image-keyboard-response","23","1181177","0.0-2.0-0.7","","img/test3.PNG","null","practice","null","true","","","",""
"null","","html-keyboard-response","24","1182179","0.0-2.0-1.7","","<img src=""img/test3-reward.PNG"">","null","","","","","","",""
"null","","html-keyboard-response","25","1183180","0.0-2.0-2.7","","<div style=""font-size:60px;"">+</div>","null","","","","","","",""
"380.52500000060536","","image-keyboard-response","26","1183561","0.0-2.0-0.8","","img/test1.PNG","32","practice","32","true","","","",""
"null","","html-keyboard-response","27","1184563","0.0-2.0-1.8","","<img src=""img/test1-reward.PNG"" border=""10px; grey"">","null","","","","","","",""
"null","","html-keyboard-response","28","1185565","0.0-2.0-2.8","","<div style=""font-size:60px;"">+</div>","null","","","","","","",""
"null","","image-keyboard-response","29","1187067","0.0-2.0-0.9","","img/test2.PNG","null","practice","null","true","","","",""
"null","","html-keyboard-response","30","1188068","0.0-2.0-1.9","","<img src=""img/test2-reward.PNG"">","null","","","","","","",""
"null","","html-keyboard-response","31","1189069","0.0-2.0-2.9","","<div style=""font-size:60px;"">+</div>","null","","","","","","",""
"null","","image-keyboard-response","32","1190571","0.0-2.0-0.10","","img/test3.PNG","null","practice","null","true","","","",""
"null","","html-keyboard-response","33","1191573","0.0-2.0-1.10","","<img src=""img/test3-reward.PNG"">","null","","","","","","",""
"null","","html-keyboard-response","34","1192574","0.0-2.0-2.10","","<div style=""font-size:60px;"">+</div>","null","","","","","","",""
"470.31499999877997","","image-keyboard-response","35","1193045","0.0-2.0-0.11","","img/test1.PNG","32","practice","32","true","","","",""
"null","","html-keyboard-response","36","1194047","0.0-2.0-1.11","","<img src=""img/test1-reward.PNG"" border=""10px; grey"">","null","","","","","","",""
"null","","html-keyboard-response","37","1195048","0.0-2.0-2.11","","<div style=""font-size:60px;"">+</div>","null","","","","","","",""
"5074.120000004768","","instructions","38","1200123","0.0-3.0","[{""page_index"":0,""viewing_time"":5073.980000000913}]","","","","","","","","",""
"null","","image-keyboard-response","39","1201625","0.0-4.0-0.0","","img/yellow.png","null","trial","null","true","0.2,0.8","2:nogo_b","",""
"null","","html-keyboard-response","40","1202626","0.0-4.0-1.0","","<img src=""img/yellow-r.png"">","null","trial","null","","0.2,0.8","2:nogo_b","1",""
"null","","html-keyboard-response","41","1203627","0.0-4.0-2.0","","<div style=""font-size:60px;"">+</div>","null","","","","","","",""
"1185.1800000004005","","image-keyboard-response","42","1204813","0.0-4.0-0.1","","img/blue.png","32","trial","32","true","0.8,0.2","1:go_a","",""
"null","","html-keyboard-response","43","1205814","0.0-4.0-1.1","","<img src=""img/blue-r.png"" border=""10"">","null","trial","32","","0.8,0.2","1:go_a","1",""
"null","","html-keyboard-response","44","1206816","0.0-4.0-2.1","","<div style=""font-size:60px;"">+</div>","null","","","","","","",""
"null","","image-keyboard-response","45","1208318","0.0-4.0-0.2","","img/yellow.png","null","trial","null","true","0.2,0.8","2:nogo_b","",""
"null","","html-keyboard-response","46","1209319","0.0-4.0-1.2","","<img src=""img/yellow-r.png"">","null","trial","null","","0.2,0.8","2:nogo_b","1",""
"null","","html-keyboard-response","47","1210320","0.0-4.0-2.2","","<div style=""font-size:60px;"">+</div>","null","","","","","","",""
"506.61000001151115","","image-keyboard-response","48","1210827","0.0-4.0-0.3","","img/blue.png","32","trial","32","true","0.8,0.2","1:go_a","",""
"null","","html-keyboard-response","49","1211829","0.0-4.0-1.3","","<img src=""img/blue-r.png"" border=""10"">","null","trial","32","","0.8,0.2","1:go_a","1",""
"null","","html-keyboard-response","50","1212831","0.0-4.0-2.3","","<div style=""font-size:60px;"">+</div>","null","","","","","","",""
"null","","image-keyboard-response","51","1214333","0.0-4.0-0.4","","img/yellow.png","null","trial","null","true","0.2,0.8","2:nogo_b","",""
"null","","html-keyboard-response","52","1215334","0.0-4.0-1.4","","<img src=""img/yellow-r.png"">","null","trial","null","","0.2,0.8","2:nogo_b","1",""
"null","","html-keyboard-response","53","1216335","0.0-4.0-2.4","","<div style=""font-size:60px;"">+</div>","null","","","","","","",""
"402.4550000028685","","image-keyboard-response","54","1216738","0.0-4.0-0.5","","img/blue.png","32","trial","32","true","0.8,0.2","1:go_a","",""
"null","","html-keyboard-response","55","1217740","0.0-4.0-1.5","","<img src=""img/blue-r.png"" border=""10"">","null","trial","32","","0.8,0.2","1:go_a","1",""
"null","","html-keyboard-response","56","1218742","0.0-4.0-2.5","","<div style=""font-size:60px;"">+</div>","null","","","","","","",""
"null","","image-keyboard-response","57","1220244","0.0-4.0-0.6","","img/yellow.png","null","trial","null","true","0.2,0.8","2:nogo_b","",""
"null","","html-keyboard-response","58","1221246","0.0-4.0-1.6","","<img src=""img/yellow-n.png"">","null","trial","null","","0.2,0.8","2:nogo_b","0",""
"null","","html-keyboard-response","59","1222247","0.0-4.0-2.6","","<div style=""font-size:60px;"">+</div>","null","","","","","","",""
"514.7100000029895","","image-keyboard-response","60","1222763","0.0-4.0-0.7","","img/blue.png","32","trial","32","true","0.8,0.2","1:go_a","",""
"null","","html-keyboard-response","61","1223764","0.0-4.0-1.7","","<img src=""img/blue-r.png"" border=""10"">","null","trial","32","","0.8,0.2","1:go_a","1",""
"null","","html-keyboard-response","62","1224766","0.0-4.0-2.7","","<div style=""font-size:60px;"">+</div>","null","","","","","","",""
"null","","image-keyboard-response","63","1226268","0.0-4.0-0.8","","img/yellow.png","null","trial","null","true","0.2,0.8","2:nogo_b","",""
"null","","html-keyboard-response","64","1227269","0.0-4.0-1.8","","<img src=""img/yellow-r.png"">","null","trial","null","","0.2,0.8","2:nogo_b","1",""
"null","","html-keyboard-response","65","1228270","0.0-4.0-2.8","","<div style=""font-size:60px;"">+</div>","null","","","","","","",""
"530.9149999958463","","image-keyboard-response","66","1228802","0.0-4.0-0.9","","img/blue.png","32","trial","32","true","0.8,0.2","1:go_a","",""
"null","","html-keyboard-response","67","1229804","0.0-4.0-1.9","","<img src=""img/blue-r.png"" border=""10"">","null","trial","32","","0.8,0.2","1:go_a","1",""
"null","","html-keyboard-response","68","1230807","0.0-4.0-2.9","","<div style=""font-size:60px;"">+</div>","null","","","","","","",""
"null","","image-keyboard-response","69","1232308","0.0-4.0-0.10","","img/yellow.png","null","trial","null","true","0.2,0.8","2:nogo_b","",""
"null","","html-keyboard-response","70","1233311","0.0-4.0-1.10","","<img src=""img/yellow-r.png"">","null","trial","null","","0.2,0.8","2:nogo_b","1",""
"null","","html-keyboard-response","71","1234312","0.0-4.0-2.10","","<div style=""font-size:60px;"">+</div>","null","","","","","","",""
"401.8450000004377","","image-keyboard-response","72","1234714","0.0-4.0-0.11","","img/blue.png","32","trial","32","true","0.8,0.2","1:go_a","",""
"null","","html-keyboard-response","73","1235716","0.0-4.0-1.11","","<img src=""img/blue-r.png"" border=""10"">","null","trial","32","","0.8,0.2","1:go_a","1",""
"null","","html-keyboard-response","74","1236718","0.0-4.0-2.11","","<div style=""font-size:60px;"">+</div>","null","","","","","","",""
"766.3749999918509","","image-keyboard-response","75","1237485","0.0-4.0-0.12","","img/blue.png","32","trial","32","true","0.8,0.2","1:go_a","",""
"null","","html-keyboard-response","76","1238487","0.0-4.0-1.12","","<img src=""img/blue-r.png"" border=""10"">","null","trial","32","","0.8,0.2","1:go_a","1",""
"null","","html-keyboard-response","77","1239488","0.0-4.0-2.12","","<div style=""font-size:60px;"">+</div>","null","","","","","","",""
"null","","image-keyboard-response","78","1240990","0.0-4.0-0.13","","img/yellow.png","null","trial","null","true","0.2,0.8","2:nogo_b","",""
"null","","html-keyboard-response","79","1241993","0.0-4.0-1.13","","<img src=""img/yellow-n.png"">","null","trial","null","","0.2,0.8","2:nogo_b","0",""
"null","","html-keyboard-response","80","1242994","0.0-4.0-2.13","","<div style=""font-size:60px;"">+</div>","null","","","","","","",""
"680.7149999951944","","image-keyboard-response","81","1243675","0.0-4.0-0.14","","img/yellow.png","32","trial","null","false","0.2,0.8","2:nogo_b","",""
"null","","html-keyboard-response","82","1244677","0.0-4.0-1.14","","<img src=""img/yellow-r.png"" border=""10"">","null","trial","null","","0.2,0.8","2:nogo_b","1",""
"null","","html-keyboard-response","83","1245679","0.0-4.0-2.14","","<div style=""font-size:60px;"">+</div>","null","","","","","","",""
"504.89999999990687","","image-keyboard-response","84","1246184","0.0-4.0-0.15","","img/blue.png","32","trial","32","true","0.8,0.2","1:go_a","",""
"null","","html-keyboard-response","85","1247187","0.0-4.0-1.15","","<img src=""img/blue-n.png"" border=""10"">","null","trial","32","","0.8,0.2","1:go_a","0",""
"null","","html-keyboard-response","86","1248188","0.0-4.0-2.15","","<div style=""font-size:60px;"">+</div>","null","","","","","","",""
"753.1099999905564","","image-keyboard-response","87","1248942","0.0-4.0-0.16","","img/blue.png","32","trial","32","true","0.8,0.2","1:go_a","",""
"null","","html-keyboard-response","88","1249943","0.0-4.0-1.16","","<img src=""img/blue-r.png"" border=""10"">","null","trial","32","","0.8,0.2","1:go_a","1",""
"null","","html-keyboard-response","89","1250945","0.0-4.0-2.16","","<div style=""font-size:60px;"">+</div>","null","","","","","","",""
"460.13500000117347","","image-keyboard-response","90","1251405","0.0-4.0-0.17","","img/yellow.png","32","trial","null","false","0.2,0.8","2:nogo_b","",""
"null","","html-keyboard-response","91","1252407","0.0-4.0-1.17","","<img src=""img/yellow-n.png"" border=""10"">","null","trial","null","","0.2,0.8","2:nogo_b","0",""
"null","","html-keyboard-response","92","1253408","0.0-4.0-2.17","","<div style=""font-size:60px;"">+</div>","null","","","","","","",""
"362.84499999601394","","image-keyboard-response","93","1253771","0.0-4.0-0.18","","img/blue.png","32","trial","32","true","0.8,0.2","1:go_a","",""
"null","","html-keyboard-response","94","1254773","0.0-4.0-1.18","","<img src=""img/blue-r.png"" border=""10"">","null","trial","32","","0.8,0.2","1:go_a","1",""
"null","","html-keyboard-response","95","1255775","0.0-4.0-2.18","","<div style=""font-size:60px;"">+</div>","null","","","","","","",""
"640.4550000005402","","image-keyboard-response","96","1256416","0.0-4.0-0.19","","img/yellow.png","32","trial","null","false","0.2,0.8","2:nogo_b","",""
"null","","html-keyboard-response","97","1257418","0.0-4.0-1.19","","<img src=""img/yellow-n.png"" border=""10"">","null","trial","null","","0.2,0.8","2:nogo_b","0",""
"null","","html-keyboard-response","98","1258420","0.0-4.0-2.19","","<div style=""font-size:60px;"">+</div>","null","","","","","","",""
"631.3850000007078","","image-keyboard-response","99","1259052","0.0-4.0-0.20","","img/yellow.png","32","trial","null","false","0.2,0.8","2:nogo_b","",""
"null","","html-keyboard-response","100","1260053","0.0-4.0-1.20","","<img src=""img/yellow-n.png"" border=""10"">","null","trial","null","","0.2,0.8","2:nogo_b","0",""
"null","","html-keyboard-response","101","1261054","0.0-4.0-2.20","","<div style=""font-size:60px;"">+</div>","null","","","","","","",""
"721.2250000010245","","image-keyboard-response","102","1261775","0.0-4.0-0.21","","img/blue.png","32","trial","32","true","0.8,0.2","1:go_a","",""
"null","","html-keyboard-response","103","1262777","0.0-4.0-1.21","","<img src=""img/blue-r.png"" border=""10"">","null","trial","32","","0.8,0.2","1:go_a","1",""
"null","","html-keyboard-response","104","1263778","0.0-4.0-2.21","","<div style=""font-size:60px;"">+</div>","null","","","","","","",""
"863.1650000025984","","image-keyboard-response","105","1264642","0.0-4.0-0.22","","img/blue.png","32","trial","32","true","0.8,0.2","1:go_a","",""
"null","","html-keyboard-response","106","1265643","0.0-4.0-1.22","","<img src=""img/blue-r.png"" border=""10"">","null","trial","32","","0.8,0.2","1:go_a","1",""
"null","","html-keyboard-response","107","1266645","0.0-4.0-2.22","","<div style=""font-size:60px;"">+</div>","null","","","","","","",""
"833.7199999950826","","image-keyboard-response","108","1267479","0.0-4.0-0.23","","img/yellow.png","32","trial","null","false","0.2,0.8","2:nogo_b","",""
"null","","html-keyboard-response","109","1268481","0.0-4.0-1.23","","<img src=""img/yellow-n.png"" border=""10"">","null","trial","null","","0.2,0.8","2:nogo_b","0",""
"null","","html-keyboard-response","110","1269482","0.0-4.0-2.23","","<div style=""font-size:60px;"">+</div>","null","","","","","","",""
"null","","image-keyboard-response","111","1270984","0.0-4.0-0.24","","img/yellow.png","null","trial","null","true","0.2,0.8","2:nogo_b","",""
"null","","html-keyboard-response","112","1271985","0.0-4.0-1.24","","<img src=""img/yellow-r.png"">","null","trial","null","","0.2,0.8","2:nogo_b","1",""
"null","","html-keyboard-response","113","1272987","0.0-4.0-2.24","","<div style=""font-size:60px;"">+</div>","null","","","","","","",""
"363.3249999983236","","image-keyboard-response","114","1273351","0.0-4.0-0.25","","img/blue.png","32","trial","32","true","0.8,0.2","1:go_a","",""
"null","","html-keyboard-response","115","1274353","0.0-4.0-1.25","","<img src=""img/blue-r.png"" border=""10"">","null","trial","32","","0.8,0.2","1:go_a","1",""
"null","","html-keyboard-response","116","1275354","0.0-4.0-2.25","","<div style=""font-size:60px;"">+</div>","null","","","","","","",""
"392.78000000934117","","image-keyboard-response","117","1275748","0.0-4.0-0.26","","img/blue.png","32","trial","32","true","0.8,0.2","1:go_a","",""
"null","","html-keyboard-response","118","1276750","0.0-4.0-1.26","","<img src=""img/blue-r.png"" border=""10"">","null","trial","32","","0.8,0.2","1:go_a","1",""
"null","","html-keyboard-response","119","1277751","0.0-4.0-2.26","","<div style=""font-size:60px;"">+</div>","null","","","","","","",""
"null","","image-keyboard-response","120","1279253","0.0-4.0-0.27","","img/yellow.png","null","trial","null","true","0.2,0.8","2:nogo_b","",""
"null","","html-keyboard-response","121","1280254","0.0-4.0-1.27","","<img src=""img/yellow-r.png"">","null","trial","null","","0.2,0.8","2:nogo_b","1",""
"null","","html-keyboard-response","122","1281256","0.0-4.0-2.27","","<div style=""font-size:60px;"">+</div>","null","","","","","","",""
"null","","image-keyboard-response","123","1282758","0.0-4.0-0.28","","img/yellow.png","null","trial","null","true","0.2,0.8","2:nogo_b","",""
"null","","html-keyboard-response","124","1283760","0.0-4.0-1.28","","<img src=""img/yellow-n.png"">","null","trial","null","","0.2,0.8","2:nogo_b","0",""
"null","","html-keyboard-response","125","1284761","0.0-4.0-2.28","","<div style=""font-size:60px;"">+</div>","null","","","","","","",""
"315.85999998799525","","image-keyboard-response","126","1285078","0.0-4.0-0.29","","img/blue.png","32","trial","32","true","0.8,0.2","1:go_a","",""
"null","","html-keyboard-response","127","1286080","0.0-4.0-1.29","","<img src=""img/blue-r.png"" border=""10"">","null","trial","32","","0.8,0.2","1:go_a","1",""
"null","","html-keyboard-response","128","1287081","0.0-4.0-2.29","","<div style=""font-size:60px;"">+</div>","null","","","","","","",""
"626.9999999932479","","image-keyboard-response","129","1287709","0.0-4.0-0.30","","img/yellow.png","32","trial","null","false","0.2,0.8","2:nogo_b","",""
"null","","html-keyboard-response","130","1288711","0.0-4.0-1.30","","<img src=""img/yellow-n.png"" border=""10"">","null","trial","null","","0.2,0.8","2:nogo_b","0",""
"null","","html-keyboard-response","131","1289712","0.0-4.0-2.30","","<div style=""font-size:60px;"">+</div>","null","","","","","","",""
"454.37500000116415","","image-keyboard-response","132","1290167","0.0-4.0-0.31","","img/blue.png","32","trial","32","true","0.8,0.2","1:go_a","",""
"null","","html-keyboard-response","133","1291169","0.0-4.0-1.31","","<img src=""img/blue-r.png"" border=""10"">","null","trial","32","","0.8,0.2","1:go_a","1",""
"null","","html-keyboard-response","134","1292170","0.0-4.0-2.31","","<div style=""font-size:60px;"">+</div>","null","","","","","","",""
"756.8650000030175","","image-keyboard-response","135","1292928","0.0-4.0-0.32","","img/yellow.png","32","trial","null","false","0.2,0.8","2:nogo_b","",""
"null","","html-keyboard-response","136","1293930","0.0-4.0-1.32","","<img src=""img/yellow-n.png"" border=""10"">","null","trial","null","","0.2,0.8","2:nogo_b","0",""
"null","","html-keyboard-response","137","1294931","0.0-4.0-2.32","","<div style=""font-size:60px;"">+</div>","null","","","","","","",""
"528.3800000036135","","image-keyboard-response","138","1295460","0.0-4.0-0.33","","img/blue.png","32","trial","32","true","0.8,0.2","1:go_a","",""
"null","","html-keyboard-response","139","1296462","0.0-4.0-1.33","","<img src=""img/blue-r.png"" border=""10"">","null","trial","32","","0.8,0.2","1:go_a","1",""
"null","","html-keyboard-response","140","1297463","0.0-4.0-2.33","","<div style=""font-size:60px;"">+</div>","null","","","","","","",""
"null","","image-keyboard-response","141","1298965","0.0-4.0-0.34","","img/yellow.png","null","trial","null","true","0.2,0.8","2:nogo_b","",""
"null","","html-keyboard-response","142","1299968","0.0-4.0-1.34","","<img src=""img/yellow-r.png"">","null","trial","null","","0.2,0.8","2:nogo_b","1",""
"null","","html-keyboard-response","143","1300969","0.0-4.0-2.34","","<div style=""font-size:60px;"">+</div>","null","","","","","","",""
"1163.3799999982584","","image-keyboard-response","144","1302133","0.0-4.0-0.35","","img/blue.png","32","trial","32","true","0.8,0.2","1:go_a","",""
"null","","html-keyboard-response","145","1303134","0.0-4.0-1.35","","<img src=""img/blue-r.png"" border=""10"">","null","trial","32","","0.8,0.2","1:go_a","1",""
"null","","html-keyboard-response","146","1304135","0.0-4.0-2.35","","<div style=""font-size:60px;"">+</div>","null","","","","","","",""
"null","","image-keyboard-response","147","1305636","0.0-4.0-0.36","","img/blue.png","null","trial","32","false","0.8,0.2","1:go_a","",""
"null","","html-keyboard-response","148","1306638","0.0-4.0-1.36","","<img src=""img/blue-n.png"">","null","trial","32","","0.8,0.2","1:go_a","0",""
"null","","html-keyboard-response","149","1307639","0.0-4.0-2.36","","<div style=""font-size:60px;"">+</div>","null","","","","","","",""
"755.2500000018626","","image-keyboard-response","150","1308395","0.0-4.0-0.37","","img/yellow.png","32","trial","null","false","0.2,0.8","2:nogo_b","",""
"null","","html-keyboard-response","151","1309396","0.0-4.0-1.37","","<img src=""img/yellow-n.png"" border=""10"">","null","trial","null","","0.2,0.8","2:nogo_b","0",""
"null","","html-keyboard-response","152","1310398","0.0-4.0-2.37","","<div style=""font-size:60px;"">+</div>","null","","","","","","",""
"482.390000004787","","image-keyboard-response","153","1310880","0.0-4.0-0.38","","img/blue.png","32","trial","32","true","0.8,0.2","1:go_a","",""
"null","","html-keyboard-response","154","1311883","0.0-4.0-1.38","","<img src=""img/blue-r.png"" border=""10"">","null","trial","32","","0.8,0.2","1:go_a","1",""
"null","","html-keyboard-response","155","1312885","0.0-4.0-2.38","","<div style=""font-size:60px;"">+</div>","null","","","","","","",""
"null","","image-keyboard-response","156","1314387","0.0-4.0-0.39","","img/yellow.png","null","trial","null","true","0.2,0.8","2:nogo_b","",""
"null","","html-keyboard-response","157","1315388","0.0-4.0-1.39","","<img src=""img/yellow-r.png"">","null","trial","null","","0.2,0.8","2:nogo_b","1",""
"null","","html-keyboard-response","158","1316390","0.0-4.0-2.39","","<div style=""font-size:60px;"">+</div>","null","","","","","","",""
"null","","image-keyboard-response","159","1317892","0.0-4.0-0.40","","img/yellow.png","null","trial","null","true","0.2,0.8","2:nogo_b","",""
"null","","html-keyboard-response","160","1318894","0.0-4.0-1.40","","<img src=""img/yellow-r.png"">","null","trial","null","","0.2,0.8","2:nogo_b","1",""
"null","","html-keyboard-response","161","1319895","0.0-4.0-2.40","","<div style=""font-size:60px;"">+</div>","null","","","","","","",""
"565.5550000083167","","image-keyboard-response","162","1320461","0.0-4.0-0.41","","img/blue.png","32","trial","32","true","0.8,0.2","1:go_a","",""
"null","","html-keyboard-response","163","1321463","0.0-4.0-1.41","","<img src=""img/blue-r.png"" border=""10"">","null","trial","32","","0.8,0.2","1:go_a","1",""
"null","","html-keyboard-response","164","1322464","0.0-4.0-2.41","","<div style=""font-size:60px;"">+</div>","null","","","","","","",""
"902.7099999948405","","image-keyboard-response","165","1323368","0.0-4.0-0.42","","img/blue.png","32","trial","32","true","0.8,0.2","1:go_a","",""
"null","","html-keyboard-response","166","1324369","0.0-4.0-1.42","","<img src=""img/blue-r.png"" border=""10"">","null","trial","32","","0.8,0.2","1:go_a","1",""
"null","","html-keyboard-response","167","1325371","0.0-4.0-2.42","","<div style=""font-size:60px;"">+</div>","null","","","","","","",""
"null","","image-keyboard-response","168","1326873","0.0-4.0-0.43","","img/yellow.png","null","trial","null","true","0.2,0.8","2:nogo_b","",""
"null","","html-keyboard-response","169","1327875","0.0-4.0-1.43","","<img src=""img/yellow-r.png"">","null","trial","null","","0.2,0.8","2:nogo_b","1",""
"null","","html-keyboard-response","170","1328876","0.0-4.0-2.43","","<div style=""font-size:60px;"">+</div>","null","","","","","","",""
"null","","image-keyboard-response","171","1330378","0.0-4.0-0.44","","img/yellow.png","null","trial","null","true","0.2,0.8","2:nogo_b","",""
"null","","html-keyboard-response","172","1331380","0.0-4.0-1.44","","<img src=""img/yellow-r.png"">","null","trial","null","","0.2,0.8","2:nogo_b","1",""
"null","","html-keyboard-response","173","1332382","0.0-4.0-2.44","","<div style=""font-size:60px;"">+</div>","null","","","","","","",""
"522.5300000018906","","image-keyboard-response","174","1332905","0.0-4.0-0.45","","img/blue.png","32","trial","32","true","0.8,0.2","1:go_a","",""
"null","","html-keyboard-response","175","1333907","0.0-4.0-1.45","","<img src=""img/blue-n.png"" border=""10"">","null","trial","32","","0.8,0.2","1:go_a","0",""
"null","","html-keyboard-response","176","1334908","0.0-4.0-2.45","","<div style=""font-size:60px;"">+</div>","null","","","","","","",""
"679.749999995809","","image-keyboard-response","177","1335588","0.0-4.0-0.46","","img/yellow.png","32","trial","null","false","0.2,0.8","2:nogo_b","",""
"null","","html-keyboard-response","178","1336591","0.0-4.0-1.46","","<img src=""img/yellow-n.png"" border=""10"">","null","trial","null","","0.2,0.8","2:nogo_b","0",""
"null","","html-keyboard-response","179","1337592","0.0-4.0-2.46","","<div style=""font-size:60px;"">+</div>","null","","","","","","",""
"611.0999999945052","","image-keyboard-response","180","1338203","0.0-4.0-0.47","","img/blue.png","32","trial","32","true","0.8,0.2","1:go_a","",""
"null","","html-keyboard-response","181","1339206","0.0-4.0-1.47","","<img src=""img/blue-n.png"" border=""10"">","null","trial","32","","0.8,0.2","1:go_a","0",""
"null","","html-keyboard-response","182","1340207","0.0-4.0-2.47","","<div style=""font-size:60px;"">+</div>","null","","","","","","",""
"661.9700000011362","","image-keyboard-response","183","1340869","0.0-4.0-0.48","","img/yellow.png","32","trial","null","false","0.2,0.8","2:nogo_b","",""
"null","","html-keyboard-response","184","1341871","0.0-4.0-1.48","","<img src=""img/yellow-r.png"" border=""10"">","null","trial","null","","0.2,0.8","2:nogo_b","1",""
"null","","html-keyboard-response","185","1342873","0.0-4.0-2.48","","<div style=""font-size:60px;"">+</div>","null","","","","","","",""
"1153.9899999916088","","image-keyboard-response","186","1344027","0.0-4.0-0.49","","img/blue.png","32","trial","32","true","0.8,0.2","1:go_a","",""
"null","","html-keyboard-response","187","1345028","0.0-4.0-1.49","","<img src=""img/blue-r.png"" border=""10"">","null","trial","32","","0.8,0.2","1:go_a","1",""
"null","","html-keyboard-response","188","1346029","0.0-4.0-2.49","","<div style=""font-size:60px;"">+</div>","null","","","","","","",""
"null","","image-keyboard-response","189","1347531","0.0-4.0-0.50","","img/yellow.png","null","trial","null","true","0.2,0.8","2:nogo_b","",""
"null","","html-keyboard-response","190","1348533","0.0-4.0-1.50","","<img src=""img/yellow-r.png"">","null","trial","null","","0.2,0.8","2:nogo_b","1",""
"null","","html-keyboard-response","191","1349534","0.0-4.0-2.50","","<div style=""font-size:60px;"">+</div>","null","","","","","","",""
"390.9100000017788","","image-keyboard-response","192","1349925","0.0-4.0-0.51","","img/blue.png","32","trial","32","true","0.8,0.2","1:go_a","",""
"null","","html-keyboard-response","193","1350927","0.0-4.0-1.51","","<img src=""img/blue-r.png"" border=""10"">","null","trial","32","","0.8,0.2","1:go_a","1",""
"null","","html-keyboard-response","194","1351928","0.0-4.0-2.51","","<div style=""font-size:60px;"">+</div>","null","","","","","","",""
"528.7250000108033","","image-keyboard-response","195","1352458","0.0-4.0-0.52","","img/blue.png","32","trial","32","true","0.8,0.2","1:go_a","",""
"null","","html-keyboard-response","196","1353458","0.0-4.0-1.52","","<img src=""img/blue-r.png"" border=""10"">","null","trial","32","","0.8,0.2","1:go_a","1",""
"null","","html-keyboard-response","197","1354460","0.0-4.0-2.52","","<div style=""font-size:60px;"">+</div>","null","","","","","","",""
"865.3650000048801","","image-keyboard-response","198","1355326","0.0-4.0-0.53","","img/yellow.png","32","trial","null","false","0.2,0.8","2:nogo_b","",""
"null","","html-keyboard-response","199","1356328","0.0-4.0-1.53","","<img src=""img/yellow-r.png"" border=""10"">","null","trial","null","","0.2,0.8","2:nogo_b","1",""
"null","","html-keyboard-response","200","1357329","0.0-4.0-2.53","","<div style=""font-size:60px;"">+</div>","null","","","","","","",""
"569.9049999965355","","image-keyboard-response","201","1357900","0.0-4.0-0.54","","img/yellow.png","32","trial","null","false","0.2,0.8","2:nogo_b","",""
"null","","html-keyboard-response","202","1358902","0.0-4.0-1.54","","<img src=""img/yellow-n.png"" border=""10"">","null","trial","null","","0.2,0.8","2:nogo_b","0",""
"null","","html-keyboard-response","203","1359903","0.0-4.0-2.54","","<div style=""font-size:60px;"">+</div>","null","","","","","","",""
"368.7400000053458","","image-keyboard-response","204","1360272","0.0-4.0-0.55","","img/blue.png","32","trial","32","true","0.8,0.2","1:go_a","",""
"null","","html-keyboard-response","205","1361274","0.0-4.0-1.55","","<img src=""img/blue-r.png"" border=""10"">","null","trial","32","","0.8,0.2","1:go_a","1",""
"null","","html-keyboard-response","206","1362276","0.0-4.0-2.55","","<div style=""font-size:60px;"">+</div>","null","","","","","","",""
"null","","image-keyboard-response","207","1363778","0.0-4.0-0.56","","img/yellow.png","null","trial","null","true","0.2,0.8","2:nogo_b","",""
"null","","html-keyboard-response","208","1364780","0.0-4.0-1.56","","<img src=""img/yellow-r.png"">","null","trial","null","","0.2,0.8","2:nogo_b","1",""
"null","","html-keyboard-response","209","1365781","0.0-4.0-2.56","","<div style=""font-size:60px;"">+</div>","null","","","","","","",""
"440.0849999948405","","image-keyboard-response","210","1366222","0.0-4.0-0.57","","img/blue.png","32","trial","32","true","0.8,0.2","1:go_a","",""
"null","","html-keyboard-response","211","1367223","0.0-4.0-1.57","","<img src=""img/blue-r.png"" border=""10"">","null","trial","32","","0.8,0.2","1:go_a","1",""
"null","","html-keyboard-response","212","1368225","0.0-4.0-2.57","","<div style=""font-size:60px;"">+</div>","null","","","","","","",""
"null","","image-keyboard-response","213","1369727","0.0-4.0-0.58","","img/blue.png","null","trial","32","false","0.8,0.2","1:go_a","",""
"null","","html-keyboard-response","214","1370729","0.0-4.0-1.58","","<img src=""img/blue-n.png"">","null","trial","32","","0.8,0.2","1:go_a","0",""
"null","","html-keyboard-response","215","1371730","0.0-4.0-2.58","","<div style=""font-size:60px;"">+</div>","null","","","","","","",""
"591.2000000099652","","image-keyboard-response","216","1372322","0.0-4.0-0.59","","img/yellow.png","32","trial","null","false","0.2,0.8","2:nogo_b","",""
"null","","html-keyboard-response","217","1373324","0.0-4.0-1.59","","<img src=""img/yellow-n.png"" border=""10"">","null","trial","null","","0.2,0.8","2:nogo_b","0",""
"null","","html-keyboard-response","218","1374325","0.0-4.0-2.59","","<div style=""font-size:60px;"">+</div>","null","","","","","","",""
"3924.504999988014","","instructions","219","1378250","0.0-5.0","[{""page_index"":0,""viewing_time"":3924.344999992056}]","","","","","","","","",""
"970.2150000084657","","image-keyboard-response","220","1379221","0.0-6.0-0.0","","img/purple.png","32","trial","null","false","0.4,0.6","4:nogo_d","",""
"null","","html-keyboard-response","221","1380223","0.0-6.0-1.0","","<img src=""img/purple-n.png"" border=""10"">","null","trial","null","","0.4,0.6","4:nogo_d","0",""
"null","","html-keyboard-response","222","1381224","0.0-6.0-2.0","","<div style=""font-size:60px;"">+</div>","null","","","","","","",""
"831.9649999903049","","image-keyboard-response","223","1382056","0.0-6.0-0.1","","img/grey.png","32","trial","32","true","0.6,0.4","1:go_a","",""
"null","","html-keyboard-response","224","1383058","0.0-6.0-1.1","","<img src=""img/grey-n.png"" border=""10"">","null","trial","32","","0.6,0.4","1:go_a","0",""
"null","","html-keyboard-response","225","1384059","0.0-6.0-2.1","","<div style=""font-size:60px;"">+</div>","null","","","","","","",""
"744.4700000050943","","image-keyboard-response","226","1384804","0.0-6.0-0.2","","img/blue.png","32","trial","null","false","0.4,0.6","2:nogo_b","",""
"null","","html-keyboard-response","227","1385807","0.0-6.0-1.2","","<img src=""img/blue-n.png"" border=""10"">","null","trial","null","","0.4,0.6","2:nogo_b","0",""
"null","","html-keyboard-response","228","1386808","0.0-6.0-2.2","","<div style=""font-size:60px;"">+</div>","null","","","","","","",""
"419.60500000277534","","image-keyboard-response","229","1387228","0.0-6.0-0.3","","img/yellow.png","32","trial","32","true","0.6,0.4","3:go_c","",""
"null","","html-keyboard-response","230","1388230","0.0-6.0-1.3","","<img src=""img/yellow-n.png"" border=""10"">","null","trial","32","","0.6,0.4","3:go_c","0",""
"null","","html-keyboard-response","231","1389231","0.0-6.0-2.3","","<div style=""font-size:60px;"">+</div>","null","","","","","","",""
"612.3150000057649","","image-keyboard-response","232","1389844","0.0-6.0-0.4","","img/grey.png","32","trial","32","true","0.6,0.4","1:go_a","",""
"null","","html-keyboard-response","233","1390846","0.0-6.0-1.4","","<img src=""img/grey-r.png"" border=""10"">","null","trial","32","","0.6,0.4","1:go_a","1",""
"null","","html-keyboard-response","234","1391847","0.0-6.0-2.4","","<div style=""font-size:60px;"">+</div>","null","","","","","","",""
"511.2499999960419","","image-keyboard-response","235","1392359","0.0-6.0-0.5","","img/yellow.png","32","trial","32","true","0.6,0.4","3:go_c","",""
"null","","html-keyboard-response","236","1393361","0.0-6.0-1.5","","<img src=""img/yellow-r.png"" border=""10"">","null","trial","32","","0.6,0.4","3:go_c","1",""
"null","","html-keyboard-response","237","1394363","0.0-6.0-2.5","","<div style=""font-size:60px;"">+</div>","null","","","","","","",""
"265.0100000030361","","image-keyboard-response","238","1394628","0.0-6.0-0.6","","img/purple.png","32","trial","null","false","0.4,0.6","4:nogo_d","",""
"null","","html-keyboard-response","239","1395629","0.0-6.0-1.6","","<img src=""img/purple-r.png"" border=""10"">","null","trial","null","","0.4,0.6","4:nogo_d","1",""
"null","","html-keyboard-response","240","1396631","0.0-6.0-2.6","","<div style=""font-size:60px;"">+</div>","null","","","","","","",""
"6.350000010570511","","image-keyboard-response","241","1396638","0.0-6.0-0.7","","img/blue.png","32","trial","null","false","0.4,0.6","2:nogo_b","",""
"null","","html-keyboard-response","242","1397641","0.0-6.0-1.7","","<img src=""img/blue-r.png"" border=""10"">","null","trial","null","","0.4,0.6","2:nogo_b","1",""
"null","","html-keyboard-response","243","1398642","0.0-6.0-2.7","","<div style=""font-size:60px;"">+</div>","null","","","","","","",""
"365.53500000433996","","image-keyboard-response","244","1399008","0.0-6.0-0.8","","img/purple.png","32","trial","null","false","0.4,0.6","4:nogo_d","",""
"null","","html-keyboard-response","245","1400011","0.0-6.0-1.8","","<img src=""img/purple-n.png"" border=""10"">","null","trial","null","","0.4,0.6","4:nogo_d","0",""
"null","","html-keyboard-response","246","1401012","0.0-6.0-2.8","","<div style=""font-size:60px;"">+</div>","null","","","","","","",""
"906.8750000004657","","image-keyboard-response","247","1401919","0.0-6.0-0.9","","img/grey.png","32","trial","32","true","0.6,0.4","1:go_a","",""
"null","","html-keyboard-response","248","1402922","0.0-6.0-1.9","","<img src=""img/grey-n.png"" border=""10"">","null","trial","32","","0.6,0.4","1:go_a","0",""
"null","","html-keyboard-response","249","1403923","0.0-6.0-2.9","","<div style=""font-size:60px;"">+</div>","null","","","","","","",""
"490.43499999982305","","image-keyboard-response","250","1404414","0.0-6.0-0.10","","img/yellow.png","32","trial","32","true","0.6,0.4","3:go_c","",""
"null","","html-keyboard-response","251","1405416","0.0-6.0-1.10","","<img src=""img/yellow-r.png"" border=""10"">","null","trial","32","","0.6,0.4","3:go_c","1",""
"null","","html-keyboard-response","252","1406419","0.0-6.0-2.10","","<div style=""font-size:60px;"">+</div>","null","","","","","","",""
"538.225000011269","","image-keyboard-response","253","1406957","0.0-6.0-0.11","","img/blue.png","32","trial","null","false","0.4,0.6","2:nogo_b","",""
"null","","html-keyboard-response","254","1407959","0.0-6.0-1.11","","<img src=""img/blue-r.png"" border=""10"">","null","trial","null","","0.4,0.6","2:nogo_b","1",""
"null","","html-keyboard-response","255","1408961","0.0-6.0-2.11","","<div style=""font-size:60px;"">+</div>","null","","","","","","",""
"244.39999999594875","","image-keyboard-response","256","1409206","0.0-6.0-0.12","","img/yellow.png","32","trial","32","true","0.6,0.4","3:go_c","",""
"null","","html-keyboard-response","257","1410207","0.0-6.0-1.12","","<img src=""img/yellow-r.png"" border=""10"">","null","trial","32","","0.6,0.4","3:go_c","1",""
"null","","html-keyboard-response","258","1411209","0.0-6.0-2.12","","<div style=""font-size:60px;"">+</div>","null","","","","","","",""
"634.7150000073016","","image-keyboard-response","259","1411844","0.0-6.0-0.13","","img/blue.png","32","trial","null","false","0.4,0.6","2:nogo_b","",""
"null","","html-keyboard-response","260","1412846","0.0-6.0-1.13","","<img src=""img/blue-r.png"" border=""10"">","null","trial","null","","0.4,0.6","2:nogo_b","1",""
"null","","html-keyboard-response","261","1413848","0.0-6.0-2.13","","<div style=""font-size:60px;"">+</div>","null","","","","","","",""
"null","","image-keyboard-response","262","1415350","0.0-6.0-0.14","","img/grey.png","null","trial","32","false","0.6,0.4","1:go_a","",""
"null","","html-keyboard-response","263","1416351","0.0-6.0-1.14","","<img src=""img/grey-r.png"">","null","trial","32","","0.6,0.4","1:go_a","1",""
"null","","html-keyboard-response","264","1417352","0.0-6.0-2.14","","<div style=""font-size:60px;"">+</div>","null","","","","","","",""
"369.6899999922607","","image-keyboard-response","265","1417722","0.0-6.0-0.15","","img/purple.png","32","trial","null","false","0.4,0.6","4:nogo_d","",""
"null","","html-keyboard-response","266","1418725","0.0-6.0-1.15","","<img src=""img/purple-n.png"" border=""10"">","null","trial","null","","0.4,0.6","4:nogo_d","0",""
"null","","html-keyboard-response","267","1419726","0.0-6.0-2.15","","<div style=""font-size:60px;"">+</div>","null","","","","","","",""
"492.5050000017509","","image-keyboard-response","268","1420219","0.0-6.0-0.16","","img/blue.png","32","trial","null","false","0.4,0.6","2:nogo_b","",""
"null","","html-keyboard-response","269","1421221","0.0-6.0-1.16","","<img src=""img/blue-n.png"" border=""10"">","null","trial","null","","0.4,0.6","2:nogo_b","0",""
"null","","html-keyboard-response","270","1422222","0.0-6.0-2.16","","<div style=""font-size:60px;"">+</div>","null","","","","","","",""
"805.3599999984726","","image-keyboard-response","271","1423028","0.0-6.0-0.17","","img/purple.png","32","trial","null","false","0.4,0.6","4:nogo_d","",""
"null","","html-keyboard-response","272","1424030","0.0-6.0-1.17","","<img src=""img/purple-n.png"" border=""10"">","null","trial","null","","0.4,0.6","4:nogo_d","0",""
"null","","html-keyboard-response","273","1425031","0.0-6.0-2.17","","<div style=""font-size:60px;"">+</div>","null","","","","","","",""
"null","","image-keyboard-response","274","1426533","0.0-6.0-0.18","","img/yellow.png","null","trial","32","false","0.6,0.4","3:go_c","",""
"null","","html-keyboard-response","275","1427534","0.0-6.0-1.18","","<img src=""img/yellow-r.png"">","null","trial","32","","0.6,0.4","3:go_c","1",""
"null","","html-keyboard-response","276","1428536","0.0-6.0-2.18","","<div style=""font-size:60px;"">+</div>","null","","","","","","",""
"null","","image-keyboard-response","277","1430038","0.0-6.0-0.19","","img/grey.png","null","trial","32","false","0.6,0.4","1:go_a","",""
"null","","html-keyboard-response","278","1431039","0.0-6.0-1.19","","<img src=""img/grey-n.png"">","null","trial","32","","0.6,0.4","1:go_a","0",""
"null","","html-keyboard-response","279","1432040","0.0-6.0-2.19","","<div style=""font-size:60px;"">+</div>","null","","","","","","",""
"null","","image-keyboard-response","280","1433542","0.0-6.0-0.20","","img/yellow.png","null","trial","32","false","0.6,0.4","3:go_c","",""
"null","","html-keyboard-response","281","1434544","0.0-6.0-1.20","","<img src=""img/yellow-r.png"">","null","trial","32","","0.6,0.4","3:go_c","1",""
"null","","html-keyboard-response","282","1435546","0.0-6.0-2.20","","<div style=""font-size:60px;"">+</div>","null","","","","","","",""
"453.1849999912083","","image-keyboard-response","283","1435999","0.0-6.0-0.21","","img/purple.png","32","trial","null","false","0.4,0.6","4:nogo_d","",""
"null","","html-keyboard-response","284","1437001","0.0-6.0-1.21","","<img src=""img/purple-n.png"" border=""10"">","null","trial","null","","0.4,0.6","4:nogo_d","0",""
"null","","html-keyboard-response","285","1438002","0.0-6.0-2.21","","<div style=""font-size:60px;"">+</div>","null","","","","","","",""
"518.5199999979232","","image-keyboard-response","286","1438521","0.0-6.0-0.22","","img/blue.png","32","trial","null","false","0.4,0.6","2:nogo_b","",""
"null","","html-keyboard-response","287","1439523","0.0-6.0-1.22","","<img src=""img/blue-n.png"" border=""10"">","null","trial","null","","0.4,0.6","2:nogo_b","0",""
"null","","html-keyboard-response","288","1440524","0.0-6.0-2.22","","<div style=""font-size:60px;"">+</div>","null","","","","","","",""
"null","","image-keyboard-response","289","1442026","0.0-6.0-0.23","","img/grey.png","null","trial","32","false","0.6,0.4","1:go_a","",""
"null","","html-keyboard-response","290","1443028","0.0-6.0-1.23","","<img src=""img/grey-n.png"">","null","trial","32","","0.6,0.4","1:go_a","0",""
"null","","html-keyboard-response","291","1444030","0.0-6.0-2.23","","<div style=""font-size:60px;"">+</div>","null","","","","","","",""
"90.69499999168329","","image-keyboard-response","292","1444121","0.0-6.0-0.24","","img/grey.png","32","trial","32","true","0.6,0.4","1:go_a","",""
"null","","html-keyboard-response","293","1445123","0.0-6.0-1.24","","<img src=""img/grey-r.png"" border=""10"">","null","trial","32","","0.6,0.4","1:go_a","1",""
"null","","html-keyboard-response","294","1446124","0.0-6.0-2.24","","<div style=""font-size:60px;"">+</div>","null","","","","","","",""
"null","","image-keyboard-response","295","1447625","0.0-6.0-0.25","","img/blue.png","null","trial","null","true","0.4,0.6","2:nogo_b","",""
"null","","html-keyboard-response","296","1448627","0.0-6.0-1.25","","<img src=""img/blue-n.png"">","null","trial","null","","0.4,0.6","2:nogo_b","0",""
"null","","html-keyboard-response","297","1449628","0.0-6.0-2.25","","<div style=""font-size:60px;"">+</div>","null","","","","","","",""
"341.5050000040792","","image-keyboard-response","298","1449970","0.0-6.0-0.26","","img/purple.png","32","trial","null","false","0.4,0.6","4:nogo_d","",""
"null","","html-keyboard-response","299","1450972","0.0-6.0-1.26","","<img src=""img/purple-n.png"" border=""10"">","null","trial","null","","0.4,0.6","4:nogo_d","0",""
"null","","html-keyboard-response","300","1451973","0.0-6.0-2.26","","<div style=""font-size:60px;"">+</div>","null","","","","","","",""
"578.0499999963213","","image-keyboard-response","301","1452551","0.0-6.0-0.27","","img/yellow.png","32","trial","32","true","0.6,0.4","3:go_c","",""
"null","","html-keyboard-response","302","1453554","0.0-6.0-1.27","","<img src=""img/yellow-n.png"" border=""10"">","null","trial","32","","0.6,0.4","3:go_c","0",""
"null","","html-keyboard-response","303","1454555","0.0-6.0-2.27","","<div style=""font-size:60px;"">+</div>","null","","","","","","",""
"null","","image-keyboard-response","304","1456057","0.0-6.0-0.28","","img/blue.png","null","trial","null","true","0.4,0.6","2:nogo_b","",""
"null","","html-keyboard-response","305","1457059","0.0-6.0-1.28","","<img src=""img/blue-r.png"">","null","trial","null","","0.4,0.6","2:nogo_b","1",""
"null","","html-keyboard-response","306","1458060","0.0-6.0-2.28","","<div style=""font-size:60px;"">+</div>","null","","","","","","",""
"null","","image-keyboard-response","307","1459562","0.0-6.0-0.29","","img/purple.png","null","trial","null","true","0.4,0.6","4:nogo_d","",""
"null","","html-keyboard-response","308","1460564","0.0-6.0-1.29","","<img src=""img/purple-r.png"">","null","trial","null","","0.4,0.6","4:nogo_d","1",""
"null","","html-keyboard-response","309","1461565","0.0-6.0-2.29","","<div style=""font-size:60px;"">+</div>","null","","","","","","",""
"899.5049999940675","","image-keyboard-response","310","1462465","0.0-6.0-0.30","","img/grey.png","32","trial","32","true","0.6,0.4","1:go_a","",""
"null","","html-keyboard-response","311","1463467","0.0-6.0-1.30","","<img src=""img/grey-n.png"" border=""10"">","null","trial","32","","0.6,0.4","1:go_a","0",""
"null","","html-keyboard-response","312","1464468","0.0-6.0-2.30","","<div style=""font-size:60px;"">+</div>","null","","","","","","",""
"671.5899999979883","","image-keyboard-response","313","1465141","0.0-6.0-0.31","","img/yellow.png","32","trial","32","true","0.6,0.4","3:go_c","",""
"null","","html-keyboard-response","314","1466143","0.0-6.0-1.31","","<img src=""img/yellow-n.png"" border=""10"">","null","trial","32","","0.6,0.4","3:go_c","0",""
"null","","html-keyboard-response","315","1467144","0.0-6.0-2.31","","<div style=""font-size:60px;"">+</div>","null","","","","","","",""
"1476.5800000024028","","image-keyboard-response","316","1468621","0.0-6.0-0.32","","img/purple.png","32","trial","null","false","0.4,0.6","4:nogo_d","",""
"null","","html-keyboard-response","317","1469623","0.0-6.0-1.32","","<img src=""img/purple-n.png"" border=""10"">","null","trial","null","","0.4,0.6","4:nogo_d","0",""
"null","","html-keyboard-response","318","1470624","0.0-6.0-2.32","","<div style=""font-size:60px;"">+</div>","null","","","","","","",""
"null","","image-keyboard-response","319","1472126","0.0-6.0-0.33","","img/grey.png","null","trial","32","false","0.6,0.4","1:go_a","",""
"null","","html-keyboard-response","320","1473128","0.0-6.0-1.33","","<img src=""img/grey-r.png"">","null","trial","32","","0.6,0.4","1:go_a","1",""
"null","","html-keyboard-response","321","1474130","0.0-6.0-2.33","","<div style=""font-size:60px;"">+</div>","null","","","","","","",""
"470.0400000002701","","image-keyboard-response","322","1474600","0.0-6.0-0.34","","img/yellow.png","32","trial","32","true","0.6,0.4","3:go_c","",""
"null","","html-keyboard-response","323","1475602","0.0-6.0-1.34","","<img src=""img/yellow-r.png"" border=""10"">","null","trial","32","","0.6,0.4","3:go_c","1",""
"null","","html-keyboard-response","324","1476603","0.0-6.0-2.34","","<div style=""font-size:60px;"">+</div>","null","","","","","","",""
"937.7900000107475","","image-keyboard-response","325","1477541","0.0-6.0-0.35","","img/blue.png","32","trial","null","false","0.4,0.6","2:nogo_b","",""
"null","","html-keyboard-response","326","1478543","0.0-6.0-1.35","","<img src=""img/blue-r.png"" border=""10"">","null","trial","null","","0.4,0.6","2:nogo_b","1",""
"null","","html-keyboard-response","327","1479545","0.0-6.0-2.35","","<div style=""font-size:60px;"">+</div>","null","","","","","","",""
"null","","image-keyboard-response","328","1481047","0.0-6.0-0.36","","img/yellow.png","null","trial","32","false","0.6,0.4","3:go_c","",""
"null","","html-keyboard-response","329","1482048","0.0-6.0-1.36","","<img src=""img/yellow-n.png"">","null","trial","32","","0.6,0.4","3:go_c","0",""
"null","","html-keyboard-response","330","1483049","0.0-6.0-2.36","","<div style=""font-size:60px;"">+</div>","null","","","","","","",""
"null","","image-keyboard-response","331","1484551","0.0-6.0-0.37","","img/grey.png","null","trial","32","false","0.6,0.4","1:go_a","",""
"null","","html-keyboard-response","332","1485553","0.0-6.0-1.37","","<img src=""img/grey-n.png"">","null","trial","32","","0.6,0.4","1:go_a","0",""
"null","","html-keyboard-response","333","1486554","0.0-6.0-2.37","","<div style=""font-size:60px;"">+</div>","null","","","","","","",""
"null","","image-keyboard-response","334","1488056","0.0-6.0-0.38","","img/blue.png","null","trial","null","true","0.4,0.6","2:nogo_b","",""
"null","","html-keyboard-response","335","1489057","0.0-6.0-1.38","","<img src=""img/blue-r.png"">","null","trial","null","","0.4,0.6","2:nogo_b","1",""
"null","","html-keyboard-response","336","1490059","0.0-6.0-2.38","","<div style=""font-size:60px;"">+</div>","null","","","","","","",""
"1376.615000000922","","image-keyboard-response","337","1491436","0.0-6.0-0.39","","img/purple.png","32","trial","null","false","0.4,0.6","4:nogo_d","",""
"null","","html-keyboard-response","338","1492438","0.0-6.0-1.39","","<img src=""img/purple-n.png"" border=""10"">","null","trial","null","","0.4,0.6","4:nogo_d","0",""
"null","","html-keyboard-response","339","1493440","0.0-6.0-2.39","","<div style=""font-size:60px;"">+</div>","null","","","","","","",""
"533.2999999956228","","image-keyboard-response","340","1493973","0.0-6.0-0.40","","img/blue.png","32","trial","null","false","0.4,0.6","2:nogo_b","",""
"null","","html-keyboard-response","341","1494975","0.0-6.0-1.40","","<img src=""img/blue-r.png"" border=""10"">","null","trial","null","","0.4,0.6","2:nogo_b","1",""
"null","","html-keyboard-response","342","1495977","0.0-6.0-2.40","","<div style=""font-size:60px;"">+</div>","null","","","","","","",""
"null","","image-keyboard-response","343","1497480","0.0-6.0-0.41","","img/purple.png","null","trial","null","true","0.4,0.6","4:nogo_d","",""
"null","","html-keyboard-response","344","1498482","0.0-6.0-1.41","","<img src=""img/purple-r.png"">","null","trial","null","","0.4,0.6","4:nogo_d","1",""
"null","","html-keyboard-response","345","1499483","0.0-6.0-2.41","","<div style=""font-size:60px;"">+</div>","null","","","","","","",""
"null","","image-keyboard-response","346","1500985","0.0-6.0-0.42","","img/grey.png","null","trial","32","false","0.6,0.4","1:go_a","",""
"null","","html-keyboard-response","347","1501987","0.0-6.0-1.42","","<img src=""img/grey-r.png"">","null","trial","32","","0.6,0.4","1:go_a","1",""
"null","","html-keyboard-response","348","1502988","0.0-6.0-2.42","","<div style=""font-size:60px;"">+</div>","null","","","","","","",""
"null","","image-keyboard-response","349","1504490","0.0-6.0-0.43","","img/yellow.png","null","trial","32","false","0.6,0.4","3:go_c","",""
"null","","html-keyboard-response","350","1505491","0.0-6.0-1.43","","<img src=""img/yellow-n.png"">","null","trial","32","","0.6,0.4","3:go_c","0",""
"null","","html-keyboard-response","351","1506493","0.0-6.0-2.43","","<div style=""font-size:60px;"">+</div>","null","","","","","","",""
"null","","image-keyboard-response","352","1507995","0.0-6.0-0.44","","img/grey.png","null","trial","32","false","0.6,0.4","1:go_a","",""
"null","","html-keyboard-response","353","1508997","0.0-6.0-1.44","","<img src=""img/grey-r.png"">","null","trial","32","","0.6,0.4","1:go_a","1",""
"null","","html-keyboard-response","354","1509998","0.0-6.0-2.44","","<div style=""font-size:60px;"">+</div>","null","","","","","","",""
"485.4900000062771","","image-keyboard-response","355","1510484","0.0-6.0-0.45","","img/blue.png","32","trial","null","false","0.4,0.6","2:nogo_b","",""
"null","","html-keyboard-response","356","1511486","0.0-6.0-1.45","","<img src=""img/blue-n.png"" border=""10"">","null","trial","null","","0.4,0.6","2:nogo_b","0",""
"null","","html-keyboard-response","357","1512488","0.0-6.0-2.45","","<div style=""font-size:60px;"">+</div>","null","","","","","","",""
"null","","image-keyboard-response","358","1513990","0.0-6.0-0.46","","img/yellow.png","null","trial","32","false","0.6,0.4","3:go_c","",""
"null","","html-keyboard-response","359","1514991","0.0-6.0-1.46","","<img src=""img/yellow-n.png"">","null","trial","32","","0.6,0.4","3:go_c","0",""
"null","","html-keyboard-response","360","1515993","0.0-6.0-2.46","","<div style=""font-size:60px;"">+</div>","null","","","","","","",""
"638.4600000020582","","image-keyboard-response","361","1516632","0.0-6.0-0.47","","img/purple.png","32","trial","null","false","0.4,0.6","4:nogo_d","",""
"null","","html-keyboard-response","362","1517634","0.0-6.0-1.47","","<img src=""img/purple-n.png"" border=""10"">","null","trial","null","","0.4,0.6","4:nogo_d","0",""
"null","","html-keyboard-response","363","1518635","0.0-6.0-2.47","","<div style=""font-size:60px;"">+</div>","null","","","","","","",""
"null","","image-keyboard-response","364","1520137","0.0-6.0-0.48","","img/yellow.png","null","trial","32","false","0.6,0.4","3:go_c","",""
"null","","html-keyboard-response","365","1521138","0.0-6.0-1.48","","<img src=""img/yellow-n.png"">","null","trial","32","","0.6,0.4","3:go_c","0",""
"null","","html-keyboard-response","366","1522140","0.0-6.0-2.48","","<div style=""font-size:60px;"">+</div>","null","","","","","","",""
"null","","image-keyboard-response","367","1523641","0.0-6.0-0.49","","img/blue.png","null","trial","null","true","0.4,0.6","2:nogo_b","",""
"null","","html-keyboard-response","368","1524642","0.0-6.0-1.49","","<img src=""img/blue-r.png"">","null","trial","null","","0.4,0.6","2:nogo_b","1",""
"null","","html-keyboard-response","369","1525643","0.0-6.0-2.49","","<div style=""font-size:60px;"">+</div>","null","","","","","","",""
"null","","image-keyboard-response","370","1527145","0.0-6.0-0.50","","img/purple.png","null","trial","null","true","0.4,0.6","4:nogo_d","",""
"null","","html-keyboard-response","371","1528147","0.0-6.0-1.50","","<img src=""img/purple-n.png"">","null","trial","null","","0.4,0.6","4:nogo_d","0",""
"null","","html-keyboard-response","372","1529148","0.0-6.0-2.50","","<div style=""font-size:60px;"">+</div>","null","","","","","","",""
"null","","image-keyboard-response","373","1530649","0.0-6.0-0.51","","img/grey.png","null","trial","32","false","0.6,0.4","1:go_a","",""
"null","","html-keyboard-response","374","1531651","0.0-6.0-1.51","","<img src=""img/grey-n.png"">","null","trial","32","","0.6,0.4","1:go_a","0",""
"null","","html-keyboard-response","375","1532653","0.0-6.0-2.51","","<div style=""font-size:60px;"">+</div>","null","","","","","","",""
"null","","image-keyboard-response","376","1534155","0.0-6.0-0.52","","img/yellow.png","null","trial","32","false","0.6,0.4","3:go_c","",""
"null","","html-keyboard-response","377","1535156","0.0-6.0-1.52","","<img src=""img/yellow-n.png"">","null","trial","32","","0.6,0.4","3:go_c","0",""
"null","","html-keyboard-response","378","1536157","0.0-6.0-2.52","","<div style=""font-size:60px;"">+</div>","null","","","","","","",""
"null","","image-keyboard-response","379","1537659","0.0-6.0-0.53","","img/purple.png","null","trial","null","true","0.4,0.6","4:nogo_d","",""
"null","","html-keyboard-response","380","1538662","0.0-6.0-1.53","","<img src=""img/purple-r.png"">","null","trial","null","","0.4,0.6","4:nogo_d","1",""
"null","","html-keyboard-response","381","1539663","0.0-6.0-2.53","","<div style=""font-size:60px;"">+</div>","null","","","","","","",""
"null","","image-keyboard-response","382","1541164","0.0-6.0-0.54","","img/blue.png","null","trial","null","true","0.4,0.6","2:nogo_b","",""
"null","","html-keyboard-response","383","1542166","0.0-6.0-1.54","","<img src=""img/blue-n.png"">","null","trial","null","","0.4,0.6","2:nogo_b","0",""
"null","","html-keyboard-response","384","1543168","0.0-6.0-2.54","","<div style=""font-size:60px;"">+</div>","null","","","","","","",""
"null","","image-keyboard-response","385","1544669","0.0-6.0-0.55","","img/grey.png","null","trial","32","false","0.6,0.4","1:go_a","",""
"null","","html-keyboard-response","386","1545672","0.0-6.0-1.55","","<img src=""img/grey-n.png"">","null","trial","32","","0.6,0.4","1:go_a","0",""
"null","","html-keyboard-response","387","1546673","0.0-6.0-2.55","","<div style=""font-size:60px;"">+</div>","null","","","","","","",""
"429.6699999975972","","image-keyboard-response","388","1547103","0.0-6.0-0.56","","img/grey.png","32","trial","32","true","0.6,0.4","1:go_a","",""
"null","","html-keyboard-response","389","1548105","0.0-6.0-1.56","","<img src=""img/grey-n.png"" border=""10"">","null","trial","32","","0.6,0.4","1:go_a","0",""
"null","","html-keyboard-response","390","1549107","0.0-6.0-2.56","","<div style=""font-size:60px;"">+</div>","null","","","","","","",""
"null","","image-keyboard-response","391","1550610","0.0-6.0-0.57","","img/yellow.png","null","trial","32","false","0.6,0.4","3:go_c","",""
"null","","html-keyboard-response","392","1551611","0.0-6.0-1.57","","<img src=""img/yellow-r.png"">","null","trial","32","","0.6,0.4","3:go_c","1",""
"null","","html-keyboard-response","393","1552612","0.0-6.0-2.57","","<div style=""font-size:60px;"">+</div>","null","","","","","","",""
"null","","image-keyboard-response","394","1554114","0.0-6.0-0.58","","img/purple.png","null","trial","null","true","0.4,0.6","4:nogo_d","",""
"null","","html-keyboard-response","395","1555117","0.0-6.0-1.58","","<img src=""img/purple-r.png"">","null","trial","null","","0.4,0.6","4:nogo_d","1",""
"null","","html-keyboard-response","396","1556118","0.0-6.0-2.58","","<div style=""font-size:60px;"">+</div>","null","","","","","","",""
"null","","image-keyboard-response","397","1557620","0.0-6.0-0.59","","img/blue.png","null","trial","null","true","0.4,0.6","2:nogo_b","",""
"null","","html-keyboard-response","398","1558621","0.0-6.0-1.59","","<img src=""img/blue-r.png"">","null","trial","null","","0.4,0.6","2:nogo_b","1",""
"null","","html-keyboard-response","399","1559623","0.0-6.0-2.59","","<div style=""font-size:60px;"">+</div>","null","","","","","","",""
"null","","image-keyboard-response","400","1561124","0.0-6.0-0.60","","img/blue.png","null","trial","null","true","0.4,0.6","2:nogo_b","",""
"null","","html-keyboard-response","401","1562126","0.0-6.0-1.60","","<img src=""img/blue-r.png"">","null","trial","null","","0.4,0.6","2:nogo_b","1",""
"null","","html-keyboard-response","402","1563127","0.0-6.0-2.60","","<div style=""font-size:60px;"">+</div>","null","","","","","","",""
"null","","image-keyboard-response","403","1564628","0.0-6.0-0.61","","img/yellow.png","null","trial","32","false","0.6,0.4","3:go_c","",""
"null","","html-keyboard-response","404","1565629","0.0-6.0-1.61","","<img src=""img/yellow-r.png"">","null","trial","32","","0.6,0.4","3:go_c","1",""
"null","","html-keyboard-response","405","1566631","0.0-6.0-2.61","","<div style=""font-size:60px;"">+</div>","null","","","","","","",""
"null","","image-keyboard-response","406","1568133","0.0-6.0-0.62","","img/purple.png","null","trial","null","true","0.4,0.6","4:nogo_d","",""
"null","","html-keyboard-response","407","1569134","0.0-6.0-1.62","","<img src=""img/purple-n.png"">","null","trial","null","","0.4,0.6","4:nogo_d","0",""
"null","","html-keyboard-response","408","1570135","0.0-6.0-2.62","","<div style=""font-size:60px;"">+</div>","null","","","","","","",""
"333.2900000095833","","image-keyboard-response","409","1570469","0.0-6.0-0.63","","img/grey.png","32","trial","32","true","0.6,0.4","1:go_a","",""
"null","","html-keyboard-response","410","1571471","0.0-6.0-1.63","","<img src=""img/grey-r.png"" border=""10"">","null","trial","32","","0.6,0.4","1:go_a","1",""
"null","","html-keyboard-response","411","1572472","0.0-6.0-2.63","","<div style=""font-size:60px;"">+</div>","null","","","","","","",""
"null","","image-keyboard-response","412","1573974","0.0-6.0-0.64","","img/grey.png","null","trial","32","false","0.6,0.4","1:go_a","",""
"null","","html-keyboard-response","413","1574976","0.0-6.0-1.64","","<img src=""img/grey-n.png"">","null","trial","32","","0.6,0.4","1:go_a","0",""
"null","","html-keyboard-response","414","1575978","0.0-6.0-2.64","","<div style=""font-size:60px;"">+</div>","null","","","","","","",""
"null","","image-keyboard-response","415","1577480","0.0-6.0-0.65","","img/purple.png","null","trial","null","true","0.4,0.6","4:nogo_d","",""
"null","","html-keyboard-response","416","1578482","0.0-6.0-1.65","","<img src=""img/purple-r.png"">","null","trial","null","","0.4,0.6","4:nogo_d","1",""
"null","","html-keyboard-response","417","1579483","0.0-6.0-2.65","","<div style=""font-size:60px;"">+</div>","null","","","","","","",""
"null","","image-keyboard-response","418","1580984","0.0-6.0-0.66","","img/yellow.png","null","trial","32","false","0.6,0.4","3:go_c","",""
"null","","html-keyboard-response","419","1581987","0.0-6.0-1.66","","<img src=""img/yellow-n.png"">","null","trial","32","","0.6,0.4","3:go_c","0",""
"null","","html-keyboard-response","420","1582988","0.0-6.0-2.66","","<div style=""font-size:60px;"">+</div>","null","","","","","","",""
"null","","image-keyboard-response","421","1584490","0.0-6.0-0.67","","img/blue.png","null","trial","null","true","0.4,0.6","2:nogo_b","",""
"null","","html-keyboard-response","422","1585492","0.0-6.0-1.67","","<img src=""img/blue-n.png"">","null","trial","null","","0.4,0.6","2:nogo_b","0",""
"null","","html-keyboard-response","423","1586494","0.0-6.0-2.67","","<div style=""font-size:60px;"">+</div>","null","","","","","","",""
"null","","image-keyboard-response","424","1587995","0.0-6.0-0.68","","img/yellow.png","null","trial","32","false","0.6,0.4","3:go_c","",""
"null","","html-keyboard-response","425","1588997","0.0-6.0-1.68","","<img src=""img/yellow-r.png"">","null","trial","32","","0.6,0.4","3:go_c","1",""
"null","","html-keyboard-response","426","1589998","0.0-6.0-2.68","","<div style=""font-size:60px;"">+</div>","null","","","","","","",""
"null","","image-keyboard-response","427","1591500","0.0-6.0-0.69","","img/grey.png","null","trial","32","false","0.6,0.4","1:go_a","",""
"null","","html-keyboard-response","428","1592502","0.0-6.0-1.69","","<img src=""img/grey-r.png"">","null","trial","32","","0.6,0.4","1:go_a","1",""
"null","","html-keyboard-response","429","1593503","0.0-6.0-2.69","","<div style=""font-size:60px;"">+</div>","null","","","","","","",""
"null","","image-keyboard-response","430","1595005","0.0-6.0-0.70","","img/purple.png","null","trial","null","true","0.4,0.6","4:nogo_d","",""
"null","","html-keyboard-response","431","1596006","0.0-6.0-1.70","","<img src=""img/purple-r.png"">","null","trial","null","","0.4,0.6","4:nogo_d","1",""
"null","","html-keyboard-response","432","1597008","0.0-6.0-2.70","","<div style=""font-size:60px;"">+</div>","null","","","","","","",""
"592.2350000035949","","image-keyboard-response","433","1597600","0.0-6.0-0.71","","img/blue.png","32","trial","null","false","0.4,0.6","2:nogo_b","",""
"null","","html-keyboard-response","434","1598602","0.0-6.0-1.71","","<img src=""img/blue-n.png"" border=""10"">","null","trial","null","","0.4,0.6","2:nogo_b","0",""
"null","","html-keyboard-response","435","1599604","0.0-6.0-2.71","","<div style=""font-size:60px;"">+</div>","null","","","","","","",""
"null","","image-keyboard-response","436","1601105","0.0-6.0-0.72","","img/yellow.png","null","trial","32","false","0.6,0.4","3:go_c","",""
"null","","html-keyboard-response","437","1602107","0.0-6.0-1.72","","<img src=""img/yellow-n.png"">","null","trial","32","","0.6,0.4","3:go_c","0",""
"null","","html-keyboard-response","438","1603108","0.0-6.0-2.72","","<div style=""font-size:60px;"">+</div>","null","","","","","","",""
"null","","image-keyboard-response","439","1604610","0.0-6.0-0.73","","img/blue.png","null","trial","null","true","0.4,0.6","2:nogo_b","",""
"null","","html-keyboard-response","440","1605612","0.0-6.0-1.73","","<img src=""img/blue-n.png"">","null","trial","null","","0.4,0.6","2:nogo_b","0",""
"null","","html-keyboard-response","441","1606613","0.0-6.0-2.73","","<div style=""font-size:60px;"">+</div>","null","","","","","","",""
"null","","image-keyboard-response","442","1608115","0.0-6.0-0.74","","img/purple.png","null","trial","null","true","0.4,0.6","4:nogo_d","",""
"null","","html-keyboard-response","443","1609117","0.0-6.0-1.74","","<img src=""img/purple-r.png"">","null","trial","null","","0.4,0.6","4:nogo_d","1",""
"null","","html-keyboard-response","444","1610118","0.0-6.0-2.74","","<div style=""font-size:60px;"">+</div>","null","","","","","","",""
"null","","image-keyboard-response","445","1611620","0.0-6.0-0.75","","img/grey.png","null","trial","32","false","0.6,0.4","1:go_a","",""
"null","","html-keyboard-response","446","1612622","0.0-6.0-1.75","","<img src=""img/grey-r.png"">","null","trial","32","","0.6,0.4","1:go_a","1",""
"null","","html-keyboard-response","447","1613623","0.0-6.0-2.75","","<div style=""font-size:60px;"">+</div>","null","","","","","","",""
"997.5149999954738","","image-keyboard-response","448","1614621","0.0-6.0-0.76","","img/yellow.png","32","trial","32","true","0.6,0.4","3:go_c","",""
"null","","html-keyboard-response","449","1615623","0.0-6.0-1.76","","<img src=""img/yellow-r.png"" border=""10"">","null","trial","32","","0.6,0.4","3:go_c","1",""
"null","","html-keyboard-response","450","1616624","0.0-6.0-2.76","","<div style=""font-size:60px;"">+</div>","null","","","","","","",""
"null","","image-keyboard-response","451","1618126","0.0-6.0-0.77","","img/blue.png","null","trial","null","true","0.4,0.6","2:nogo_b","",""
"null","","html-keyboard-response","452","1619128","0.0-6.0-1.77","","<img src=""img/blue-r.png"">","null","trial","null","","0.4,0.6","2:nogo_b","1",""
"null","","html-keyboard-response","453","1620130","0.0-6.0-2.77","","<div style=""font-size:60px;"">+</div>","null","","","","","","",""
"794.82500000461","","image-keyboard-response","454","1620925","0.0-6.0-0.78","","img/purple.png","32","trial","null","false","0.4,0.6","4:nogo_d","",""
"null","","html-keyboard-response","455","1621927","0.0-6.0-1.78","","<img src=""img/purple-r.png"" border=""10"">","null","trial","null","","0.4,0.6","4:nogo_d","1",""
"null","","html-keyboard-response","456","1622928","0.0-6.0-2.78","","<div style=""font-size:60px;"">+</div>","null","","","","","","",""
"null","","image-keyboard-response","457","1624430","0.0-6.0-0.79","","img/grey.png","null","trial","32","false","0.6,0.4","1:go_a","",""
"null","","html-keyboard-response","458","1625432","0.0-6.0-1.79","","<img src=""img/grey-n.png"">","null","trial","32","","0.6,0.4","1:go_a","0",""
"null","","html-keyboard-response","459","1626434","0.0-6.0-2.79","","<div style=""font-size:60px;"">+</div>","null","","","","","","",""
"null","","image-keyboard-response","460","1627936","0.0-6.0-0.80","","img/blue.png","null","trial","null","true","0.4,0.6","2:nogo_b","",""
"null","","html-keyboard-response","461","1628938","0.0-6.0-1.80","","<img src=""img/blue-n.png"">","null","trial","null","","0.4,0.6","2:nogo_b","0",""
"null","","html-keyboard-response","462","1629939","0.0-6.0-2.80","","<div style=""font-size:60px;"">+</div>","null","","","","","","",""
"null","","image-keyboard-response","463","1631440","0.0-6.0-0.81","","img/grey.png","null","trial","32","false","0.6,0.4","1:go_a","",""
"null","","html-keyboard-response","464","1632443","0.0-6.0-1.81","","<img src=""img/grey-n.png"">","null","trial","32","","0.6,0.4","1:go_a","0",""
"null","","html-keyboard-response","465","1633444","0.0-6.0-2.81","","<div style=""font-size:60px;"">+</div>","null","","","","","","",""
"400.15500001003966","","image-keyboard-response","466","1633845","0.0-6.0-0.82","","img/yellow.png","32","trial","32","true","0.6,0.4","3:go_c","",""
"null","","html-keyboard-response","467","1634846","0.0-6.0-1.82","","<img src=""img/yellow-r.png"" border=""10"">","null","trial","32","","0.6,0.4","3:go_c","1",""
"null","","html-keyboard-response","468","1635848","0.0-6.0-2.82","","<div style=""font-size:60px;"">+</div>","null","","","","","","",""
"null","","image-keyboard-response","469","1637349","0.0-6.0-0.83","","img/purple.png","null","trial","null","true","0.4,0.6","4:nogo_d","",""
"null","","html-keyboard-response","470","1638351","0.0-6.0-1.83","","<img src=""img/purple-n.png"">","null","trial","null","","0.4,0.6","4:nogo_d","0",""
"null","","html-keyboard-response","471","1639353","0.0-6.0-2.83","","<div style=""font-size:60px;"">+</div>","null","","","","","","",""
"null","","image-keyboard-response","472","1640855","0.0-6.0-0.84","","img/purple.png","null","trial","null","true","0.4,0.6","4:nogo_d","",""
"null","","html-keyboard-response","473","1641857","0.0-6.0-1.84","","<img src=""img/purple-n.png"">","null","trial","null","","0.4,0.6","4:nogo_d","0",""
"null","","html-keyboard-response","474","1642859","0.0-6.0-2.84","","<div style=""font-size:60px;"">+</div>","null","","","","","","",""
"null","","image-keyboard-response","475","1644361","0.0-6.0-0.85","","img/blue.png","null","trial","null","true","0.4,0.6","2:nogo_b","",""
"null","","html-keyboard-response","476","1645362","0.0-6.0-1.85","","<img src=""img/blue-n.png"">","null","trial","null","","0.4,0.6","2:nogo_b","0",""
"null","","html-keyboard-response","477","1646363","0.0-6.0-2.85","","<div style=""font-size:60px;"">+</div>","null","","","","","","",""
"1214.9849999987055","","image-keyboard-response","478","1647579","0.0-6.0-0.86","","img/grey.png","32","trial","32","true","0.6,0.4","1:go_a","",""
"null","","html-keyboard-response","479","1648580","0.0-6.0-1.86","","<img src=""img/grey-n.png"" border=""10"">","null","trial","32","","0.6,0.4","1:go_a","0",""
"null","","html-keyboard-response","480","1649582","0.0-6.0-2.86","","<div style=""font-size:60px;"">+</div>","null","","","","","","",""
"null","","image-keyboard-response","481","1651084","0.0-6.0-0.87","","img/yellow.png","null","trial","32","false","0.6,0.4","3:go_c","",""
"null","","html-keyboard-response","482","1652086","0.0-6.0-1.87","","<img src=""img/yellow-n.png"">","null","trial","32","","0.6,0.4","3:go_c","0",""
"null","","html-keyboard-response","483","1653087","0.0-6.0-2.87","","<div style=""font-size:60px;"">+</div>","null","","","","","","",""
"null","","image-keyboard-response","484","1654589","0.0-6.0-0.88","","img/grey.png","null","trial","32","false","0.6,0.4","1:go_a","",""
"null","","html-keyboard-response","485","1655591","0.0-6.0-1.88","","<img src=""img/grey-r.png"">","null","trial","32","","0.6,0.4","1:go_a","1",""
"null","","html-keyboard-response","486","1656592","0.0-6.0-2.88","","<div style=""font-size:60px;"">+</div>","null","","","","","","",""
"836.5599999963306","","image-keyboard-response","487","1657429","0.0-6.0-0.89","","img/purple.png","32","trial","null","false","0.4,0.6","4:nogo_d","",""
"null","","html-keyboard-response","488","1658431","0.0-6.0-1.89","","<img src=""img/purple-r.png"" border=""10"">","null","trial","null","","0.4,0.6","4:nogo_d","1",""
"null","","html-keyboard-response","489","1659432","0.0-6.0-2.89","","<div style=""font-size:60px;"">+</div>","null","","","","","","",""
"null","","image-keyboard-response","490","1660934","0.0-6.0-0.90","","img/blue.png","null","trial","null","true","0.4,0.6","2:nogo_b","",""
"null","","html-keyboard-response","491","1661937","0.0-6.0-1.90","","<img src=""img/blue-r.png"">","null","trial","null","","0.4,0.6","2:nogo_b","1",""
"null","","html-keyboard-response","492","1662938","0.0-6.0-2.90","","<div style=""font-size:60px;"">+</div>","null","","","","","","",""
"1252.2449999959208","","image-keyboard-response","493","1664191","0.0-6.0-0.91","","img/yellow.png","32","trial","32","true","0.6,0.4","3:go_c","",""
"null","","html-keyboard-response","494","1665192","0.0-6.0-1.91","","<img src=""img/yellow-n.png"" border=""10"">","null","trial","32","","0.6,0.4","3:go_c","0",""
"null","","html-keyboard-response","495","1666193","0.0-6.0-2.91","","<div style=""font-size:60px;"">+</div>","null","","","","","","",""
"null","","image-keyboard-response","496","1667695","0.0-6.0-0.92","","img/purple.png","null","trial","null","true","0.4,0.6","4:nogo_d","",""
"null","","html-keyboard-response","497","1668698","0.0-6.0-1.92","","<img src=""img/purple-n.png"">","null","trial","null","","0.4,0.6","4:nogo_d","0",""
"null","","html-keyboard-response","498","1669699","0.0-6.0-2.92","","<div style=""font-size:60px;"">+</div>","null","","","","","","",""
"604.6750000095926","","image-keyboard-response","499","1670304","0.0-6.0-0.93","","img/blue.png","32","trial","null","false","0.4,0.6","2:nogo_b","",""
"null","","html-keyboard-response","500","1671307","0.0-6.0-1.93","","<img src=""img/blue-r.png"" border=""10"">","null","trial","null","","0.4,0.6","2:nogo_b","1",""
"null","","html-keyboard-response","501","1672308","0.0-6.0-2.93","","<div style=""font-size:60px;"">+</div>","null","","","","","","",""
"null","","image-keyboard-response","502","1673810","0.0-6.0-0.94","","img/yellow.png","null","trial","32","false","0.6,0.4","3:go_c","",""
"null","","html-keyboard-response","503","1674811","0.0-6.0-1.94","","<img src=""img/yellow-n.png"">","null","trial","32","","0.6,0.4","3:go_c","0",""
"null","","html-keyboard-response","504","1675813","0.0-6.0-2.94","","<div style=""font-size:60px;"">+</div>","null","","","","","","",""
"null","","image-keyboard-response","505","1677315","0.0-6.0-0.95","","img/grey.png","null","trial","32","false","0.6,0.4","1:go_a","",""
"null","","html-keyboard-response","506","1678317","0.0-6.0-1.95","","<img src=""img/grey-r.png"">","null","trial","32","","0.6,0.4","1:go_a","1",""
"null","","html-keyboard-response","507","1679318","0.0-6.0-2.95","","<div style=""font-size:60px;"">+</div>","null","","","","","","",""
"395.21499999659136","","image-keyboard-response","508","1679714","0.0-6.0-0.96","","img/yellow.png","32","trial","32","true","0.6,0.4","3:go_c","",""
"null","","html-keyboard-response","509","1680715","0.0-6.0-1.96","","<img src=""img/yellow-n.png"" border=""10"">","null","trial","32","","0.6,0.4","3:go_c","0",""
"null","","html-keyboard-response","510","1681717","0.0-6.0-2.96","","<div style=""font-size:60px;"">+</div>","null","","","","","","",""
"null","","image-keyboard-response","511","1683218","0.0-6.0-0.97","","img/grey.png","null","trial","32","false","0.6,0.4","1:go_a","",""
"null","","html-keyboard-response","512","1684219","0.0-6.0-1.97","","<img src=""img/grey-r.png"">","null","trial","32","","0.6,0.4","1:go_a","1",""
"null","","html-keyboard-response","513","1685220","0.0-6.0-2.97","","<div style=""font-size:60px;"">+</div>","null","","","","","","",""
"383.85999998729676","","image-keyboard-response","514","1685605","0.0-6.0-0.98","","img/blue.png","32","trial","null","false","0.4,0.6","2:nogo_b","",""
"null","","html-keyboard-response","515","1686607","0.0-6.0-1.98","","<img src=""img/blue-n.png"" border=""10"">","null","trial","null","","0.4,0.6","2:nogo_b","0",""
"null","","html-keyboard-response","516","1687608","0.0-6.0-2.98","","<div style=""font-size:60px;"">+</div>","null","","","","","","",""
"692.5449999980628","","image-keyboard-response","517","1688301","0.0-6.0-0.99","","img/purple.png","32","trial","null","false","0.4,0.6","4:nogo_d","",""
"null","","html-keyboard-response","518","1689304","0.0-6.0-1.99","","<img src=""img/purple-n.png"" border=""10"">","null","trial","null","","0.4,0.6","4:nogo_d","0",""
"null","","html-keyboard-response","519","1690305","0.0-6.0-2.99","","<div style=""font-size:60px;"">+</div>","null","","","","","","",""
"null","","image-keyboard-response","520","1691807","0.0-6.0-0.100","","img/grey.png","null","trial","32","false","0.6,0.4","1:go_a","",""
"null","","html-keyboard-response","521","1692809","0.0-6.0-1.100","","<img src=""img/grey-n.png"">","null","trial","32","","0.6,0.4","1:go_a","0",""
"null","","html-keyboard-response","522","1693810","0.0-6.0-2.100","","<div style=""font-size:60px;"">+</div>","null","","","","","","",""
"935.8050000008661","","image-keyboard-response","523","1694747","0.0-6.0-0.101","","img/blue.png","32","trial","null","false","0.4,0.6","2:nogo_b","",""
"null","","html-keyboard-response","524","1695748","0.0-6.0-1.101","","<img src=""img/blue-r.png"" border=""10"">","null","trial","null","","0.4,0.6","2:nogo_b","1",""
"null","","html-keyboard-response","525","1696750","0.0-6.0-2.101","","<div style=""font-size:60px;"">+</div>","null","","","","","","",""
"null","","image-keyboard-response","526","1698252","0.0-6.0-0.102","","img/purple.png","null","trial","null","true","0.4,0.6","4:nogo_d","",""
"null","","html-keyboard-response","527","1699254","0.0-6.0-1.102","","<img src=""img/purple-r.png"">","null","trial","null","","0.4,0.6","4:nogo_d","1",""
"null","","html-keyboard-response","528","1700256","0.0-6.0-2.102","","<div style=""font-size:60px;"">+</div>","null","","","","","","",""
"null","","image-keyboard-response","529","1701758","0.0-6.0-0.103","","img/yellow.png","null","trial","32","false","0.6,0.4","3:go_c","",""
"null","","html-keyboard-response","530","1702760","0.0-6.0-1.103","","<img src=""img/yellow-n.png"">","null","trial","32","","0.6,0.4","3:go_c","0",""
"null","","html-keyboard-response","531","1703761","0.0-6.0-2.103","","<div style=""font-size:60px;"">+</div>","null","","","","","","",""
"422.69999999552965","","image-keyboard-response","532","1704184","0.0-6.0-0.104","","img/yellow.png","32","trial","32","true","0.6,0.4","3:go_c","",""
"null","","html-keyboard-response","533","1705186","0.0-6.0-1.104","","<img src=""img/yellow-n.png"" border=""10"">","null","trial","32","","0.6,0.4","3:go_c","0",""
"null","","html-keyboard-response","534","1706187","0.0-6.0-2.104","","<div style=""font-size:60px;"">+</div>","null","","","","","","",""
"null","","image-keyboard-response","535","1707689","0.0-6.0-0.105","","img/purple.png","null","trial","null","true","0.4,0.6","4:nogo_d","",""
"null","","html-keyboard-response","536","1708692","0.0-6.0-1.105","","<img src=""img/purple-r.png"">","null","trial","null","","0.4,0.6","4:nogo_d","1",""
"null","","html-keyboard-response","537","1709693","0.0-6.0-2.105","","<div style=""font-size:60px;"">+</div>","null","","","","","","",""
"653.4399999948218","","image-keyboard-response","538","1710347","0.0-6.0-0.106","","img/blue.png","32","trial","null","false","0.4,0.6","2:nogo_b","",""
"null","","html-keyboard-response","539","1711349","0.0-6.0-1.106","","<img src=""img/blue-r.png"" border=""10"">","null","trial","null","","0.4,0.6","2:nogo_b","1",""
"null","","html-keyboard-response","540","1712350","0.0-6.0-2.106","","<div style=""font-size:60px;"">+</div>","null","","","","","","",""
"null","","image-keyboard-response","541","1713852","0.0-6.0-0.107","","img/grey.png","null","trial","32","false","0.6,0.4","1:go_a","",""
"null","","html-keyboard-response","542","1714854","0.0-6.0-1.107","","<img src=""img/grey-n.png"">","null","trial","32","","0.6,0.4","1:go_a","0",""
"null","","html-keyboard-response","543","1715855","0.0-6.0-2.107","","<div style=""font-size:60px;"">+</div>","null","","","","","","",""
"null","","image-keyboard-response","544","1717357","0.0-6.0-0.108","","img/purple.png","null","trial","null","true","0.4,0.6","4:nogo_d","",""
"null","","html-keyboard-response","545","1718359","0.0-6.0-1.108","","<img src=""img/purple-r.png"">","null","trial","null","","0.4,0.6","4:nogo_d","1",""
"null","","html-keyboard-response","546","1719360","0.0-6.0-2.108","","<div style=""font-size:60px;"">+</div>","null","","","","","","",""
"null","","image-keyboard-response","547","1720862","0.0-6.0-0.109","","img/grey.png","null","trial","32","false","0.6,0.4","1:go_a","",""
"null","","html-keyboard-response","548","1721864","0.0-6.0-1.109","","<img src=""img/grey-r.png"">","null","trial","32","","0.6,0.4","1:go_a","1",""
"null","","html-keyboard-response","549","1722866","0.0-6.0-2.109","","<div style=""font-size:60px;"">+</div>","null","","","","","","",""
"null","","image-keyboard-response","550","1724368","0.0-6.0-0.110","","img/blue.png","null","trial","null","true","0.4,0.6","2:nogo_b","",""
"null","","html-keyboard-response","551","1725370","0.0-6.0-1.110","","<img src=""img/blue-r.png"">","null","trial","null","","0.4,0.6","2:nogo_b","1",""
"null","","html-keyboard-response","552","1726371","0.0-6.0-2.110","","<div style=""font-size:60px;"">+</div>","null","","","","","","",""
"602.6149999962654","","image-keyboard-response","553","1726975","0.0-6.0-0.111","","img/yellow.png","32","trial","32","true","0.6,0.4","3:go_c","",""
"null","","html-keyboard-response","554","1727976","0.0-6.0-1.111","","<img src=""img/yellow-r.png"" border=""10"">","null","trial","32","","0.6,0.4","3:go_c","1",""
"null","","html-keyboard-response","555","1728977","0.0-6.0-2.111","","<div style=""font-size:60px;"">+</div>","null","","","","","","",""
"null","","image-keyboard-response","556","1730479","0.0-6.0-0.112","","img/grey.png","null","trial","32","false","0.6,0.4","1:go_a","",""
"null","","html-keyboard-response","557","1731482","0.0-6.0-1.112","","<img src=""img/grey-n.png"">","null","trial","32","","0.6,0.4","1:go_a","0",""
"null","","html-keyboard-response","558","1732483","0.0-6.0-2.112","","<div style=""font-size:60px;"">+</div>","null","","","","","","",""
"null","","image-keyboard-response","559","1733985","0.0-6.0-0.113","","img/yellow.png","null","trial","32","false","0.6,0.4","3:go_c","",""
"null","","html-keyboard-response","560","1734987","0.0-6.0-1.113","","<img src=""img/yellow-r.png"">","null","trial","32","","0.6,0.4","3:go_c","1",""
"null","","html-keyboard-response","561","1735989","0.0-6.0-2.113","","<div style=""font-size:60px;"">+</div>","null","","","","","","",""
"null","","image-keyboard-response","562","1737491","0.0-6.0-0.114","","img/purple.png","null","trial","null","true","0.4,0.6","4:nogo_d","",""
"null","","html-keyboard-response","563","1738493","0.0-6.0-1.114","","<img src=""img/purple-r.png"">","null","trial","null","","0.4,0.6","4:nogo_d","1",""
"null","","html-keyboard-response","564","1739494","0.0-6.0-2.114","","<div style=""font-size:60px;"">+</div>","null","","","","","","",""
"null","","image-keyboard-response","565","1740996","0.0-6.0-0.115","","img/blue.png","null","trial","null","true","0.4,0.6","2:nogo_b","",""
"null","","html-keyboard-response","566","1742001","0.0-6.0-1.115","","<img src=""img/blue-n.png"">","null","trial","null","","0.4,0.6","2:nogo_b","0",""
"null","","html-keyboard-response","567","1743002","0.0-6.0-2.115","","<div style=""font-size:60px;"">+</div>","null","","","","","","",""
"null","","image-keyboard-response","568","1744503","0.0-6.0-0.116","","img/blue.png","null","trial","null","true","0.4,0.6","2:nogo_b","",""
"null","","html-keyboard-response","569","1745505","0.0-6.0-1.116","","<img src=""img/blue-r.png"">","null","trial","null","","0.4,0.6","2:nogo_b","1",""
"null","","html-keyboard-response","570","1746507","0.0-6.0-2.116","","<div style=""font-size:60px;"">+</div>","null","","","","","","",""
"null","","image-keyboard-response","571","1748008","0.0-6.0-0.117","","img/grey.png","null","trial","32","false","0.6,0.4","1:go_a","",""
"null","","html-keyboard-response","572","1749010","0.0-6.0-1.117","","<img src=""img/grey-n.png"">","null","trial","32","","0.6,0.4","1:go_a","0",""
"null","","html-keyboard-response","573","1750011","0.0-6.0-2.117","","<div style=""font-size:60px;"">+</div>","null","","","","","","",""
"null","","image-keyboard-response","574","1751513","0.0-6.0-0.118","","img/yellow.png","null","trial","32","false","0.6,0.4","3:go_c","",""
"null","","html-keyboard-response","575","1752515","0.0-6.0-1.118","","<img src=""img/yellow-n.png"">","null","trial","32","","0.6,0.4","3:go_c","0",""
"null","","html-keyboard-response","576","1753517","0.0-6.0-2.118","","<div style=""font-size:60px;"">+</div>","null","","","","","","",""
"null","","image-keyboard-response","577","1755019","0.0-6.0-0.119","","img/purple.png","null","trial","null","true","0.4,0.6","4:nogo_d","",""
"null","","html-keyboard-response","578","1756020","0.0-6.0-1.119","","<img src=""img/purple-n.png"">","null","trial","null","","0.4,0.6","4:nogo_d","0",""
"null","","html-keyboard-response","579","1757021","0.0-6.0-2.119","","<div style=""font-size:60px;"">+</div>","null","","","","","","",""
"3852.139999988256","","instructions","580","1760874","0.0-7.0","[{""page_index"":0,""viewing_time"":3851.969999989029}]","","","","","","","","",""
"1330.620000008028","","image-keyboard-response","581","1762205","0.0-8.0-0.0","","img/green.png","32","trial","32","true","0.8,0.2","3:go_c","",""
"null","","html-keyboard-response","582","1763208","0.0-8.0-1.0","","<img src=""img/green-n.png"" border=""10"">","null","trial","32","","0.8,0.2","3:go_c","0",""
"null","","html-keyboard-response","583","1764209","0.0-8.0-2.0","","<div style=""font-size:60px;"">+</div>","null","","","","","","",""
"1070.9199999980628","","image-keyboard-response","584","1765281","0.0-8.0-0.1","","img/pink.png","32","trial","null","false","0.2,0.8","2:nogo_b","",""
"null","","html-keyboard-response","585","1766282","0.0-8.0-1.1","","<img src=""img/pink-n.png"" border=""10"">","null","trial","null","","0.2,0.8","2:nogo_b","0",""
"null","","html-keyboard-response","586","1767283","0.0-8.0-2.1","","<div style=""font-size:60px;"">+</div>","null","","","","","","",""
"1304.2299999943934","","image-keyboard-response","587","1768588","0.0-8.0-0.2","","img/red.png","32","trial","null","false","0.2,0.8","4:nogo_d","",""
"null","","html-keyboard-response","588","1769589","0.0-8.0-1.2","","<img src=""img/red-n.png"" border=""10"">","null","trial","null","","0.2,0.8","4:nogo_d","0",""
"null","","html-keyboard-response","589","1770590","0.0-8.0-2.2","","<div style=""font-size:60px;"">+</div>","null","","","","","","",""
"1162.465000001248","","image-keyboard-response","590","1771753","0.0-8.0-0.3","","img/orange.png","32","trial","32","true","0.8,0.2","1:go_a","",""
"null","","html-keyboard-response","591","1772754","0.0-8.0-1.3","","<img src=""img/orange-n.png"" border=""10"">","null","trial","32","","0.8,0.2","1:go_a","0",""
"null","","html-keyboard-response","592","1773756","0.0-8.0-2.3","","<div style=""font-size:60px;"">+</div>","null","","","","","","",""
"null","","image-keyboard-response","593","1775259","0.0-8.0-0.4","","img/pink.png","null","trial","null","true","0.2,0.8","2:nogo_b","",""
"null","","html-keyboard-response","594","1776261","0.0-8.0-1.4","","<img src=""img/pink-r.png"">","null","trial","null","","0.2,0.8","2:nogo_b","1",""
"null","","html-keyboard-response","595","1777262","0.0-8.0-2.4","","<div style=""font-size:60px;"">+</div>","null","","","","","","",""
"null","","image-keyboard-response","596","1778764","0.0-8.0-0.5","","img/green.png","null","trial","32","false","0.8,0.2","3:go_c","",""
"null","","html-keyboard-response","597","1779766","0.0-8.0-1.5","","<img src=""img/green-n.png"">","null","trial","32","","0.8,0.2","3:go_c","0",""
"null","","html-keyboard-response","598","1780767","0.0-8.0-2.5","","<div style=""font-size:60px;"">+</div>","null","","","","","","",""
"null","","image-keyboard-response","599","1782269","0.0-8.0-0.6","","img/orange.png","null","trial","32","false","0.8,0.2","1:go_a","",""
"null","","html-keyboard-response","600","1783271","0.0-8.0-1.6","","<img src=""img/orange-n.png"">","null","trial","32","","0.8,0.2","1:go_a","0",""
"null","","html-keyboard-response","601","1784273","0.0-8.0-2.6","","<div style=""font-size:60px;"">+</div>","null","","","","","","",""
"354.85000000335276","","image-keyboard-response","602","1784627","0.0-8.0-0.7","","img/red.png","32","trial","null","false","0.2,0.8","4:nogo_d","",""
"null","","html-keyboard-response","603","1785629","0.0-8.0-1.7","","<img src=""img/red-r.png"" border=""10"">","null","trial","null","","0.2,0.8","4:nogo_d","1",""
"null","","html-keyboard-response","604","1786631","0.0-8.0-2.7","","<div style=""font-size:60px;"">+</div>","null","","","","","","",""
"null","","image-keyboard-response","605","1788133","0.0-8.0-0.8","","img/red.png","null","trial","null","true","0.2,0.8","4:nogo_d","",""
"null","","html-keyboard-response","606","1789135","0.0-8.0-1.8","","<img src=""img/red-r.png"">","null","trial","null","","0.2,0.8","4:nogo_d","1",""
"null","","html-keyboard-response","607","1790136","0.0-8.0-2.8","","<div style=""font-size:60px;"">+</div>","null","","","","","","",""
"null","","image-keyboard-response","608","1791638","0.0-8.0-0.9","","img/pink.png","null","trial","null","true","0.2,0.8","2:nogo_b","",""
"null","","html-keyboard-response","609","1792640","0.0-8.0-1.9","","<img src=""img/pink-r.png"">","null","trial","null","","0.2,0.8","2:nogo_b","1",""
"null","","html-keyboard-response","610","1793641","0.0-8.0-2.9","","<div style=""font-size:60px;"">+</div>","null","","","","","","",""
"null","","image-keyboard-response","611","1795143","0.0-8.0-0.10","","img/orange.png","null","trial","32","false","0.8,0.2","1:go_a","",""
"null","","html-keyboard-response","612","1796144","0.0-8.0-1.10","","<img src=""img/orange-n.png"">","null","trial","32","","0.8,0.2","1:go_a","0",""
"null","","html-keyboard-response","613","1797146","0.0-8.0-2.10","","<div style=""font-size:60px;"">+</div>","null","","","","","","",""
"null","","image-keyboard-response","614","1798648","0.0-8.0-0.11","","img/green.png","null","trial","32","false","0.8,0.2","3:go_c","",""
"null","","html-keyboard-response","615","1799649","0.0-8.0-1.11","","<img src=""img/green-n.png"">","null","trial","32","","0.8,0.2","3:go_c","0",""
"null","","html-keyboard-response","616","1800651","0.0-8.0-2.11","","<div style=""font-size:60px;"">+</div>","null","","","","","","",""
"null","","image-keyboard-response","617","1802153","0.0-8.0-0.12","","img/orange.png","null","trial","32","false","0.8,0.2","1:go_a","",""
"null","","html-keyboard-response","618","1803155","0.0-8.0-1.12","","<img src=""img/orange-n.png"">","null","trial","32","","0.8,0.2","1:go_a","0",""
"null","","html-keyboard-response","619","1804156","0.0-8.0-2.12","","<div style=""font-size:60px;"">+</div>","null","","","","","","",""
"null","","image-keyboard-response","620","1805658","0.0-8.0-0.13","","img/pink.png","null","trial","null","true","0.2,0.8","2:nogo_b","",""
"null","","html-keyboard-response","621","1806660","0.0-8.0-1.13","","<img src=""img/pink-r.png"">","null","trial","null","","0.2,0.8","2:nogo_b","1",""
"null","","html-keyboard-response","622","1807661","0.0-8.0-2.13","","<div style=""font-size:60px;"">+</div>","null","","","","","","",""
"null","","image-keyboard-response","623","1809163","0.0-8.0-0.14","","img/red.png","null","trial","null","true","0.2,0.8","4:nogo_d","",""
"null","","html-keyboard-response","624","1810165","0.0-8.0-1.14","","<img src=""img/red-n.png"">","null","trial","null","","0.2,0.8","4:nogo_d","0",""
"null","","html-keyboard-response","625","1811166","0.0-8.0-2.14","","<div style=""font-size:60px;"">+</div>","null","","","","","","",""
"1137.2249999984633","","image-keyboard-response","626","1812304","0.0-8.0-0.15","","img/green.png","32","trial","32","true","0.8,0.2","3:go_c","",""
"null","","html-keyboard-response","627","1813305","0.0-8.0-1.15","","<img src=""img/green-r.png"" border=""10"">","null","trial","32","","0.8,0.2","3:go_c","1",""
"null","","html-keyboard-response","628","1814307","0.0-8.0-2.15","","<div style=""font-size:60px;"">+</div>","null","","","","","","",""
"null","","image-keyboard-response","629","1815809","0.0-8.0-0.16","","img/green.png","null","trial","32","false","0.8,0.2","3:go_c","",""
"null","","html-keyboard-response","630","1816811","0.0-8.0-1.16","","<img src=""img/green-r.png"">","null","trial","32","","0.8,0.2","3:go_c","1",""
"null","","html-keyboard-response","631","1817812","0.0-8.0-2.16","","<div style=""font-size:60px;"">+</div>","null","","","","","","",""
"null","","image-keyboard-response","632","1819314","0.0-8.0-0.17","","img/orange.png","null","trial","32","false","0.8,0.2","1:go_a","",""
"null","","html-keyboard-response","633","1820316","0.0-8.0-1.17","","<img src=""img/orange-n.png"">","null","trial","32","","0.8,0.2","1:go_a","0",""
"null","","html-keyboard-response","634","1821317","0.0-8.0-2.17","","<div style=""font-size:60px;"">+</div>","null","","","","","","",""
"null","","image-keyboard-response","635","1822819","0.0-8.0-0.18","","img/red.png","null","trial","null","true","0.2,0.8","4:nogo_d","",""
"null","","html-keyboard-response","636","1823821","0.0-8.0-1.18","","<img src=""img/red-r.png"">","null","trial","null","","0.2,0.8","4:nogo_d","1",""
"null","","html-keyboard-response","637","1824822","0.0-8.0-2.18","","<div style=""font-size:60px;"">+</div>","null","","","","","","",""
"null","","image-keyboard-response","638","1826324","0.0-8.0-0.19","","img/pink.png","null","trial","null","true","0.2,0.8","2:nogo_b","",""
"null","","html-keyboard-response","639","1827326","0.0-8.0-1.19","","<img src=""img/pink-r.png"">","null","trial","null","","0.2,0.8","2:nogo_b","1",""
"null","","html-keyboard-response","640","1828327","0.0-8.0-2.19","","<div style=""font-size:60px;"">+</div>","null","","","","","","",""
"null","","image-keyboard-response","641","1829829","0.0-8.0-0.20","","img/green.png","null","trial","32","false","0.8,0.2","3:go_c","",""
"null","","html-keyboard-response","642","1830830","0.0-8.0-1.20","","<img src=""img/green-n.png"">","null","trial","32","","0.8,0.2","3:go_c","0",""
"null","","html-keyboard-response","643","1831832","0.0-8.0-2.20","","<div style=""font-size:60px;"">+</div>","null","","","","","","",""
"null","","image-keyboard-response","644","1833334","0.0-8.0-0.21","","img/pink.png","null","trial","null","true","0.2,0.8","2:nogo_b","",""
"null","","html-keyboard-response","645","1834335","0.0-8.0-1.21","","<img src=""img/pink-n.png"">","null","trial","null","","0.2,0.8","2:nogo_b","0",""
"null","","html-keyboard-response","646","1835336","0.0-8.0-2.21","","<div style=""font-size:60px;"">+</div>","null","","","","","","",""
"null","","image-keyboard-response","647","1836838","0.0-8.0-0.22","","img/orange.png","null","trial","32","false","0.8,0.2","1:go_a","",""
"null","","html-keyboard-response","648","1837840","0.0-8.0-1.22","","<img src=""img/orange-r.png"">","null","trial","32","","0.8,0.2","1:go_a","1",""
"null","","html-keyboard-response","649","1838841","0.0-8.0-2.22","","<div style=""font-size:60px;"">+</div>","null","","","","","","",""
"null","","image-keyboard-response","650","1840343","0.0-8.0-0.23","","img/red.png","null","trial","null","true","0.2,0.8","4:nogo_d","",""
"null","","html-keyboard-response","651","1841344","0.0-8.0-1.23","","<img src=""img/red-r.png"">","null","trial","null","","0.2,0.8","4:nogo_d","1",""
"null","","html-keyboard-response","652","1842346","0.0-8.0-2.23","","<div style=""font-size:60px;"">+</div>","null","","","","","","",""
"null","","image-keyboard-response","653","1843848","0.0-8.0-0.24","","img/pink.png","null","trial","null","true","0.2,0.8","2:nogo_b","",""
"null","","html-keyboard-response","654","1844849","0.0-8.0-1.24","","<img src=""img/pink-r.png"">","null","trial","null","","0.2,0.8","2:nogo_b","1",""
"null","","html-keyboard-response","655","1845851","0.0-8.0-2.24","","<div style=""font-size:60px;"">+</div>","null","","","","","","",""
"830.0600000075065","","image-keyboard-response","656","1846682","0.0-8.0-0.25","","img/green.png","32","trial","32","true","0.8,0.2","3:go_c","",""
"null","","html-keyboard-response","657","1847684","0.0-8.0-1.25","","<img src=""img/green-n.png"" border=""10"">","null","trial","32","","0.8,0.2","3:go_c","0",""
"null","","html-keyboard-response","658","1848685","0.0-8.0-2.25","","<div style=""font-size:60px;"">+</div>","null","","","","","","",""
"null","","image-keyboard-response","659","1850187","0.0-8.0-0.26","","img/orange.png","null","trial","32","false","0.8,0.2","1:go_a","",""
"null","","html-keyboard-response","660","1851188","0.0-8.0-1.26","","<img src=""img/orange-n.png"">","null","trial","32","","0.8,0.2","1:go_a","0",""
"null","","html-keyboard-response","661","1852190","0.0-8.0-2.26","","<div style=""font-size:60px;"">+</div>","null","","","","","","",""
"null","","image-keyboard-response","662","1853692","0.0-8.0-0.27","","img/red.png","null","trial","null","true","0.2,0.8","4:nogo_d","",""
"null","","html-keyboard-response","663","1854694","0.0-8.0-1.27","","<img src=""img/red-r.png"">","null","trial","null","","0.2,0.8","4:nogo_d","1",""
"null","","html-keyboard-response","664","1855695","0.0-8.0-2.27","","<div style=""font-size:60px;"">+</div>","null","","","","","","",""
"null","","image-keyboard-response","665","1857196","0.0-8.0-0.28","","img/orange.png","null","trial","32","false","0.8,0.2","1:go_a","",""
"null","","html-keyboard-response","666","1858198","0.0-8.0-1.28","","<img src=""img/orange-n.png"">","null","trial","32","","0.8,0.2","1:go_a","0",""
"null","","html-keyboard-response","667","1859199","0.0-8.0-2.28","","<div style=""font-size:60px;"">+</div>","null","","","","","","",""
"988.2900000084192","","image-keyboard-response","668","1860188","0.0-8.0-0.29","","img/red.png","32","trial","null","false","0.2,0.8","4:nogo_d","",""
"null","","html-keyboard-response","669","1861190","0.0-8.0-1.29","","<img src=""img/red-r.png"" border=""10"">","null","trial","null","","0.2,0.8","4:nogo_d","1",""
"null","","html-keyboard-response","670","1862191","0.0-8.0-2.29","","<div style=""font-size:60px;"">+</div>","null","","","","","","",""
"null","","image-keyboard-response","671","1863693","0.0-8.0-0.30","","img/pink.png","null","trial","null","true","0.2,0.8","2:nogo_b","",""
"null","","html-keyboard-response","672","1864695","0.0-8.0-1.30","","<img src=""img/pink-r.png"">","null","trial","null","","0.2,0.8","2:nogo_b","1",""
"null","","html-keyboard-response","673","1865697","0.0-8.0-2.30","","<div style=""font-size:60px;"">+</div>","null","","","","","","",""
"669.5849999960046","","image-keyboard-response","674","1866367","0.0-8.0-0.31","","img/green.png","32","trial","32","true","0.8,0.2","3:go_c","",""
"null","","html-keyboard-response","675","1867368","0.0-8.0-1.31","","<img src=""img/green-r.png"" border=""10"">","null","trial","32","","0.8,0.2","3:go_c","1",""
"null","","html-keyboard-response","676","1868369","0.0-8.0-2.31","","<div style=""font-size:60px;"">+</div>","null","","","","","","",""
"null","","image-keyboard-response","677","1869871","0.0-8.0-0.32","","img/green.png","null","trial","32","false","0.8,0.2","3:go_c","",""
"null","","html-keyboard-response","678","1870874","0.0-8.0-1.32","","<img src=""img/green-n.png"">","null","trial","32","","0.8,0.2","3:go_c","0",""
