"rt","url","trial_type","trial_index","time_elapsed","internal_node_id","view_history","stimulus","key_press","test_part","correct_response","correct","use_rew","which_stim","reward","responses"
"7755.87499991525","consent.html","external-html","0","7855","0.0-0.0","","","","","","","","","",""
"49781.72500000801","","instructions","1","57637","0.0-1.0","[{""page_index"":0,""viewing_time"":2511.1250000773},{""page_index"":1,""viewing_time"":14178.36499994155},{""page_index"":2,""viewing_time"":7855.590000050142},{""page_index"":3,""viewing_time"":6754.914999939501},{""page_index"":4,""viewing_time"":7371.645000064746},{""page_index"":5,""viewing_time"":4619.779999949969},{""page_index"":6,""viewing_time"":6489.26499998197}]","","","","","","","","",""
"null","","image-keyboard-response","2","59154","0.0-2.0-0.0","","img/test2.PNG","null","practice","null","true","","","",""
"null","","html-keyboard-response","3","60159","0.0-2.0-1.0","","<img src=""img/test2-reward.PNG"">","null","","","","","","",""
"null","","html-keyboard-response","4","61162","0.0-2.0-2.0","","<div style=""font-size:60px;"">+</div>","null","","","","","","",""
"null","","image-keyboard-response","5","62673","0.0-2.0-0.1","","img/test3.PNG","null","practice","null","true","","","",""
"null","","html-keyboard-response","6","63677","0.0-2.0-1.1","","<img src=""img/test3-reward.PNG"">","null","","","","","","",""
"null","","html-keyboard-response","7","64686","0.0-2.0-2.1","","<div style=""font-size:60px;"">+</div>","null","","","","","","",""
"384.39000002108514","","image-keyboard-response","8","65072","0.0-2.0-0.2","","img/test1.PNG","32","practice","32","true","","","",""
"null","","html-keyboard-response","9","66080","0.0-2.0-1.2","","<img src=""img/test1-reward.PNG"" border=""10px; grey"">","null","","","","","","",""
"null","","html-keyboard-response","10","67086","0.0-2.0-2.2","","<div style=""font-size:60px;"">+</div>","null","","","","","","",""
"null","","image-keyboard-response","11","68592","0.0-2.0-0.3","","img/test2.PNG","null","practice","null","true","","","",""
"null","","html-keyboard-response","12","69608","0.0-2.0-1.3","","<img src=""img/test2-reward.PNG"">","null","","","","","","",""
"null","","html-keyboard-response","13","70612","0.0-2.0-2.3","","<div style=""font-size:60px;"">+</div>","null","","","","","","",""
"null","","image-keyboard-response","14","72126","0.0-2.0-0.4","","img/test3.PNG","null","practice","null","true","","","",""
"null","","html-keyboard-response","15","73129","0.0-2.0-1.4","","<img src=""img/test3-reward.PNG"">","null","","","","","","",""
"null","","html-keyboard-response","16","74135","0.0-2.0-2.4","","<div style=""font-size:60px;"">+</div>","null","","","","","","",""
"424.9800000106916","","image-keyboard-response","17","74562","0.0-2.0-0.5","","img/test1.PNG","32","practice","32","true","","","",""
"null","","html-keyboard-response","18","75566","0.0-2.0-1.5","","<img src=""img/test1-reward.PNG"" border=""10px; grey"">","null","","","","","","",""
"null","","html-keyboard-response","19","76581","0.0-2.0-2.5","","<div style=""font-size:60px;"">+</div>","null","","","","","","",""
"648.3649999136105","","image-keyboard-response","20","77231","0.0-2.0-0.6","","img/test1.PNG","32","practice","32","true","","","",""
"null","","html-keyboard-response","21","78244","0.0-2.0-1.6","","<img src=""img/test1-reward.PNG"" border=""10px; grey"">","null","","","","","","",""
"null","","html-keyboard-response","22","79248","0.0-2.0-2.6","","<div style=""font-size:60px;"">+</div>","null","","","","","","",""
"null","","image-keyboard-response","23","80753","0.0-2.0-0.7","","img/test3.PNG","null","practice","null","true","","","",""
"null","","html-keyboard-response","24","81757","0.0-2.0-1.7","","<img src=""img/test3-reward.PNG"">","null","","","","","","",""
"null","","html-keyboard-response","25","82763","0.0-2.0-2.7","","<div style=""font-size:60px;"">+</div>","null","","","","","","",""
"null","","image-keyboard-response","26","84269","0.0-2.0-0.8","","img/test2.PNG","null","practice","null","true","","","",""
"null","","html-keyboard-response","27","85282","0.0-2.0-1.8","","<img src=""img/test2-reward.PNG"">","null","","","","","","",""
"null","","html-keyboard-response","28","86285","0.0-2.0-2.8","","<div style=""font-size:60px;"">+</div>","null","","","","","","",""
"552.0399999804795","","image-keyboard-response","29","86840","0.0-2.0-0.9","","img/test1.PNG","32","practice","32","true","","","",""
"null","","html-keyboard-response","30","87853","0.0-2.0-1.9","","<img src=""img/test1-reward.PNG"" border=""10px; grey"">","null","","","","","","",""
"null","","html-keyboard-response","31","88865","0.0-2.0-2.9","","<div style=""font-size:60px;"">+</div>","null","","","","","","",""
"null","","image-keyboard-response","32","90379","0.0-2.0-0.10","","img/test3.PNG","null","practice","null","true","","","",""
"null","","html-keyboard-response","33","91397","0.0-2.0-1.10","","<img src=""img/test3-reward.PNG"">","null","","","","","","",""
"null","","html-keyboard-response","34","92411","0.0-2.0-2.10","","<div style=""font-size:60px;"">+</div>","null","","","","","","",""
"null","","image-keyboard-response","35","93915","0.0-2.0-0.11","","img/test2.PNG","null","practice","null","true","","","",""
"null","","html-keyboard-response","36","94931","0.0-2.0-1.11","","<img src=""img/test2-reward.PNG"">","null","","","","","","",""
"null","","html-keyboard-response","37","95936","0.0-2.0-2.11","","<div style=""font-size:60px;"">+</div>","null","","","","","","",""
"2004.1550000896677","","instructions","38","97942","0.0-3.0","[{""page_index"":0,""viewing_time"":2003.8450000574812}]","","","","","","","","",""
"1119.429999962449","","image-keyboard-response","39","99063","0.0-4.0-0.0","","img/pink.png","32","trial","32","true","0.8,0.2","1:go_a","",""
"null","","html-keyboard-response","40","100074","0.0-4.0-1.0","","<img src=""img/pink-n.png"" border=""10"">","null","trial","32","","0.8,0.2","1:go_a","0",""
"null","","html-keyboard-response","41","101076","0.0-4.0-2.0","","<div style=""font-size:60px;"">+</div>","null","","","","","","",""
"null","","image-keyboard-response","42","102584","0.0-4.0-0.1","","img/orange.png","null","trial","null","true","0.2,0.8","2:nogo_b","",""
"null","","html-keyboard-response","43","103595","0.0-4.0-1.1","","<img src=""img/orange-r.png"">","null","trial","null","","0.2,0.8","2:nogo_b","1",""
"null","","html-keyboard-response","44","104610","0.0-4.0-2.1","","<div style=""font-size:60px;"">+</div>","null","","","","","","",""
"587.5450000166893","","image-keyboard-response","45","105199","0.0-4.0-0.2","","img/orange.png","32","trial","null","false","0.2,0.8","2:nogo_b","",""
"null","","html-keyboard-response","46","106210","0.0-4.0-1.2","","<img src=""img/orange-n.png"" border=""10"">","null","trial","null","","0.2,0.8","2:nogo_b","0",""
"null","","html-keyboard-response","47","107217","0.0-4.0-2.2","","<div style=""font-size:60px;"">+</div>","null","","","","","","",""
"null","","image-keyboard-response","48","108718","0.0-4.0-0.3","","img/pink.png","null","trial","32","false","0.8,0.2","1:go_a","",""
"null","","html-keyboard-response","49","109731","0.0-4.0-1.3","","<img src=""img/pink-n.png"">","null","trial","32","","0.8,0.2","1:go_a","0",""
"null","","html-keyboard-response","50","110737","0.0-4.0-2.3","","<div style=""font-size:60px;"">+</div>","null","","","","","","",""
"null","","image-keyboard-response","51","112243","0.0-4.0-0.4","","img/pink.png","null","trial","32","false","0.8,0.2","1:go_a","",""
"null","","html-keyboard-response","52","113259","0.0-4.0-1.4","","<img src=""img/pink-n.png"">","null","trial","32","","0.8,0.2","1:go_a","0",""
"null","","html-keyboard-response","53","114271","0.0-4.0-2.4","","<div style=""font-size:60px;"">+</div>","null","","","","","","",""
"458.68999999947846","","image-keyboard-response","54","114730","0.0-4.0-0.5","","img/orange.png","32","trial","null","false","0.2,0.8","2:nogo_b","",""
"null","","html-keyboard-response","55","115740","0.0-4.0-1.5","","<img src=""img/orange-n.png"" border=""10"">","null","trial","null","","0.2,0.8","2:nogo_b","0",""
"null","","html-keyboard-response","56","116756","0.0-4.0-2.5","","<div style=""font-size:60px;"">+</div>","null","","","","","","",""
"587.4600000679493","","image-keyboard-response","57","117345","0.0-4.0-0.6","","img/orange.png","32","trial","null","false","0.2,0.8","2:nogo_b","",""
"null","","html-keyboard-response","58","118351","0.0-4.0-1.6","","<img src=""img/orange-n.png"" border=""10"">","null","trial","null","","0.2,0.8","2:nogo_b","0",""
"null","","html-keyboard-response","59","119356","0.0-4.0-2.6","","<div style=""font-size:60px;"">+</div>","null","","","","","","",""
"null","","image-keyboard-response","60","120861","0.0-4.0-0.7","","img/pink.png","null","trial","32","false","0.8,0.2","1:go_a","",""
"null","","html-keyboard-response","61","121869","0.0-4.0-1.7","","<img src=""img/pink-n.png"">","null","trial","32","","0.8,0.2","1:go_a","0",""
"null","","html-keyboard-response","62","122874","0.0-4.0-2.7","","<div style=""font-size:60px;"">+</div>","null","","","","","","",""
"751.6049999976531","","image-keyboard-response","63","123627","0.0-4.0-0.8","","img/pink.png","32","trial","32","true","0.8,0.2","1:go_a","",""
"null","","html-keyboard-response","64","124635","0.0-4.0-1.8","","<img src=""img/pink-r.png"" border=""10"">","null","trial","32","","0.8,0.2","1:go_a","1",""
"null","","html-keyboard-response","65","125645","0.0-4.0-2.8","","<div style=""font-size:60px;"">+</div>","null","","","","","","",""
"null","","image-keyboard-response","66","127161","0.0-4.0-0.9","","img/orange.png","null","trial","null","true","0.2,0.8","2:nogo_b","",""
"null","","html-keyboard-response","67","128173","0.0-4.0-1.9","","<img src=""img/orange-r.png"">","null","trial","null","","0.2,0.8","2:nogo_b","1",""
"null","","html-keyboard-response","68","129189","0.0-4.0-2.9","","<div style=""font-size:60px;"">+</div>","null","","","","","","",""
"815.1150000048801","","image-keyboard-response","69","130006","0.0-4.0-0.10","","img/pink.png","32","trial","32","true","0.8,0.2","1:go_a","",""
"null","","html-keyboard-response","70","131016","0.0-4.0-1.10","","<img src=""img/pink-r.png"" border=""10"">","null","trial","32","","0.8,0.2","1:go_a","1",""
"null","","html-keyboard-response","71","132022","0.0-4.0-2.10","","<div style=""font-size:60px;"">+</div>","null","","","","","","",""
"597.9850000003353","","image-keyboard-response","72","132622","0.0-4.0-0.11","","img/orange.png","32","trial","null","false","0.2,0.8","2:nogo_b","",""
"null","","html-keyboard-response","73","133631","0.0-4.0-1.11","","<img src=""img/orange-n.png"" border=""10"">","null","trial","null","","0.2,0.8","2:nogo_b","0",""
"null","","html-keyboard-response","74","134648","0.0-4.0-2.11","","<div style=""font-size:60px;"">+</div>","null","","","","","","",""
"null","","image-keyboard-response","75","136164","0.0-4.0-0.12","","img/orange.png","null","trial","null","true","0.2,0.8","2:nogo_b","",""
"null","","html-keyboard-response","76","137171","0.0-4.0-1.12","","<img src=""img/orange-r.png"">","null","trial","null","","0.2,0.8","2:nogo_b","1",""
"null","","html-keyboard-response","77","138178","0.0-4.0-2.12","","<div style=""font-size:60px;"">+</div>","null","","","","","","",""
"502.59000004734844","","image-keyboard-response","78","138683","0.0-4.0-0.13","","img/pink.png","32","trial","32","true","0.8,0.2","1:go_a","",""
"null","","html-keyboard-response","79","139689","0.0-4.0-1.13","","<img src=""img/pink-r.png"" border=""10"">","null","trial","32","","0.8,0.2","1:go_a","1",""
"null","","html-keyboard-response","80","140696","0.0-4.0-2.13","","<div style=""font-size:60px;"">+</div>","null","","","","","","",""
"1049.544999958016","","image-keyboard-response","81","141747","0.0-4.0-0.14","","img/pink.png","32","trial","32","true","0.8,0.2","1:go_a","",""
"null","","html-keyboard-response","82","142754","0.0-4.0-1.14","","<img src=""img/pink-r.png"" border=""10"">","null","trial","32","","0.8,0.2","1:go_a","1",""
"null","","html-keyboard-response","83","143765","0.0-4.0-2.14","","<div style=""font-size:60px;"">+</div>","null","","","","","","",""
"null","","image-keyboard-response","84","145278","0.0-4.0-0.15","","img/orange.png","null","trial","null","true","0.2,0.8","2:nogo_b","",""
"null","","html-keyboard-response","85","146291","0.0-4.0-1.15","","<img src=""img/orange-r.png"">","null","trial","null","","0.2,0.8","2:nogo_b","1",""
"null","","html-keyboard-response","86","147303","0.0-4.0-2.15","","<div style=""font-size:60px;"">+</div>","null","","","","","","",""
"412.32499992474914","","image-keyboard-response","87","147717","0.0-4.0-0.16","","img/pink.png","32","trial","32","true","0.8,0.2","1:go_a","",""
"null","","html-keyboard-response","88","148720","0.0-4.0-1.16","","<img src=""img/pink-r.png"" border=""10"">","null","trial","32","","0.8,0.2","1:go_a","1",""
"null","","html-keyboard-response","89","149727","0.0-4.0-2.16","","<div style=""font-size:60px;"">+</div>","null","","","","","","",""
"655.2999999839813","","image-keyboard-response","90","150384","0.0-4.0-0.17","","img/orange.png","32","trial","null","false","0.2,0.8","2:nogo_b","",""
"null","","html-keyboard-response","91","151393","0.0-4.0-1.17","","<img src=""img/orange-n.png"" border=""10"">","null","trial","null","","0.2,0.8","2:nogo_b","0",""
"null","","html-keyboard-response","92","152416","0.0-4.0-2.17","","<div style=""font-size:60px;"">+</div>","null","","","","","","",""
"null","","image-keyboard-response","93","153928","0.0-4.0-0.18","","img/orange.png","null","trial","null","true","0.2,0.8","2:nogo_b","",""
"null","","html-keyboard-response","94","154931","0.0-4.0-1.18","","<img src=""img/orange-r.png"">","null","trial","null","","0.2,0.8","2:nogo_b","1",""
"null","","html-keyboard-response","95","155934","0.0-4.0-2.18","","<div style=""font-size:60px;"">+</div>","null","","","","","","",""
"667.600000044331","","image-keyboard-response","96","156603","0.0-4.0-0.19","","img/pink.png","32","trial","32","true","0.8,0.2","1:go_a","",""
"null","","html-keyboard-response","97","157612","0.0-4.0-1.19","","<img src=""img/pink-r.png"" border=""10"">","null","trial","32","","0.8,0.2","1:go_a","1",""
"null","","html-keyboard-response","98","158616","0.0-4.0-2.19","","<div style=""font-size:60px;"">+</div>","null","","","","","","",""
"724.7750000096858","","image-keyboard-response","99","159343","0.0-4.0-0.20","","img/orange.png","32","trial","null","false","0.2,0.8","2:nogo_b","",""
"null","","html-keyboard-response","100","160347","0.0-4.0-1.20","","<img src=""img/orange-n.png"" border=""10"">","null","trial","null","","0.2,0.8","2:nogo_b","0",""
"null","","html-keyboard-response","101","161360","0.0-4.0-2.20","","<div style=""font-size:60px;"">+</div>","null","","","","","","",""
"699.8400000156835","","image-keyboard-response","102","162062","0.0-4.0-0.21","","img/pink.png","32","trial","32","true","0.8,0.2","1:go_a","",""
"null","","html-keyboard-response","103","163073","0.0-4.0-1.21","","<img src=""img/pink-r.png"" border=""10"">","null","trial","32","","0.8,0.2","1:go_a","1",""
"null","","html-keyboard-response","104","164085","0.0-4.0-2.21","","<div style=""font-size:60px;"">+</div>","null","","","","","","",""
"null","","image-keyboard-response","105","165593","0.0-4.0-0.22","","img/pink.png","null","trial","32","false","0.8,0.2","1:go_a","",""
"null","","html-keyboard-response","106","166607","0.0-4.0-1.22","","<img src=""img/pink-n.png"">","null","trial","32","","0.8,0.2","1:go_a","0",""
"null","","html-keyboard-response","107","167614","0.0-4.0-2.22","","<div style=""font-size:60px;"">+</div>","null","","","","","","",""
"1323.7250000238419","","image-keyboard-response","108","168940","0.0-4.0-0.23","","img/orange.png","32","trial","null","false","0.2,0.8","2:nogo_b","",""
"null","","html-keyboard-response","109","169949","0.0-4.0-1.23","","<img src=""img/orange-n.png"" border=""10"">","null","trial","null","","0.2,0.8","2:nogo_b","0",""
"null","","html-keyboard-response","110","170954","0.0-4.0-2.23","","<div style=""font-size:60px;"">+</div>","null","","","","","","",""
"662.5650000059977","","image-keyboard-response","111","171619","0.0-4.0-0.24","","img/pink.png","32","trial","32","true","0.8,0.2","1:go_a","",""
"null","","html-keyboard-response","112","172626","0.0-4.0-1.24","","<img src=""img/pink-r.png"" border=""10"">","null","trial","32","","0.8,0.2","1:go_a","1",""
"null","","html-keyboard-response","113","173628","0.0-4.0-2.24","","<div style=""font-size:60px;"">+</div>","null","","","","","","",""
"null","","image-keyboard-response","114","175139","0.0-4.0-0.25","","img/orange.png","null","trial","null","true","0.2,0.8","2:nogo_b","",""
"null","","html-keyboard-response","115","176144","0.0-4.0-1.25","","<img src=""img/orange-r.png"">","null","trial","null","","0.2,0.8","2:nogo_b","1",""
"null","","html-keyboard-response","116","177151","0.0-4.0-2.25","","<div style=""font-size:60px;"">+</div>","null","","","","","","",""
"1072.734999936074","","image-keyboard-response","117","178226","0.0-4.0-0.26","","img/pink.png","32","trial","32","true","0.8,0.2","1:go_a","",""
"null","","html-keyboard-response","118","179241","0.0-4.0-1.26","","<img src=""img/pink-r.png"" border=""10"">","null","trial","32","","0.8,0.2","1:go_a","1",""
"null","","html-keyboard-response","119","180249","0.0-4.0-2.26","","<div style=""font-size:60px;"">+</div>","null","","","","","","",""
"null","","image-keyboard-response","120","181756","0.0-4.0-0.27","","img/orange.png","null","trial","null","true","0.2,0.8","2:nogo_b","",""
"null","","html-keyboard-response","121","182765","0.0-4.0-1.27","","<img src=""img/orange-r.png"">","null","trial","null","","0.2,0.8","2:nogo_b","1",""
"null","","html-keyboard-response","122","183779","0.0-4.0-2.27","","<div style=""font-size:60px;"">+</div>","null","","","","","","",""
"721.0900000063702","","image-keyboard-response","123","184501","0.0-4.0-0.28","","img/orange.png","32","trial","null","false","0.2,0.8","2:nogo_b","",""
"null","","html-keyboard-response","124","185510","0.0-4.0-1.28","","<img src=""img/orange-n.png"" border=""10"">","null","trial","null","","0.2,0.8","2:nogo_b","0",""
"null","","html-keyboard-response","125","186519","0.0-4.0-2.28","","<div style=""font-size:60px;"">+</div>","null","","","","","","",""
"333.98000011220574","","image-keyboard-response","126","186853","0.0-4.0-0.29","","img/pink.png","32","trial","32","true","0.8,0.2","1:go_a","",""
"null","","html-keyboard-response","127","187870","0.0-4.0-1.29","","<img src=""img/pink-r.png"" border=""10"">","null","trial","32","","0.8,0.2","1:go_a","1",""
"null","","html-keyboard-response","128","188872","0.0-4.0-2.29","","<div style=""font-size:60px;"">+</div>","null","","","","","","",""
"901.5650000656024","","image-keyboard-response","129","189775","0.0-4.0-0.30","","img/pink.png","32","trial","32","true","0.8,0.2","1:go_a","",""
"null","","html-keyboard-response","130","190784","0.0-4.0-1.30","","<img src=""img/pink-r.png"" border=""10"">","null","trial","32","","0.8,0.2","1:go_a","1",""
"null","","html-keyboard-response","131","191801","0.0-4.0-2.30","","<div style=""font-size:60px;"">+</div>","null","","","","","","",""
"690.279999980703","","image-keyboard-response","132","192492","0.0-4.0-0.31","","img/orange.png","32","trial","null","false","0.2,0.8","2:nogo_b","",""
"null","","html-keyboard-response","133","193509","0.0-4.0-1.31","","<img src=""img/orange-n.png"" border=""10"">","null","trial","null","","0.2,0.8","2:nogo_b","0",""
"null","","html-keyboard-response","134","194514","0.0-4.0-2.31","","<div style=""font-size:60px;"">+</div>","null","","","","","","",""
"935.4049999965355","","image-keyboard-response","135","195451","0.0-4.0-0.32","","img/orange.png","32","trial","null","false","0.2,0.8","2:nogo_b","",""
"null","","html-keyboard-response","136","196464","0.0-4.0-1.32","","<img src=""img/orange-r.png"" border=""10"">","null","trial","null","","0.2,0.8","2:nogo_b","1",""
"null","","html-keyboard-response","137","197474","0.0-4.0-2.32","","<div style=""font-size:60px;"">+</div>","null","","","","","","",""
"424.28999999538064","","image-keyboard-response","138","197900","0.0-4.0-0.33","","img/pink.png","32","trial","32","true","0.8,0.2","1:go_a","",""
"null","","html-keyboard-response","139","198905","0.0-4.0-1.33","","<img src=""img/pink-r.png"" border=""10"">","null","trial","32","","0.8,0.2","1:go_a","1",""
"null","","html-keyboard-response","140","199912","0.0-4.0-2.33","","<div style=""font-size:60px;"">+</div>","null","","","","","","",""
"null","","image-keyboard-response","141","201414","0.0-4.0-0.34","","img/orange.png","null","trial","null","true","0.2,0.8","2:nogo_b","",""
"null","","html-keyboard-response","142","202423","0.0-4.0-1.34","","<img src=""img/orange-n.png"">","null","trial","null","","0.2,0.8","2:nogo_b","0",""
"null","","html-keyboard-response","143","203443","0.0-4.0-2.34","","<div style=""font-size:60px;"">+</div>","null","","","","","","",""
"605.8450000127777","","image-keyboard-response","144","204050","0.0-4.0-0.35","","img/pink.png","32","trial","32","true","0.8,0.2","1:go_a","",""
"null","","html-keyboard-response","145","205062","0.0-4.0-1.35","","<img src=""img/pink-r.png"" border=""10"">","null","trial","32","","0.8,0.2","1:go_a","1",""
"null","","html-keyboard-response","146","206072","0.0-4.0-2.35","","<div style=""font-size:60px;"">+</div>","null","","","","","","",""
"null","","image-keyboard-response","147","207576","0.0-4.0-0.36","","img/orange.png","null","trial","null","true","0.2,0.8","2:nogo_b","",""
"null","","html-keyboard-response","148","208580","0.0-4.0-1.36","","<img src=""img/orange-n.png"">","null","trial","null","","0.2,0.8","2:nogo_b","0",""
"null","","html-keyboard-response","149","209597","0.0-4.0-2.36","","<div style=""font-size:60px;"">+</div>","null","","","","","","",""
"624.1900000022724","","image-keyboard-response","150","210222","0.0-4.0-0.37","","img/pink.png","32","trial","32","true","0.8,0.2","1:go_a","",""
"null","","html-keyboard-response","151","211239","0.0-4.0-1.37","","<img src=""img/pink-r.png"" border=""10"">","null","trial","32","","0.8,0.2","1:go_a","1",""
"null","","html-keyboard-response","152","212245","0.0-4.0-2.37","","<div style=""font-size:60px;"">+</div>","null","","","","","","",""
"null","","image-keyboard-response","153","213760","0.0-4.0-0.38","","img/pink.png","null","trial","32","false","0.8,0.2","1:go_a","",""
"null","","html-keyboard-response","154","214764","0.0-4.0-1.38","","<img src=""img/pink-n.png"">","null","trial","32","","0.8,0.2","1:go_a","0",""
"null","","html-keyboard-response","155","215781","0.0-4.0-2.38","","<div style=""font-size:60px;"">+</div>","null","","","","","","",""
"372.2050000214949","","image-keyboard-response","156","216155","0.0-4.0-0.39","","img/orange.png","32","trial","null","false","0.2,0.8","2:nogo_b","",""
"null","","html-keyboard-response","157","217159","0.0-4.0-1.39","","<img src=""img/orange-n.png"" border=""10"">","null","trial","null","","0.2,0.8","2:nogo_b","0",""
"null","","html-keyboard-response","158","218175","0.0-4.0-2.39","","<div style=""font-size:60px;"">+</div>","null","","","","","","",""
"285.6799999717623","","image-keyboard-response","159","218463","0.0-4.0-0.40","","img/orange.png","32","trial","null","false","0.2,0.8","2:nogo_b","",""
"null","","html-keyboard-response","160","219481","0.0-4.0-1.40","","<img src=""img/orange-n.png"" border=""10"">","null","trial","null","","0.2,0.8","2:nogo_b","0",""
"null","","html-keyboard-response","161","220485","0.0-4.0-2.40","","<div style=""font-size:60px;"">+</div>","null","","","","","","",""
"null","","image-keyboard-response","162","221993","0.0-4.0-0.41","","img/pink.png","null","trial","32","false","0.8,0.2","1:go_a","",""
"null","","html-keyboard-response","163","222996","0.0-4.0-1.41","","<img src=""img/pink-n.png"">","null","trial","32","","0.8,0.2","1:go_a","0",""
"null","","html-keyboard-response","164","224001","0.0-4.0-2.41","","<div style=""font-size:60px;"">+</div>","null","","","","","","",""
"282.12500002700835","","image-keyboard-response","165","224285","0.0-4.0-0.42","","img/orange.png","32","trial","null","false","0.2,0.8","2:nogo_b","",""
"null","","html-keyboard-response","166","225292","0.0-4.0-1.42","","<img src=""img/orange-n.png"" border=""10"">","null","trial","null","","0.2,0.8","2:nogo_b","0",""
"null","","html-keyboard-response","167","226293","0.0-4.0-2.42","","<div style=""font-size:60px;"">+</div>","null","","","","","","",""
"412.3850000323728","","image-keyboard-response","168","226709","0.0-4.0-0.43","","img/pink.png","32","trial","32","true","0.8,0.2","1:go_a","",""
"null","","html-keyboard-response","169","227717","0.0-4.0-1.43","","<img src=""img/pink-r.png"" border=""10"">","null","trial","32","","0.8,0.2","1:go_a","1",""
"null","","html-keyboard-response","170","228724","0.0-4.0-2.43","","<div style=""font-size:60px;"">+</div>","null","","","","","","",""
"null","","image-keyboard-response","171","230234","0.0-4.0-0.44","","img/orange.png","null","trial","null","true","0.2,0.8","2:nogo_b","",""
"null","","html-keyboard-response","172","231238","0.0-4.0-1.44","","<img src=""img/orange-r.png"">","null","trial","null","","0.2,0.8","2:nogo_b","1",""
"null","","html-keyboard-response","173","232249","0.0-4.0-2.44","","<div style=""font-size:60px;"">+</div>","null","","","","","","",""
"427.8049999848008","","image-keyboard-response","174","232679","0.0-4.0-0.45","","img/pink.png","32","trial","32","true","0.8,0.2","1:go_a","",""
"null","","html-keyboard-response","175","233693","0.0-4.0-1.45","","<img src=""img/pink-n.png"" border=""10"">","null","trial","32","","0.8,0.2","1:go_a","0",""
"null","","html-keyboard-response","176","234710","0.0-4.0-2.45","","<div style=""font-size:60px;"">+</div>","null","","","","","","",""
"646.1800000397488","","image-keyboard-response","177","235358","0.0-4.0-0.46","","img/orange.png","32","trial","null","false","0.2,0.8","2:nogo_b","",""
"null","","html-keyboard-response","178","236362","0.0-4.0-1.46","","<img src=""img/orange-n.png"" border=""10"">","null","trial","null","","0.2,0.8","2:nogo_b","0",""
"null","","html-keyboard-response","179","237376","0.0-4.0-2.46","","<div style=""font-size:60px;"">+</div>","null","","","","","","",""
"null","","image-keyboard-response","180","238891","0.0-4.0-0.47","","img/pink.png","null","trial","32","false","0.8,0.2","1:go_a","",""
"null","","html-keyboard-response","181","239908","0.0-4.0-1.47","","<img src=""img/pink-n.png"">","null","trial","32","","0.8,0.2","1:go_a","0",""
"null","","html-keyboard-response","182","240916","0.0-4.0-2.47","","<div style=""font-size:60px;"">+</div>","null","","","","","","",""
"673.3750000130385","","image-keyboard-response","183","241591","0.0-4.0-0.48","","img/pink.png","32","trial","32","true","0.8,0.2","1:go_a","",""
"null","","html-keyboard-response","184","242597","0.0-4.0-1.48","","<img src=""img/pink-r.png"" border=""10"">","null","trial","32","","0.8,0.2","1:go_a","1",""
"null","","html-keyboard-response","185","243606","0.0-4.0-2.48","","<div style=""font-size:60px;"">+</div>","null","","","","","","",""
"null","","image-keyboard-response","186","245112","0.0-4.0-0.49","","img/orange.png","null","trial","null","true","0.2,0.8","2:nogo_b","",""
"null","","html-keyboard-response","187","246131","0.0-4.0-1.49","","<img src=""img/orange-r.png"">","null","trial","null","","0.2,0.8","2:nogo_b","1",""
"null","","html-keyboard-response","188","247132","0.0-4.0-2.49","","<div style=""font-size:60px;"">+</div>","null","","","","","","",""
"584.5650000264868","","image-keyboard-response","189","247719","0.0-4.0-0.50","","img/orange.png","32","trial","null","false","0.2,0.8","2:nogo_b","",""
"null","","html-keyboard-response","190","248728","0.0-4.0-1.50","","<img src=""img/orange-n.png"" border=""10"">","null","trial","null","","0.2,0.8","2:nogo_b","0",""
"null","","html-keyboard-response","191","249742","0.0-4.0-2.50","","<div style=""font-size:60px;"">+</div>","null","","","","","","",""
"null","","image-keyboard-response","192","251244","0.0-4.0-0.51","","img/pink.png","null","trial","32","false","0.8,0.2","1:go_a","",""
"null","","html-keyboard-response","193","252253","0.0-4.0-1.51","","<img src=""img/pink-n.png"">","null","trial","32","","0.8,0.2","1:go_a","0",""
"null","","html-keyboard-response","194","253268","0.0-4.0-2.51","","<div style=""font-size:60px;"">+</div>","null","","","","","","",""
"360.7649999903515","","image-keyboard-response","195","253631","0.0-4.0-0.52","","img/pink.png","32","trial","32","true","0.8,0.2","1:go_a","",""
"null","","html-keyboard-response","196","254638","0.0-4.0-1.52","","<img src=""img/pink-n.png"" border=""10"">","null","trial","32","","0.8,0.2","1:go_a","0",""
"null","","html-keyboard-response","197","255647","0.0-4.0-2.52","","<div style=""font-size:60px;"">+</div>","null","","","","","","",""
"729.094999958761","","image-keyboard-response","198","256377","0.0-4.0-0.53","","img/orange.png","32","trial","null","false","0.2,0.8","2:nogo_b","",""
"null","","html-keyboard-response","199","257387","0.0-4.0-1.53","","<img src=""img/orange-r.png"" border=""10"">","null","trial","null","","0.2,0.8","2:nogo_b","1",""
"null","","html-keyboard-response","200","258395","0.0-4.0-2.53","","<div style=""font-size:60px;"">+</div>","null","","","","","","",""
"null","","image-keyboard-response","201","259906","0.0-4.0-0.54","","img/orange.png","null","trial","null","true","0.2,0.8","2:nogo_b","",""
"null","","html-keyboard-response","202","260910","0.0-4.0-1.54","","<img src=""img/orange-n.png"">","null","trial","null","","0.2,0.8","2:nogo_b","0",""
"null","","html-keyboard-response","203","261914","0.0-4.0-2.54","","<div style=""font-size:60px;"">+</div>","null","","","","","","",""
"350.35000008065253","","image-keyboard-response","204","262265","0.0-4.0-0.55","","img/pink.png","32","trial","32","true","0.8,0.2","1:go_a","",""
"null","","html-keyboard-response","205","263274","0.0-4.0-1.55","","<img src=""img/pink-r.png"" border=""10"">","null","trial","32","","0.8,0.2","1:go_a","1",""
"null","","html-keyboard-response","206","264286","0.0-4.0-2.55","","<div style=""font-size:60px;"">+</div>","null","","","","","","",""
"null","","image-keyboard-response","207","265792","0.0-4.0-0.56","","img/orange.png","null","trial","null","true","0.2,0.8","2:nogo_b","",""
"null","","html-keyboard-response","208","266809","0.0-4.0-1.56","","<img src=""img/orange-r.png"">","null","trial","null","","0.2,0.8","2:nogo_b","1",""
"null","","html-keyboard-response","209","267815","0.0-4.0-2.56","","<div style=""font-size:60px;"">+</div>","null","","","","","","",""
"1007.8099999809638","","image-keyboard-response","210","268825","0.0-4.0-0.57","","img/pink.png","32","trial","32","true","0.8,0.2","1:go_a","",""
"null","","html-keyboard-response","211","269841","0.0-4.0-1.57","","<img src=""img/pink-r.png"" border=""10"">","null","trial","32","","0.8,0.2","1:go_a","1",""
"null","","html-keyboard-response","212","270849","0.0-4.0-2.57","","<div style=""font-size:60px;"">+</div>","null","","","","","","",""
"null","","image-keyboard-response","213","272366","0.0-4.0-0.58","","img/pink.png","null","trial","32","false","0.8,0.2","1:go_a","",""
"null","","html-keyboard-response","214","273380","0.0-4.0-1.58","","<img src=""img/pink-n.png"">","null","trial","32","","0.8,0.2","1:go_a","0",""
"null","","html-keyboard-response","215","274390","0.0-4.0-2.58","","<div style=""font-size:60px;"">+</div>","null","","","","","","",""
"337.2250000247732","","image-keyboard-response","216","274729","0.0-4.0-0.59","","img/orange.png","32","trial","null","false","0.2,0.8","2:nogo_b","",""
"null","","html-keyboard-response","217","275740","0.0-4.0-1.59","","<img src=""img/orange-n.png"" border=""10"">","null","trial","null","","0.2,0.8","2:nogo_b","0",""
"null","","html-keyboard-response","218","276745","0.0-4.0-2.59","","<div style=""font-size:60px;"">+</div>","null","","","","","","",""
"2464.299999992363","","instructions","219","279210","0.0-5.0","[{""page_index"":0,""viewing_time"":2463.980000000447}]","","","","","","","","",""
"null","","image-keyboard-response","220","280726","0.0-6.0-0.0","","img/yellow.png","null","trial","32","false","1,0","3:go_c","",""
"null","","html-keyboard-response","221","281746","0.0-6.0-1.0","","<img src=""img/yellow-n.png"">","null","trial","32","","1,0","3:go_c","0",""
"null","","html-keyboard-response","222","282765","0.0-6.0-2.0","","<div style=""font-size:60px;"">+</div>","null","","","","","","",""
"511.2700000172481","","image-keyboard-response","223","283279","0.0-6.0-0.1","","img/blue.png","32","trial","null","false","0,1","4:nogo_d","",""
"null","","html-keyboard-response","224","284295","0.0-6.0-1.1","","<img src=""img/blue-n.png"" border=""10"">","null","trial","null","","0,1","4:nogo_d","0",""
"null","","html-keyboard-response","225","285305","0.0-6.0-2.1","","<div style=""font-size:60px;"">+</div>","null","","","","","","",""
"689.7200000239536","","image-keyboard-response","226","285997","0.0-6.0-0.2","","img/pink.png","32","trial","null","false","0.2,0.8","2:nogo_b","",""
"null","","html-keyboard-response","227","287011","0.0-6.0-1.2","","<img src=""img/pink-r.png"" border=""10"">","null","trial","null","","0.2,0.8","2:nogo_b","1",""
"null","","html-keyboard-response","228","288014","0.0-6.0-2.2","","<div style=""font-size:60px;"">+</div>","null","","","","","","",""
"null","","image-keyboard-response","229","289516","0.0-6.0-0.3","","img/purple.png","null","trial","32","false","0.8,0.2","1:go_a","",""
"null","","html-keyboard-response","230","290519","0.0-6.0-1.3","","<img src=""img/purple-n.png"">","null","trial","32","","0.8,0.2","1:go_a","0",""
"null","","html-keyboard-response","231","291529","0.0-6.0-2.3","","<div style=""font-size:60px;"">+</div>","null","","","","","","",""
"382.3100000154227","","image-keyboard-response","232","291913","0.0-6.0-0.4","","img/pink.png","32","trial","null","false","0.2,0.8","2:nogo_b","",""
"null","","html-keyboard-response","233","292917","0.0-6.0-1.4","","<img src=""img/pink-n.png"" border=""10"">","null","trial","null","","0.2,0.8","2:nogo_b","0",""
"null","","html-keyboard-response","234","293928","0.0-6.0-2.4","","<div style=""font-size:60px;"">+</div>","null","","","","","","",""
"723.1000000610948","","image-keyboard-response","235","294653","0.0-6.0-0.5","","img/blue.png","32","trial","null","false","0,1","4:nogo_d","",""
"null","","html-keyboard-response","236","295658","0.0-6.0-1.5","","<img src=""img/blue-n.png"" border=""10"">","null","trial","null","","0,1","4:nogo_d","0",""
"null","","html-keyboard-response","237","296660","0.0-6.0-2.5","","<div style=""font-size:60px;"">+</div>","null","","","","","","",""
"1004.7299999278039","","image-keyboard-response","238","297667","0.0-6.0-0.6","","img/purple.png","32","trial","32","true","0.8,0.2","1:go_a","",""
"null","","html-keyboard-response","239","298683","0.0-6.0-1.6","","<img src=""img/purple-r.png"" border=""10"">","null","trial","32","","0.8,0.2","1:go_a","1",""
"null","","html-keyboard-response","240","299689","0.0-6.0-2.6","","<div style=""font-size:60px;"">+</div>","null","","","","","","",""
"null","","image-keyboard-response","241","301206","0.0-6.0-0.7","","img/yellow.png","null","trial","32","false","1,0","3:go_c","",""
"null","","html-keyboard-response","242","302211","0.0-6.0-1.7","","<img src=""img/yellow-n.png"">","null","trial","32","","1,0","3:go_c","0",""
"null","","html-keyboard-response","243","303218","0.0-6.0-2.7","","<div style=""font-size:60px;"">+</div>","null","","","","","","",""
"654.4550000689924","","image-keyboard-response","244","303874","0.0-6.0-0.8","","img/pink.png","32","trial","null","false","0.2,0.8","2:nogo_b","",""
"null","","html-keyboard-response","245","304886","0.0-6.0-1.8","","<img src=""img/pink-n.png"" border=""10"">","null","trial","null","","0.2,0.8","2:nogo_b","0",""
"null","","html-keyboard-response","246","305895","0.0-6.0-2.8","","<div style=""font-size:60px;"">+</div>","null","","","","","","",""
"null","","image-keyboard-response","247","307411","0.0-6.0-0.9","","img/blue.png","null","trial","null","true","0,1","4:nogo_d","",""
"null","","html-keyboard-response","248","308425","0.0-6.0-1.9","","<img src=""img/blue-r.png"">","null","trial","null","","0,1","4:nogo_d","1",""
"null","","html-keyboard-response","249","309429","0.0-6.0-2.9","","<div style=""font-size:60px;"">+</div>","null","","","","","","",""
"420.07999995257705","","image-keyboard-response","250","309852","0.0-6.0-0.10","","img/purple.png","32","trial","32","true","0.8,0.2","1:go_a","",""
"null","","html-keyboard-response","251","310855","0.0-6.0-1.10","","<img src=""img/purple-r.png"" border=""10"">","null","trial","32","","0.8,0.2","1:go_a","1",""
"null","","html-keyboard-response","252","311858","0.0-6.0-2.10","","<div style=""font-size:60px;"">+</div>","null","","","","","","",""
"null","","image-keyboard-response","253","313368","0.0-6.0-0.11","","img/yellow.png","null","trial","32","false","1,0","3:go_c","",""
"null","","html-keyboard-response","254","314376","0.0-6.0-1.11","","<img src=""img/yellow-n.png"">","null","trial","32","","1,0","3:go_c","0",""
"null","","html-keyboard-response","255","315378","0.0-6.0-2.11","","<div style=""font-size:60px;"">+</div>","null","","","","","","",""
"null","","image-keyboard-response","256","316891","0.0-6.0-0.12","","img/yellow.png","null","trial","32","false","1,0","3:go_c","",""
"null","","html-keyboard-response","257","317897","0.0-6.0-1.12","","<img src=""img/yellow-n.png"">","null","trial","32","","1,0","3:go_c","0",""
"null","","html-keyboard-response","258","318903","0.0-6.0-2.12","","<div style=""font-size:60px;"">+</div>","null","","","","","","",""
"514.6199999144301","","image-keyboard-response","259","319420","0.0-6.0-0.13","","img/purple.png","32","trial","32","true","0.8,0.2","1:go_a","",""
"null","","html-keyboard-response","260","320430","0.0-6.0-1.13","","<img src=""img/purple-r.png"" border=""10"">","null","trial","32","","0.8,0.2","1:go_a","1",""
"null","","html-keyboard-response","261","321439","0.0-6.0-2.13","","<div style=""font-size:60px;"">+</div>","null","","","","","","",""
"593.5799999861047","","image-keyboard-response","262","322033","0.0-6.0-0.14","","img/blue.png","32","trial","null","false","0,1","4:nogo_d","",""
"null","","html-keyboard-response","263","323040","0.0-6.0-1.14","","<img src=""img/blue-n.png"" border=""10"">","null","trial","null","","0,1","4:nogo_d","0",""
"null","","html-keyboard-response","264","324048","0.0-6.0-2.14","","<div style=""font-size:60px;"">+</div>","null","","","","","","",""
"null","","image-keyboard-response","265","325558","0.0-6.0-0.15","","img/pink.png","null","trial","null","true","0.2,0.8","2:nogo_b","",""
"null","","html-keyboard-response","266","326562","0.0-6.0-1.15","","<img src=""img/pink-r.png"">","null","trial","null","","0.2,0.8","2:nogo_b","1",""
"null","","html-keyboard-response","267","327569","0.0-6.0-2.15","","<div style=""font-size:60px;"">+</div>","null","","","","","","",""
"529.3050000909716","","image-keyboard-response","268","328100","0.0-6.0-0.16","","img/purple.png","32","trial","32","true","0.8,0.2","1:go_a","",""
"null","","html-keyboard-response","269","329126","0.0-6.0-1.16","","<img src=""img/purple-r.png"" border=""10"">","null","trial","32","","0.8,0.2","1:go_a","1",""
"null","","html-keyboard-response","270","330132","0.0-6.0-2.16","","<div style=""font-size:60px;"">+</div>","null","","","","","","",""
"null","","image-keyboard-response","271","331640","0.0-6.0-0.17","","img/yellow.png","null","trial","32","false","1,0","3:go_c","",""
"null","","html-keyboard-response","272","332647","0.0-6.0-1.17","","<img src=""img/yellow-n.png"">","null","trial","32","","1,0","3:go_c","0",""
"null","","html-keyboard-response","273","333657","0.0-6.0-2.17","","<div style=""font-size:60px;"">+</div>","null","","","","","","",""
"649.21000006143","","image-keyboard-response","274","334308","0.0-6.0-0.18","","img/pink.png","32","trial","null","false","0.2,0.8","2:nogo_b","",""
"null","","html-keyboard-response","275","335316","0.0-6.0-1.18","","<img src=""img/pink-n.png"" border=""10"">","null","trial","null","","0.2,0.8","2:nogo_b","0",""
"null","","html-keyboard-response","276","336318","0.0-6.0-2.18","","<div style=""font-size:60px;"">+</div>","null","","","","","","",""
"417.0849999645725","","image-keyboard-response","277","336737","0.0-6.0-0.19","","img/blue.png","32","trial","null","false","0,1","4:nogo_d","",""
"null","","html-keyboard-response","278","337749","0.0-6.0-1.19","","<img src=""img/blue-n.png"" border=""10"">","null","trial","null","","0,1","4:nogo_d","0",""
"null","","html-keyboard-response","279","338754","0.0-6.0-2.19","","<div style=""font-size:60px;"">+</div>","null","","","","","","",""
"556.0699999332428","","image-keyboard-response","280","339312","0.0-6.0-0.20","","img/purple.png","32","trial","32","true","0.8,0.2","1:go_a","",""
"null","","html-keyboard-response","281","340324","0.0-6.0-1.20","","<img src=""img/purple-r.png"" border=""10"">","null","trial","32","","0.8,0.2","1:go_a","1",""
"null","","html-keyboard-response","282","341333","0.0-6.0-2.20","","<div style=""font-size:60px;"">+</div>","null","","","","","","",""
"null","","image-keyboard-response","283","342837","0.0-6.0-0.21","","img/pink.png","null","trial","null","true","0.2,0.8","2:nogo_b","",""
"null","","html-keyboard-response","284","343853","0.0-6.0-1.21","","<img src=""img/pink-r.png"">","null","trial","null","","0.2,0.8","2:nogo_b","1",""
"null","","html-keyboard-response","285","344863","0.0-6.0-2.21","","<div style=""font-size:60px;"">+</div>","null","","","","","","",""
"null","","image-keyboard-response","286","346371","0.0-6.0-0.22","","img/yellow.png","null","trial","32","false","1,0","3:go_c","",""
"null","","html-keyboard-response","287","347377","0.0-6.0-1.22","","<img src=""img/yellow-n.png"">","null","trial","32","","1,0","3:go_c","0",""
"null","","html-keyboard-response","288","348380","0.0-6.0-2.22","","<div style=""font-size:60px;"">+</div>","null","","","","","","",""
"null","","image-keyboard-response","289","349887","0.0-6.0-0.23","","img/blue.png","null","trial","null","true","0,1","4:nogo_d","",""
"null","","html-keyboard-response","290","350898","0.0-6.0-1.23","","<img src=""img/blue-r.png"">","null","trial","null","","0,1","4:nogo_d","1",""
"null","","html-keyboard-response","291","351904","0.0-6.0-2.23","","<div style=""font-size:60px;"">+</div>","null","","","","","","",""
"595.9550000261515","","image-keyboard-response","292","352502","0.0-6.0-0.24","","img/pink.png","32","trial","null","false","0.2,0.8","2:nogo_b","",""
"null","","html-keyboard-response","293","353520","0.0-6.0-1.24","","<img src=""img/pink-n.png"" border=""10"">","null","trial","null","","0.2,0.8","2:nogo_b","0",""
"null","","html-keyboard-response","294","354524","0.0-6.0-2.24","","<div style=""font-size:60px;"">+</div>","null","","","","","","",""
"434.4950000522658","","image-keyboard-response","295","354960","0.0-6.0-0.25","","img/purple.png","32","trial","32","true","0.8,0.2","1:go_a","",""
"null","","html-keyboard-response","296","355968","0.0-6.0-1.25","","<img src=""img/purple-n.png"" border=""10"">","null","trial","32","","0.8,0.2","1:go_a","0",""
"null","","html-keyboard-response","297","356976","0.0-6.0-2.25","","<div style=""font-size:60px;"">+</div>","null","","","","","","",""
"426.73499998636544","","image-keyboard-response","298","357404","0.0-6.0-0.26","","img/blue.png","32","trial","null","false","0,1","4:nogo_d","",""
"null","","html-keyboard-response","299","358415","0.0-6.0-1.26","","<img src=""img/blue-n.png"" border=""10"">","null","trial","null","","0,1","4:nogo_d","0",""
"null","","html-keyboard-response","300","359426","0.0-6.0-2.26","","<div style=""font-size:60px;"">+</div>","null","","","","","","",""
"584.9200000520796","","image-keyboard-response","301","360013","0.0-6.0-0.27","","img/yellow.png","32","trial","32","true","1,0","3:go_c","",""
"null","","html-keyboard-response","302","361057","0.0-6.0-1.27","","<img src=""img/yellow-r.png"" border=""10"">","null","trial","32","","1,0","3:go_c","1",""
"null","","html-keyboard-response","303","362070","0.0-6.0-2.27","","<div style=""font-size:60px;"">+</div>","null","","","","","","",""
"589.9000000208616","","image-keyboard-response","304","362661","0.0-6.0-0.28","","img/blue.png","32","trial","null","false","0,1","4:nogo_d","",""
"null","","html-keyboard-response","305","363667","0.0-6.0-1.28","","<img src=""img/blue-n.png"" border=""10"">","null","trial","null","","0,1","4:nogo_d","0",""
"null","","html-keyboard-response","306","364673","0.0-6.0-2.28","","<div style=""font-size:60px;"">+</div>","null","","","","","","",""
"null","","image-keyboard-response","307","366191","0.0-6.0-0.29","","img/purple.png","null","trial","32","false","0.8,0.2","1:go_a","",""
"null","","html-keyboard-response","308","367196","0.0-6.0-1.29","","<img src=""img/purple-n.png"">","null","trial","32","","0.8,0.2","1:go_a","0",""
"null","","html-keyboard-response","309","368213","0.0-6.0-2.29","","<div style=""font-size:60px;"">+</div>","null","","","","","","",""
"448.86500004213303","","image-keyboard-response","310","368663","0.0-6.0-0.30","","img/yellow.png","32","trial","32","true","1,0","3:go_c","",""
"null","","html-keyboard-response","311","369673","0.0-6.0-1.30","","<img src=""img/yellow-r.png"" border=""10"">","null","trial","32","","1,0","3:go_c","1",""
"null","","html-keyboard-response","312","370675","0.0-6.0-2.30","","<div style=""font-size:60px;"">+</div>","null","","","","","","",""
"null","","image-keyboard-response","313","372191","0.0-6.0-0.31","","img/pink.png","null","trial","null","true","0.2,0.8","2:nogo_b","",""
"null","","html-keyboard-response","314","373199","0.0-6.0-1.31","","<img src=""img/pink-r.png"">","null","trial","null","","0.2,0.8","2:nogo_b","1",""
"null","","html-keyboard-response","315","374203","0.0-6.0-2.31","","<div style=""font-size:60px;"">+</div>","null","","","","","","",""
"426.0050000157207","","image-keyboard-response","316","374630","0.0-6.0-0.32","","img/blue.png","32","trial","null","false","0,1","4:nogo_d","",""
"null","","html-keyboard-response","317","375646","0.0-6.0-1.32","","<img src=""img/blue-n.png"" border=""10"">","null","trial","null","","0,1","4:nogo_d","0",""
"null","","html-keyboard-response","318","376664","0.0-6.0-2.32","","<div style=""font-size:60px;"">+</div>","null","","","","","","",""
"639.0699999174103","","image-keyboard-response","319","377304","0.0-6.0-0.33","","img/yellow.png","32","trial","32","true","1,0","3:go_c","",""
"null","","html-keyboard-response","320","378330","0.0-6.0-1.33","","<img src=""img/yellow-r.png"" border=""10"">","null","trial","32","","1,0","3:go_c","1",""
"null","","html-keyboard-response","321","379338","0.0-6.0-2.33","","<div style=""font-size:60px;"">+</div>","null","","","","","","",""
"552.3100000573322","","image-keyboard-response","322","379892","0.0-6.0-0.34","","img/purple.png","32","trial","32","true","0.8,0.2","1:go_a","",""
"null","","html-keyboard-response","323","380909","0.0-6.0-1.34","","<img src=""img/purple-r.png"" border=""10"">","null","trial","32","","0.8,0.2","1:go_a","1",""
"null","","html-keyboard-response","324","381929","0.0-6.0-2.34","","<div style=""font-size:60px;"">+</div>","null","","","","","","",""
"620.8999999798834","","image-keyboard-response","325","382551","0.0-6.0-0.35","","img/pink.png","32","trial","null","false","0.2,0.8","2:nogo_b","",""
"null","","html-keyboard-response","326","383565","0.0-6.0-1.35","","<img src=""img/pink-r.png"" border=""10"">","null","trial","null","","0.2,0.8","2:nogo_b","1",""
"null","","html-keyboard-response","327","384581","0.0-6.0-2.35","","<div style=""font-size:60px;"">+</div>","null","","","","","","",""
"null","","image-keyboard-response","328","386097","0.0-6.0-0.36","","img/pink.png","null","trial","null","true","0.2,0.8","2:nogo_b","",""
"null","","html-keyboard-response","329","387109","0.0-6.0-1.36","","<img src=""img/pink-r.png"">","null","trial","null","","0.2,0.8","2:nogo_b","1",""
"null","","html-keyboard-response","330","388111","0.0-6.0-2.36","","<div style=""font-size:60px;"">+</div>","null","","","","","","",""
"647.4499999312684","","image-keyboard-response","331","388760","0.0-6.0-0.37","","img/purple.png","32","trial","32","true","0.8,0.2","1:go_a","",""
"null","","html-keyboard-response","332","389776","0.0-6.0-1.37","","<img src=""img/purple-r.png"" border=""10"">","null","trial","32","","0.8,0.2","1:go_a","1",""
"null","","html-keyboard-response","333","390785","0.0-6.0-2.37","","<div style=""font-size:60px;"">+</div>","null","","","","","","",""
"null","","image-keyboard-response","334","392287","0.0-6.0-0.38","","img/yellow.png","null","trial","32","false","1,0","3:go_c","",""
"null","","html-keyboard-response","335","393299","0.0-6.0-1.38","","<img src=""img/yellow-n.png"">","null","trial","32","","1,0","3:go_c","0",""
"null","","html-keyboard-response","336","394314","0.0-6.0-2.38","","<div style=""font-size:60px;"">+</div>","null","","","","","","",""
"642.69999996759","","image-keyboard-response","337","394958","0.0-6.0-0.39","","img/blue.png","32","trial","null","false","0,1","4:nogo_d","",""
"null","","html-keyboard-response","338","395962","0.0-6.0-1.39","","<img src=""img/blue-n.png"" border=""10"">","null","trial","null","","0,1","4:nogo_d","0",""
"null","","html-keyboard-response","339","396978","0.0-6.0-2.39","","<div style=""font-size:60px;"">+</div>","null","","","","","","",""
"null","","image-keyboard-response","340","398495","0.0-6.0-0.40","","img/yellow.png","null","trial","32","false","1,0","3:go_c","",""
"null","","html-keyboard-response","341","399506","0.0-6.0-1.40","","<img src=""img/yellow-n.png"">","null","trial","32","","1,0","3:go_c","0",""
"null","","html-keyboard-response","342","400512","0.0-6.0-2.40","","<div style=""font-size:60px;"">+</div>","null","","","","","","",""
"480.11000000406057","","image-keyboard-response","343","400995","0.0-6.0-0.41","","img/blue.png","32","trial","null","false","0,1","4:nogo_d","",""
"null","","html-keyboard-response","344","401998","0.0-6.0-1.41","","<img src=""img/blue-n.png"" border=""10"">","null","trial","null","","0,1","4:nogo_d","0",""
"null","","html-keyboard-response","345","403001","0.0-6.0-2.41","","<div style=""font-size:60px;"">+</div>","null","","","","","","",""
"669.5400000317022","","image-keyboard-response","346","403671","0.0-6.0-0.42","","img/pink.png","32","trial","null","false","0.2,0.8","2:nogo_b","",""
"null","","html-keyboard-response","347","404679","0.0-6.0-1.42","","<img src=""img/pink-n.png"" border=""10"">","null","trial","null","","0.2,0.8","2:nogo_b","0",""
"null","","html-keyboard-response","348","405683","0.0-6.0-2.42","","<div style=""font-size:60px;"">+</div>","null","","","","","","",""
"null","","image-keyboard-response","349","407199","0.0-6.0-0.43","","img/purple.png","null","trial","32","false","0.8,0.2","1:go_a","",""
"null","","html-keyboard-response","350","408212","0.0-6.0-1.43","","<img src=""img/purple-n.png"">","null","trial","32","","0.8,0.2","1:go_a","0",""
"null","","html-keyboard-response","351","409229","0.0-6.0-2.43","","<div style=""font-size:60px;"">+</div>","null","","","","","","",""
"498.52999998256564","","image-keyboard-response","352","409729","0.0-6.0-0.44","","img/pink.png","32","trial","null","false","0.2,0.8","2:nogo_b","",""
"null","","html-keyboard-response","353","410746","0.0-6.0-1.44","","<img src=""img/pink-r.png"" border=""10"">","null","trial","null","","0.2,0.8","2:nogo_b","1",""
"null","","html-keyboard-response","354","411762","0.0-6.0-2.44","","<div style=""font-size:60px;"">+</div>","null","","","","","","",""
"null","","image-keyboard-response","355","413266","0.0-6.0-0.45","","img/yellow.png","null","trial","32","false","1,0","3:go_c","",""
"null","","html-keyboard-response","356","414274","0.0-6.0-1.45","","<img src=""img/yellow-n.png"">","null","trial","32","","1,0","3:go_c","0",""
"null","","html-keyboard-response","357","415276","0.0-6.0-2.45","","<div style=""font-size:60px;"">+</div>","null","","","","","","",""
"415.9900000086054","","image-keyboard-response","358","415694","0.0-6.0-0.46","","img/purple.png","32","trial","32","true","0.8,0.2","1:go_a","",""
"null","","html-keyboard-response","359","416706","0.0-6.0-1.46","","<img src=""img/purple-r.png"" border=""10"">","null","trial","32","","0.8,0.2","1:go_a","1",""
"null","","html-keyboard-response","360","417708","0.0-6.0-2.46","","<div style=""font-size:60px;"">+</div>","null","","","","","","",""
"null","","image-keyboard-response","361","419212","0.0-6.0-0.47","","img/blue.png","null","trial","null","true","0,1","4:nogo_d","",""
"null","","html-keyboard-response","362","420219","0.0-6.0-1.47","","<img src=""img/blue-r.png"">","null","trial","null","","0,1","4:nogo_d","1",""
"null","","html-keyboard-response","363","421235","0.0-6.0-2.47","","<div style=""font-size:60px;"">+</div>","null","","","","","","",""
"449.6750000398606","","image-keyboard-response","364","421686","0.0-6.0-0.48","","img/blue.png","32","trial","null","false","0,1","4:nogo_d","",""
"null","","html-keyboard-response","365","422691","0.0-6.0-1.48","","<img src=""img/blue-n.png"" border=""10"">","null","trial","null","","0,1","4:nogo_d","0",""
"null","","html-keyboard-response","366","423693","0.0-6.0-2.48","","<div style=""font-size:60px;"">+</div>","null","","","","","","",""
"428.2899999525398","","image-keyboard-response","367","424123","0.0-6.0-0.49","","img/pink.png","32","trial","null","false","0.2,0.8","2:nogo_b","",""
"null","","html-keyboard-response","368","425140","0.0-6.0-1.49","","<img src=""img/pink-r.png"" border=""10"">","null","trial","null","","0.2,0.8","2:nogo_b","1",""
"null","","html-keyboard-response","369","426147","0.0-6.0-2.49","","<div style=""font-size:60px;"">+</div>","null","","","","","","",""
"null","","image-keyboard-response","370","427654","0.0-6.0-0.50","","img/yellow.png","null","trial","32","false","1,0","3:go_c","",""
"null","","html-keyboard-response","371","428657","0.0-6.0-1.50","","<img src=""img/yellow-n.png"">","null","trial","32","","1,0","3:go_c","0",""
"null","","html-keyboard-response","372","429659","0.0-6.0-2.50","","<div style=""font-size:60px;"">+</div>","null","","","","","","",""
"470.7100000232458","","image-keyboard-response","373","430132","0.0-6.0-0.51","","img/purple.png","32","trial","32","true","0.8,0.2","1:go_a","",""
"null","","html-keyboard-response","374","431146","0.0-6.0-1.51","","<img src=""img/purple-r.png"" border=""10"">","null","trial","32","","0.8,0.2","1:go_a","1",""
"null","","html-keyboard-response","375","432148","0.0-6.0-2.51","","<div style=""font-size:60px;"">+</div>","null","","","","","","",""
"null","","image-keyboard-response","376","433666","0.0-6.0-0.52","","img/blue.png","null","trial","null","true","0,1","4:nogo_d","",""
"null","","html-keyboard-response","377","434678","0.0-6.0-1.52","","<img src=""img/blue-r.png"">","null","trial","null","","0,1","4:nogo_d","1",""
"null","","html-keyboard-response","378","435682","0.0-6.0-2.52","","<div style=""font-size:60px;"">+</div>","null","","","","","","",""
"483.6200000718236","","image-keyboard-response","379","436167","0.0-6.0-0.53","","img/purple.png","32","trial","32","true","0.8,0.2","1:go_a","",""
"null","","html-keyboard-response","380","437172","0.0-6.0-1.53","","<img src=""img/purple-r.png"" border=""10"">","null","trial","32","","0.8,0.2","1:go_a","1",""
"null","","html-keyboard-response","381","438181","0.0-6.0-2.53","","<div style=""font-size:60px;"">+</div>","null","","","","","","",""
"536.9499999796972","","image-keyboard-response","382","438719","0.0-6.0-0.54","","img/yellow.png","32","trial","32","true","1,0","3:go_c","",""
"null","","html-keyboard-response","383","439730","0.0-6.0-1.54","","<img src=""img/yellow-r.png"" border=""10"">","null","trial","32","","1,0","3:go_c","1",""
"null","","html-keyboard-response","384","440737","0.0-6.0-2.54","","<div style=""font-size:60px;"">+</div>","null","","","","","","",""
"764.7249998990446","","image-keyboard-response","385","441503","0.0-6.0-0.55","","img/pink.png","32","trial","null","false","0.2,0.8","2:nogo_b","",""
"null","","html-keyboard-response","386","442516","0.0-6.0-1.55","","<img src=""img/pink-n.png"" border=""10"">","null","trial","null","","0.2,0.8","2:nogo_b","0",""
"null","","html-keyboard-response","387","443521","0.0-6.0-2.55","","<div style=""font-size:60px;"">+</div>","null","","","","","","",""
"null","","image-keyboard-response","388","445027","0.0-6.0-0.56","","img/blue.png","null","trial","null","true","0,1","4:nogo_d","",""
"null","","html-keyboard-response","389","446038","0.0-6.0-1.56","","<img src=""img/blue-r.png"">","null","trial","null","","0,1","4:nogo_d","1",""
"null","","html-keyboard-response","390","447040","0.0-6.0-2.56","","<div style=""font-size:60px;"">+</div>","null","","","","","","",""
"421.8249999685213","","image-keyboard-response","391","447463","0.0-6.0-0.57","","img/yellow.png","32","trial","32","true","1,0","3:go_c","",""
"null","","html-keyboard-response","392","448467","0.0-6.0-1.57","","<img src=""img/yellow-r.png"" border=""10"">","null","trial","32","","1,0","3:go_c","1",""
"null","","html-keyboard-response","393","449478","0.0-6.0-2.57","","<div style=""font-size:60px;"">+</div>","null","","","","","","",""
"500.37999998312443","","image-keyboard-response","394","449981","0.0-6.0-0.58","","img/purple.png","32","trial","32","true","0.8,0.2","1:go_a","",""
"null","","html-keyboard-response","395","450990","0.0-6.0-1.58","","<img src=""img/purple-r.png"" border=""10"">","null","trial","32","","0.8,0.2","1:go_a","1",""
"null","","html-keyboard-response","396","451999","0.0-6.0-2.58","","<div style=""font-size:60px;"">+</div>","null","","","","","","",""
"null","","image-keyboard-response","397","453507","0.0-6.0-0.59","","img/pink.png","null","trial","null","true","0.2,0.8","2:nogo_b","",""
"null","","html-keyboard-response","398","454519","0.0-6.0-1.59","","<img src=""img/pink-r.png"">","null","trial","null","","0.2,0.8","2:nogo_b","1",""
"null","","html-keyboard-response","399","455527","0.0-6.0-2.59","","<div style=""font-size:60px;"">+</div>","null","","","","","","",""
"465.4449999798089","","image-keyboard-response","400","455994","0.0-6.0-0.60","","img/yellow.png","32","trial","32","true","1,0","3:go_c","",""
"null","","html-keyboard-response","401","456997","0.0-6.0-1.60","","<img src=""img/yellow-r.png"" border=""10"">","null","trial","32","","1,0","3:go_c","1",""
"null","","html-keyboard-response","402","458001","0.0-6.0-2.60","","<div style=""font-size:60px;"">+</div>","null","","","","","","",""
"null","","image-keyboard-response","403","459517","0.0-6.0-0.61","","img/pink.png","null","trial","null","true","0.2,0.8","2:nogo_b","",""
"null","","html-keyboard-response","404","460529","0.0-6.0-1.61","","<img src=""img/pink-r.png"">","null","trial","null","","0.2,0.8","2:nogo_b","1",""
"null","","html-keyboard-response","405","461530","0.0-6.0-2.61","","<div style=""font-size:60px;"">+</div>","null","","","","","","",""
"483.95000002346933","","image-keyboard-response","406","462016","0.0-6.0-0.62","","img/purple.png","32","trial","32","true","0.8,0.2","1:go_a","",""
"null","","html-keyboard-response","407","463030","0.0-6.0-1.62","","<img src=""img/purple-r.png"" border=""10"">","null","trial","32","","0.8,0.2","1:go_a","1",""
"null","","html-keyboard-response","408","464045","0.0-6.0-2.62","","<div style=""font-size:60px;"">+</div>","null","","","","","","",""
"489.39499992411584","","image-keyboard-response","409","464536","0.0-6.0-0.63","","img/blue.png","32","trial","null","false","0,1","4:nogo_d","",""
"null","","html-keyboard-response","410","465543","0.0-6.0-1.63","","<img src=""img/blue-n.png"" border=""10"">","null","trial","null","","0,1","4:nogo_d","0",""
"null","","html-keyboard-response","411","466560","0.0-6.0-2.63","","<div style=""font-size:60px;"">+</div>","null","","","","","","",""
"599.8649999964982","","image-keyboard-response","412","467162","0.0-6.0-0.64","","img/purple.png","32","trial","32","true","0.8,0.2","1:go_a","",""
"null","","html-keyboard-response","413","468176","0.0-6.0-1.64","","<img src=""img/purple-r.png"" border=""10"">","null","trial","32","","0.8,0.2","1:go_a","1",""
"null","","html-keyboard-response","414","469190","0.0-6.0-2.64","","<div style=""font-size:60px;"">+</div>","null","","","","","","",""
"null","","image-keyboard-response","415","470695","0.0-6.0-0.65","","img/pink.png","null","trial","null","true","0.2,0.8","2:nogo_b","",""
"null","","html-keyboard-response","416","471700","0.0-6.0-1.65","","<img src=""img/pink-r.png"">","null","trial","null","","0.2,0.8","2:nogo_b","1",""
"null","","html-keyboard-response","417","472708","0.0-6.0-2.65","","<div style=""font-size:60px;"">+</div>","null","","","","","","",""
"354.9549999879673","","image-keyboard-response","418","473065","0.0-6.0-0.66","","img/yellow.png","32","trial","32","true","1,0","3:go_c","",""
"null","","html-keyboard-response","419","474075","0.0-6.0-1.66","","<img src=""img/yellow-r.png"" border=""10"">","null","trial","32","","1,0","3:go_c","1",""
"null","","html-keyboard-response","420","475079","0.0-6.0-2.66","","<div style=""font-size:60px;"">+</div>","null","","","","","","",""
"539.5000000717118","","image-keyboard-response","421","475621","0.0-6.0-0.67","","img/blue.png","32","trial","null","false","0,1","4:nogo_d","",""
"null","","html-keyboard-response","422","476632","0.0-6.0-1.67","","<img src=""img/blue-n.png"" border=""10"">","null","trial","null","","0,1","4:nogo_d","0",""
"null","","html-keyboard-response","423","477633","0.0-6.0-2.67","","<div style=""font-size:60px;"">+</div>","null","","","","","","",""
"451.69500005431473","","image-keyboard-response","424","478087","0.0-6.0-0.68","","img/purple.png","32","trial","32","true","0.8,0.2","1:go_a","",""
"null","","html-keyboard-response","425","479096","0.0-6.0-1.68","","<img src=""img/purple-r.png"" border=""10"">","null","trial","32","","0.8,0.2","1:go_a","1",""
"null","","html-keyboard-response","426","480115","0.0-6.0-2.68","","<div style=""font-size:60px;"">+</div>","null","","","","","","",""
"839.9150000186637","","image-keyboard-response","427","480957","0.0-6.0-0.69","","img/pink.png","32","trial","null","false","0.2,0.8","2:nogo_b","",""
"null","","html-keyboard-response","428","481972","0.0-6.0-1.69","","<img src=""img/pink-n.png"" border=""10"">","null","trial","null","","0.2,0.8","2:nogo_b","0",""
"null","","html-keyboard-response","429","482977","0.0-6.0-2.69","","<div style=""font-size:60px;"">+</div>","null","","","","","","",""
"501.4900000533089","","image-keyboard-response","430","483481","0.0-6.0-0.70","","img/blue.png","32","trial","null","false","0,1","4:nogo_d","",""
"null","","html-keyboard-response","431","484486","0.0-6.0-1.70","","<img src=""img/blue-n.png"" border=""10"">","null","trial","null","","0,1","4:nogo_d","0",""
"null","","html-keyboard-response","432","485500","0.0-6.0-2.70","","<div style=""font-size:60px;"">+</div>","null","","","","","","",""
"null","","image-keyboard-response","433","487008","0.0-6.0-0.71","","img/yellow.png","null","trial","32","false","1,0","3:go_c","",""
"null","","html-keyboard-response","434","488017","0.0-6.0-1.71","","<img src=""img/yellow-n.png"">","null","trial","32","","1,0","3:go_c","0",""
"null","","html-keyboard-response","435","489029","0.0-6.0-2.71","","<div style=""font-size:60px;"">+</div>","null","","","","","","",""
"499.28500002715737","","image-keyboard-response","436","489530","0.0-6.0-0.72","","img/yellow.png","32","trial","32","true","1,0","3:go_c","",""
"null","","html-keyboard-response","437","490540","0.0-6.0-1.72","","<img src=""img/yellow-r.png"" border=""10"">","null","trial","32","","1,0","3:go_c","1",""
"null","","html-keyboard-response","438","491549","0.0-6.0-2.72","","<div style=""font-size:60px;"">+</div>","null","","","","","","",""
"561.6600000066683","","image-keyboard-response","439","492112","0.0-6.0-0.73","","img/purple.png","32","trial","32","true","0.8,0.2","1:go_a","",""
"null","","html-keyboard-response","440","493131","0.0-6.0-1.73","","<img src=""img/purple-r.png"" border=""10"">","null","trial","32","","0.8,0.2","1:go_a","1",""
"null","","html-keyboard-response","441","494147","0.0-6.0-2.73","","<div style=""font-size:60px;"">+</div>","null","","","","","","",""
"null","","image-keyboard-response","442","495656","0.0-6.0-0.74","","img/pink.png","null","trial","null","true","0.2,0.8","2:nogo_b","",""
"null","","html-keyboard-response","443","496661","0.0-6.0-1.74","","<img src=""img/pink-r.png"">","null","trial","null","","0.2,0.8","2:nogo_b","1",""
"null","","html-keyboard-response","444","497678","0.0-6.0-2.74","","<div style=""font-size:60px;"">+</div>","null","","","","","","",""
"610.2100000716746","","image-keyboard-response","445","498290","0.0-6.0-0.75","","img/blue.png","32","trial","null","false","0,1","4:nogo_d","",""
"null","","html-keyboard-response","446","499295","0.0-6.0-1.75","","<img src=""img/blue-n.png"" border=""10"">","null","trial","null","","0,1","4:nogo_d","0",""
"null","","html-keyboard-response","447","500298","0.0-6.0-2.75","","<div style=""font-size:60px;"">+</div>","null","","","","","","",""
"857.4750000843778","","image-keyboard-response","448","501157","0.0-6.0-0.76","","img/purple.png","32","trial","32","true","0.8,0.2","1:go_a","",""
"null","","html-keyboard-response","449","502163","0.0-6.0-1.76","","<img src=""img/purple-r.png"" border=""10"">","null","trial","32","","0.8,0.2","1:go_a","1",""
"null","","html-keyboard-response","450","503181","0.0-6.0-2.76","","<div style=""font-size:60px;"">+</div>","null","","","","","","",""
"null","","image-keyboard-response","451","504689","0.0-6.0-0.77","","img/yellow.png","null","trial","32","false","1,0","3:go_c","",""
"null","","html-keyboard-response","452","505699","0.0-6.0-1.77","","<img src=""img/yellow-n.png"">","null","trial","32","","1,0","3:go_c","0",""
"null","","html-keyboard-response","453","506703","0.0-6.0-2.77","","<div style=""font-size:60px;"">+</div>","null","","","","","","",""
"503.72999999672174","","image-keyboard-response","454","507208","0.0-6.0-0.78","","img/blue.png","32","trial","null","false","0,1","4:nogo_d","",""
"null","","html-keyboard-response","455","508221","0.0-6.0-1.78","","<img src=""img/blue-n.png"" border=""10"">","null","trial","null","","0,1","4:nogo_d","0",""
"null","","html-keyboard-response","456","509230","0.0-6.0-2.78","","<div style=""font-size:60px;"">+</div>","null","","","","","","",""
"585.5100000044331","","image-keyboard-response","457","509817","0.0-6.0-0.79","","img/pink.png","32","trial","null","false","0.2,0.8","2:nogo_b","",""
"null","","html-keyboard-response","458","510833","0.0-6.0-1.79","","<img src=""img/pink-n.png"" border=""10"">","null","trial","null","","0.2,0.8","2:nogo_b","0",""
"null","","html-keyboard-response","459","511849","0.0-6.0-2.79","","<div style=""font-size:60px;"">+</div>","null","","","","","","",""
"null","","image-keyboard-response","460","513363","0.0-6.0-0.80","","img/pink.png","null","trial","null","true","0.2,0.8","2:nogo_b","",""
"null","","html-keyboard-response","461","514371","0.0-6.0-1.80","","<img src=""img/pink-r.png"">","null","trial","null","","0.2,0.8","2:nogo_b","1",""
"null","","html-keyboard-response","462","515375","0.0-6.0-2.80","","<div style=""font-size:60px;"">+</div>","null","","","","","","",""
"508.0150000285357","","image-keyboard-response","463","515884","0.0-6.0-0.81","","img/purple.png","32","trial","32","true","0.8,0.2","1:go_a","",""
"null","","html-keyboard-response","464","516901","0.0-6.0-1.81","","<img src=""img/purple-r.png"" border=""10"">","null","trial","32","","0.8,0.2","1:go_a","1",""
"null","","html-keyboard-response","465","517905","0.0-6.0-2.81","","<div style=""font-size:60px;"">+</div>","null","","","","","","",""
"null","","image-keyboard-response","466","519413","0.0-6.0-0.82","","img/yellow.png","null","trial","32","false","1,0","3:go_c","",""
"null","","html-keyboard-response","467","520416","0.0-6.0-1.82","","<img src=""img/yellow-n.png"">","null","trial","32","","1,0","3:go_c","0",""
"null","","html-keyboard-response","468","521423","0.0-6.0-2.82","","<div style=""font-size:60px;"">+</div>","null","","","","","","",""
"555.7000000262633","","image-keyboard-response","469","521979","0.0-6.0-0.83","","img/blue.png","32","trial","null","false","0,1","4:nogo_d","",""
"null","","html-keyboard-response","470","523008","0.0-6.0-1.83","","<img src=""img/blue-n.png"" border=""10"">","null","trial","null","","0,1","4:nogo_d","0",""
"null","","html-keyboard-response","471","524014","0.0-6.0-2.83","","<div style=""font-size:60px;"">+</div>","null","","","","","","",""
"630.9650000184774","","image-keyboard-response","472","524647","0.0-6.0-0.84","","img/purple.png","32","trial","32","true","0.8,0.2","1:go_a","",""
"null","","html-keyboard-response","473","525658","0.0-6.0-1.84","","<img src=""img/purple-r.png"" border=""10"">","null","trial","32","","0.8,0.2","1:go_a","1",""
"null","","html-keyboard-response","474","526675","0.0-6.0-2.84","","<div style=""font-size:60px;"">+</div>","null","","","","","","",""
"null","","image-keyboard-response","475","528181","0.0-6.0-0.85","","img/pink.png","null","trial","null","true","0.2,0.8","2:nogo_b","",""
"null","","html-keyboard-response","476","529189","0.0-6.0-1.85","","<img src=""img/pink-r.png"">","null","trial","null","","0.2,0.8","2:nogo_b","1",""
"null","","html-keyboard-response","477","530202","0.0-6.0-2.85","","<div style=""font-size:60px;"">+</div>","null","","","","","","",""
"632.9700000351295","","image-keyboard-response","478","530836","0.0-6.0-0.86","","img/yellow.png","32","trial","32","true","1,0","3:go_c","",""
"null","","html-keyboard-response","479","531849","0.0-6.0-1.86","","<img src=""img/yellow-r.png"" border=""10"">","null","trial","32","","1,0","3:go_c","1",""
"null","","html-keyboard-response","480","532859","0.0-6.0-2.86","","<div style=""font-size:60px;"">+</div>","null","","","","","","",""
"null","","image-keyboard-response","481","534372","0.0-6.0-0.87","","img/blue.png","null","trial","null","true","0,1","4:nogo_d","",""
"null","","html-keyboard-response","482","535378","0.0-6.0-1.87","","<img src=""img/blue-r.png"">","null","trial","null","","0,1","4:nogo_d","1",""
"null","","html-keyboard-response","483","536383","0.0-6.0-2.87","","<div style=""font-size:60px;"">+</div>","null","","","","","","",""
"387.5600000610575","","image-keyboard-response","484","536773","0.0-6.0-0.88","","img/blue.png","32","trial","null","false","0,1","4:nogo_d","",""
"null","","html-keyboard-response","485","537788","0.0-6.0-1.88","","<img src=""img/blue-n.png"" border=""10"">","null","trial","null","","0,1","4:nogo_d","0",""
"null","","html-keyboard-response","486","538795","0.0-6.0-2.88","","<div style=""font-size:60px;"">+</div>","null","","","","","","",""
"449.7599999886006","","image-keyboard-response","487","539246","0.0-6.0-0.89","","img/pink.png","32","trial","null","false","0.2,0.8","2:nogo_b","",""
"null","","html-keyboard-response","488","540263","0.0-6.0-1.89","","<img src=""img/pink-n.png"" border=""10"">","null","trial","null","","0.2,0.8","2:nogo_b","0",""
"null","","html-keyboard-response","489","541272","0.0-6.0-2.89","","<div style=""font-size:60px;"">+</div>","null","","","","","","",""
"627.0800000056624","","image-keyboard-response","490","541900","0.0-6.0-0.90","","img/yellow.png","32","trial","32","true","1,0","3:go_c","",""
"null","","html-keyboard-response","491","542906","0.0-6.0-1.90","","<img src=""img/yellow-r.png"" border=""10"">","null","trial","32","","1,0","3:go_c","1",""
"null","","html-keyboard-response","492","543921","0.0-6.0-2.90","","<div style=""font-size:60px;"">+</div>","null","","","","","","",""
"511.060000048019","","image-keyboard-response","493","544434","0.0-6.0-0.91","","img/purple.png","32","trial","32","true","0.8,0.2","1:go_a","",""
"null","","html-keyboard-response","494","545450","0.0-6.0-1.91","","<img src=""img/purple-r.png"" border=""10"">","null","trial","32","","0.8,0.2","1:go_a","1",""
"null","","html-keyboard-response","495","546454","0.0-6.0-2.91","","<div style=""font-size:60px;"">+</div>","null","","","","","","",""
"620.6200000597164","","image-keyboard-response","496","547076","0.0-6.0-0.92","","img/yellow.png","32","trial","32","true","1,0","3:go_c","",""
"null","","html-keyboard-response","497","548088","0.0-6.0-1.92","","<img src=""img/yellow-r.png"" border=""10"">","null","trial","32","","1,0","3:go_c","1",""
"null","","html-keyboard-response","498","549096","0.0-6.0-2.92","","<div style=""font-size:60px;"">+</div>","null","","","","","","",""
"null","","image-keyboard-response","499","550601","0.0-6.0-0.93","","img/purple.png","null","trial","32","false","0.8,0.2","1:go_a","",""
"null","","html-keyboard-response","500","551612","0.0-6.0-1.93","","<img src=""img/purple-n.png"">","null","trial","32","","0.8,0.2","1:go_a","0",""
"null","","html-keyboard-response","501","552620","0.0-6.0-2.93","","<div style=""font-size:60px;"">+</div>","null","","","","","","",""
"491.99000000953674","","image-keyboard-response","502","553114","0.0-6.0-0.94","","img/pink.png","32","trial","null","false","0.2,0.8","2:nogo_b","",""
"null","","html-keyboard-response","503","554126","0.0-6.0-1.94","","<img src=""img/pink-n.png"" border=""10"">","null","trial","null","","0.2,0.8","2:nogo_b","0",""
"null","","html-keyboard-response","504","555132","0.0-6.0-2.94","","<div style=""font-size:60px;"">+</div>","null","","","","","","",""
"null","","image-keyboard-response","505","556648","0.0-6.0-0.95","","img/blue.png","null","trial","null","true","0,1","4:nogo_d","",""
"null","","html-keyboard-response","506","557654","0.0-6.0-1.95","","<img src=""img/blue-r.png"">","null","trial","null","","0,1","4:nogo_d","1",""
"null","","html-keyboard-response","507","558671","0.0-6.0-2.95","","<div style=""font-size:60px;"">+</div>","null","","","","","","",""
"533.40999991633","","image-keyboard-response","508","559207","0.0-6.0-0.96","","img/yellow.png","32","trial","32","true","1,0","3:go_c","",""
"null","","html-keyboard-response","509","560211","0.0-6.0-1.96","","<img src=""img/yellow-r.png"" border=""10"">","null","trial","32","","1,0","3:go_c","1",""
"null","","html-keyboard-response","510","561228","0.0-6.0-2.96","","<div style=""font-size:60px;"">+</div>","null","","","","","","",""
"567.8149999585003","","image-keyboard-response","511","561798","0.0-6.0-0.97","","img/pink.png","32","trial","null","false","0.2,0.8","2:nogo_b","",""
"null","","html-keyboard-response","512","562816","0.0-6.0-1.97","","<img src=""img/pink-n.png"" border=""10"">","null","trial","null","","0.2,0.8","2:nogo_b","0",""
"null","","html-keyboard-response","513","563820","0.0-6.0-2.97","","<div style=""font-size:60px;"">+</div>","null","","","","","","",""
"615.0800000177696","","image-keyboard-response","514","564436","0.0-6.0-0.98","","img/blue.png","32","trial","null","false","0,1","4:nogo_d","",""
"null","","html-keyboard-response","515","565454","0.0-6.0-1.98","","<img src=""img/blue-n.png"" border=""10"">","null","trial","null","","0,1","4:nogo_d","0",""
"null","","html-keyboard-response","516","566457","0.0-6.0-2.98","","<div style=""font-size:60px;"">+</div>","null","","","","","","",""
"null","","image-keyboard-response","517","567959","0.0-6.0-0.99","","img/purple.png","null","trial","32","false","0.8,0.2","1:go_a","",""
"null","","html-keyboard-response","518","568967","0.0-6.0-1.99","","<img src=""img/purple-n.png"">","null","trial","32","","0.8,0.2","1:go_a","0",""
"null","","html-keyboard-response","519","569976","0.0-6.0-2.99","","<div style=""font-size:60px;"">+</div>","null","","","","","","",""
"null","","image-keyboard-response","520","571480","0.0-6.0-0.100","","img/blue.png","null","trial","null","true","0,1","4:nogo_d","",""
"null","","html-keyboard-response","521","572485","0.0-6.0-1.100","","<img src=""img/blue-r.png"">","null","trial","null","","0,1","4:nogo_d","1",""
"null","","html-keyboard-response","522","573487","0.0-6.0-2.100","","<div style=""font-size:60px;"">+</div>","null","","","","","","",""
"547.1850000321865","","image-keyboard-response","523","574036","0.0-6.0-0.101","","img/pink.png","32","trial","null","false","0.2,0.8","2:nogo_b","",""
"null","","html-keyboard-response","524","575051","0.0-6.0-1.101","","<img src=""img/pink-n.png"" border=""10"">","null","trial","null","","0.2,0.8","2:nogo_b","0",""
"null","","html-keyboard-response","525","576055","0.0-6.0-2.101","","<div style=""font-size:60px;"">+</div>","null","","","","","","",""
"null","","image-keyboard-response","526","577565","0.0-6.0-0.102","","img/purple.png","null","trial","32","false","0.8,0.2","1:go_a","",""
"null","","html-keyboard-response","527","578576","0.0-6.0-1.102","","<img src=""img/purple-n.png"">","null","trial","32","","0.8,0.2","1:go_a","0",""
"null","","html-keyboard-response","528","579588","0.0-6.0-2.102","","<div style=""font-size:60px;"">+</div>","null","","","","","","",""
"479.14499999023974","","image-keyboard-response","529","580069","0.0-6.0-0.103","","img/yellow.png","32","trial","32","true","1,0","3:go_c","",""
"null","","html-keyboard-response","530","581086","0.0-6.0-1.103","","<img src=""img/yellow-r.png"" border=""10"">","null","trial","32","","1,0","3:go_c","1",""
"null","","html-keyboard-response","531","582091","0.0-6.0-2.103","","<div style=""font-size:60px;"">+</div>","null","","","","","","",""
"629.4300000881776","","image-keyboard-response","532","582723","0.0-6.0-0.104","","img/yellow.png","32","trial","32","true","1,0","3:go_c","",""
"null","","html-keyboard-response","533","583733","0.0-6.0-1.104","","<img src=""img/yellow-r.png"" border=""10"">","null","trial","32","","1,0","3:go_c","1",""
"null","","html-keyboard-response","534","584745","0.0-6.0-2.104","","<div style=""font-size:60px;"">+</div>","null","","","","","","",""
"791.0149999661371","","image-keyboard-response","535","585539","0.0-6.0-0.105","","img/blue.png","32","trial","null","false","0,1","4:nogo_d","",""
"null","","html-keyboard-response","536","586547","0.0-6.0-1.105","","<img src=""img/blue-n.png"" border=""10"">","null","trial","null","","0,1","4:nogo_d","0",""
"null","","html-keyboard-response","537","587553","0.0-6.0-2.105","","<div style=""font-size:60px;"">+</div>","null","","","","","","",""
"null","","image-keyboard-response","538","589058","0.0-6.0-0.106","","img/pink.png","null","trial","null","true","0.2,0.8","2:nogo_b","",""
"null","","html-keyboard-response","539","590067","0.0-6.0-1.106","","<img src=""img/pink-r.png"">","null","trial","null","","0.2,0.8","2:nogo_b","1",""
"null","","html-keyboard-response","540","591077","0.0-6.0-2.106","","<div style=""font-size:60px;"">+</div>","null","","","","","","",""
"489.67999999877065","","image-keyboard-response","541","591568","0.0-6.0-0.107","","img/purple.png","32","trial","32","true","0.8,0.2","1:go_a","",""
"null","","html-keyboard-response","542","592575","0.0-6.0-1.107","","<img src=""img/purple-n.png"" border=""10"">","null","trial","32","","0.8,0.2","1:go_a","0",""
"null","","html-keyboard-response","543","593582","0.0-6.0-2.107","","<div style=""font-size:60px;"">+</div>","null","","","","","","",""
"null","","image-keyboard-response","544","595089","0.0-6.0-0.108","","img/purple.png","null","trial","32","false","0.8,0.2","1:go_a","",""
"null","","html-keyboard-response","545","596093","0.0-6.0-1.108","","<img src=""img/purple-n.png"">","null","trial","32","","0.8,0.2","1:go_a","0",""
"null","","html-keyboard-response","546","597101","0.0-6.0-2.108","","<div style=""font-size:60px;"">+</div>","null","","","","","","",""
"567.4599999329075","","image-keyboard-response","547","597669","0.0-6.0-0.109","","img/pink.png","32","trial","null","false","0.2,0.8","2:nogo_b","",""
"null","","html-keyboard-response","548","598675","0.0-6.0-1.109","","<img src=""img/pink-n.png"" border=""10"">","null","trial","null","","0.2,0.8","2:nogo_b","0",""
"null","","html-keyboard-response","549","599682","0.0-6.0-2.109","","<div style=""font-size:60px;"">+</div>","null","","","","","","",""
"null","","image-keyboard-response","550","601190","0.0-6.0-0.110","","img/blue.png","null","trial","null","true","0,1","4:nogo_d","",""
"null","","html-keyboard-response","551","602198","0.0-6.0-1.110","","<img src=""img/blue-r.png"">","null","trial","null","","0,1","4:nogo_d","1",""
"null","","html-keyboard-response","552","603211","0.0-6.0-2.110","","<div style=""font-size:60px;"">+</div>","null","","","","","","",""
"568.5150000499561","","image-keyboard-response","553","603782","0.0-6.0-0.111","","img/yellow.png","32","trial","32","true","1,0","3:go_c","",""
"null","","html-keyboard-response","554","604798","0.0-6.0-1.111","","<img src=""img/yellow-r.png"" border=""10"">","null","trial","32","","1,0","3:go_c","1",""
"null","","html-keyboard-response","555","605808","0.0-6.0-2.111","","<div style=""font-size:60px;"">+</div>","null","","","","","","",""
"394.9550000252202","","image-keyboard-response","556","606204","0.0-6.0-0.112","","img/pink.png","32","trial","null","false","0.2,0.8","2:nogo_b","",""
"null","","html-keyboard-response","557","607208","0.0-6.0-1.112","","<img src=""img/pink-r.png"" border=""10"">","null","trial","null","","0.2,0.8","2:nogo_b","1",""
"null","","html-keyboard-response","558","608210","0.0-6.0-2.112","","<div style=""font-size:60px;"">+</div>","null","","","","","","",""
"419.4200000492856","","image-keyboard-response","559","608632","0.0-6.0-0.113","","img/purple.png","32","trial","32","true","0.8,0.2","1:go_a","",""
"null","","html-keyboard-response","560","609642","0.0-6.0-1.113","","<img src=""img/purple-r.png"" border=""10"">","null","trial","32","","0.8,0.2","1:go_a","1",""
"null","","html-keyboard-response","561","610648","0.0-6.0-2.113","","<div style=""font-size:60px;"">+</div>","null","","","","","","",""
"null","","image-keyboard-response","562","612157","0.0-6.0-0.114","","img/yellow.png","null","trial","32","false","1,0","3:go_c","",""
"null","","html-keyboard-response","563","613176","0.0-6.0-1.114","","<img src=""img/yellow-n.png"">","null","trial","32","","1,0","3:go_c","0",""
"null","","html-keyboard-response","564","614185","0.0-6.0-2.114","","<div style=""font-size:60px;"">+</div>","null","","","","","","",""
"null","","image-keyboard-response","565","615703","0.0-6.0-0.115","","img/blue.png","null","trial","null","true","0,1","4:nogo_d","",""
"null","","html-keyboard-response","566","616706","0.0-6.0-1.115","","<img src=""img/blue-r.png"">","null","trial","null","","0,1","4:nogo_d","1",""
"null","","html-keyboard-response","567","617710","0.0-6.0-2.115","","<div style=""font-size:60px;"">+</div>","null","","","","","","",""
"432.0399999851361","","image-keyboard-response","568","618144","0.0-6.0-0.116","","img/purple.png","32","trial","32","true","0.8,0.2","1:go_a","",""
"null","","html-keyboard-response","569","619161","0.0-6.0-1.116","","<img src=""img/purple-r.png"" border=""10"">","null","trial","32","","0.8,0.2","1:go_a","1",""
"null","","html-keyboard-response","570","620177","0.0-6.0-2.116","","<div style=""font-size:60px;"">+</div>","null","","","","","","",""
"null","","image-keyboard-response","571","621694","0.0-6.0-0.117","","img/blue.png","null","trial","null","true","0,1","4:nogo_d","",""
"null","","html-keyboard-response","572","622707","0.0-6.0-1.117","","<img src=""img/blue-r.png"">","null","trial","null","","0,1","4:nogo_d","1",""
"null","","html-keyboard-response","573","623724","0.0-6.0-2.117","","<div style=""font-size:60px;"">+</div>","null","","","","","","",""
"291.24499997124076","","image-keyboard-response","574","624018","0.0-6.0-0.118","","img/yellow.png","32","trial","32","true","1,0","3:go_c","",""
"null","","html-keyboard-response","575","625025","0.0-6.0-1.118","","<img src=""img/yellow-r.png"" border=""10"">","null","trial","32","","1,0","3:go_c","1",""
"null","","html-keyboard-response","576","626031","0.0-6.0-2.118","","<div style=""font-size:60px;"">+</div>","null","","","","","","",""
"1066.4200000464916","","image-keyboard-response","577","627099","0.0-6.0-0.119","","img/pink.png","32","trial","null","false","0.2,0.8","2:nogo_b","",""
"null","","html-keyboard-response","578","628105","0.0-6.0-1.119","","<img src=""img/pink-n.png"" border=""10"">","null","trial","null","","0.2,0.8","2:nogo_b","0",""
"null","","html-keyboard-response","579","629107","0.0-6.0-2.119","","<div style=""font-size:60px;"">+</div>","null","","","","","","",""
"2241.5150000015274","","instructions","580","631349","0.0-7.0","[{""page_index"":0,""viewing_time"":2241.0999999847263}]","","","","","","","","",""
"null","","image-keyboard-response","581","632865","0.0-8.0-0.0","","img/grey.png","null","trial","32","false","0.8,0.2","1:go_a","",""
"null","","html-keyboard-response","582","633880","0.0-8.0-1.0","","<img src=""img/grey-n.png"">","null","trial","32","","0.8,0.2","1:go_a","0",""
"null","","html-keyboard-response","583","634897","0.0-8.0-2.0","","<div style=""font-size:60px;"">+</div>","null","","","","","","",""
"455.03999991342425","","image-keyboard-response","584","635353","0.0-8.0-0.1","","img/pink.png","32","trial","32","true","0.8,0.2","3:go_c","",""
"null","","html-keyboard-response","585","636356","0.0-8.0-1.1","","<img src=""img/pink-r.png"" border=""10"">","null","trial","32","","0.8,0.2","3:go_c","1",""
"null","","html-keyboard-response","586","637359","0.0-8.0-2.1","","<div style=""font-size:60px;"">+</div>","null","","","","","","",""
"584.6649999730289","","image-keyboard-response","587","637945","0.0-8.0-0.2","","img/yellow.png","32","trial","null","false","0.2,0.8","4:nogo_d","",""
"null","","html-keyboard-response","588","638954","0.0-8.0-1.2","","<img src=""img/yellow-n.png"" border=""10"">","null","trial","null","","0.2,0.8","4:nogo_d","0",""
"null","","html-keyboard-response","589","639969","0.0-8.0-2.2","","<div style=""font-size:60px;"">+</div>","null","","","","","","",""
"718.9200000138953","","image-keyboard-response","590","640691","0.0-8.0-0.3","","img/blue.png","32","trial","null","false","0.2,0.8","2:nogo_b","",""
"null","","html-keyboard-response","591","641703","0.0-8.0-1.3","","<img src=""img/blue-n.png"" border=""10"">","null","trial","null","","0.2,0.8","2:nogo_b","0",""
"null","","html-keyboard-response","592","642710","0.0-8.0-2.3","","<div style=""font-size:60px;"">+</div>","null","","","","","","",""
"null","","image-keyboard-response","593","644219","0.0-8.0-0.4","","img/pink.png","null","trial","32","false","0.8,0.2","3:go_c","",""
"null","","html-keyboard-response","594","645232","0.0-8.0-1.4","","<img src=""img/pink-n.png"">","null","trial","32","","0.8,0.2","3:go_c","0",""
"null","","html-keyboard-response","595","646236","0.0-8.0-2.4","","<div style=""font-size:60px;"">+</div>","null","","","","","","",""
"698.7000000663102","","image-keyboard-response","596","646936","0.0-8.0-0.5","","img/grey.png","32","trial","32","true","0.8,0.2","1:go_a","",""
"null","","html-keyboard-response","597","647941","0.0-8.0-1.5","","<img src=""img/grey-n.png"" border=""10"">","null","trial","32","","0.8,0.2","1:go_a","0",""
"null","","html-keyboard-response","598","648956","0.0-8.0-2.5","","<div style=""font-size:60px;"">+</div>","null","","","","","","",""
"1014.4950000103563","","image-keyboard-response","599","649972","0.0-8.0-0.6","","img/yellow.png","32","trial","null","false","0.2,0.8","4:nogo_d","",""
"null","","html-keyboard-response","600","650983","0.0-8.0-1.6","","<img src=""img/yellow-n.png"" border=""10"">","null","trial","null","","0.2,0.8","4:nogo_d","0",""
"null","","html-keyboard-response","601","651992","0.0-8.0-2.6","","<div style=""font-size:60px;"">+</div>","null","","","","","","",""
"null","","image-keyboard-response","602","653496","0.0-8.0-0.7","","img/blue.png","null","trial","null","true","0.2,0.8","2:nogo_b","",""
"null","","html-keyboard-response","603","654500","0.0-8.0-1.7","","<img src=""img/blue-n.png"">","null","trial","null","","0.2,0.8","2:nogo_b","0",""
"null","","html-keyboard-response","604","655510","0.0-8.0-2.7","","<div style=""font-size:60px;"">+</div>","null","","","","","","",""
"null","","image-keyboard-response","605","657016","0.0-8.0-0.8","","img/grey.png","null","trial","32","false","0.8,0.2","1:go_a","",""
"null","","html-keyboard-response","606","658033","0.0-8.0-1.8","","<img src=""img/grey-n.png"">","null","trial","32","","0.8,0.2","1:go_a","0",""
"null","","html-keyboard-response","607","659037","0.0-8.0-2.8","","<div style=""font-size:60px;"">+</div>","null","","","","","","",""
"735.590000054799","","image-keyboard-response","608","659774","0.0-8.0-0.9","","img/blue.png","32","trial","null","false","0.2,0.8","2:nogo_b","",""
"null","","html-keyboard-response","609","660791","0.0-8.0-1.9","","<img src=""img/blue-n.png"" border=""10"">","null","trial","null","","0.2,0.8","2:nogo_b","0",""
"null","","html-keyboard-response","610","661808","0.0-8.0-2.9","","<div style=""font-size:60px;"">+</div>","null","","","","","","",""
"null","","image-keyboard-response","611","663317","0.0-8.0-0.10","","img/pink.png","null","trial","32","false","0.8,0.2","3:go_c","",""
"null","","html-keyboard-response","612","664322","0.0-8.0-1.10","","<img src=""img/pink-n.png"">","null","trial","32","","0.8,0.2","3:go_c","0",""
"null","","html-keyboard-response","613","665337","0.0-8.0-2.10","","<div style=""font-size:60px;"">+</div>","null","","","","","","",""
"528.2250000163913","","image-keyboard-response","614","665867","0.0-8.0-0.11","","img/yellow.png","32","trial","null","false","0.2,0.8","4:nogo_d","",""
"null","","html-keyboard-response","615","666873","0.0-8.0-1.11","","<img src=""img/yellow-n.png"" border=""10"">","null","trial","null","","0.2,0.8","4:nogo_d","0",""
"null","","html-keyboard-response","616","667915","0.0-8.0-2.11","","<div style=""font-size:60px;"">+</div>","null","","","","","","",""
"null","","image-keyboard-response","617","669417","0.0-8.0-0.12","","img/pink.png","null","trial","32","false","0.8,0.2","3:go_c","",""
"null","","html-keyboard-response","618","670427","0.0-8.0-1.12","","<img src=""img/pink-r.png"">","null","trial","32","","0.8,0.2","3:go_c","1",""
"null","","html-keyboard-response","619","671436","0.0-8.0-2.12","","<div style=""font-size:60px;"">+</div>","null","","","","","","",""
"null","","image-keyboard-response","620","672953","0.0-8.0-0.13","","img/blue.png","null","trial","null","true","0.2,0.8","2:nogo_b","",""
"null","","html-keyboard-response","621","673965","0.0-8.0-1.13","","<img src=""img/blue-r.png"">","null","trial","null","","0.2,0.8","2:nogo_b","1",""
"null","","html-keyboard-response","622","674977","0.0-8.0-2.13","","<div style=""font-size:60px;"">+</div>","null","","","","","","",""
"null","","image-keyboard-response","623","676485","0.0-8.0-0.14","","img/grey.png","null","trial","32","false","0.8,0.2","1:go_a","",""
"null","","html-keyboard-response","624","677491","0.0-8.0-1.14","","<img src=""img/grey-n.png"">","null","trial","32","","0.8,0.2","1:go_a","0",""
"null","","html-keyboard-response","625","678506","0.0-8.0-2.14","","<div style=""font-size:60px;"">+</div>","null","","","","","","",""
"662.7500000176951","","image-keyboard-response","626","679170","0.0-8.0-0.15","","img/yellow.png","32","trial","null","false","0.2,0.8","4:nogo_d","",""
"null","","html-keyboard-response","627","680175","0.0-8.0-1.15","","<img src=""img/yellow-n.png"" border=""10"">","null","trial","null","","0.2,0.8","4:nogo_d","0",""
"null","","html-keyboard-response","628","681179","0.0-8.0-2.15","","<div style=""font-size:60px;"">+</div>","null","","","","","","",""
"853.5200000042096","","image-keyboard-response","629","682034","0.0-8.0-0.16","","img/blue.png","32","trial","null","false","0.2,0.8","2:nogo_b","",""
"null","","html-keyboard-response","630","683049","0.0-8.0-1.16","","<img src=""img/blue-n.png"" border=""10"">","null","trial","null","","0.2,0.8","2:nogo_b","0",""
"null","","html-keyboard-response","631","684054","0.0-8.0-2.16","","<div style=""font-size:60px;"">+</div>","null","","","","","","",""
"null","","image-keyboard-response","632","685564","0.0-8.0-0.17","","img/yellow.png","null","trial","null","true","0.2,0.8","4:nogo_d","",""
"null","","html-keyboard-response","633","686579","0.0-8.0-1.17","","<img src=""img/yellow-r.png"">","null","trial","null","","0.2,0.8","4:nogo_d","1",""
"null","","html-keyboard-response","634","687597","0.0-8.0-2.17","","<div style=""font-size:60px;"">+</div>","null","","","","","","",""
"504.2949999915436","","image-keyboard-response","635","688103","0.0-8.0-0.18","","img/pink.png","32","trial","32","true","0.8,0.2","3:go_c","",""
"null","","html-keyboard-response","636","689117","0.0-8.0-1.18","","<img src=""img/pink-r.png"" border=""10"">","null","trial","32","","0.8,0.2","3:go_c","1",""
"null","","html-keyboard-response","637","690128","0.0-8.0-2.18","","<div style=""font-size:60px;"">+</div>","null","","","","","","",""
"null","","image-keyboard-response","638","691647","0.0-8.0-0.19","","img/grey.png","null","trial","32","false","0.8,0.2","1:go_a","",""
"null","","html-keyboard-response","639","692650","0.0-8.0-1.19","","<img src=""img/grey-n.png"">","null","trial","32","","0.8,0.2","1:go_a","0",""
"null","","html-keyboard-response","640","693652","0.0-8.0-2.19","","<div style=""font-size:60px;"">+</div>","null","","","","","","",""
"658.6749999551103","","image-keyboard-response","641","694312","0.0-8.0-0.20","","img/yellow.png","32","trial","null","false","0.2,0.8","4:nogo_d","",""
"null","","html-keyboard-response","642","695323","0.0-8.0-1.20","","<img src=""img/yellow-n.png"" border=""10"">","null","trial","null","","0.2,0.8","4:nogo_d","0",""
"null","","html-keyboard-response","643","696332","0.0-8.0-2.20","","<div style=""font-size:60px;"">+</div>","null","","","","","","",""
"868.8749999273568","","image-keyboard-response","644","697202","0.0-8.0-0.21","","img/pink.png","32","trial","32","true","0.8,0.2","3:go_c","",""
"null","","html-keyboard-response","645","698221","0.0-8.0-1.21","","<img src=""img/pink-r.png"" border=""10"">","null","trial","32","","0.8,0.2","3:go_c","1",""
"null","","html-keyboard-response","646","699238","0.0-8.0-2.21","","<div style=""font-size:60px;"">+</div>","null","","","","","","",""
"null","","image-keyboard-response","647","700744","0.0-8.0-0.22","","img/grey.png","null","trial","32","false","0.8,0.2","1:go_a","",""
"null","","html-keyboard-response","648","701758","0.0-8.0-1.22","","<img src=""img/grey-n.png"">","null","trial","32","","0.8,0.2","1:go_a","0",""
"null","","html-keyboard-response","649","702768","0.0-8.0-2.22","","<div style=""font-size:60px;"">+</div>","null","","","","","","",""
"1045.0300000375137","","image-keyboard-response","650","703815","0.0-8.0-0.23","","img/blue.png","32","trial","null","false","0.2,0.8","2:nogo_b","",""
"null","","html-keyboard-response","651","704828","0.0-8.0-1.23","","<img src=""img/blue-n.png"" border=""10"">","null","trial","null","","0.2,0.8","2:nogo_b","0",""
"null","","html-keyboard-response","652","705846","0.0-8.0-2.23","","<div style=""font-size:60px;"">+</div>","null","","","","","","",""
"712.085000006482","","image-keyboard-response","653","706560","0.0-8.0-0.24","","img/yellow.png","32","trial","null","false","0.2,0.8","4:nogo_d","",""
"null","","html-keyboard-response","654","707565","0.0-8.0-1.24","","<img src=""img/yellow-n.png"" border=""10"">","null","trial","null","","0.2,0.8","4:nogo_d","0",""
"null","","html-keyboard-response","655","708573","0.0-8.0-2.24","","<div style=""font-size:60px;"">+</div>","null","","","","","","",""
"null","","image-keyboard-response","656","710076","0.0-8.0-0.25","","img/grey.png","null","trial","32","false","0.8,0.2","1:go_a","",""
"null","","html-keyboard-response","657","711092","0.0-8.0-1.25","","<img src=""img/grey-n.png"">","null","trial","32","","0.8,0.2","1:go_a","0",""
"null","","html-keyboard-response","658","712096","0.0-8.0-2.25","","<div style=""font-size:60px;"">+</div>","null","","","","","","",""
"null","","image-keyboard-response","659","713612","0.0-8.0-0.26","","img/blue.png","null","trial","null","true","0.2,0.8","2:nogo_b","",""
"null","","html-keyboard-response","660","714628","0.0-8.0-1.26","","<img src=""img/blue-r.png"">","null","trial","null","","0.2,0.8","2:nogo_b","1",""
"null","","html-keyboard-response","661","715645","0.0-8.0-2.26","","<div style=""font-size:60px;"">+</div>","null","","","","","","",""
"796.7500000959262","","image-keyboard-response","662","716443","0.0-8.0-0.27","","img/pink.png","32","trial","32","true","0.8,0.2","3:go_c","",""
"null","","html-keyboard-response","663","717450","0.0-8.0-1.27","","<img src=""img/pink-r.png"" border=""10"">","null","trial","32","","0.8,0.2","3:go_c","1",""
"null","","html-keyboard-response","664","718458","0.0-8.0-2.27","","<div style=""font-size:60px;"">+</div>","null","","","","","","",""
"null","","image-keyboard-response","665","719966","0.0-8.0-0.28","","img/yellow.png","null","trial","null","true","0.2,0.8","4:nogo_d","",""
"null","","html-keyboard-response","666","720969","0.0-8.0-1.28","","<img src=""img/yellow-r.png"">","null","trial","null","","0.2,0.8","4:nogo_d","1",""
"null","","html-keyboard-response","667","721981","0.0-8.0-2.28","","<div style=""font-size:60px;"">+</div>","null","","","","","","",""
"586.6099999984726","","image-keyboard-response","668","722569","0.0-8.0-0.29","","img/blue.png","32","trial","null","false","0.2,0.8","2:nogo_b","",""
"null","","html-keyboard-response","669","723579","0.0-8.0-1.29","","<img src=""img/blue-n.png"" border=""10"">","null","trial","null","","0.2,0.8","2:nogo_b","0",""
"null","","html-keyboard-response","670","724590","0.0-8.0-2.29","","<div style=""font-size:60px;"">+</div>","null","","","","","","",""
"418.54500002227724","","image-keyboard-response","671","725011","0.0-8.0-0.30","","img/grey.png","32","trial","32","true","0.8,0.2","1:go_a","",""
"null","","html-keyboard-response","672","726019","0.0-8.0-1.30","","<img src=""img/grey-r.png"" border=""10"">","null","trial","32","","0.8,0.2","1:go_a","1",""
"null","","html-keyboard-response","673","727038","0.0-8.0-2.30","","<div style=""font-size:60px;"">+</div>","null","","","","","","",""
"420.9949999349192","","image-keyboard-response","674","727460","0.0-8.0-0.31","","img/pink.png","32","trial","32","true","0.8,0.2","3:go_c","",""
"null","","html-keyboard-response","675","728471","0.0-8.0-1.31","","<img src=""img/pink-n.png"" border=""10"">","null","trial","32","","0.8,0.2","3:go_c","0",""
"null","","html-keyboard-response","676","729479","0.0-8.0-2.31","","<div style=""font-size:60px;"">+</div>","null","","","","","","",""
"null","","image-keyboard-response","677","730984","0.0-8.0-0.32","","img/yellow.png","null","trial","null","true","0.2,0.8","4:nogo_d","",""
"null","","html-keyboard-response","678","731999","0.0-8.0-1.32","","<img src=""img/yellow-r.png"">","null","trial","null","","0.2,0.8","4:nogo_d","1",""
"null","","html-keyboard-response","679","733007","0.0-8.0-2.32","","<div style=""font-size:60px;"">+</div>","null","","","","","","",""
"527.4399999761954","","image-keyboard-response","680","733536","0.0-8.0-0.33","","img/pink.png","32","trial","32","true","0.8,0.2","3:go_c","",""
