"rt","url","trial_type","trial_index","time_elapsed","internal_node_id","view_history","stimulus","key_press","test_part","correct_response","correct","use_rew","which_stim","reward","responses"
"2622449.6099999817","consent.html","external-html","0","2622556","0.0-0.0","","","","","","","","","",""
"73118.93500000611","","instructions","1","2695677","0.0-1.0","[{""page_index"":0,""viewing_time"":3873.380000004545},{""page_index"":1,""viewing_time"":19660.03500000853},{""page_index"":2,""viewing_time"":4576.585000002291},{""page_index"":3,""viewing_time"":18279.71000000229},{""page_index"":4,""viewing_time"":12840.129999997094},{""page_index"":5,""viewing_time"":4727.974999987055},{""page_index"":6,""viewing_time"":9160.235000017565}]","","","","","","","","",""
"1060.1749999914318","","image-keyboard-response","2","2696739","0.0-2.0-0.0","","img/test1.PNG","32","practice","32","true","","","",""
"null","","html-keyboard-response","3","2697740","0.0-2.0-1.0","","<img src=""img/test1-reward.PNG"" border=""10px; grey"">","null","","","","","","",""
"null","","html-keyboard-response","4","2698742","0.0-2.0-2.0","","<div style=""font-size:60px;"">+</div>","null","","","","","","",""
"null","","image-keyboard-response","5","2700244","0.0-2.0-0.1","","img/test2.PNG","null","practice","null","true","","","",""
"null","","html-keyboard-response","6","2701247","0.0-2.0-1.1","","<img src=""img/test2-reward.PNG"">","null","","","","","","",""
"null","","html-keyboard-response","7","2702249","0.0-2.0-2.1","","<div style=""font-size:60px;"">+</div>","null","","","","","","",""
"null","","image-keyboard-response","8","2703750","0.0-2.0-0.2","","img/test3.PNG","null","practice","null","true","","","",""
"null","","html-keyboard-response","9","2704753","0.0-2.0-1.2","","<img src=""img/test3-reward.PNG"">","null","","","","","","",""
"null","","html-keyboard-response","10","2705755","0.0-2.0-2.2","","<div style=""font-size:60px;"">+</div>","null","","","","","","",""
"null","","image-keyboard-response","11","2707257","0.0-2.0-0.3","","img/test2.PNG","null","practice","null","true","","","",""
"null","","html-keyboard-response","12","2708258","0.0-2.0-1.3","","<img src=""img/test2-reward.PNG"">","null","","","","","","",""
"null","","html-keyboard-response","13","2709259","0.0-2.0-2.3","","<div style=""font-size:60px;"">+</div>","null","","","","","","",""
"516.3400000017136","","image-keyboard-response","14","2709776","0.0-2.0-0.4","","img/test1.PNG","32","practice","32","true","","","",""
"null","","html-keyboard-response","15","2710777","0.0-2.0-1.4","","<img src=""img/test1-reward.PNG"" border=""10px; grey"">","null","","","","","","",""
"null","","html-keyboard-response","16","2711780","0.0-2.0-2.4","","<div style=""font-size:60px;"">+</div>","null","","","","","","",""
"null","","image-keyboard-response","17","2713281","0.0-2.0-0.5","","img/test3.PNG","null","practice","null","true","","","",""
"null","","html-keyboard-response","18","2714283","0.0-2.0-1.5","","<img src=""img/test3-reward.PNG"">","null","","","","","","",""
"null","","html-keyboard-response","19","2715285","0.0-2.0-2.5","","<div style=""font-size:60px;"">+</div>","null","","","","","","",""
"null","","image-keyboard-response","20","2716786","0.0-2.0-0.6","","img/test3.PNG","null","practice","null","true","","","",""
"null","","html-keyboard-response","21","2717788","0.0-2.0-1.6","","<img src=""img/test3-reward.PNG"">","null","","","","","","",""
"null","","html-keyboard-response","22","2718791","0.0-2.0-2.6","","<div style=""font-size:60px;"">+</div>","null","","","","","","",""
"null","","image-keyboard-response","23","2720293","0.0-2.0-0.7","","img/test2.PNG","null","practice","null","true","","","",""
"null","","html-keyboard-response","24","2721301","0.0-2.0-1.7","","<img src=""img/test2-reward.PNG"">","null","","","","","","",""
"null","","html-keyboard-response","25","2722301","0.0-2.0-2.7","","<div style=""font-size:60px;"">+</div>","null","","","","","","",""
"673.9999999990687","","image-keyboard-response","26","2722976","0.0-2.0-0.8","","img/test1.PNG","32","practice","32","true","","","",""
"null","","html-keyboard-response","27","2723977","0.0-2.0-1.8","","<img src=""img/test1-reward.PNG"" border=""10px; grey"">","null","","","","","","",""
"null","","html-keyboard-response","28","2724979","0.0-2.0-2.8","","<div style=""font-size:60px;"">+</div>","null","","","","","","",""
"null","","image-keyboard-response","29","2726481","0.0-2.0-0.9","","img/test3.PNG","null","practice","null","true","","","",""
"null","","html-keyboard-response","30","2727482","0.0-2.0-1.9","","<img src=""img/test3-reward.PNG"">","null","","","","","","",""
"null","","html-keyboard-response","31","2728484","0.0-2.0-2.9","","<div style=""font-size:60px;"">+</div>","null","","","","","","",""
"707.1549999821","","image-keyboard-response","32","2729192","0.0-2.0-0.10","","img/test1.PNG","32","practice","32","true","","","",""
"null","","html-keyboard-response","33","2730194","0.0-2.0-1.10","","<img src=""img/test1-reward.PNG"" border=""10px; grey"">","null","","","","","","",""
"null","","html-keyboard-response","34","2731207","0.0-2.0-2.10","","<div style=""font-size:60px;"">+</div>","null","","","","","","",""
"null","","image-keyboard-response","35","2732709","0.0-2.0-0.11","","img/test2.PNG","null","practice","null","true","","","",""
"null","","html-keyboard-response","36","2733709","0.0-2.0-1.11","","<img src=""img/test2-reward.PNG"">","null","","","","","","",""
"null","","html-keyboard-response","37","2734711","0.0-2.0-2.11","","<div style=""font-size:60px;"">+</div>","null","","","","","","",""
"4429.635000007227","","instructions","38","2739142","0.0-3.0","[{""page_index"":0,""viewing_time"":4429.399999993388}]","","","","","","","","",""
"null","","image-keyboard-response","39","2740644","0.0-4.0-0.0","","img/orange.png","null","trial","null","true","0.2,0.8","2:nogo_b","",""
"null","","html-keyboard-response","40","2741647","0.0-4.0-1.0","","<img src=""img/orange-r.png"">","null","trial","null","","0.2,0.8","2:nogo_b","1",""
"null","","html-keyboard-response","41","2742648","0.0-4.0-2.0","","<div style=""font-size:60px;"">+</div>","null","","","","","","",""
"640.0100000030361","","image-keyboard-response","42","2743289","0.0-4.0-0.1","","img/blue.png","32","trial","32","true","0.8,0.2","1:go_a","",""
"null","","html-keyboard-response","43","2744292","0.0-4.0-1.1","","<img src=""img/blue-r.png"" border=""10"">","null","trial","32","","0.8,0.2","1:go_a","1",""
"null","","html-keyboard-response","44","2745293","0.0-4.0-2.1","","<div style=""font-size:60px;"">+</div>","null","","","","","","",""
"595.1500000078231","","image-keyboard-response","45","2745889","0.0-4.0-0.2","","img/blue.png","32","trial","32","true","0.8,0.2","1:go_a","",""
"null","","html-keyboard-response","46","2746891","0.0-4.0-1.2","","<img src=""img/blue-r.png"" border=""10"">","null","trial","32","","0.8,0.2","1:go_a","1",""
"null","","html-keyboard-response","47","2747893","0.0-4.0-2.2","","<div style=""font-size:60px;"">+</div>","null","","","","","","",""
"null","","image-keyboard-response","48","2749395","0.0-4.0-0.3","","img/orange.png","null","trial","null","true","0.2,0.8","2:nogo_b","",""
"null","","html-keyboard-response","49","2750397","0.0-4.0-1.3","","<img src=""img/orange-r.png"">","null","trial","null","","0.2,0.8","2:nogo_b","1",""
"null","","html-keyboard-response","50","2751398","0.0-4.0-2.3","","<div style=""font-size:60px;"">+</div>","null","","","","","","",""
"778.5099999746308","","image-keyboard-response","51","2752177","0.0-4.0-0.4","","img/blue.png","32","trial","32","true","0.8,0.2","1:go_a","",""
"null","","html-keyboard-response","52","2753180","0.0-4.0-1.4","","<img src=""img/blue-r.png"" border=""10"">","null","trial","32","","0.8,0.2","1:go_a","1",""
"null","","html-keyboard-response","53","2754181","0.0-4.0-2.4","","<div style=""font-size:60px;"">+</div>","null","","","","","","",""
"null","","image-keyboard-response","54","2755683","0.0-4.0-0.5","","img/orange.png","null","trial","null","true","0.2,0.8","2:nogo_b","",""
"null","","html-keyboard-response","55","2756685","0.0-4.0-1.5","","<img src=""img/orange-r.png"">","null","trial","null","","0.2,0.8","2:nogo_b","1",""
"null","","html-keyboard-response","56","2757687","0.0-4.0-2.5","","<div style=""font-size:60px;"">+</div>","null","","","","","","",""
"673.7250000005588","","image-keyboard-response","57","2758361","0.0-4.0-0.6","","img/blue.png","32","trial","32","true","0.8,0.2","1:go_a","",""
"null","","html-keyboard-response","58","2759369","0.0-4.0-1.6","","<img src=""img/blue-r.png"" border=""10"">","null","trial","32","","0.8,0.2","1:go_a","1",""
"null","","html-keyboard-response","59","2760371","0.0-4.0-2.6","","<div style=""font-size:60px;"">+</div>","null","","","","","","",""
"null","","image-keyboard-response","60","2761874","0.0-4.0-0.7","","img/orange.png","null","trial","null","true","0.2,0.8","2:nogo_b","",""
"null","","html-keyboard-response","61","2762875","0.0-4.0-1.7","","<img src=""img/orange-n.png"">","null","trial","null","","0.2,0.8","2:nogo_b","0",""
"null","","html-keyboard-response","62","2763876","0.0-4.0-2.7","","<div style=""font-size:60px;"">+</div>","null","","","","","","",""
"708.4200000097044","","image-keyboard-response","63","2764585","0.0-4.0-0.8","","img/blue.png","32","trial","32","true","0.8,0.2","1:go_a","",""
"null","","html-keyboard-response","64","2765588","0.0-4.0-1.8","","<img src=""img/blue-n.png"" border=""10"">","null","trial","32","","0.8,0.2","1:go_a","0",""
"null","","html-keyboard-response","65","2766589","0.0-4.0-2.8","","<div style=""font-size:60px;"">+</div>","null","","","","","","",""
"null","","image-keyboard-response","66","2768091","0.0-4.0-0.9","","img/orange.png","null","trial","null","true","0.2,0.8","2:nogo_b","",""
"null","","html-keyboard-response","67","2769093","0.0-4.0-1.9","","<img src=""img/orange-r.png"">","null","trial","null","","0.2,0.8","2:nogo_b","1",""
"null","","html-keyboard-response","68","2770094","0.0-4.0-2.9","","<div style=""font-size:60px;"">+</div>","null","","","","","","",""
"null","","image-keyboard-response","69","2771597","0.0-4.0-0.10","","img/orange.png","null","trial","null","true","0.2,0.8","2:nogo_b","",""
"null","","html-keyboard-response","70","2772601","0.0-4.0-1.10","","<img src=""img/orange-r.png"">","null","trial","null","","0.2,0.8","2:nogo_b","1",""
"null","","html-keyboard-response","71","2773602","0.0-4.0-2.10","","<div style=""font-size:60px;"">+</div>","null","","","","","","",""
"710.3049999857321","","image-keyboard-response","72","2774313","0.0-4.0-0.11","","img/blue.png","32","trial","32","true","0.8,0.2","1:go_a","",""
"null","","html-keyboard-response","73","2775316","0.0-4.0-1.11","","<img src=""img/blue-r.png"" border=""10"">","null","trial","32","","0.8,0.2","1:go_a","1",""
"null","","html-keyboard-response","74","2776317","0.0-4.0-2.11","","<div style=""font-size:60px;"">+</div>","null","","","","","","",""
"null","","image-keyboard-response","75","2777820","0.0-4.0-0.12","","img/orange.png","null","trial","null","true","0.2,0.8","2:nogo_b","",""
"null","","html-keyboard-response","76","2778823","0.0-4.0-1.12","","<img src=""img/orange-r.png"">","null","trial","null","","0.2,0.8","2:nogo_b","1",""
"null","","html-keyboard-response","77","2779825","0.0-4.0-2.12","","<div style=""font-size:60px;"">+</div>","null","","","","","","",""
"752.0150000052527","","image-keyboard-response","78","2780578","0.0-4.0-0.13","","img/blue.png","32","trial","32","true","0.8,0.2","1:go_a","",""
"null","","html-keyboard-response","79","2781580","0.0-4.0-1.13","","<img src=""img/blue-r.png"" border=""10"">","null","trial","32","","0.8,0.2","1:go_a","1",""
"null","","html-keyboard-response","80","2782581","0.0-4.0-2.13","","<div style=""font-size:60px;"">+</div>","null","","","","","","",""
"667.3550000120886","","image-keyboard-response","81","2783250","0.0-4.0-0.14","","img/blue.png","32","trial","32","true","0.8,0.2","1:go_a","",""
"null","","html-keyboard-response","82","2784252","0.0-4.0-1.14","","<img src=""img/blue-r.png"" border=""10"">","null","trial","32","","0.8,0.2","1:go_a","1",""
"null","","html-keyboard-response","83","2785253","0.0-4.0-2.14","","<div style=""font-size:60px;"">+</div>","null","","","","","","",""
"null","","image-keyboard-response","84","2786755","0.0-4.0-0.15","","img/orange.png","null","trial","null","true","0.2,0.8","2:nogo_b","",""
"null","","html-keyboard-response","85","2787756","0.0-4.0-1.15","","<img src=""img/orange-r.png"">","null","trial","null","","0.2,0.8","2:nogo_b","1",""
"null","","html-keyboard-response","86","2788757","0.0-4.0-2.15","","<div style=""font-size:60px;"">+</div>","null","","","","","","",""
"716.1799999885261","","image-keyboard-response","87","2789474","0.0-4.0-0.16","","img/blue.png","32","trial","32","true","0.8,0.2","1:go_a","",""
"null","","html-keyboard-response","88","2790476","0.0-4.0-1.16","","<img src=""img/blue-r.png"" border=""10"">","null","trial","32","","0.8,0.2","1:go_a","1",""
"null","","html-keyboard-response","89","2791477","0.0-4.0-2.16","","<div style=""font-size:60px;"">+</div>","null","","","","","","",""
"null","","image-keyboard-response","90","2792980","0.0-4.0-0.17","","img/orange.png","null","trial","null","true","0.2,0.8","2:nogo_b","",""
"null","","html-keyboard-response","91","2793982","0.0-4.0-1.17","","<img src=""img/orange-r.png"">","null","trial","null","","0.2,0.8","2:nogo_b","1",""
"null","","html-keyboard-response","92","2794984","0.0-4.0-2.17","","<div style=""font-size:60px;"">+</div>","null","","","","","","",""
"673.3100000126287","","image-keyboard-response","93","2795658","0.0-4.0-0.18","","img/blue.png","32","trial","32","true","0.8,0.2","1:go_a","",""
"null","","html-keyboard-response","94","2796660","0.0-4.0-1.18","","<img src=""img/blue-r.png"" border=""10"">","null","trial","32","","0.8,0.2","1:go_a","1",""
"null","","html-keyboard-response","95","2797662","0.0-4.0-2.18","","<div style=""font-size:60px;"">+</div>","null","","","","","","",""
"null","","image-keyboard-response","96","2799163","0.0-4.0-0.19","","img/orange.png","null","trial","null","true","0.2,0.8","2:nogo_b","",""
"null","","html-keyboard-response","97","2800165","0.0-4.0-1.19","","<img src=""img/orange-r.png"">","null","trial","null","","0.2,0.8","2:nogo_b","1",""
"null","","html-keyboard-response","98","2801166","0.0-4.0-2.19","","<div style=""font-size:60px;"">+</div>","null","","","","","","",""
"null","","image-keyboard-response","99","2802668","0.0-4.0-0.20","","img/blue.png","null","trial","32","false","0.8,0.2","1:go_a","",""
"null","","html-keyboard-response","100","2803673","0.0-4.0-1.20","","<img src=""img/blue-r.png"">","null","trial","32","","0.8,0.2","1:go_a","1",""
"null","","html-keyboard-response","101","2804675","0.0-4.0-2.20","","<div style=""font-size:60px;"">+</div>","null","","","","","","",""
"null","","image-keyboard-response","102","2806177","0.0-4.0-0.21","","img/orange.png","null","trial","null","true","0.2,0.8","2:nogo_b","",""
"null","","html-keyboard-response","103","2807182","0.0-4.0-1.21","","<img src=""img/orange-r.png"">","null","trial","null","","0.2,0.8","2:nogo_b","1",""
"null","","html-keyboard-response","104","2808184","0.0-4.0-2.21","","<div style=""font-size:60px;"">+</div>","null","","","","","","",""
"null","","image-keyboard-response","105","2809686","0.0-4.0-0.22","","img/orange.png","null","trial","null","true","0.2,0.8","2:nogo_b","",""
"null","","html-keyboard-response","106","2810688","0.0-4.0-1.22","","<img src=""img/orange-r.png"">","null","trial","null","","0.2,0.8","2:nogo_b","1",""
"null","","html-keyboard-response","107","2811689","0.0-4.0-2.22","","<div style=""font-size:60px;"">+</div>","null","","","","","","",""
"720.4900000072084","","image-keyboard-response","108","2812411","0.0-4.0-0.23","","img/blue.png","32","trial","32","true","0.8,0.2","1:go_a","",""
"null","","html-keyboard-response","109","2813413","0.0-4.0-1.23","","<img src=""img/blue-r.png"" border=""10"">","null","trial","32","","0.8,0.2","1:go_a","1",""
"null","","html-keyboard-response","110","2814414","0.0-4.0-2.23","","<div style=""font-size:60px;"">+</div>","null","","","","","","",""
"467.35500000044703","","image-keyboard-response","111","2814882","0.0-4.0-0.24","","img/blue.png","32","trial","32","true","0.8,0.2","1:go_a","",""
"null","","html-keyboard-response","112","2815885","0.0-4.0-1.24","","<img src=""img/blue-r.png"" border=""10"">","null","trial","32","","0.8,0.2","1:go_a","1",""
"null","","html-keyboard-response","113","2816887","0.0-4.0-2.24","","<div style=""font-size:60px;"">+</div>","null","","","","","","",""
"null","","image-keyboard-response","114","2818389","0.0-4.0-0.25","","img/orange.png","null","trial","null","true","0.2,0.8","2:nogo_b","",""
"null","","html-keyboard-response","115","2819392","0.0-4.0-1.25","","<img src=""img/orange-r.png"">","null","trial","null","","0.2,0.8","2:nogo_b","1",""
"null","","html-keyboard-response","116","2820394","0.0-4.0-2.25","","<div style=""font-size:60px;"">+</div>","null","","","","","","",""
"null","","image-keyboard-response","117","2821896","0.0-4.0-0.26","","img/orange.png","null","trial","null","true","0.2,0.8","2:nogo_b","",""
"null","","html-keyboard-response","118","2822898","0.0-4.0-1.26","","<img src=""img/orange-r.png"">","null","trial","null","","0.2,0.8","2:nogo_b","1",""
"null","","html-keyboard-response","119","2823899","0.0-4.0-2.26","","<div style=""font-size:60px;"">+</div>","null","","","","","","",""
"822.9200000055134","","image-keyboard-response","120","2824723","0.0-4.0-0.27","","img/blue.png","32","trial","32","true","0.8,0.2","1:go_a","",""
"null","","html-keyboard-response","121","2825725","0.0-4.0-1.27","","<img src=""img/blue-r.png"" border=""10"">","null","trial","32","","0.8,0.2","1:go_a","1",""
"null","","html-keyboard-response","122","2826726","0.0-4.0-2.27","","<div style=""font-size:60px;"">+</div>","null","","","","","","",""
"691.1499999989755","","image-keyboard-response","123","2827419","0.0-4.0-0.28","","img/blue.png","32","trial","32","true","0.8,0.2","1:go_a","",""
"null","","html-keyboard-response","124","2828426","0.0-4.0-1.28","","<img src=""img/blue-r.png"" border=""10"">","null","trial","32","","0.8,0.2","1:go_a","1",""
"null","","html-keyboard-response","125","2829427","0.0-4.0-2.28","","<div style=""font-size:60px;"">+</div>","null","","","","","","",""
"null","","image-keyboard-response","126","2830929","0.0-4.0-0.29","","img/orange.png","null","trial","null","true","0.2,0.8","2:nogo_b","",""
"null","","html-keyboard-response","127","2831932","0.0-4.0-1.29","","<img src=""img/orange-r.png"">","null","trial","null","","0.2,0.8","2:nogo_b","1",""
"null","","html-keyboard-response","128","2832933","0.0-4.0-2.29","","<div style=""font-size:60px;"">+</div>","null","","","","","","",""
"null","","image-keyboard-response","129","2834435","0.0-4.0-0.30","","img/orange.png","null","trial","null","true","0.2,0.8","2:nogo_b","",""
"null","","html-keyboard-response","130","2835436","0.0-4.0-1.30","","<img src=""img/orange-n.png"">","null","trial","null","","0.2,0.8","2:nogo_b","0",""
"null","","html-keyboard-response","131","2836437","0.0-4.0-2.30","","<div style=""font-size:60px;"">+</div>","null","","","","","","",""
"709.2300000078976","","image-keyboard-response","132","2837147","0.0-4.0-0.31","","img/blue.png","32","trial","32","true","0.8,0.2","1:go_a","",""
"null","","html-keyboard-response","133","2838149","0.0-4.0-1.31","","<img src=""img/blue-r.png"" border=""10"">","null","trial","32","","0.8,0.2","1:go_a","1",""
"null","","html-keyboard-response","134","2839150","0.0-4.0-2.31","","<div style=""font-size:60px;"">+</div>","null","","","","","","",""
"603.8399999961257","","image-keyboard-response","135","2839754","0.0-4.0-0.32","","img/blue.png","32","trial","32","true","0.8,0.2","1:go_a","",""
"null","","html-keyboard-response","136","2840757","0.0-4.0-1.32","","<img src=""img/blue-r.png"" border=""10"">","null","trial","32","","0.8,0.2","1:go_a","1",""
"null","","html-keyboard-response","137","2841758","0.0-4.0-2.32","","<div style=""font-size:60px;"">+</div>","null","","","","","","",""
"null","","image-keyboard-response","138","2843260","0.0-4.0-0.33","","img/orange.png","null","trial","null","true","0.2,0.8","2:nogo_b","",""
"null","","html-keyboard-response","139","2844261","0.0-4.0-1.33","","<img src=""img/orange-r.png"">","null","trial","null","","0.2,0.8","2:nogo_b","1",""
"null","","html-keyboard-response","140","2845263","0.0-4.0-2.33","","<div style=""font-size:60px;"">+</div>","null","","","","","","",""
"706.9649999900721","","image-keyboard-response","141","2845971","0.0-4.0-0.34","","img/blue.png","32","trial","32","true","0.8,0.2","1:go_a","",""
"null","","html-keyboard-response","142","2846973","0.0-4.0-1.34","","<img src=""img/blue-n.png"" border=""10"">","null","trial","32","","0.8,0.2","1:go_a","0",""
"null","","html-keyboard-response","143","2847975","0.0-4.0-2.34","","<div style=""font-size:60px;"">+</div>","null","","","","","","",""
"null","","image-keyboard-response","144","2849477","0.0-4.0-0.35","","img/orange.png","null","trial","null","true","0.2,0.8","2:nogo_b","",""
"null","","html-keyboard-response","145","2850481","0.0-4.0-1.35","","<img src=""img/orange-r.png"">","null","trial","null","","0.2,0.8","2:nogo_b","1",""
"null","","html-keyboard-response","146","2851483","0.0-4.0-2.35","","<div style=""font-size:60px;"">+</div>","null","","","","","","",""
"null","","image-keyboard-response","147","2852985","0.0-4.0-0.36","","img/orange.png","null","trial","null","true","0.2,0.8","2:nogo_b","",""
"null","","html-keyboard-response","148","2853987","0.0-4.0-1.36","","<img src=""img/orange-r.png"">","null","trial","null","","0.2,0.8","2:nogo_b","1",""
"null","","html-keyboard-response","149","2854988","0.0-4.0-2.36","","<div style=""font-size:60px;"">+</div>","null","","","","","","",""
"710.299999977462","","image-keyboard-response","150","2855699","0.0-4.0-0.37","","img/blue.png","32","trial","32","true","0.8,0.2","1:go_a","",""
"null","","html-keyboard-response","151","2856701","0.0-4.0-1.37","","<img src=""img/blue-n.png"" border=""10"">","null","trial","32","","0.8,0.2","1:go_a","0",""
"null","","html-keyboard-response","152","2857703","0.0-4.0-2.37","","<div style=""font-size:60px;"">+</div>","null","","","","","","",""
"579.3450000057928","","image-keyboard-response","153","2858283","0.0-4.0-0.38","","img/blue.png","32","trial","32","true","0.8,0.2","1:go_a","",""
"null","","html-keyboard-response","154","2859285","0.0-4.0-1.38","","<img src=""img/blue-r.png"" border=""10"">","null","trial","32","","0.8,0.2","1:go_a","1",""
"null","","html-keyboard-response","155","2860287","0.0-4.0-2.38","","<div style=""font-size:60px;"">+</div>","null","","","","","","",""
"null","","image-keyboard-response","156","2861789","0.0-4.0-0.39","","img/orange.png","null","trial","null","true","0.2,0.8","2:nogo_b","",""
"null","","html-keyboard-response","157","2862791","0.0-4.0-1.39","","<img src=""img/orange-r.png"">","null","trial","null","","0.2,0.8","2:nogo_b","1",""
"null","","html-keyboard-response","158","2863793","0.0-4.0-2.39","","<div style=""font-size:60px;"">+</div>","null","","","","","","",""
"null","","image-keyboard-response","159","2865296","0.0-4.0-0.40","","img/orange.png","null","trial","null","true","0.2,0.8","2:nogo_b","",""
"null","","html-keyboard-response","160","2866298","0.0-4.0-1.40","","<img src=""img/orange-n.png"">","null","trial","null","","0.2,0.8","2:nogo_b","0",""
"null","","html-keyboard-response","161","2867299","0.0-4.0-2.40","","<div style=""font-size:60px;"">+</div>","null","","","","","","",""
"695.7249999977648","","image-keyboard-response","162","2867995","0.0-4.0-0.41","","img/blue.png","32","trial","32","true","0.8,0.2","1:go_a","",""
"null","","html-keyboard-response","163","2868997","0.0-4.0-1.41","","<img src=""img/blue-r.png"" border=""10"">","null","trial","32","","0.8,0.2","1:go_a","1",""
"null","","html-keyboard-response","164","2869998","0.0-4.0-2.41","","<div style=""font-size:60px;"">+</div>","null","","","","","","",""
"null","","image-keyboard-response","165","2871500","0.0-4.0-0.42","","img/orange.png","null","trial","null","true","0.2,0.8","2:nogo_b","",""
"null","","html-keyboard-response","166","2872502","0.0-4.0-1.42","","<img src=""img/orange-r.png"">","null","trial","null","","0.2,0.8","2:nogo_b","1",""
"null","","html-keyboard-response","167","2873503","0.0-4.0-2.42","","<div style=""font-size:60px;"">+</div>","null","","","","","","",""
"738.7549999984913","","image-keyboard-response","168","2874243","0.0-4.0-0.43","","img/blue.png","32","trial","32","true","0.8,0.2","1:go_a","",""
"null","","html-keyboard-response","169","2875245","0.0-4.0-1.43","","<img src=""img/blue-n.png"" border=""10"">","null","trial","32","","0.8,0.2","1:go_a","0",""
"null","","html-keyboard-response","170","2876247","0.0-4.0-2.43","","<div style=""font-size:60px;"">+</div>","null","","","","","","",""
"null","","image-keyboard-response","171","2877748","0.0-4.0-0.44","","img/orange.png","null","trial","null","true","0.2,0.8","2:nogo_b","",""
"null","","html-keyboard-response","172","2878751","0.0-4.0-1.44","","<img src=""img/orange-r.png"">","null","trial","null","","0.2,0.8","2:nogo_b","1",""
"null","","html-keyboard-response","173","2879752","0.0-4.0-2.44","","<div style=""font-size:60px;"">+</div>","null","","","","","","",""
"706.4749999847263","","image-keyboard-response","174","2880459","0.0-4.0-0.45","","img/blue.png","32","trial","32","true","0.8,0.2","1:go_a","",""
"null","","html-keyboard-response","175","2881461","0.0-4.0-1.45","","<img src=""img/blue-r.png"" border=""10"">","null","trial","32","","0.8,0.2","1:go_a","1",""
"null","","html-keyboard-response","176","2882462","0.0-4.0-2.45","","<div style=""font-size:60px;"">+</div>","null","","","","","","",""
"null","","image-keyboard-response","177","2883963","0.0-4.0-0.46","","img/orange.png","null","trial","null","true","0.2,0.8","2:nogo_b","",""
"null","","html-keyboard-response","178","2884965","0.0-4.0-1.46","","<img src=""img/orange-r.png"">","null","trial","null","","0.2,0.8","2:nogo_b","1",""
"null","","html-keyboard-response","179","2885966","0.0-4.0-2.46","","<div style=""font-size:60px;"">+</div>","null","","","","","","",""
"652.0850000083447","","image-keyboard-response","180","2886619","0.0-4.0-0.47","","img/blue.png","32","trial","32","true","0.8,0.2","1:go_a","",""
"null","","html-keyboard-response","181","2887621","0.0-4.0-1.47","","<img src=""img/blue-r.png"" border=""10"">","null","trial","32","","0.8,0.2","1:go_a","1",""
"null","","html-keyboard-response","182","2888623","0.0-4.0-2.47","","<div style=""font-size:60px;"">+</div>","null","","","","","","",""
"null","","image-keyboard-response","183","2890124","0.0-4.0-0.48","","img/orange.png","null","trial","null","true","0.2,0.8","2:nogo_b","",""
"null","","html-keyboard-response","184","2891127","0.0-4.0-1.48","","<img src=""img/orange-r.png"">","null","trial","null","","0.2,0.8","2:nogo_b","1",""
"null","","html-keyboard-response","185","2892128","0.0-4.0-2.48","","<div style=""font-size:60px;"">+</div>","null","","","","","","",""
"689.394999993965","","image-keyboard-response","186","2892820","0.0-4.0-0.49","","img/blue.png","32","trial","32","true","0.8,0.2","1:go_a","",""
"null","","html-keyboard-response","187","2893822","0.0-4.0-1.49","","<img src=""img/blue-r.png"" border=""10"">","null","trial","32","","0.8,0.2","1:go_a","1",""
"null","","html-keyboard-response","188","2894824","0.0-4.0-2.49","","<div style=""font-size:60px;"">+</div>","null","","","","","","",""
"642.6900000078604","","image-keyboard-response","189","2895467","0.0-4.0-0.50","","img/blue.png","32","trial","32","true","0.8,0.2","1:go_a","",""
"null","","html-keyboard-response","190","2896470","0.0-4.0-1.50","","<img src=""img/blue-r.png"" border=""10"">","null","trial","32","","0.8,0.2","1:go_a","1",""
"null","","html-keyboard-response","191","2897471","0.0-4.0-2.50","","<div style=""font-size:60px;"">+</div>","null","","","","","","",""
"null","","image-keyboard-response","192","2898973","0.0-4.0-0.51","","img/orange.png","null","trial","null","true","0.2,0.8","2:nogo_b","",""
"null","","html-keyboard-response","193","2899979","0.0-4.0-1.51","","<img src=""img/orange-r.png"">","null","trial","null","","0.2,0.8","2:nogo_b","1",""
"null","","html-keyboard-response","194","2900980","0.0-4.0-2.51","","<div style=""font-size:60px;"">+</div>","null","","","","","","",""
"806.5499999793246","","image-keyboard-response","195","2901787","0.0-4.0-0.52","","img/blue.png","32","trial","32","true","0.8,0.2","1:go_a","",""
"null","","html-keyboard-response","196","2902790","0.0-4.0-1.52","","<img src=""img/blue-r.png"" border=""10"">","null","trial","32","","0.8,0.2","1:go_a","1",""
"null","","html-keyboard-response","197","2903792","0.0-4.0-2.52","","<div style=""font-size:60px;"">+</div>","null","","","","","","",""
"null","","image-keyboard-response","198","2905293","0.0-4.0-0.53","","img/orange.png","null","trial","null","true","0.2,0.8","2:nogo_b","",""
"null","","html-keyboard-response","199","2906294","0.0-4.0-1.53","","<img src=""img/orange-r.png"">","null","trial","null","","0.2,0.8","2:nogo_b","1",""
"null","","html-keyboard-response","200","2907295","0.0-4.0-2.53","","<div style=""font-size:60px;"">+</div>","null","","","","","","",""
"699.4249999988824","","image-keyboard-response","201","2907996","0.0-4.0-0.54","","img/blue.png","32","trial","32","true","0.8,0.2","1:go_a","",""
"null","","html-keyboard-response","202","2908998","0.0-4.0-1.54","","<img src=""img/blue-r.png"" border=""10"">","null","trial","32","","0.8,0.2","1:go_a","1",""
"null","","html-keyboard-response","203","2909999","0.0-4.0-2.54","","<div style=""font-size:60px;"">+</div>","null","","","","","","",""
"null","","image-keyboard-response","204","2911501","0.0-4.0-0.55","","img/orange.png","null","trial","null","true","0.2,0.8","2:nogo_b","",""
"null","","html-keyboard-response","205","2912502","0.0-4.0-1.55","","<img src=""img/orange-r.png"">","null","trial","null","","0.2,0.8","2:nogo_b","1",""
"null","","html-keyboard-response","206","2913504","0.0-4.0-2.55","","<div style=""font-size:60px;"">+</div>","null","","","","","","",""
"null","","image-keyboard-response","207","2915006","0.0-4.0-0.56","","img/orange.png","null","trial","null","true","0.2,0.8","2:nogo_b","",""
"null","","html-keyboard-response","208","2916008","0.0-4.0-1.56","","<img src=""img/orange-r.png"">","null","trial","null","","0.2,0.8","2:nogo_b","1",""
"null","","html-keyboard-response","209","2917009","0.0-4.0-2.56","","<div style=""font-size:60px;"">+</div>","null","","","","","","",""
"681.6800000085495","","image-keyboard-response","210","2917692","0.0-4.0-0.57","","img/blue.png","32","trial","32","true","0.8,0.2","1:go_a","",""
"null","","html-keyboard-response","211","2918694","0.0-4.0-1.57","","<img src=""img/blue-r.png"" border=""10"">","null","trial","32","","0.8,0.2","1:go_a","1",""
"null","","html-keyboard-response","212","2919695","0.0-4.0-2.57","","<div style=""font-size:60px;"">+</div>","null","","","","","","",""
"564.2099999822676","","image-keyboard-response","213","2920260","0.0-4.0-0.58","","img/blue.png","32","trial","32","true","0.8,0.2","1:go_a","",""
"null","","html-keyboard-response","214","2921263","0.0-4.0-1.58","","<img src=""img/blue-r.png"" border=""10"">","null","trial","32","","0.8,0.2","1:go_a","1",""
"null","","html-keyboard-response","215","2922265","0.0-4.0-2.58","","<div style=""font-size:60px;"">+</div>","null","","","","","","",""
"null","","image-keyboard-response","216","2923766","0.0-4.0-0.59","","img/orange.png","null","trial","null","true","0.2,0.8","2:nogo_b","",""
"null","","html-keyboard-response","217","2924770","0.0-4.0-1.59","","<img src=""img/orange-r.png"">","null","trial","null","","0.2,0.8","2:nogo_b","1",""
"null","","html-keyboard-response","218","2925772","0.0-4.0-2.59","","<div style=""font-size:60px;"">+</div>","null","","","","","","",""
"4636.095000023954","","instructions","219","2930409","0.0-5.0","[{""page_index"":0,""viewing_time"":4635.7500000158325}]","","","","","","","","",""
"1074.045000015758","","image-keyboard-response","220","2931484","0.0-6.0-0.0","","img/purple.png","32","trial","null","false","0.2,0.8","2:nogo_b","",""
"null","","html-keyboard-response","221","2932486","0.0-6.0-1.0","","<img src=""img/purple-n.png"" border=""10"">","null","trial","null","","0.2,0.8","2:nogo_b","0",""
"null","","html-keyboard-response","222","2933487","0.0-6.0-2.0","","<div style=""font-size:60px;"">+</div>","null","","","","","","",""
"796.3100000051782","","image-keyboard-response","223","2934284","0.0-6.0-0.1","","img/red.png","32","trial","32","true","0.8,0.2","1:go_a","",""
"null","","html-keyboard-response","224","2935287","0.0-6.0-1.1","","<img src=""img/red-r.png"" border=""10"">","null","trial","32","","0.8,0.2","1:go_a","1",""
"null","","html-keyboard-response","225","2936288","0.0-6.0-2.1","","<div style=""font-size:60px;"">+</div>","null","","","","","","",""
"682.7449999982491","","image-keyboard-response","226","2936972","0.0-6.0-0.2","","img/green.png","32","trial","null","false","0,1","4:nogo_d","",""
"null","","html-keyboard-response","227","2937974","0.0-6.0-1.2","","<img src=""img/green-n.png"" border=""10"">","null","trial","null","","0,1","4:nogo_d","0",""
"null","","html-keyboard-response","228","2938975","0.0-6.0-2.2","","<div style=""font-size:60px;"">+</div>","null","","","","","","",""
"null","","image-keyboard-response","229","2940476","0.0-6.0-0.3","","img/pink.png","null","trial","32","false","1,0","3:go_c","",""
"null","","html-keyboard-response","230","2941478","0.0-6.0-1.3","","<img src=""img/pink-n.png"">","null","trial","32","","1,0","3:go_c","0",""
"null","","html-keyboard-response","231","2942479","0.0-6.0-2.3","","<div style=""font-size:60px;"">+</div>","null","","","","","","",""
"null","","image-keyboard-response","232","2943981","0.0-6.0-0.4","","img/purple.png","null","trial","null","true","0.2,0.8","2:nogo_b","",""
"null","","html-keyboard-response","233","2944983","0.0-6.0-1.4","","<img src=""img/purple-r.png"">","null","trial","null","","0.2,0.8","2:nogo_b","1",""
"null","","html-keyboard-response","234","2945984","0.0-6.0-2.4","","<div style=""font-size:60px;"">+</div>","null","","","","","","",""
"523.7900000065565","","image-keyboard-response","235","2946508","0.0-6.0-0.5","","img/red.png","32","trial","32","true","0.8,0.2","1:go_a","",""
"null","","html-keyboard-response","236","2947511","0.0-6.0-1.5","","<img src=""img/red-r.png"" border=""10"">","null","trial","32","","0.8,0.2","1:go_a","1",""
"null","","html-keyboard-response","237","2948513","0.0-6.0-2.5","","<div style=""font-size:60px;"">+</div>","null","","","","","","",""
"530.9550000242889","","image-keyboard-response","238","2949044","0.0-6.0-0.6","","img/pink.png","32","trial","32","true","1,0","3:go_c","",""
"null","","html-keyboard-response","239","2950047","0.0-6.0-1.6","","<img src=""img/pink-r.png"" border=""10"">","null","trial","32","","1,0","3:go_c","1",""
"null","","html-keyboard-response","240","2951049","0.0-6.0-2.6","","<div style=""font-size:60px;"">+</div>","null","","","","","","",""
"null","","image-keyboard-response","241","2952550","0.0-6.0-0.7","","img/green.png","null","trial","null","true","0,1","4:nogo_d","",""
"null","","html-keyboard-response","242","2953552","0.0-6.0-1.7","","<img src=""img/green-r.png"">","null","trial","null","","0,1","4:nogo_d","1",""
"null","","html-keyboard-response","243","2954553","0.0-6.0-2.7","","<div style=""font-size:60px;"">+</div>","null","","","","","","",""
"null","","image-keyboard-response","244","2956055","0.0-6.0-0.8","","img/purple.png","null","trial","null","true","0.2,0.8","2:nogo_b","",""
"null","","html-keyboard-response","245","2957056","0.0-6.0-1.8","","<img src=""img/purple-n.png"">","null","trial","null","","0.2,0.8","2:nogo_b","0",""
"null","","html-keyboard-response","246","2958057","0.0-6.0-2.8","","<div style=""font-size:60px;"">+</div>","null","","","","","","",""
"618.3650000020862","","image-keyboard-response","247","2958677","0.0-6.0-0.9","","img/red.png","32","trial","32","true","0.8,0.2","1:go_a","",""
"null","","html-keyboard-response","248","2959679","0.0-6.0-1.9","","<img src=""img/red-n.png"" border=""10"">","null","trial","32","","0.8,0.2","1:go_a","0",""
"null","","html-keyboard-response","249","2960680","0.0-6.0-2.9","","<div style=""font-size:60px;"">+</div>","null","","","","","","",""
"null","","image-keyboard-response","250","2962182","0.0-6.0-0.10","","img/green.png","null","trial","null","true","0,1","4:nogo_d","",""
"null","","html-keyboard-response","251","2963184","0.0-6.0-1.10","","<img src=""img/green-r.png"">","null","trial","null","","0,1","4:nogo_d","1",""
"null","","html-keyboard-response","252","2964187","0.0-6.0-2.10","","<div style=""font-size:60px;"">+</div>","null","","","","","","",""
"824.8249999885447","","image-keyboard-response","253","2965012","0.0-6.0-0.11","","img/pink.png","32","trial","32","true","1,0","3:go_c","",""
"null","","html-keyboard-response","254","2966014","0.0-6.0-1.11","","<img src=""img/pink-r.png"" border=""10"">","null","trial","32","","1,0","3:go_c","1",""
"null","","html-keyboard-response","255","2967016","0.0-6.0-2.11","","<div style=""font-size:60px;"">+</div>","null","","","","","","",""
"null","","image-keyboard-response","256","2968519","0.0-6.0-0.12","","img/purple.png","null","trial","null","true","0.2,0.8","2:nogo_b","",""
"null","","html-keyboard-response","257","2969521","0.0-6.0-1.12","","<img src=""img/purple-r.png"">","null","trial","null","","0.2,0.8","2:nogo_b","1",""
"null","","html-keyboard-response","258","2970522","0.0-6.0-2.12","","<div style=""font-size:60px;"">+</div>","null","","","","","","",""
"657.9299999866635","","image-keyboard-response","259","2971181","0.0-6.0-0.13","","img/red.png","32","trial","32","true","0.8,0.2","1:go_a","",""
"null","","html-keyboard-response","260","2972182","0.0-6.0-1.13","","<img src=""img/red-r.png"" border=""10"">","null","trial","32","","0.8,0.2","1:go_a","1",""
"null","","html-keyboard-response","261","2973184","0.0-6.0-2.13","","<div style=""font-size:60px;"">+</div>","null","","","","","","",""
"null","","image-keyboard-response","262","2974686","0.0-6.0-0.14","","img/green.png","null","trial","null","true","0,1","4:nogo_d","",""
"null","","html-keyboard-response","263","2975688","0.0-6.0-1.14","","<img src=""img/green-r.png"">","null","trial","null","","0,1","4:nogo_d","1",""
"null","","html-keyboard-response","264","2976692","0.0-6.0-2.14","","<div style=""font-size:60px;"">+</div>","null","","","","","","",""
"711.0099999988452","","image-keyboard-response","265","2977405","0.0-6.0-0.15","","img/pink.png","32","trial","32","true","1,0","3:go_c","",""
"null","","html-keyboard-response","266","2978407","0.0-6.0-1.15","","<img src=""img/pink-r.png"" border=""10"">","null","trial","32","","1,0","3:go_c","1",""
"null","","html-keyboard-response","267","2979409","0.0-6.0-2.15","","<div style=""font-size:60px;"">+</div>","null","","","","","","",""
"642.8200000086799","","image-keyboard-response","268","2980053","0.0-6.0-0.16","","img/pink.png","32","trial","32","true","1,0","3:go_c","",""
"null","","html-keyboard-response","269","2981055","0.0-6.0-1.16","","<img src=""img/pink-r.png"" border=""10"">","null","trial","32","","1,0","3:go_c","1",""
"null","","html-keyboard-response","270","2982057","0.0-6.0-2.16","","<div style=""font-size:60px;"">+</div>","null","","","","","","",""
"603.4799999906681","","image-keyboard-response","271","2982661","0.0-6.0-0.17","","img/red.png","32","trial","32","true","0.8,0.2","1:go_a","",""
"null","","html-keyboard-response","272","2983664","0.0-6.0-1.17","","<img src=""img/red-r.png"" border=""10"">","null","trial","32","","0.8,0.2","1:go_a","1",""
"null","","html-keyboard-response","273","2984666","0.0-6.0-2.17","","<div style=""font-size:60px;"">+</div>","null","","","","","","",""
"null","","image-keyboard-response","274","2986168","0.0-6.0-0.18","","img/green.png","null","trial","null","true","0,1","4:nogo_d","",""
"null","","html-keyboard-response","275","2987169","0.0-6.0-1.18","","<img src=""img/green-r.png"">","null","trial","null","","0,1","4:nogo_d","1",""
"null","","html-keyboard-response","276","2988170","0.0-6.0-2.18","","<div style=""font-size:60px;"">+</div>","null","","","","","","",""
"null","","image-keyboard-response","277","2989672","0.0-6.0-0.19","","img/purple.png","null","trial","null","true","0.2,0.8","2:nogo_b","",""
"null","","html-keyboard-response","278","2990674","0.0-6.0-1.19","","<img src=""img/purple-r.png"">","null","trial","null","","0.2,0.8","2:nogo_b","1",""
"null","","html-keyboard-response","279","2991675","0.0-6.0-2.19","","<div style=""font-size:60px;"">+</div>","null","","","","","","",""
"null","","image-keyboard-response","280","2993177","0.0-6.0-0.20","","img/purple.png","null","trial","null","true","0.2,0.8","2:nogo_b","",""
"null","","html-keyboard-response","281","2994181","0.0-6.0-1.20","","<img src=""img/purple-r.png"">","null","trial","null","","0.2,0.8","2:nogo_b","1",""
"null","","html-keyboard-response","282","2995182","0.0-6.0-2.20","","<div style=""font-size:60px;"">+</div>","null","","","","","","",""
"782.244999980554","","image-keyboard-response","283","2995965","0.0-6.0-0.21","","img/pink.png","32","trial","32","true","1,0","3:go_c","",""
"null","","html-keyboard-response","284","2996967","0.0-6.0-1.21","","<img src=""img/pink-r.png"" border=""10"">","null","trial","32","","1,0","3:go_c","1",""
"null","","html-keyboard-response","285","2997968","0.0-6.0-2.21","","<div style=""font-size:60px;"">+</div>","null","","","","","","",""
"null","","image-keyboard-response","286","2999469","0.0-6.0-0.22","","img/green.png","null","trial","null","true","0,1","4:nogo_d","",""
"null","","html-keyboard-response","287","3000472","0.0-6.0-1.22","","<img src=""img/green-r.png"">","null","trial","null","","0,1","4:nogo_d","1",""
"null","","html-keyboard-response","288","3001473","0.0-6.0-2.22","","<div style=""font-size:60px;"">+</div>","null","","","","","","",""
"650.8399999877438","","image-keyboard-response","289","3002125","0.0-6.0-0.23","","img/red.png","32","trial","32","true","0.8,0.2","1:go_a","",""
"null","","html-keyboard-response","290","3003127","0.0-6.0-1.23","","<img src=""img/red-n.png"" border=""10"">","null","trial","32","","0.8,0.2","1:go_a","0",""
"null","","html-keyboard-response","291","3004128","0.0-6.0-2.23","","<div style=""font-size:60px;"">+</div>","null","","","","","","",""
"null","","image-keyboard-response","292","3005631","0.0-6.0-0.24","","img/green.png","null","trial","null","true","0,1","4:nogo_d","",""
"null","","html-keyboard-response","293","3006634","0.0-6.0-1.24","","<img src=""img/green-r.png"">","null","trial","null","","0,1","4:nogo_d","1",""
"null","","html-keyboard-response","294","3007636","0.0-6.0-2.24","","<div style=""font-size:60px;"">+</div>","null","","","","","","",""
"608.6050000153482","","image-keyboard-response","295","3008245","0.0-6.0-0.25","","img/red.png","32","trial","32","true","0.8,0.2","1:go_a","",""
"null","","html-keyboard-response","296","3009247","0.0-6.0-1.25","","<img src=""img/red-r.png"" border=""10"">","null","trial","32","","0.8,0.2","1:go_a","1",""
"null","","html-keyboard-response","297","3010248","0.0-6.0-2.25","","<div style=""font-size:60px;"">+</div>","null","","","","","","",""
"780.2499999818392","","image-keyboard-response","298","3011030","0.0-6.0-0.26","","img/pink.png","32","trial","32","true","1,0","3:go_c","",""
"null","","html-keyboard-response","299","3012031","0.0-6.0-1.26","","<img src=""img/pink-r.png"" border=""10"">","null","trial","32","","1,0","3:go_c","1",""
"null","","html-keyboard-response","300","3013032","0.0-6.0-2.26","","<div style=""font-size:60px;"">+</div>","null","","","","","","",""
"null","","image-keyboard-response","301","3014534","0.0-6.0-0.27","","img/purple.png","null","trial","null","true","0.2,0.8","2:nogo_b","",""
"null","","html-keyboard-response","302","3015535","0.0-6.0-1.27","","<img src=""img/purple-r.png"">","null","trial","null","","0.2,0.8","2:nogo_b","1",""
"null","","html-keyboard-response","303","3016537","0.0-6.0-2.27","","<div style=""font-size:60px;"">+</div>","null","","","","","","",""
"null","","image-keyboard-response","304","3018038","0.0-6.0-0.28","","img/purple.png","null","trial","null","true","0.2,0.8","2:nogo_b","",""
"null","","html-keyboard-response","305","3019040","0.0-6.0-1.28","","<img src=""img/purple-r.png"">","null","trial","null","","0.2,0.8","2:nogo_b","1",""
"null","","html-keyboard-response","306","3020040","0.0-6.0-2.28","","<div style=""font-size:60px;"">+</div>","null","","","","","","",""
"660.2950000087731","","image-keyboard-response","307","3020701","0.0-6.0-0.29","","img/red.png","32","trial","32","true","0.8,0.2","1:go_a","",""
"null","","html-keyboard-response","308","3021704","0.0-6.0-1.29","","<img src=""img/red-r.png"" border=""10"">","null","trial","32","","0.8,0.2","1:go_a","1",""
"null","","html-keyboard-response","309","3022705","0.0-6.0-2.29","","<div style=""font-size:60px;"">+</div>","null","","","","","","",""
"611.8049999931827","","image-keyboard-response","310","3023318","0.0-6.0-0.30","","img/pink.png","32","trial","32","true","1,0","3:go_c","",""
"null","","html-keyboard-response","311","3024321","0.0-6.0-1.30","","<img src=""img/pink-r.png"" border=""10"">","null","trial","32","","1,0","3:go_c","1",""
"null","","html-keyboard-response","312","3025323","0.0-6.0-2.30","","<div style=""font-size:60px;"">+</div>","null","","","","","","",""
"null","","image-keyboard-response","313","3026824","0.0-6.0-0.31","","img/green.png","null","trial","null","true","0,1","4:nogo_d","",""
"null","","html-keyboard-response","314","3027825","0.0-6.0-1.31","","<img src=""img/green-r.png"">","null","trial","null","","0,1","4:nogo_d","1",""
"null","","html-keyboard-response","315","3028827","0.0-6.0-2.31","","<div style=""font-size:60px;"">+</div>","null","","","","","","",""
"null","","image-keyboard-response","316","3030329","0.0-6.0-0.32","","img/green.png","null","trial","null","true","0,1","4:nogo_d","",""
"null","","html-keyboard-response","317","3031332","0.0-6.0-1.32","","<img src=""img/green-r.png"">","null","trial","null","","0,1","4:nogo_d","1",""
"null","","html-keyboard-response","318","3032334","0.0-6.0-2.32","","<div style=""font-size:60px;"">+</div>","null","","","","","","",""
"591.5450000031851","","image-keyboard-response","319","3032926","0.0-6.0-0.33","","img/pink.png","32","trial","32","true","1,0","3:go_c","",""
"null","","html-keyboard-response","320","3033927","0.0-6.0-1.33","","<img src=""img/pink-r.png"" border=""10"">","null","trial","32","","1,0","3:go_c","1",""
"null","","html-keyboard-response","321","3034929","0.0-6.0-2.33","","<div style=""font-size:60px;"">+</div>","null","","","","","","",""
"539.6049999981187","","image-keyboard-response","322","3035470","0.0-6.0-0.34","","img/red.png","32","trial","32","true","0.8,0.2","1:go_a","",""
"null","","html-keyboard-response","323","3036472","0.0-6.0-1.34","","<img src=""img/red-r.png"" border=""10"">","null","trial","32","","0.8,0.2","1:go_a","1",""
"null","","html-keyboard-response","324","3037474","0.0-6.0-2.34","","<div style=""font-size:60px;"">+</div>","null","","","","","","",""
"null","","image-keyboard-response","325","3038977","0.0-6.0-0.35","","img/purple.png","null","trial","null","true","0.2,0.8","2:nogo_b","",""
"null","","html-keyboard-response","326","3039980","0.0-6.0-1.35","","<img src=""img/purple-r.png"">","null","trial","null","","0.2,0.8","2:nogo_b","1",""
"null","","html-keyboard-response","327","3040982","0.0-6.0-2.35","","<div style=""font-size:60px;"">+</div>","null","","","","","","",""
"630.7550000203773","","image-keyboard-response","328","3041614","0.0-6.0-0.36","","img/red.png","32","trial","32","true","0.8,0.2","1:go_a","",""
"null","","html-keyboard-response","329","3042617","0.0-6.0-1.36","","<img src=""img/red-r.png"" border=""10"">","null","trial","32","","0.8,0.2","1:go_a","1",""
"null","","html-keyboard-response","330","3043619","0.0-6.0-2.36","","<div style=""font-size:60px;"">+</div>","null","","","","","","",""
"521.8950000125915","","image-keyboard-response","331","3044142","0.0-6.0-0.37","","img/pink.png","32","trial","32","true","1,0","3:go_c","",""
"null","","html-keyboard-response","332","3045144","0.0-6.0-1.37","","<img src=""img/pink-r.png"" border=""10"">","null","trial","32","","1,0","3:go_c","1",""
"null","","html-keyboard-response","333","3046146","0.0-6.0-2.37","","<div style=""font-size:60px;"">+</div>","null","","","","","","",""
"null","","image-keyboard-response","334","3047647","0.0-6.0-0.38","","img/purple.png","null","trial","null","true","0.2,0.8","2:nogo_b","",""
"null","","html-keyboard-response","335","3048650","0.0-6.0-1.38","","<img src=""img/purple-n.png"">","null","trial","null","","0.2,0.8","2:nogo_b","0",""
"null","","html-keyboard-response","336","3049651","0.0-6.0-2.38","","<div style=""font-size:60px;"">+</div>","null","","","","","","",""
"null","","image-keyboard-response","337","3051153","0.0-6.0-0.39","","img/green.png","null","trial","null","true","0,1","4:nogo_d","",""
"null","","html-keyboard-response","338","3052155","0.0-6.0-1.39","","<img src=""img/green-r.png"">","null","trial","null","","0,1","4:nogo_d","1",""
"null","","html-keyboard-response","339","3053156","0.0-6.0-2.39","","<div style=""font-size:60px;"">+</div>","null","","","","","","",""
"913.0900000161491","","image-keyboard-response","340","3054070","0.0-6.0-0.40","","img/pink.png","32","trial","32","true","1,0","3:go_c","",""
"null","","html-keyboard-response","341","3055073","0.0-6.0-1.40","","<img src=""img/pink-r.png"" border=""10"">","null","trial","32","","1,0","3:go_c","1",""
"null","","html-keyboard-response","342","3056074","0.0-6.0-2.40","","<div style=""font-size:60px;"">+</div>","null","","","","","","",""
"null","","image-keyboard-response","343","3057576","0.0-6.0-0.41","","img/green.png","null","trial","null","true","0,1","4:nogo_d","",""
"null","","html-keyboard-response","344","3058578","0.0-6.0-1.41","","<img src=""img/green-r.png"">","null","trial","null","","0,1","4:nogo_d","1",""
"null","","html-keyboard-response","345","3059580","0.0-6.0-2.41","","<div style=""font-size:60px;"">+</div>","null","","","","","","",""
"760.7949999799021","","image-keyboard-response","346","3060342","0.0-6.0-0.42","","img/red.png","32","trial","32","true","0.8,0.2","1:go_a","",""
"null","","html-keyboard-response","347","3061345","0.0-6.0-1.42","","<img src=""img/red-r.png"" border=""10"">","null","trial","32","","0.8,0.2","1:go_a","1",""
"null","","html-keyboard-response","348","3062347","0.0-6.0-2.42","","<div style=""font-size:60px;"">+</div>","null","","","","","","",""
"null","","image-keyboard-response","349","3063848","0.0-6.0-0.43","","img/purple.png","null","trial","null","true","0.2,0.8","2:nogo_b","",""
"null","","html-keyboard-response","350","3064850","0.0-6.0-1.43","","<img src=""img/purple-r.png"">","null","trial","null","","0.2,0.8","2:nogo_b","1",""
"null","","html-keyboard-response","351","3065851","0.0-6.0-2.43","","<div style=""font-size:60px;"">+</div>","null","","","","","","",""
"674.1449999972247","","image-keyboard-response","352","3066526","0.0-6.0-0.44","","img/red.png","32","trial","32","true","0.8,0.2","1:go_a","",""
"null","","html-keyboard-response","353","3067527","0.0-6.0-1.44","","<img src=""img/red-n.png"" border=""10"">","null","trial","32","","0.8,0.2","1:go_a","0",""
"null","","html-keyboard-response","354","3068530","0.0-6.0-2.44","","<div style=""font-size:60px;"">+</div>","null","","","","","","",""
"null","","image-keyboard-response","355","3070031","0.0-6.0-0.45","","img/purple.png","null","trial","null","true","0.2,0.8","2:nogo_b","",""
"null","","html-keyboard-response","356","3071033","0.0-6.0-1.45","","<img src=""img/purple-r.png"">","null","trial","null","","0.2,0.8","2:nogo_b","1",""
"null","","html-keyboard-response","357","3072035","0.0-6.0-2.45","","<div style=""font-size:60px;"">+</div>","null","","","","","","",""
"721.9249999909662","","image-keyboard-response","358","3072758","0.0-6.0-0.46","","img/pink.png","32","trial","32","true","1,0","3:go_c","",""
"null","","html-keyboard-response","359","3073760","0.0-6.0-1.46","","<img src=""img/pink-r.png"" border=""10"">","null","trial","32","","1,0","3:go_c","1",""
"null","","html-keyboard-response","360","3074760","0.0-6.0-2.46","","<div style=""font-size:60px;"">+</div>","null","","","","","","",""
"null","","image-keyboard-response","361","3076262","0.0-6.0-0.47","","img/green.png","null","trial","null","true","0,1","4:nogo_d","",""
"null","","html-keyboard-response","362","3077263","0.0-6.0-1.47","","<img src=""img/green-r.png"">","null","trial","null","","0,1","4:nogo_d","1",""
"null","","html-keyboard-response","363","3078265","0.0-6.0-2.47","","<div style=""font-size:60px;"">+</div>","null","","","","","","",""
"716.6650000144728","","image-keyboard-response","364","3078982","0.0-6.0-0.48","","img/pink.png","32","trial","32","true","1,0","3:go_c","",""
"null","","html-keyboard-response","365","3079983","0.0-6.0-1.48","","<img src=""img/pink-r.png"" border=""10"">","null","trial","32","","1,0","3:go_c","1",""
"null","","html-keyboard-response","366","3080985","0.0-6.0-2.48","","<div style=""font-size:60px;"">+</div>","null","","","","","","",""
"null","","image-keyboard-response","367","3082486","0.0-6.0-0.49","","img/green.png","null","trial","null","true","0,1","4:nogo_d","",""
"null","","html-keyboard-response","368","3083489","0.0-6.0-1.49","","<img src=""img/green-r.png"">","null","trial","null","","0,1","4:nogo_d","1",""
"null","","html-keyboard-response","369","3084491","0.0-6.0-2.49","","<div style=""font-size:60px;"">+</div>","null","","","","","","",""
"null","","image-keyboard-response","370","3085992","0.0-6.0-0.50","","img/purple.png","null","trial","null","true","0.2,0.8","2:nogo_b","",""
"null","","html-keyboard-response","371","3086994","0.0-6.0-1.50","","<img src=""img/purple-r.png"">","null","trial","null","","0.2,0.8","2:nogo_b","1",""
"null","","html-keyboard-response","372","3087996","0.0-6.0-2.50","","<div style=""font-size:60px;"">+</div>","null","","","","","","",""
"729.1599999880418","","image-keyboard-response","373","3088726","0.0-6.0-0.51","","img/red.png","32","trial","32","true","0.8,0.2","1:go_a","",""
"null","","html-keyboard-response","374","3089728","0.0-6.0-1.51","","<img src=""img/red-r.png"" border=""10"">","null","trial","32","","0.8,0.2","1:go_a","1",""
"null","","html-keyboard-response","375","3090730","0.0-6.0-2.51","","<div style=""font-size:60px;"">+</div>","null","","","","","","",""
"587.4349999940023","","image-keyboard-response","376","3091318","0.0-6.0-0.52","","img/red.png","32","trial","32","true","0.8,0.2","1:go_a","",""
"null","","html-keyboard-response","377","3092321","0.0-6.0-1.52","","<img src=""img/red-r.png"" border=""10"">","null","trial","32","","0.8,0.2","1:go_a","1",""
"null","","html-keyboard-response","378","3093322","0.0-6.0-2.52","","<div style=""font-size:60px;"">+</div>","null","","","","","","",""
"null","","image-keyboard-response","379","3094825","0.0-6.0-0.53","","img/purple.png","null","trial","null","true","0.2,0.8","2:nogo_b","",""
"null","","html-keyboard-response","380","3095828","0.0-6.0-1.53","","<img src=""img/purple-r.png"">","null","trial","null","","0.2,0.8","2:nogo_b","1",""
"null","","html-keyboard-response","381","3096829","0.0-6.0-2.53","","<div style=""font-size:60px;"">+</div>","null","","","","","","",""
"null","","image-keyboard-response","382","3098330","0.0-6.0-0.54","","img/green.png","null","trial","null","true","0,1","4:nogo_d","",""
"null","","html-keyboard-response","383","3099333","0.0-6.0-1.54","","<img src=""img/green-r.png"">","null","trial","null","","0,1","4:nogo_d","1",""
"null","","html-keyboard-response","384","3100335","0.0-6.0-2.54","","<div style=""font-size:60px;"">+</div>","null","","","","","","",""
"695.9600000116043","","image-keyboard-response","385","3101032","0.0-6.0-0.55","","img/pink.png","32","trial","32","true","1,0","3:go_c","",""
"null","","html-keyboard-response","386","3102035","0.0-6.0-1.55","","<img src=""img/pink-r.png"" border=""10"">","null","trial","32","","1,0","3:go_c","1",""
"null","","html-keyboard-response","387","3103037","0.0-6.0-2.55","","<div style=""font-size:60px;"">+</div>","null","","","","","","",""
"null","","image-keyboard-response","388","3104538","0.0-6.0-0.56","","img/purple.png","null","trial","null","true","0.2,0.8","2:nogo_b","",""
"null","","html-keyboard-response","389","3105540","0.0-6.0-1.56","","<img src=""img/purple-r.png"">","null","trial","null","","0.2,0.8","2:nogo_b","1",""
"null","","html-keyboard-response","390","3106542","0.0-6.0-2.56","","<div style=""font-size:60px;"">+</div>","null","","","","","","",""
"768.5599999967963","","image-keyboard-response","391","3107312","0.0-6.0-0.57","","img/pink.png","32","trial","32","true","1,0","3:go_c","",""
"null","","html-keyboard-response","392","3108314","0.0-6.0-1.57","","<img src=""img/pink-r.png"" border=""10"">","null","trial","32","","1,0","3:go_c","1",""
"null","","html-keyboard-response","393","3109316","0.0-6.0-2.57","","<div style=""font-size:60px;"">+</div>","null","","","","","","",""
"null","","image-keyboard-response","394","3110818","0.0-6.0-0.58","","img/green.png","null","trial","null","true","0,1","4:nogo_d","",""
"null","","html-keyboard-response","395","3111820","0.0-6.0-1.58","","<img src=""img/green-r.png"">","null","trial","null","","0,1","4:nogo_d","1",""
"null","","html-keyboard-response","396","3112821","0.0-6.0-2.58","","<div style=""font-size:60px;"">+</div>","null","","","","","","",""
"673.6600000006147","","image-keyboard-response","397","3113495","0.0-6.0-0.59","","img/red.png","32","trial","32","true","0.8,0.2","1:go_a","",""
"null","","html-keyboard-response","398","3114497","0.0-6.0-1.59","","<img src=""img/red-n.png"" border=""10"">","null","trial","32","","0.8,0.2","1:go_a","0",""
"null","","html-keyboard-response","399","3115498","0.0-6.0-2.59","","<div style=""font-size:60px;"">+</div>","null","","","","","","",""
"null","","image-keyboard-response","400","3117000","0.0-6.0-0.60","","img/purple.png","null","trial","null","true","0.2,0.8","2:nogo_b","",""
"null","","html-keyboard-response","401","3118003","0.0-6.0-1.60","","<img src=""img/purple-n.png"">","null","trial","null","","0.2,0.8","2:nogo_b","0",""
"null","","html-keyboard-response","402","3119004","0.0-6.0-2.60","","<div style=""font-size:60px;"">+</div>","null","","","","","","",""
"706.7600000007078","","image-keyboard-response","403","3119711","0.0-6.0-0.61","","img/pink.png","32","trial","32","true","1,0","3:go_c","",""
"null","","html-keyboard-response","404","3120713","0.0-6.0-1.61","","<img src=""img/pink-r.png"" border=""10"">","null","trial","32","","1,0","3:go_c","1",""
"null","","html-keyboard-response","405","3121714","0.0-6.0-2.61","","<div style=""font-size:60px;"">+</div>","null","","","","","","",""
"null","","image-keyboard-response","406","3123216","0.0-6.0-0.62","","img/green.png","null","trial","null","true","0,1","4:nogo_d","",""
"null","","html-keyboard-response","407","3124218","0.0-6.0-1.62","","<img src=""img/green-r.png"">","null","trial","null","","0,1","4:nogo_d","1",""
"null","","html-keyboard-response","408","3125219","0.0-6.0-2.62","","<div style=""font-size:60px;"">+</div>","null","","","","","","",""
"619.1499999840744","","image-keyboard-response","409","3125839","0.0-6.0-0.63","","img/red.png","32","trial","32","true","0.8,0.2","1:go_a","",""
"null","","html-keyboard-response","410","3126841","0.0-6.0-1.63","","<img src=""img/red-r.png"" border=""10"">","null","trial","32","","0.8,0.2","1:go_a","1",""
"null","","html-keyboard-response","411","3127842","0.0-6.0-2.63","","<div style=""font-size:60px;"">+</div>","null","","","","","","",""
"null","","image-keyboard-response","412","3129344","0.0-6.0-0.64","","img/purple.png","null","trial","null","true","0.2,0.8","2:nogo_b","",""
"null","","html-keyboard-response","413","3130346","0.0-6.0-1.64","","<img src=""img/purple-n.png"">","null","trial","null","","0.2,0.8","2:nogo_b","0",""
"null","","html-keyboard-response","414","3131347","0.0-6.0-2.64","","<div style=""font-size:60px;"">+</div>","null","","","","","","",""
"611.4949999903329","","image-keyboard-response","415","3131960","0.0-6.0-0.65","","img/red.png","32","trial","32","true","0.8,0.2","1:go_a","",""
"null","","html-keyboard-response","416","3132961","0.0-6.0-1.65","","<img src=""img/red-r.png"" border=""10"">","null","trial","32","","0.8,0.2","1:go_a","1",""
"null","","html-keyboard-response","417","3133963","0.0-6.0-2.65","","<div style=""font-size:60px;"">+</div>","null","","","","","","",""
"715.679999994114","","image-keyboard-response","418","3134679","0.0-6.0-0.66","","img/pink.png","32","trial","32","true","1,0","3:go_c","",""
"null","","html-keyboard-response","419","3135681","0.0-6.0-1.66","","<img src=""img/pink-r.png"" border=""10"">","null","trial","32","","1,0","3:go_c","1",""
"null","","html-keyboard-response","420","3136683","0.0-6.0-2.66","","<div style=""font-size:60px;"">+</div>","null","","","","","","",""
"null","","image-keyboard-response","421","3138184","0.0-6.0-0.67","","img/green.png","null","trial","null","true","0,1","4:nogo_d","",""
"null","","html-keyboard-response","422","3139186","0.0-6.0-1.67","","<img src=""img/green-r.png"">","null","trial","null","","0,1","4:nogo_d","1",""
"null","","html-keyboard-response","423","3140188","0.0-6.0-2.67","","<div style=""font-size:60px;"">+</div>","null","","","","","","",""
"634.9650000045076","","image-keyboard-response","424","3140824","0.0-6.0-0.68","","img/pink.png","32","trial","32","true","1,0","3:go_c","",""
"null","","html-keyboard-response","425","3141825","0.0-6.0-1.68","","<img src=""img/pink-r.png"" border=""10"">","null","trial","32","","1,0","3:go_c","1",""
"null","","html-keyboard-response","426","3142828","0.0-6.0-2.68","","<div style=""font-size:60px;"">+</div>","null","","","","","","",""
"null","","image-keyboard-response","427","3144330","0.0-6.0-0.69","","img/green.png","null","trial","null","true","0,1","4:nogo_d","",""
"null","","html-keyboard-response","428","3145332","0.0-6.0-1.69","","<img src=""img/green-r.png"">","null","trial","null","","0,1","4:nogo_d","1",""
"null","","html-keyboard-response","429","3146333","0.0-6.0-2.69","","<div style=""font-size:60px;"">+</div>","null","","","","","","",""
"560.2799999760464","","image-keyboard-response","430","3146896","0.0-6.0-0.70","","img/red.png","32","trial","32","true","0.8,0.2","1:go_a","",""
"null","","html-keyboard-response","431","3147897","0.0-6.0-1.70","","<img src=""img/red-r.png"" border=""10"">","null","trial","32","","0.8,0.2","1:go_a","1",""
"null","","html-keyboard-response","432","3148899","0.0-6.0-2.70","","<div style=""font-size:60px;"">+</div>","null","","","","","","",""
"null","","image-keyboard-response","433","3150400","0.0-6.0-0.71","","img/purple.png","null","trial","null","true","0.2,0.8","2:nogo_b","",""
"null","","html-keyboard-response","434","3151402","0.0-6.0-1.71","","<img src=""img/purple-r.png"">","null","trial","null","","0.2,0.8","2:nogo_b","1",""
"null","","html-keyboard-response","435","3152404","0.0-6.0-2.71","","<div style=""font-size:60px;"">+</div>","null","","","","","","",""
"811.0900000031106","","image-keyboard-response","436","3153216","0.0-6.0-0.72","","img/pink.png","32","trial","32","true","1,0","3:go_c","",""
"null","","html-keyboard-response","437","3154217","0.0-6.0-1.72","","<img src=""img/pink-r.png"" border=""10"">","null","trial","32","","1,0","3:go_c","1",""
"null","","html-keyboard-response","438","3155218","0.0-6.0-2.72","","<div style=""font-size:60px;"">+</div>","null","","","","","","",""
"null","","image-keyboard-response","439","3156719","0.0-6.0-0.73","","img/purple.png","null","trial","null","true","0.2,0.8","2:nogo_b","",""
"null","","html-keyboard-response","440","3157722","0.0-6.0-1.73","","<img src=""img/purple-r.png"">","null","trial","null","","0.2,0.8","2:nogo_b","1",""
"null","","html-keyboard-response","441","3158723","0.0-6.0-2.73","","<div style=""font-size:60px;"">+</div>","null","","","","","","",""
"null","","image-keyboard-response","442","3160225","0.0-6.0-0.74","","img/green.png","null","trial","null","true","0,1","4:nogo_d","",""
"null","","html-keyboard-response","443","3161227","0.0-6.0-1.74","","<img src=""img/green-r.png"">","null","trial","null","","0,1","4:nogo_d","1",""
"null","","html-keyboard-response","444","3162229","0.0-6.0-2.74","","<div style=""font-size:60px;"">+</div>","null","","","","","","",""
"650.9049999872223","","image-keyboard-response","445","3162880","0.0-6.0-0.75","","img/red.png","32","trial","32","true","0.8,0.2","1:go_a","",""
"null","","html-keyboard-response","446","3163882","0.0-6.0-1.75","","<img src=""img/red-r.png"" border=""10"">","null","trial","32","","0.8,0.2","1:go_a","1",""
"null","","html-keyboard-response","447","3164883","0.0-6.0-2.75","","<div style=""font-size:60px;"">+</div>","null","","","","","","",""
"null","","image-keyboard-response","448","3166385","0.0-6.0-0.76","","img/purple.png","null","trial","null","true","0.2,0.8","2:nogo_b","",""
"null","","html-keyboard-response","449","3167387","0.0-6.0-1.76","","<img src=""img/purple-r.png"">","null","trial","null","","0.2,0.8","2:nogo_b","1",""
"null","","html-keyboard-response","450","3168388","0.0-6.0-2.76","","<div style=""font-size:60px;"">+</div>","null","","","","","","",""
"651.3099999865517","","image-keyboard-response","451","3169040","0.0-6.0-0.77","","img/pink.png","32","trial","32","true","1,0","3:go_c","",""
"null","","html-keyboard-response","452","3170042","0.0-6.0-1.77","","<img src=""img/pink-r.png"" border=""10"">","null","trial","32","","1,0","3:go_c","1",""
"null","","html-keyboard-response","453","3171044","0.0-6.0-2.77","","<div style=""font-size:60px;"">+</div>","null","","","","","","",""
"603.2650000127032","","image-keyboard-response","454","3171648","0.0-6.0-0.78","","img/red.png","32","trial","32","true","0.8,0.2","1:go_a","",""
"null","","html-keyboard-response","455","3172651","0.0-6.0-1.78","","<img src=""img/red-r.png"" border=""10"">","null","trial","32","","0.8,0.2","1:go_a","1",""
"null","","html-keyboard-response","456","3173652","0.0-6.0-2.78","","<div style=""font-size:60px;"">+</div>","null","","","","","","",""
"null","","image-keyboard-response","457","3175154","0.0-6.0-0.79","","img/green.png","null","trial","null","true","0,1","4:nogo_d","",""
"null","","html-keyboard-response","458","3176155","0.0-6.0-1.79","","<img src=""img/green-r.png"">","null","trial","null","","0,1","4:nogo_d","1",""
"null","","html-keyboard-response","459","3177156","0.0-6.0-2.79","","<div style=""font-size:60px;"">+</div>","null","","","","","","",""
"null","","image-keyboard-response","460","3178661","0.0-6.0-0.80","","img/green.png","null","trial","null","true","0,1","4:nogo_d","",""
"null","","html-keyboard-response","461","3179665","0.0-6.0-1.80","","<img src=""img/green-r.png"">","null","trial","null","","0,1","4:nogo_d","1",""
"null","","html-keyboard-response","462","3180666","0.0-6.0-2.80","","<div style=""font-size:60px;"">+</div>","null","","","","","","",""
"605.2199999978766","","image-keyboard-response","463","3181272","0.0-6.0-0.81","","img/pink.png","32","trial","32","true","1,0","3:go_c","",""
"null","","html-keyboard-response","464","3182275","0.0-6.0-1.81","","<img src=""img/pink-r.png"" border=""10"">","null","trial","32","","1,0","3:go_c","1",""
"null","","html-keyboard-response","465","3183276","0.0-6.0-2.81","","<div style=""font-size:60px;"">+</div>","null","","","","","","",""
"531.4599999981001","","image-keyboard-response","466","3183808","0.0-6.0-0.82","","img/red.png","32","trial","32","true","0.8,0.2","1:go_a","",""
"null","","html-keyboard-response","467","3184811","0.0-6.0-1.82","","<img src=""img/red-r.png"" border=""10"">","null","trial","32","","0.8,0.2","1:go_a","1",""
"null","","html-keyboard-response","468","3185813","0.0-6.0-2.82","","<div style=""font-size:60px;"">+</div>","null","","","","","","",""
"null","","image-keyboard-response","469","3187315","0.0-6.0-0.83","","img/purple.png","null","trial","null","true","0.2,0.8","2:nogo_b","",""
"null","","html-keyboard-response","470","3188317","0.0-6.0-1.83","","<img src=""img/purple-r.png"">","null","trial","null","","0.2,0.8","2:nogo_b","1",""
"null","","html-keyboard-response","471","3189318","0.0-6.0-2.83","","<div style=""font-size:60px;"">+</div>","null","","","","","","",""
"665.7599999741651","","image-keyboard-response","472","3189984","0.0-6.0-0.84","","img/pink.png","32","trial","32","true","1,0","3:go_c","",""
"null","","html-keyboard-response","473","3190986","0.0-6.0-1.84","","<img src=""img/pink-r.png"" border=""10"">","null","trial","32","","1,0","3:go_c","1",""
"null","","html-keyboard-response","474","3191987","0.0-6.0-2.84","","<div style=""font-size:60px;"">+</div>","null","","","","","","",""
"564.0950000090525","","image-keyboard-response","475","3192552","0.0-6.0-0.85","","img/red.png","32","trial","32","true","0.8,0.2","1:go_a","",""
"null","","html-keyboard-response","476","3193554","0.0-6.0-1.85","","<img src=""img/red-r.png"" border=""10"">","null","trial","32","","0.8,0.2","1:go_a","1",""
"null","","html-keyboard-response","477","3194555","0.0-6.0-2.85","","<div style=""font-size:60px;"">+</div>","null","","","","","","",""
"null","","image-keyboard-response","478","3196084","0.0-6.0-0.86","","img/purple.png","null","trial","null","true","0.2,0.8","2:nogo_b","",""
"null","","html-keyboard-response","479","3197086","0.0-6.0-1.86","","<img src=""img/purple-r.png"">","null","trial","null","","0.2,0.8","2:nogo_b","1",""
"null","","html-keyboard-response","480","3198088","0.0-6.0-2.86","","<div style=""font-size:60px;"">+</div>","null","","","","","","",""
"null","","image-keyboard-response","481","3199589","0.0-6.0-0.87","","img/green.png","null","trial","null","true","0,1","4:nogo_d","",""
"null","","html-keyboard-response","482","3200591","0.0-6.0-1.87","","<img src=""img/green-r.png"">","null","trial","null","","0,1","4:nogo_d","1",""
"null","","html-keyboard-response","483","3201592","0.0-6.0-2.87","","<div style=""font-size:60px;"">+</div>","null","","","","","","",""
"null","","image-keyboard-response","484","3203093","0.0-6.0-0.88","","img/green.png","null","trial","null","true","0,1","4:nogo_d","",""
"null","","html-keyboard-response","485","3204095","0.0-6.0-1.88","","<img src=""img/green-r.png"">","null","trial","null","","0,1","4:nogo_d","1",""
"null","","html-keyboard-response","486","3205097","0.0-6.0-2.88","","<div style=""font-size:60px;"">+</div>","null","","","","","","",""
"590.9950000061654","","image-keyboard-response","487","3205689","0.0-6.0-0.89","","img/pink.png","32","trial","32","true","1,0","3:go_c","",""
"null","","html-keyboard-response","488","3206691","0.0-6.0-1.89","","<img src=""img/pink-r.png"" border=""10"">","null","trial","32","","1,0","3:go_c","1",""
"null","","html-keyboard-response","489","3207692","0.0-6.0-2.89","","<div style=""font-size:60px;"">+</div>","null","","","","","","",""
"null","","image-keyboard-response","490","3209194","0.0-6.0-0.90","","img/purple.png","null","trial","null","true","0.2,0.8","2:nogo_b","",""
"null","","html-keyboard-response","491","3210196","0.0-6.0-1.90","","<img src=""img/purple-r.png"">","null","trial","null","","0.2,0.8","2:nogo_b","1",""
"null","","html-keyboard-response","492","3211198","0.0-6.0-2.90","","<div style=""font-size:60px;"">+</div>","null","","","","","","",""
"562.1399999940768","","image-keyboard-response","493","3211761","0.0-6.0-0.91","","img/red.png","32","trial","32","true","0.8,0.2","1:go_a","",""
"null","","html-keyboard-response","494","3212762","0.0-6.0-1.91","","<img src=""img/red-r.png"" border=""10"">","null","trial","32","","0.8,0.2","1:go_a","1",""
"null","","html-keyboard-response","495","3213764","0.0-6.0-2.91","","<div style=""font-size:60px;"">+</div>","null","","","","","","",""
"507.4599999934435","","image-keyboard-response","496","3214272","0.0-6.0-0.92","","img/red.png","32","trial","32","true","0.8,0.2","1:go_a","",""
"null","","html-keyboard-response","497","3215275","0.0-6.0-1.92","","<img src=""img/red-r.png"" border=""10"">","null","trial","32","","0.8,0.2","1:go_a","1",""
"null","","html-keyboard-response","498","3216275","0.0-6.0-2.92","","<div style=""font-size:60px;"">+</div>","null","","","","","","",""
"524.3550000013784","","image-keyboard-response","499","3216801","0.0-6.0-0.93","","img/pink.png","32","trial","32","true","1,0","3:go_c","",""
"null","","html-keyboard-response","500","3217803","0.0-6.0-1.93","","<img src=""img/pink-r.png"" border=""10"">","null","trial","32","","1,0","3:go_c","1",""
"null","","html-keyboard-response","501","3218805","0.0-6.0-2.93","","<div style=""font-size:60px;"">+</div>","null","","","","","","",""
"null","","image-keyboard-response","502","3220305","0.0-6.0-0.94","","img/green.png","null","trial","null","true","0,1","4:nogo_d","",""
"null","","html-keyboard-response","503","3221311","0.0-6.0-1.94","","<img src=""img/green-r.png"">","null","trial","null","","0,1","4:nogo_d","1",""
"null","","html-keyboard-response","504","3222312","0.0-6.0-2.94","","<div style=""font-size:60px;"">+</div>","null","","","","","","",""
"null","","image-keyboard-response","505","3223814","0.0-6.0-0.95","","img/purple.png","null","trial","null","true","0.2,0.8","2:nogo_b","",""
"null","","html-keyboard-response","506","3224816","0.0-6.0-1.95","","<img src=""img/purple-r.png"">","null","trial","null","","0.2,0.8","2:nogo_b","1",""
"null","","html-keyboard-response","507","3225817","0.0-6.0-2.95","","<div style=""font-size:60px;"">+</div>","null","","","","","","",""
"null","","image-keyboard-response","508","3227319","0.0-6.0-0.96","","img/purple.png","null","trial","null","true","0.2,0.8","2:nogo_b","",""
"null","","html-keyboard-response","509","3228320","0.0-6.0-1.96","","<img src=""img/purple-r.png"">","null","trial","null","","0.2,0.8","2:nogo_b","1",""
"null","","html-keyboard-response","510","3229323","0.0-6.0-2.96","","<div style=""font-size:60px;"">+</div>","null","","","","","","",""
"605.9349999995902","","image-keyboard-response","511","3229929","0.0-6.0-0.97","","img/red.png","32","trial","32","true","0.8,0.2","1:go_a","",""
"null","","html-keyboard-response","512","3230931","0.0-6.0-1.97","","<img src=""img/red-r.png"" border=""10"">","null","trial","32","","0.8,0.2","1:go_a","1",""
"null","","html-keyboard-response","513","3231933","0.0-6.0-2.97","","<div style=""font-size:60px;"">+</div>","null","","","","","","",""
"667.4099999945611","","image-keyboard-response","514","3232601","0.0-6.0-0.98","","img/pink.png","32","trial","32","true","1,0","3:go_c","",""
"null","","html-keyboard-response","515","3233604","0.0-6.0-1.98","","<img src=""img/pink-r.png"" border=""10"">","null","trial","32","","1,0","3:go_c","1",""
"null","","html-keyboard-response","516","3234605","0.0-6.0-2.98","","<div style=""font-size:60px;"">+</div>","null","","","","","","",""
"null","","image-keyboard-response","517","3236106","0.0-6.0-0.99","","img/green.png","null","trial","null","true","0,1","4:nogo_d","",""
"null","","html-keyboard-response","518","3237108","0.0-6.0-1.99","","<img src=""img/green-r.png"">","null","trial","null","","0,1","4:nogo_d","1",""
"null","","html-keyboard-response","519","3238110","0.0-6.0-2.99","","<div style=""font-size:60px;"">+</div>","null","","","","","","",""
"626.5699999933131","","image-keyboard-response","520","3238738","0.0-6.0-0.100","","img/pink.png","32","trial","32","true","1,0","3:go_c","",""
"null","","html-keyboard-response","521","3239739","0.0-6.0-1.100","","<img src=""img/pink-r.png"" border=""10"">","null","trial","32","","1,0","3:go_c","1",""
"null","","html-keyboard-response","522","3240741","0.0-6.0-2.100","","<div style=""font-size:60px;"">+</div>","null","","","","","","",""
"null","","image-keyboard-response","523","3242243","0.0-6.0-0.101","","img/purple.png","null","trial","null","true","0.2,0.8","2:nogo_b","",""
"null","","html-keyboard-response","524","3243246","0.0-6.0-1.101","","<img src=""img/purple-r.png"">","null","trial","null","","0.2,0.8","2:nogo_b","1",""
"null","","html-keyboard-response","525","3244248","0.0-6.0-2.101","","<div style=""font-size:60px;"">+</div>","null","","","","","","",""
"null","","image-keyboard-response","526","3245750","0.0-6.0-0.102","","img/green.png","null","trial","null","true","0,1","4:nogo_d","",""
"null","","html-keyboard-response","527","3246751","0.0-6.0-1.102","","<img src=""img/green-r.png"">","null","trial","null","","0,1","4:nogo_d","1",""
"null","","html-keyboard-response","528","3247753","0.0-6.0-2.102","","<div style=""font-size:60px;"">+</div>","null","","","","","","",""
"599.9599999920465","","image-keyboard-response","529","3248353","0.0-6.0-0.103","","img/red.png","32","trial","32","true","0.8,0.2","1:go_a","",""
"null","","html-keyboard-response","530","3249355","0.0-6.0-1.103","","<img src=""img/red-r.png"" border=""10"">","null","trial","32","","0.8,0.2","1:go_a","1",""
"null","","html-keyboard-response","531","3250357","0.0-6.0-2.103","","<div style=""font-size:60px;"">+</div>","null","","","","","","",""
"null","","image-keyboard-response","532","3251859","0.0-6.0-0.104","","img/purple.png","null","trial","null","true","0.2,0.8","2:nogo_b","",""
"null","","html-keyboard-response","533","3252861","0.0-6.0-1.104","","<img src=""img/purple-r.png"">","null","trial","null","","0.2,0.8","2:nogo_b","1",""
"null","","html-keyboard-response","534","3253862","0.0-6.0-2.104","","<div style=""font-size:60px;"">+</div>","null","","","","","","",""
"568.4450000119396","","image-keyboard-response","535","3254433","0.0-6.0-0.105","","img/pink.png","32","trial","32","true","1,0","3:go_c","",""
"null","","html-keyboard-response","536","3255436","0.0-6.0-1.105","","<img src=""img/pink-r.png"" border=""10"">","null","trial","32","","1,0","3:go_c","1",""
"null","","html-keyboard-response","537","3256437","0.0-6.0-2.105","","<div style=""font-size:60px;"">+</div>","null","","","","","","",""
"null","","image-keyboard-response","538","3257939","0.0-6.0-0.106","","img/green.png","null","trial","null","true","0,1","4:nogo_d","",""
"null","","html-keyboard-response","539","3258940","0.0-6.0-1.106","","<img src=""img/green-r.png"">","null","trial","null","","0,1","4:nogo_d","1",""
"null","","html-keyboard-response","540","3259942","0.0-6.0-2.106","","<div style=""font-size:60px;"">+</div>","null","","","","","","",""
"610.8149999929592","","image-keyboard-response","541","3260554","0.0-6.0-0.107","","img/red.png","32","trial","32","true","0.8,0.2","1:go_a","",""
"null","","html-keyboard-response","542","3261572","0.0-6.0-1.107","","<img src=""img/red-r.png"" border=""10"">","null","trial","32","","0.8,0.2","1:go_a","1",""
"null","","html-keyboard-response","543","3262573","0.0-6.0-2.107","","<div style=""font-size:60px;"">+</div>","null","","","","","","",""
"547.5100000039674","","image-keyboard-response","544","3263122","0.0-6.0-0.108","","img/red.png","32","trial","32","true","0.8,0.2","1:go_a","",""
"null","","html-keyboard-response","545","3264125","0.0-6.0-1.108","","<img src=""img/red-r.png"" border=""10"">","null","trial","32","","0.8,0.2","1:go_a","1",""
"null","","html-keyboard-response","546","3265126","0.0-6.0-2.108","","<div style=""font-size:60px;"">+</div>","null","","","","","","",""
"null","","image-keyboard-response","547","3266627","0.0-6.0-0.109","","img/green.png","null","trial","null","true","0,1","4:nogo_d","",""
"null","","html-keyboard-response","548","3267629","0.0-6.0-1.109","","<img src=""img/green-r.png"">","null","trial","null","","0,1","4:nogo_d","1",""
"null","","html-keyboard-response","549","3268630","0.0-6.0-2.109","","<div style=""font-size:60px;"">+</div>","null","","","","","","",""
"null","","image-keyboard-response","550","3270132","0.0-6.0-0.110","","img/purple.png","null","trial","null","true","0.2,0.8","2:nogo_b","",""
"null","","html-keyboard-response","551","3271134","0.0-6.0-1.110","","<img src=""img/purple-r.png"">","null","trial","null","","0.2,0.8","2:nogo_b","1",""
"null","","html-keyboard-response","552","3272135","0.0-6.0-2.110","","<div style=""font-size:60px;"">+</div>","null","","","","","","",""
"721.5499999877065","","image-keyboard-response","553","3272858","0.0-6.0-0.111","","img/pink.png","32","trial","32","true","1,0","3:go_c","",""
"null","","html-keyboard-response","554","3273860","0.0-6.0-1.111","","<img src=""img/pink-r.png"" border=""10"">","null","trial","32","","1,0","3:go_c","1",""
"null","","html-keyboard-response","555","3274861","0.0-6.0-2.111","","<div style=""font-size:60px;"">+</div>","null","","","","","","",""
"619.5949999964796","","image-keyboard-response","556","3275482","0.0-6.0-0.112","","img/pink.png","32","trial","32","true","1,0","3:go_c","",""
"null","","html-keyboard-response","557","3276485","0.0-6.0-1.112","","<img src=""img/pink-r.png"" border=""10"">","null","trial","32","","1,0","3:go_c","1",""
"null","","html-keyboard-response","558","3277487","0.0-6.0-2.112","","<div style=""font-size:60px;"">+</div>","null","","","","","","",""
"545.3299999935552","","image-keyboard-response","559","3278034","0.0-6.0-0.113","","img/red.png","32","trial","32","true","0.8,0.2","1:go_a","",""
"null","","html-keyboard-response","560","3279037","0.0-6.0-1.113","","<img src=""img/red-r.png"" border=""10"">","null","trial","32","","0.8,0.2","1:go_a","1",""
"null","","html-keyboard-response","561","3280038","0.0-6.0-2.113","","<div style=""font-size:60px;"">+</div>","null","","","","","","",""
"null","","image-keyboard-response","562","3281539","0.0-6.0-0.114","","img/green.png","null","trial","null","true","0,1","4:nogo_d","",""
"null","","html-keyboard-response","563","3282541","0.0-6.0-1.114","","<img src=""img/green-r.png"">","null","trial","null","","0,1","4:nogo_d","1",""
"null","","html-keyboard-response","564","3283546","0.0-6.0-2.114","","<div style=""font-size:60px;"">+</div>","null","","","","","","",""
"null","","image-keyboard-response","565","3285050","0.0-6.0-0.115","","img/purple.png","null","trial","null","true","0.2,0.8","2:nogo_b","",""
"null","","html-keyboard-response","566","3286052","0.0-6.0-1.115","","<img src=""img/purple-r.png"">","null","trial","null","","0.2,0.8","2:nogo_b","1",""
"null","","html-keyboard-response","567","3287053","0.0-6.0-2.115","","<div style=""font-size:60px;"">+</div>","null","","","","","","",""
"null","","image-keyboard-response","568","3288555","0.0-6.0-0.116","","img/purple.png","null","trial","null","true","0.2,0.8","2:nogo_b","",""
"null","","html-keyboard-response","569","3289556","0.0-6.0-1.116","","<img src=""img/purple-r.png"">","null","trial","null","","0.2,0.8","2:nogo_b","1",""
"null","","html-keyboard-response","570","3290557","0.0-6.0-2.116","","<div style=""font-size:60px;"">+</div>","null","","","","","","",""
"596.5900000007823","","image-keyboard-response","571","3291155","0.0-6.0-0.117","","img/red.png","32","trial","32","true","0.8,0.2","1:go_a","",""
"null","","html-keyboard-response","572","3292157","0.0-6.0-1.117","","<img src=""img/red-n.png"" border=""10"">","null","trial","32","","0.8,0.2","1:go_a","0",""
"null","","html-keyboard-response","573","3293158","0.0-6.0-2.117","","<div style=""font-size:60px;"">+</div>","null","","","","","","",""
"null","","image-keyboard-response","574","3294660","0.0-6.0-0.118","","img/green.png","null","trial","null","true","0,1","4:nogo_d","",""
"null","","html-keyboard-response","575","3295662","0.0-6.0-1.118","","<img src=""img/green-r.png"">","null","trial","null","","0,1","4:nogo_d","1",""
"null","","html-keyboard-response","576","3296664","0.0-6.0-2.118","","<div style=""font-size:60px;"">+</div>","null","","","","","","",""
"625.1850000116974","","image-keyboard-response","577","3297290","0.0-6.0-0.119","","img/pink.png","32","trial","32","true","1,0","3:go_c","",""
"null","","html-keyboard-response","578","3298293","0.0-6.0-1.119","","<img src=""img/pink-r.png"" border=""10"">","null","trial","32","","1,0","3:go_c","1",""
"null","","html-keyboard-response","579","3299295","0.0-6.0-2.119","","<div style=""font-size:60px;"">+</div>","null","","","","","","",""
"5527.494999988005","","instructions","580","3304823","0.0-7.0","[{""page_index"":0,""viewing_time"":5527.159999998286}]","","","","","","","","",""
"1290.500000002794","","image-keyboard-response","581","3306114","0.0-8.0-0.0","","img/purple.png","32","trial","null","false","0.2,0.8","4:nogo_d","",""
"null","","html-keyboard-response","582","3307117","0.0-8.0-1.0","","<img src=""img/purple-n.png"" border=""10"">","null","trial","null","","0.2,0.8","4:nogo_d","0",""
"null","","html-keyboard-response","583","3308118","0.0-8.0-2.0","","<div style=""font-size:60px;"">+</div>","null","","","","","","",""
"1034.8749999832362","","image-keyboard-response","584","3309154","0.0-8.0-0.1","","img/red.png","32","trial","32","true","0.8,0.2","1:go_a","",""
"null","","html-keyboard-response","585","3310157","0.0-8.0-1.1","","<img src=""img/red-r.png"" border=""10"">","null","trial","32","","0.8,0.2","1:go_a","1",""
"null","","html-keyboard-response","586","3311159","0.0-8.0-2.1","","<div style=""font-size:60px;"">+</div>","null","","","","","","",""
"null","","image-keyboard-response","587","3312661","0.0-8.0-0.2","","img/grey.png","null","trial","null","true","0.2,0.8","2:nogo_b","",""
"null","","html-keyboard-response","588","3313663","0.0-8.0-1.2","","<img src=""img/grey-r.png"">","null","trial","null","","0.2,0.8","2:nogo_b","1",""
"null","","html-keyboard-response","589","3314664","0.0-8.0-2.2","","<div style=""font-size:60px;"">+</div>","null","","","","","","",""
"689.7699999972247","","image-keyboard-response","590","3315355","0.0-8.0-0.3","","img/yellow.png","32","trial","32","true","0.8,0.2","3:go_c","",""
"null","","html-keyboard-response","591","3316356","0.0-8.0-1.3","","<img src=""img/yellow-r.png"" border=""10"">","null","trial","32","","0.8,0.2","3:go_c","1",""
"null","","html-keyboard-response","592","3317358","0.0-8.0-2.3","","<div style=""font-size:60px;"">+</div>","null","","","","","","",""
"null","","image-keyboard-response","593","3318860","0.0-8.0-0.4","","img/grey.png","null","trial","null","true","0.2,0.8","2:nogo_b","",""
"null","","html-keyboard-response","594","3319862","0.0-8.0-1.4","","<img src=""img/grey-r.png"">","null","trial","null","","0.2,0.8","2:nogo_b","1",""
"null","","html-keyboard-response","595","3320863","0.0-8.0-2.4","","<div style=""font-size:60px;"">+</div>","null","","","","","","",""
"474.9900000169873","","image-keyboard-response","596","3321338","0.0-8.0-0.5","","img/red.png","32","trial","32","true","0.8,0.2","1:go_a","",""
"null","","html-keyboard-response","597","3322340","0.0-8.0-1.5","","<img src=""img/red-n.png"" border=""10"">","null","trial","32","","0.8,0.2","1:go_a","0",""
"null","","html-keyboard-response","598","3323342","0.0-8.0-2.5","","<div style=""font-size:60px;"">+</div>","null","","","","","","",""
"null","","image-keyboard-response","599","3324843","0.0-8.0-0.6","","img/purple.png","null","trial","null","true","0.2,0.8","4:nogo_d","",""
"null","","html-keyboard-response","600","3325845","0.0-8.0-1.6","","<img src=""img/purple-r.png"">","null","trial","null","","0.2,0.8","4:nogo_d","1",""
"null","","html-keyboard-response","601","3326846","0.0-8.0-2.6","","<div style=""font-size:60px;"">+</div>","null","","","","","","",""
"540.8699999968521","","image-keyboard-response","602","3327387","0.0-8.0-0.7","","img/yellow.png","32","trial","32","true","0.8,0.2","3:go_c","",""
"null","","html-keyboard-response","603","3328390","0.0-8.0-1.7","","<img src=""img/yellow-r.png"" border=""10"">","null","trial","32","","0.8,0.2","3:go_c","1",""
"null","","html-keyboard-response","604","3329392","0.0-8.0-2.7","","<div style=""font-size:60px;"">+</div>","null","","","","","","",""
"505.7950000045821","","image-keyboard-response","605","3329899","0.0-8.0-0.8","","img/yellow.png","32","trial","32","true","0.8,0.2","3:go_c","",""
"null","","html-keyboard-response","606","3330900","0.0-8.0-1.8","","<img src=""img/yellow-n.png"" border=""10"">","null","trial","32","","0.8,0.2","3:go_c","0",""
"null","","html-keyboard-response","607","3331902","0.0-8.0-2.8","","<div style=""font-size:60px;"">+</div>","null","","","","","","",""
"null","","image-keyboard-response","608","3333405","0.0-8.0-0.9","","img/grey.png","null","trial","null","true","0.2,0.8","2:nogo_b","",""
"null","","html-keyboard-response","609","3334407","0.0-8.0-1.9","","<img src=""img/grey-r.png"">","null","trial","null","","0.2,0.8","2:nogo_b","1",""
"null","","html-keyboard-response","610","3335408","0.0-8.0-2.9","","<div style=""font-size:60px;"">+</div>","null","","","","","","",""
"null","","image-keyboard-response","611","3336911","0.0-8.0-0.10","","img/purple.png","null","trial","null","true","0.2,0.8","4:nogo_d","",""
"null","","html-keyboard-response","612","3337916","0.0-8.0-1.10","","<img src=""img/purple-n.png"">","null","trial","null","","0.2,0.8","4:nogo_d","0",""
"null","","html-keyboard-response","613","3338917","0.0-8.0-2.10","","<div style=""font-size:60px;"">+</div>","null","","","","","","",""
"405.31499998178333","","image-keyboard-response","614","3339323","0.0-8.0-0.11","","img/red.png","32","trial","32","true","0.8,0.2","1:go_a","",""
"null","","html-keyboard-response","615","3340325","0.0-8.0-1.11","","<img src=""img/red-r.png"" border=""10"">","null","trial","32","","0.8,0.2","1:go_a","1",""
"null","","html-keyboard-response","616","3341327","0.0-8.0-2.11","","<div style=""font-size:60px;"">+</div>","null","","","","","","",""
"427.5400000042282","","image-keyboard-response","617","3341755","0.0-8.0-0.12","","img/yellow.png","32","trial","32","true","0.8,0.2","3:go_c","",""
"null","","html-keyboard-response","618","3342757","0.0-8.0-1.12","","<img src=""img/yellow-r.png"" border=""10"">","null","trial","32","","0.8,0.2","3:go_c","1",""
"null","","html-keyboard-response","619","3343758","0.0-8.0-2.12","","<div style=""font-size:60px;"">+</div>","null","","","","","","",""
"null","","image-keyboard-response","620","3345259","0.0-8.0-0.13","","img/purple.png","null","trial","null","true","0.2,0.8","4:nogo_d","",""
"null","","html-keyboard-response","621","3346260","0.0-8.0-1.13","","<img src=""img/purple-n.png"">","null","trial","null","","0.2,0.8","4:nogo_d","0",""
"null","","html-keyboard-response","622","3347262","0.0-8.0-2.13","","<div style=""font-size:60px;"">+</div>","null","","","","","","",""
"null","","image-keyboard-response","623","3348764","0.0-8.0-0.14","","img/grey.png","null","trial","null","true","0.2,0.8","2:nogo_b","",""
"null","","html-keyboard-response","624","3349765","0.0-8.0-1.14","","<img src=""img/grey-r.png"">","null","trial","null","","0.2,0.8","2:nogo_b","1",""
"null","","html-keyboard-response","625","3350767","0.0-8.0-2.14","","<div style=""font-size:60px;"">+</div>","null","","","","","","",""
"451.31000000378117","","image-keyboard-response","626","3351219","0.0-8.0-0.15","","img/red.png","32","trial","32","true","0.8,0.2","1:go_a","",""
"null","","html-keyboard-response","627","3352221","0.0-8.0-1.15","","<img src=""img/red-r.png"" border=""10"">","null","trial","32","","0.8,0.2","1:go_a","1",""
"null","","html-keyboard-response","628","3353223","0.0-8.0-2.15","","<div style=""font-size:60px;"">+</div>","null","","","","","","",""
"579.8649999778718","","image-keyboard-response","629","3353803","0.0-8.0-0.16","","img/purple.png","32","trial","null","false","0.2,0.8","4:nogo_d","",""
"null","","html-keyboard-response","630","3354806","0.0-8.0-1.16","","<img src=""img/purple-n.png"" border=""10"">","null","trial","null","","0.2,0.8","4:nogo_d","0",""
"null","","html-keyboard-response","631","3355807","0.0-8.0-2.16","","<div style=""font-size:60px;"">+</div>","null","","","","","","",""
"475.4300000201911","","image-keyboard-response","632","3356283","0.0-8.0-0.17","","img/red.png","32","trial","32","true","0.8,0.2","1:go_a","",""
"null","","html-keyboard-response","633","3357285","0.0-8.0-1.17","","<img src=""img/red-r.png"" border=""10"">","null","trial","32","","0.8,0.2","1:go_a","1",""
"null","","html-keyboard-response","634","3358286","0.0-8.0-2.17","","<div style=""font-size:60px;"">+</div>","null","","","","","","",""
"428.1449999832548","","image-keyboard-response","635","3358715","0.0-8.0-0.18","","img/yellow.png","32","trial","32","true","0.8,0.2","3:go_c","",""
"null","","html-keyboard-response","636","3359717","0.0-8.0-1.18","","<img src=""img/yellow-n.png"" border=""10"">","null","trial","32","","0.8,0.2","3:go_c","0",""
"null","","html-keyboard-response","637","3360719","0.0-8.0-2.18","","<div style=""font-size:60px;"">+</div>","null","","","","","","",""
"null","","image-keyboard-response","638","3362221","0.0-8.0-0.19","","img/grey.png","null","trial","null","true","0.2,0.8","2:nogo_b","",""
"null","","html-keyboard-response","639","3363222","0.0-8.0-1.19","","<img src=""img/grey-r.png"">","null","trial","null","","0.2,0.8","2:nogo_b","1",""
"null","","html-keyboard-response","640","3364223","0.0-8.0-2.19","","<div style=""font-size:60px;"">+</div>","null","","","","","","",""
"459.62999999755993","","image-keyboard-response","641","3364684","0.0-8.0-0.20","","img/red.png","32","trial","32","true","0.8,0.2","1:go_a","",""
"null","","html-keyboard-response","642","3365686","0.0-8.0-1.20","","<img src=""img/red-r.png"" border=""10"">","null","trial","32","","0.8,0.2","1:go_a","1",""
"null","","html-keyboard-response","643","3366687","0.0-8.0-2.20","","<div style=""font-size:60px;"">+</div>","null","","","","","","",""
"null","","image-keyboard-response","644","3368189","0.0-8.0-0.21","","img/grey.png","null","trial","null","true","0.2,0.8","2:nogo_b","",""
"null","","html-keyboard-response","645","3369190","0.0-8.0-1.21","","<img src=""img/grey-r.png"">","null","trial","null","","0.2,0.8","2:nogo_b","1",""
"null","","html-keyboard-response","646","3370192","0.0-8.0-2.21","","<div style=""font-size:60px;"">+</div>","null","","","","","","",""
"402.60000000102445","","image-keyboard-response","647","3370596","0.0-8.0-0.22","","img/yellow.png","32","trial","32","true","0.8,0.2","3:go_c","",""
"null","","html-keyboard-response","648","3371598","0.0-8.0-1.22","","<img src=""img/yellow-n.png"" border=""10"">","null","trial","32","","0.8,0.2","3:go_c","0",""
"null","","html-keyboard-response","649","3372600","0.0-8.0-2.22","","<div style=""font-size:60px;"">+</div>","null","","","","","","",""
"658.6299999910407","","image-keyboard-response","650","3373260","0.0-8.0-0.23","","img/purple.png","32","trial","null","false","0.2,0.8","4:nogo_d","",""
"null","","html-keyboard-response","651","3374261","0.0-8.0-1.23","","<img src=""img/purple-n.png"" border=""10"">","null","trial","null","","0.2,0.8","4:nogo_d","0",""
"null","","html-keyboard-response","652","3375262","0.0-8.0-2.23","","<div style=""font-size:60px;"">+</div>","null","","","","","","",""
"null","","image-keyboard-response","653","3376771","0.0-8.0-0.24","","img/grey.png","null","trial","null","true","0.2,0.8","2:nogo_b","",""
"null","","html-keyboard-response","654","3377772","0.0-8.0-1.24","","<img src=""img/grey-r.png"">","null","trial","null","","0.2,0.8","2:nogo_b","1",""
"null","","html-keyboard-response","655","3378774","0.0-8.0-2.24","","<div style=""font-size:60px;"">+</div>","null","","","","","","",""
"null","","image-keyboard-response","656","3380277","0.0-8.0-0.25","","img/purple.png","null","trial","null","true","0.2,0.8","4:nogo_d","",""
"null","","html-keyboard-response","657","3381279","0.0-8.0-1.25","","<img src=""img/purple-r.png"">","null","trial","null","","0.2,0.8","4:nogo_d","1",""
"null","","html-keyboard-response","658","3382281","0.0-8.0-2.25","","<div style=""font-size:60px;"">+</div>","null","","","","","","",""
"402.4999999962747","","image-keyboard-response","659","3382684","0.0-8.0-0.26","","img/red.png","32","trial","32","true","0.8,0.2","1:go_a","",""
"null","","html-keyboard-response","660","3383685","0.0-8.0-1.26","","<img src=""img/red-r.png"" border=""10"">","null","trial","32","","0.8,0.2","1:go_a","1",""
"null","","html-keyboard-response","661","3384686","0.0-8.0-2.26","","<div style=""font-size:60px;"">+</div>","null","","","","","","",""
"436.8700000047684","","image-keyboard-response","662","3385124","0.0-8.0-0.27","","img/yellow.png","32","trial","32","true","0.8,0.2","3:go_c","",""
"null","","html-keyboard-response","663","3386126","0.0-8.0-1.27","","<img src=""img/yellow-r.png"" border=""10"">","null","trial","32","","0.8,0.2","3:go_c","1",""
"null","","html-keyboard-response","664","3387128","0.0-8.0-2.27","","<div style=""font-size:60px;"">+</div>","null","","","","","","",""
"null","","image-keyboard-response","665","3388629","0.0-8.0-0.28","","img/purple.png","null","trial","null","true","0.2,0.8","4:nogo_d","",""
"null","","html-keyboard-response","666","3389631","0.0-8.0-1.28","","<img src=""img/purple-r.png"">","null","trial","null","","0.2,0.8","4:nogo_d","1",""
"null","","html-keyboard-response","667","3390633","0.0-8.0-2.28","","<div style=""font-size:60px;"">+</div>","null","","","","","","",""
"null","","image-keyboard-response","668","3392135","0.0-8.0-0.29","","img/grey.png","null","trial","null","true","0.2,0.8","2:nogo_b","",""
"null","","html-keyboard-response","669","3393137","0.0-8.0-1.29","","<img src=""img/grey-r.png"">","null","trial","null","","0.2,0.8","2:nogo_b","1",""
"null","","html-keyboard-response","670","3394139","0.0-8.0-2.29","","<div style=""font-size:60px;"">+</div>","null","","","","","","",""
"688.4750000028871","","image-keyboard-response","671","3394828","0.0-8.0-0.30","","img/red.png","32","trial","32","true","0.8,0.2","1:go_a","",""
"null","","html-keyboard-response","672","3395830","0.0-8.0-1.30","","<img src=""img/red-r.png"" border=""10"">","null","trial","32","","0.8,0.2","1:go_a","1",""
"null","","html-keyboard-response","673","3396831","0.0-8.0-2.30","","<div style=""font-size:60px;"">+</div>","null","","","","","","",""
"588.4300000034273","","image-keyboard-response","674","3397420","0.0-8.0-0.31","","img/yellow.png","32","trial","32","true","0.8,0.2","3:go_c","",""
"null","","html-keyboard-response","675","3398424","0.0-8.0-1.31","","<img src=""img/yellow-r.png"" border=""10"">","null","trial","32","","0.8,0.2","3:go_c","1",""
"null","","html-keyboard-response","676","3399425","0.0-8.0-2.31","","<div style=""font-size:60px;"">+</div>","null","","","","","","",""
"622.3500000191852","","image-keyboard-response","677","3400052","0.0-8.0-0.32","","img/yellow.png","32","trial","32","true","0.8,0.2","3:go_c","",""
"null","","html-keyboard-response","678","3401054","0.0-8.0-1.32","","<img src=""img/yellow-n.png"" border=""10"">","null","trial","32","","0.8,0.2","3:go_c","0",""
"null","","html-keyboard-response","679","3402055","0.0-8.0-2.32","","<div style=""font-size:60px;"">+</div>","null","","","","","","",""
"null","","image-keyboard-response","680","3403557","0.0-8.0-0.33","","img/purple.png","null","trial","null","true","0.2,0.8","4:nogo_d","",""
