"rt","url","trial_type","trial_index","time_elapsed","internal_node_id","view_history","stimulus","key_press","test_part","correct_response","correct","use_rew","which_stim","reward","responses"
"6825.760000036098","consent.html","external-html","0","6888","0.0-0.0","","","","","","","","","",""
"58193.79499997012","","instructions","1","65082","0.0-1.0","[{""page_index"":0,""viewing_time"":2377.7399999671616},{""page_index"":1,""viewing_time"":14998.00000002142},{""page_index"":2,""viewing_time"":4059.349999995902},{""page_index"":3,""viewing_time"":15144.325000001118},{""page_index"":4,""viewing_time"":6984.939999994822},{""page_index"":5,""viewing_time"":4151.305000006687},{""page_index"":6,""viewing_time"":10477.330000023358}]","","","","","","","","",""
"515.0450000073761","","image-keyboard-response","2","65599","0.0-2.0-0.0","","img/test1.PNG","32","practice","32","true","","","",""
"null","","html-keyboard-response","3","66600","0.0-2.0-1.0","","<img src=""img/test1-reward.PNG"" border=""10px; grey"">","null","","","","","","",""
"null","","html-keyboard-response","4","67601","0.0-2.0-2.0","","<div style=""font-size:60px;"">+</div>","null","","","","","","",""
"null","","image-keyboard-response","5","69103","0.0-2.0-0.1","","img/test2.PNG","null","practice","null","true","","","",""
"null","","html-keyboard-response","6","70104","0.0-2.0-1.1","","<img src=""img/test2-reward.PNG"">","null","","","","","","",""
"null","","html-keyboard-response","7","71106","0.0-2.0-2.1","","<div style=""font-size:60px;"">+</div>","null","","","","","","",""
"null","","image-keyboard-response","8","72609","0.0-2.0-0.2","","img/test3.PNG","null","practice","null","true","","","",""
"null","","html-keyboard-response","9","73610","0.0-2.0-1.2","","<img src=""img/test3-reward.PNG"">","null","","","","","","",""
"null","","html-keyboard-response","10","74612","0.0-2.0-2.2","","<div style=""font-size:60px;"">+</div>","null","","","","","","",""
"null","","image-keyboard-response","11","76113","0.0-2.0-0.3","","img/test2.PNG","null","practice","null","true","","","",""
"null","","html-keyboard-response","12","77115","0.0-2.0-1.3","","<img src=""img/test2-reward.PNG"">","null","","","","","","",""
"null","","html-keyboard-response","13","78117","0.0-2.0-2.3","","<div style=""font-size:60px;"">+</div>","null","","","","","","",""
"372.7649999782443","","image-keyboard-response","14","78491","0.0-2.0-0.4","","img/test1.PNG","32","practice","32","true","","","",""
"null","","html-keyboard-response","15","79494","0.0-2.0-1.4","","<img src=""img/test1-reward.PNG"" border=""10px; grey"">","null","","","","","","",""
"null","","html-keyboard-response","16","80495","0.0-2.0-2.4","","<div style=""font-size:60px;"">+</div>","null","","","","","","",""
"null","","image-keyboard-response","17","81997","0.0-2.0-0.5","","img/test3.PNG","null","practice","null","true","","","",""
"null","","html-keyboard-response","18","83000","0.0-2.0-1.5","","<img src=""img/test3-reward.PNG"">","null","","","","","","",""
"null","","html-keyboard-response","19","84002","0.0-2.0-2.5","","<div style=""font-size:60px;"">+</div>","null","","","","","","",""
"412.81499998876825","","image-keyboard-response","20","84417","0.0-2.0-0.6","","img/test1.PNG","32","practice","32","true","","","",""
"null","","html-keyboard-response","21","85419","0.0-2.0-1.6","","<img src=""img/test1-reward.PNG"" border=""10px; grey"">","null","","","","","","",""
"null","","html-keyboard-response","22","86420","0.0-2.0-2.6","","<div style=""font-size:60px;"">+</div>","null","","","","","","",""
"null","","image-keyboard-response","23","87921","0.0-2.0-0.7","","img/test3.PNG","null","practice","null","true","","","",""
"null","","html-keyboard-response","24","88923","0.0-2.0-1.7","","<img src=""img/test3-reward.PNG"">","null","","","","","","",""
"null","","html-keyboard-response","25","89925","0.0-2.0-2.7","","<div style=""font-size:60px;"">+</div>","null","","","","","","",""
"null","","image-keyboard-response","26","91428","0.0-2.0-0.8","","img/test2.PNG","null","practice","null","true","","","",""
"null","","html-keyboard-response","27","92430","0.0-2.0-1.8","","<img src=""img/test2-reward.PNG"">","null","","","","","","",""
"null","","html-keyboard-response","28","93431","0.0-2.0-2.8","","<div style=""font-size:60px;"">+</div>","null","","","","","","",""
"415.51000002073124","","image-keyboard-response","29","93849","0.0-2.0-0.9","","img/test1.PNG","32","practice","32","true","","","",""
"null","","html-keyboard-response","30","94851","0.0-2.0-1.9","","<img src=""img/test1-reward.PNG"" border=""10px; grey"">","null","","","","","","",""
"null","","html-keyboard-response","31","95852","0.0-2.0-2.9","","<div style=""font-size:60px;"">+</div>","null","","","","","","",""
"null","","image-keyboard-response","32","97354","0.0-2.0-0.10","","img/test2.PNG","null","practice","null","true","","","",""
"null","","html-keyboard-response","33","98356","0.0-2.0-1.10","","<img src=""img/test2-reward.PNG"">","null","","","","","","",""
"null","","html-keyboard-response","34","99357","0.0-2.0-2.10","","<div style=""font-size:60px;"">+</div>","null","","","","","","",""
"null","","image-keyboard-response","35","100860","0.0-2.0-0.11","","img/test3.PNG","null","practice","null","true","","","",""
"null","","html-keyboard-response","36","101862","0.0-2.0-1.11","","<img src=""img/test3-reward.PNG"">","null","","","","","","",""
"null","","html-keyboard-response","37","102864","0.0-2.0-2.11","","<div style=""font-size:60px;"">+</div>","null","","","","","","",""
"1488.0200000479817","","instructions","38","104353","0.0-3.0","[{""page_index"":0,""viewing_time"":1487.8550000139512}]","","","","","","","","",""
"1046.3050000253133","","image-keyboard-response","39","105400","0.0-4.0-0.0","","img/red.png","32","trial","null","false","0.2,0.8","2:nogo_b","",""
"null","","html-keyboard-response","40","106405","0.0-4.0-1.0","","<img src=""img/red-n.png"" border=""10"">","null","trial","null","","0.2,0.8","2:nogo_b","0",""
"null","","html-keyboard-response","41","107406","0.0-4.0-2.0","","<div style=""font-size:60px;"">+</div>","null","","","","","","",""
"599.564999982249","","image-keyboard-response","42","108006","0.0-4.0-0.1","","img/pink.png","32","trial","32","true","0.8,0.2","1:go_a","",""
"null","","html-keyboard-response","43","109008","0.0-4.0-1.1","","<img src=""img/pink-r.png"" border=""10"">","null","trial","32","","0.8,0.2","1:go_a","1",""
"null","","html-keyboard-response","44","110010","0.0-4.0-2.1","","<div style=""font-size:60px;"">+</div>","null","","","","","","",""
"null","","image-keyboard-response","45","111511","0.0-4.0-0.2","","img/red.png","null","trial","null","true","0.2,0.8","2:nogo_b","",""
"null","","html-keyboard-response","46","112513","0.0-4.0-1.2","","<img src=""img/red-r.png"">","null","trial","null","","0.2,0.8","2:nogo_b","1",""
"null","","html-keyboard-response","47","113514","0.0-4.0-2.2","","<div style=""font-size:60px;"">+</div>","null","","","","","","",""
"481.43000004347414","","image-keyboard-response","48","113997","0.0-4.0-0.3","","img/pink.png","32","trial","32","true","0.8,0.2","1:go_a","",""
"null","","html-keyboard-response","49","114999","0.0-4.0-1.3","","<img src=""img/pink-r.png"" border=""10"">","null","trial","32","","0.8,0.2","1:go_a","1",""
"null","","html-keyboard-response","50","116001","0.0-4.0-2.3","","<div style=""font-size:60px;"">+</div>","null","","","","","","",""
"670.1149999862537","","image-keyboard-response","51","116672","0.0-4.0-0.4","","img/pink.png","32","trial","32","true","0.8,0.2","1:go_a","",""
"null","","html-keyboard-response","52","117674","0.0-4.0-1.4","","<img src=""img/pink-r.png"" border=""10"">","null","trial","32","","0.8,0.2","1:go_a","1",""
"null","","html-keyboard-response","53","118675","0.0-4.0-2.4","","<div style=""font-size:60px;"">+</div>","null","","","","","","",""
"null","","image-keyboard-response","54","120176","0.0-4.0-0.5","","img/red.png","null","trial","null","true","0.2,0.8","2:nogo_b","",""
"null","","html-keyboard-response","55","121178","0.0-4.0-1.5","","<img src=""img/red-r.png"">","null","trial","null","","0.2,0.8","2:nogo_b","1",""
"null","","html-keyboard-response","56","122180","0.0-4.0-2.5","","<div style=""font-size:60px;"">+</div>","null","","","","","","",""
"381.22500001918525","","image-keyboard-response","57","122562","0.0-4.0-0.6","","img/pink.png","32","trial","32","true","0.8,0.2","1:go_a","",""
"null","","html-keyboard-response","58","123565","0.0-4.0-1.6","","<img src=""img/pink-n.png"" border=""10"">","null","trial","32","","0.8,0.2","1:go_a","0",""
"null","","html-keyboard-response","59","124566","0.0-4.0-2.6","","<div style=""font-size:60px;"">+</div>","null","","","","","","",""
"594.5449999999255","","image-keyboard-response","60","125161","0.0-4.0-0.7","","img/red.png","32","trial","null","false","0.2,0.8","2:nogo_b","",""
"null","","html-keyboard-response","61","126165","0.0-4.0-1.7","","<img src=""img/red-r.png"" border=""10"">","null","trial","null","","0.2,0.8","2:nogo_b","1",""
"null","","html-keyboard-response","62","127167","0.0-4.0-2.7","","<div style=""font-size:60px;"">+</div>","null","","","","","","",""
"550.9749999619089","","image-keyboard-response","63","127719","0.0-4.0-0.8","","img/pink.png","32","trial","32","true","0.8,0.2","1:go_a","",""
"null","","html-keyboard-response","64","128720","0.0-4.0-1.8","","<img src=""img/pink-r.png"" border=""10"">","null","trial","32","","0.8,0.2","1:go_a","1",""
"null","","html-keyboard-response","65","129722","0.0-4.0-2.8","","<div style=""font-size:60px;"">+</div>","null","","","","","","",""
"773.5249999677762","","image-keyboard-response","66","130497","0.0-4.0-0.9","","img/red.png","32","trial","null","false","0.2,0.8","2:nogo_b","",""
"null","","html-keyboard-response","67","131500","0.0-4.0-1.9","","<img src=""img/red-r.png"" border=""10"">","null","trial","null","","0.2,0.8","2:nogo_b","1",""
"null","","html-keyboard-response","68","132501","0.0-4.0-2.9","","<div style=""font-size:60px;"">+</div>","null","","","","","","",""
"null","","image-keyboard-response","69","134003","0.0-4.0-0.10","","img/pink.png","null","trial","32","false","0.8,0.2","1:go_a","",""
"null","","html-keyboard-response","70","135006","0.0-4.0-1.10","","<img src=""img/pink-n.png"">","null","trial","32","","0.8,0.2","1:go_a","0",""
"null","","html-keyboard-response","71","136008","0.0-4.0-2.10","","<div style=""font-size:60px;"">+</div>","null","","","","","","",""
"null","","image-keyboard-response","72","137511","0.0-4.0-0.11","","img/red.png","null","trial","null","true","0.2,0.8","2:nogo_b","",""
"null","","html-keyboard-response","73","138513","0.0-4.0-1.11","","<img src=""img/red-r.png"">","null","trial","null","","0.2,0.8","2:nogo_b","1",""
"null","","html-keyboard-response","74","139515","0.0-4.0-2.11","","<div style=""font-size:60px;"">+</div>","null","","","","","","",""
"316.640000033658","","image-keyboard-response","75","139832","0.0-4.0-0.12","","img/pink.png","32","trial","32","true","0.8,0.2","1:go_a","",""
"null","","html-keyboard-response","76","140833","0.0-4.0-1.12","","<img src=""img/pink-n.png"" border=""10"">","null","trial","32","","0.8,0.2","1:go_a","0",""
"null","","html-keyboard-response","77","141836","0.0-4.0-2.12","","<div style=""font-size:60px;"">+</div>","null","","","","","","",""
"437.67999997362494","","image-keyboard-response","78","142274","0.0-4.0-0.13","","img/red.png","32","trial","null","false","0.2,0.8","2:nogo_b","",""
"null","","html-keyboard-response","79","143282","0.0-4.0-1.13","","<img src=""img/red-n.png"" border=""10"">","null","trial","null","","0.2,0.8","2:nogo_b","0",""
"null","","html-keyboard-response","80","144283","0.0-4.0-2.13","","<div style=""font-size:60px;"">+</div>","null","","","","","","",""
"814.1349999932572","","image-keyboard-response","81","145098","0.0-4.0-0.14","","img/pink.png","32","trial","32","true","0.8,0.2","1:go_a","",""
"null","","html-keyboard-response","82","146101","0.0-4.0-1.14","","<img src=""img/pink-r.png"" border=""10"">","null","trial","32","","0.8,0.2","1:go_a","1",""
"null","","html-keyboard-response","83","147102","0.0-4.0-2.14","","<div style=""font-size:60px;"">+</div>","null","","","","","","",""
"929.6899999608286","","image-keyboard-response","84","148033","0.0-4.0-0.15","","img/red.png","32","trial","null","false","0.2,0.8","2:nogo_b","",""
"null","","html-keyboard-response","85","149035","0.0-4.0-1.15","","<img src=""img/red-n.png"" border=""10"">","null","trial","null","","0.2,0.8","2:nogo_b","0",""
"null","","html-keyboard-response","86","150036","0.0-4.0-2.15","","<div style=""font-size:60px;"">+</div>","null","","","","","","",""
"365.20499998005107","","image-keyboard-response","87","150403","0.0-4.0-0.16","","img/pink.png","32","trial","32","true","0.8,0.2","1:go_a","",""
"null","","html-keyboard-response","88","151406","0.0-4.0-1.16","","<img src=""img/pink-r.png"" border=""10"">","null","trial","32","","0.8,0.2","1:go_a","1",""
"null","","html-keyboard-response","89","152407","0.0-4.0-2.16","","<div style=""font-size:60px;"">+</div>","null","","","","","","",""
"null","","image-keyboard-response","90","153909","0.0-4.0-0.17","","img/red.png","null","trial","null","true","0.2,0.8","2:nogo_b","",""
"null","","html-keyboard-response","91","154910","0.0-4.0-1.17","","<img src=""img/red-n.png"">","null","trial","null","","0.2,0.8","2:nogo_b","0",""
"null","","html-keyboard-response","92","155911","0.0-4.0-2.17","","<div style=""font-size:60px;"">+</div>","null","","","","","","",""
"431.2499999650754","","image-keyboard-response","93","156343","0.0-4.0-0.18","","img/red.png","32","trial","null","false","0.2,0.8","2:nogo_b","",""
"null","","html-keyboard-response","94","157344","0.0-4.0-1.18","","<img src=""img/red-n.png"" border=""10"">","null","trial","null","","0.2,0.8","2:nogo_b","0",""
"null","","html-keyboard-response","95","158353","0.0-4.0-2.18","","<div style=""font-size:60px;"">+</div>","null","","","","","","",""
"807.4999999953434","","image-keyboard-response","96","159161","0.0-4.0-0.19","","img/pink.png","32","trial","32","true","0.8,0.2","1:go_a","",""
"null","","html-keyboard-response","97","160164","0.0-4.0-1.19","","<img src=""img/pink-r.png"" border=""10"">","null","trial","32","","0.8,0.2","1:go_a","1",""
"null","","html-keyboard-response","98","161165","0.0-4.0-2.19","","<div style=""font-size:60px;"">+</div>","null","","","","","","",""
"412.209999980405","","image-keyboard-response","99","161578","0.0-4.0-0.20","","img/pink.png","32","trial","32","true","0.8,0.2","1:go_a","",""
"null","","html-keyboard-response","100","162579","0.0-4.0-1.20","","<img src=""img/pink-r.png"" border=""10"">","null","trial","32","","0.8,0.2","1:go_a","1",""
"null","","html-keyboard-response","101","163580","0.0-4.0-2.20","","<div style=""font-size:60px;"">+</div>","null","","","","","","",""
"null","","image-keyboard-response","102","165082","0.0-4.0-0.21","","img/red.png","null","trial","null","true","0.2,0.8","2:nogo_b","",""
"null","","html-keyboard-response","103","166084","0.0-4.0-1.21","","<img src=""img/red-r.png"">","null","trial","null","","0.2,0.8","2:nogo_b","1",""
"null","","html-keyboard-response","104","167085","0.0-4.0-2.21","","<div style=""font-size:60px;"">+</div>","null","","","","","","",""
"null","","image-keyboard-response","105","168587","0.0-4.0-0.22","","img/red.png","null","trial","null","true","0.2,0.8","2:nogo_b","",""
"null","","html-keyboard-response","106","169589","0.0-4.0-1.22","","<img src=""img/red-r.png"">","null","trial","null","","0.2,0.8","2:nogo_b","1",""
"null","","html-keyboard-response","107","170590","0.0-4.0-2.22","","<div style=""font-size:60px;"">+</div>","null","","","","","","",""
"447.85000005504116","","image-keyboard-response","108","171038","0.0-4.0-0.23","","img/pink.png","32","trial","32","true","0.8,0.2","1:go_a","",""
"null","","html-keyboard-response","109","172040","0.0-4.0-1.23","","<img src=""img/pink-r.png"" border=""10"">","null","trial","32","","0.8,0.2","1:go_a","1",""
"null","","html-keyboard-response","110","173041","0.0-4.0-2.23","","<div style=""font-size:60px;"">+</div>","null","","","","","","",""
"381.37999997707084","","image-keyboard-response","111","173423","0.0-4.0-0.24","","img/pink.png","32","trial","32","true","0.8,0.2","1:go_a","",""
"null","","html-keyboard-response","112","174424","0.0-4.0-1.24","","<img src=""img/pink-r.png"" border=""10"">","null","trial","32","","0.8,0.2","1:go_a","1",""
"null","","html-keyboard-response","113","175425","0.0-4.0-2.24","","<div style=""font-size:60px;"">+</div>","null","","","","","","",""
"null","","image-keyboard-response","114","176927","0.0-4.0-0.25","","img/red.png","null","trial","null","true","0.2,0.8","2:nogo_b","",""
"null","","html-keyboard-response","115","177929","0.0-4.0-1.25","","<img src=""img/red-r.png"">","null","trial","null","","0.2,0.8","2:nogo_b","1",""
"null","","html-keyboard-response","116","178931","0.0-4.0-2.25","","<div style=""font-size:60px;"">+</div>","null","","","","","","",""
"298.7449999782257","","image-keyboard-response","117","179230","0.0-4.0-0.26","","img/red.png","32","trial","null","false","0.2,0.8","2:nogo_b","",""
"null","","html-keyboard-response","118","180232","0.0-4.0-1.26","","<img src=""img/red-n.png"" border=""10"">","null","trial","null","","0.2,0.8","2:nogo_b","0",""
"null","","html-keyboard-response","119","181233","0.0-4.0-2.26","","<div style=""font-size:60px;"">+</div>","null","","","","","","",""
"660.9899999457411","","image-keyboard-response","120","181895","0.0-4.0-0.27","","img/pink.png","32","trial","32","true","0.8,0.2","1:go_a","",""
"null","","html-keyboard-response","121","182896","0.0-4.0-1.27","","<img src=""img/pink-r.png"" border=""10"">","null","trial","32","","0.8,0.2","1:go_a","1",""
"null","","html-keyboard-response","122","183899","0.0-4.0-2.27","","<div style=""font-size:60px;"">+</div>","null","","","","","","",""
"514.3500000122003","","image-keyboard-response","123","184414","0.0-4.0-0.28","","img/pink.png","32","trial","32","true","0.8,0.2","1:go_a","",""
"null","","html-keyboard-response","124","185415","0.0-4.0-1.28","","<img src=""img/pink-r.png"" border=""10"">","null","trial","32","","0.8,0.2","1:go_a","1",""
"null","","html-keyboard-response","125","186416","0.0-4.0-2.28","","<div style=""font-size:60px;"">+</div>","null","","","","","","",""
"null","","image-keyboard-response","126","187918","0.0-4.0-0.29","","img/red.png","null","trial","null","true","0.2,0.8","2:nogo_b","",""
"null","","html-keyboard-response","127","188920","0.0-4.0-1.29","","<img src=""img/red-r.png"">","null","trial","null","","0.2,0.8","2:nogo_b","1",""
"null","","html-keyboard-response","128","189922","0.0-4.0-2.29","","<div style=""font-size:60px;"">+</div>","null","","","","","","",""
"675.6600000080653","","image-keyboard-response","129","190598","0.0-4.0-0.30","","img/red.png","32","trial","null","false","0.2,0.8","2:nogo_b","",""
"null","","html-keyboard-response","130","191600","0.0-4.0-1.30","","<img src=""img/red-r.png"" border=""10"">","null","trial","null","","0.2,0.8","2:nogo_b","1",""
"null","","html-keyboard-response","131","192602","0.0-4.0-2.30","","<div style=""font-size:60px;"">+</div>","null","","","","","","",""
"909.0999999898486","","image-keyboard-response","132","193513","0.0-4.0-0.31","","img/pink.png","32","trial","32","true","0.8,0.2","1:go_a","",""
"null","","html-keyboard-response","133","194515","0.0-4.0-1.31","","<img src=""img/pink-r.png"" border=""10"">","null","trial","32","","0.8,0.2","1:go_a","1",""
"null","","html-keyboard-response","134","195517","0.0-4.0-2.31","","<div style=""font-size:60px;"">+</div>","null","","","","","","",""
"729.2949999682605","","image-keyboard-response","135","196247","0.0-4.0-0.32","","img/pink.png","32","trial","32","true","0.8,0.2","1:go_a","",""
"null","","html-keyboard-response","136","197256","0.0-4.0-1.32","","<img src=""img/pink-r.png"" border=""10"">","null","trial","32","","0.8,0.2","1:go_a","1",""
"null","","html-keyboard-response","137","198257","0.0-4.0-2.32","","<div style=""font-size:60px;"">+</div>","null","","","","","","",""
"null","","image-keyboard-response","138","199759","0.0-4.0-0.33","","img/red.png","null","trial","null","true","0.2,0.8","2:nogo_b","",""
"null","","html-keyboard-response","139","200761","0.0-4.0-1.33","","<img src=""img/red-r.png"">","null","trial","null","","0.2,0.8","2:nogo_b","1",""
"null","","html-keyboard-response","140","201763","0.0-4.0-2.33","","<div style=""font-size:60px;"">+</div>","null","","","","","","",""
"635.9550000051968","","image-keyboard-response","141","202399","0.0-4.0-0.34","","img/pink.png","32","trial","32","true","0.8,0.2","1:go_a","",""
"null","","html-keyboard-response","142","203401","0.0-4.0-1.34","","<img src=""img/pink-r.png"" border=""10"">","null","trial","32","","0.8,0.2","1:go_a","1",""
"null","","html-keyboard-response","143","204402","0.0-4.0-2.34","","<div style=""font-size:60px;"">+</div>","null","","","","","","",""
"534.3049999792129","","image-keyboard-response","144","204938","0.0-4.0-0.35","","img/red.png","32","trial","null","false","0.2,0.8","2:nogo_b","",""
"null","","html-keyboard-response","145","205941","0.0-4.0-1.35","","<img src=""img/red-r.png"" border=""10"">","null","trial","null","","0.2,0.8","2:nogo_b","1",""
"null","","html-keyboard-response","146","206942","0.0-4.0-2.35","","<div style=""font-size:60px;"">+</div>","null","","","","","","",""
"539.7300000186078","","image-keyboard-response","147","207483","0.0-4.0-0.36","","img/red.png","32","trial","null","false","0.2,0.8","2:nogo_b","",""
"null","","html-keyboard-response","148","208485","0.0-4.0-1.36","","<img src=""img/red-n.png"" border=""10"">","null","trial","null","","0.2,0.8","2:nogo_b","0",""
"null","","html-keyboard-response","149","209496","0.0-4.0-2.36","","<div style=""font-size:60px;"">+</div>","null","","","","","","",""
"null","","image-keyboard-response","150","210997","0.0-4.0-0.37","","img/pink.png","null","trial","32","false","0.8,0.2","1:go_a","",""
"null","","html-keyboard-response","151","212000","0.0-4.0-1.37","","<img src=""img/pink-n.png"">","null","trial","32","","0.8,0.2","1:go_a","0",""
"null","","html-keyboard-response","152","213002","0.0-4.0-2.37","","<div style=""font-size:60px;"">+</div>","null","","","","","","",""
"325.8100000093691","","image-keyboard-response","153","213329","0.0-4.0-0.38","","img/pink.png","32","trial","32","true","0.8,0.2","1:go_a","",""
"null","","html-keyboard-response","154","214333","0.0-4.0-1.38","","<img src=""img/pink-r.png"" border=""10"">","null","trial","32","","0.8,0.2","1:go_a","1",""
"null","","html-keyboard-response","155","215335","0.0-4.0-2.38","","<div style=""font-size:60px;"">+</div>","null","","","","","","",""
"318.00500000827014","","image-keyboard-response","156","215654","0.0-4.0-0.39","","img/red.png","32","trial","null","false","0.2,0.8","2:nogo_b","",""
"null","","html-keyboard-response","157","216656","0.0-4.0-1.39","","<img src=""img/red-n.png"" border=""10"">","null","trial","null","","0.2,0.8","2:nogo_b","0",""
"null","","html-keyboard-response","158","217657","0.0-4.0-2.39","","<div style=""font-size:60px;"">+</div>","null","","","","","","",""
"744.7549999924377","","image-keyboard-response","159","218402","0.0-4.0-0.40","","img/pink.png","32","trial","32","true","0.8,0.2","1:go_a","",""
"null","","html-keyboard-response","160","219403","0.0-4.0-1.40","","<img src=""img/pink-n.png"" border=""10"">","null","trial","32","","0.8,0.2","1:go_a","0",""
"null","","html-keyboard-response","161","220409","0.0-4.0-2.40","","<div style=""font-size:60px;"">+</div>","null","","","","","","",""
"null","","image-keyboard-response","162","221911","0.0-4.0-0.41","","img/red.png","null","trial","null","true","0.2,0.8","2:nogo_b","",""
"null","","html-keyboard-response","163","222914","0.0-4.0-1.41","","<img src=""img/red-r.png"">","null","trial","null","","0.2,0.8","2:nogo_b","1",""
"null","","html-keyboard-response","164","223916","0.0-4.0-2.41","","<div style=""font-size:60px;"">+</div>","null","","","","","","",""
"322.8600000147708","","image-keyboard-response","165","224240","0.0-4.0-0.42","","img/red.png","32","trial","null","false","0.2,0.8","2:nogo_b","",""
"null","","html-keyboard-response","166","225242","0.0-4.0-1.42","","<img src=""img/red-n.png"" border=""10"">","null","trial","null","","0.2,0.8","2:nogo_b","0",""
"null","","html-keyboard-response","167","226244","0.0-4.0-2.42","","<div style=""font-size:60px;"">+</div>","null","","","","","","",""
"803.234999999404","","image-keyboard-response","168","227048","0.0-4.0-0.43","","img/pink.png","32","trial","32","true","0.8,0.2","1:go_a","",""
"null","","html-keyboard-response","169","228050","0.0-4.0-1.43","","<img src=""img/pink-r.png"" border=""10"">","null","trial","32","","0.8,0.2","1:go_a","1",""
"null","","html-keyboard-response","170","229051","0.0-4.0-2.43","","<div style=""font-size:60px;"">+</div>","null","","","","","","",""
"657.7699999907054","","image-keyboard-response","171","229709","0.0-4.0-0.44","","img/red.png","32","trial","null","false","0.2,0.8","2:nogo_b","",""
"null","","html-keyboard-response","172","230711","0.0-4.0-1.44","","<img src=""img/red-n.png"" border=""10"">","null","trial","null","","0.2,0.8","2:nogo_b","0",""
"null","","html-keyboard-response","173","231712","0.0-4.0-2.44","","<div style=""font-size:60px;"">+</div>","null","","","","","","",""
"null","","image-keyboard-response","174","233213","0.0-4.0-0.45","","img/pink.png","null","trial","32","false","0.8,0.2","1:go_a","",""
"null","","html-keyboard-response","175","234216","0.0-4.0-1.45","","<img src=""img/pink-n.png"">","null","trial","32","","0.8,0.2","1:go_a","0",""
"null","","html-keyboard-response","176","235218","0.0-4.0-2.45","","<div style=""font-size:60px;"">+</div>","null","","","","","","",""
"266.48000004934147","","image-keyboard-response","177","235486","0.0-4.0-0.46","","img/pink.png","32","trial","32","true","0.8,0.2","1:go_a","",""
"null","","html-keyboard-response","178","236488","0.0-4.0-1.46","","<img src=""img/pink-r.png"" border=""10"">","null","trial","32","","0.8,0.2","1:go_a","1",""
"null","","html-keyboard-response","179","237489","0.0-4.0-2.46","","<div style=""font-size:60px;"">+</div>","null","","","","","","",""
"628.8499999791384","","image-keyboard-response","180","238118","0.0-4.0-0.47","","img/red.png","32","trial","null","false","0.2,0.8","2:nogo_b","",""
"null","","html-keyboard-response","181","239121","0.0-4.0-1.47","","<img src=""img/red-n.png"" border=""10"">","null","trial","null","","0.2,0.8","2:nogo_b","0",""
"null","","html-keyboard-response","182","240122","0.0-4.0-2.47","","<div style=""font-size:60px;"">+</div>","null","","","","","","",""
"null","","image-keyboard-response","183","241624","0.0-4.0-0.48","","img/pink.png","null","trial","32","false","0.8,0.2","1:go_a","",""
"null","","html-keyboard-response","184","242625","0.0-4.0-1.48","","<img src=""img/pink-n.png"">","null","trial","32","","0.8,0.2","1:go_a","0",""
"null","","html-keyboard-response","185","243627","0.0-4.0-2.48","","<div style=""font-size:60px;"">+</div>","null","","","","","","",""
"621.7799999867566","","image-keyboard-response","186","244249","0.0-4.0-0.49","","img/red.png","32","trial","null","false","0.2,0.8","2:nogo_b","",""
"null","","html-keyboard-response","187","245252","0.0-4.0-1.49","","<img src=""img/red-n.png"" border=""10"">","null","trial","null","","0.2,0.8","2:nogo_b","0",""
"null","","html-keyboard-response","188","246265","0.0-4.0-2.49","","<div style=""font-size:60px;"">+</div>","null","","","","","","",""
"821.3250000262633","","image-keyboard-response","189","247087","0.0-4.0-0.50","","img/red.png","32","trial","null","false","0.2,0.8","2:nogo_b","",""
"null","","html-keyboard-response","190","248089","0.0-4.0-1.50","","<img src=""img/red-n.png"" border=""10"">","null","trial","null","","0.2,0.8","2:nogo_b","0",""
"null","","html-keyboard-response","191","249091","0.0-4.0-2.50","","<div style=""font-size:60px;"">+</div>","null","","","","","","",""
"null","","image-keyboard-response","192","250592","0.0-4.0-0.51","","img/pink.png","null","trial","32","false","0.8,0.2","1:go_a","",""
"null","","html-keyboard-response","193","251595","0.0-4.0-1.51","","<img src=""img/pink-n.png"">","null","trial","32","","0.8,0.2","1:go_a","0",""
"null","","html-keyboard-response","194","252597","0.0-4.0-2.51","","<div style=""font-size:60px;"">+</div>","null","","","","","","",""
"643.1400000001304","","image-keyboard-response","195","253241","0.0-4.0-0.52","","img/red.png","32","trial","null","false","0.2,0.8","2:nogo_b","",""
"null","","html-keyboard-response","196","254245","0.0-4.0-1.52","","<img src=""img/red-n.png"" border=""10"">","null","trial","null","","0.2,0.8","2:nogo_b","0",""
"null","","html-keyboard-response","197","255254","0.0-4.0-2.52","","<div style=""font-size:60px;"">+</div>","null","","","","","","",""
"null","","image-keyboard-response","198","256755","0.0-4.0-0.53","","img/pink.png","null","trial","32","false","0.8,0.2","1:go_a","",""
"null","","html-keyboard-response","199","257757","0.0-4.0-1.53","","<img src=""img/pink-r.png"">","null","trial","32","","0.8,0.2","1:go_a","1",""
"null","","html-keyboard-response","200","258758","0.0-4.0-2.53","","<div style=""font-size:60px;"">+</div>","null","","","","","","",""
"372.4999999976717","","image-keyboard-response","201","259131","0.0-4.0-0.54","","img/pink.png","32","trial","32","true","0.8,0.2","1:go_a","",""
"null","","html-keyboard-response","202","260133","0.0-4.0-1.54","","<img src=""img/pink-n.png"" border=""10"">","null","trial","32","","0.8,0.2","1:go_a","0",""
"null","","html-keyboard-response","203","261134","0.0-4.0-2.54","","<div style=""font-size:60px;"">+</div>","null","","","","","","",""
"null","","image-keyboard-response","204","262636","0.0-4.0-0.55","","img/red.png","null","trial","null","true","0.2,0.8","2:nogo_b","",""
"null","","html-keyboard-response","205","263638","0.0-4.0-1.55","","<img src=""img/red-r.png"">","null","trial","null","","0.2,0.8","2:nogo_b","1",""
"null","","html-keyboard-response","206","264639","0.0-4.0-2.55","","<div style=""font-size:60px;"">+</div>","null","","","","","","",""
"750.4750000080094","","image-keyboard-response","207","265390","0.0-4.0-0.56","","img/pink.png","32","trial","32","true","0.8,0.2","1:go_a","",""
"null","","html-keyboard-response","208","266391","0.0-4.0-1.56","","<img src=""img/pink-r.png"" border=""10"">","null","trial","32","","0.8,0.2","1:go_a","1",""
"null","","html-keyboard-response","209","267392","0.0-4.0-2.56","","<div style=""font-size:60px;"">+</div>","null","","","","","","",""
"709.084999980405","","image-keyboard-response","210","268103","0.0-4.0-0.57","","img/red.png","32","trial","null","false","0.2,0.8","2:nogo_b","",""
"null","","html-keyboard-response","211","269104","0.0-4.0-1.57","","<img src=""img/red-n.png"" border=""10"">","null","trial","null","","0.2,0.8","2:nogo_b","0",""
"null","","html-keyboard-response","212","270106","0.0-4.0-2.57","","<div style=""font-size:60px;"">+</div>","null","","","","","","",""
"null","","image-keyboard-response","213","271608","0.0-4.0-0.58","","img/red.png","null","trial","null","true","0.2,0.8","2:nogo_b","",""
"null","","html-keyboard-response","214","272610","0.0-4.0-1.58","","<img src=""img/red-r.png"">","null","trial","null","","0.2,0.8","2:nogo_b","1",""
"null","","html-keyboard-response","215","273613","0.0-4.0-2.58","","<div style=""font-size:60px;"">+</div>","null","","","","","","",""
"309.30999998236075","","image-keyboard-response","216","273923","0.0-4.0-0.59","","img/pink.png","32","trial","32","true","0.8,0.2","1:go_a","",""
"null","","html-keyboard-response","217","274925","0.0-4.0-1.59","","<img src=""img/pink-r.png"" border=""10"">","null","trial","32","","0.8,0.2","1:go_a","1",""
"null","","html-keyboard-response","218","275927","0.0-4.0-2.59","","<div style=""font-size:60px;"">+</div>","null","","","","","","",""
"2656.390000018291","","instructions","219","278584","0.0-5.0","[{""page_index"":0,""viewing_time"":2656.215000024531}]","","","","","","","","",""
"876.6050000558607","","image-keyboard-response","220","279462","0.0-6.0-0.0","","img/yellow.png","32","trial","null","false","0.2,0.8","2:nogo_b","",""
"null","","html-keyboard-response","221","280464","0.0-6.0-1.0","","<img src=""img/yellow-n.png"" border=""10"">","null","trial","null","","0.2,0.8","2:nogo_b","0",""
"null","","html-keyboard-response","222","281465","0.0-6.0-2.0","","<div style=""font-size:60px;"">+</div>","null","","","","","","",""
"406.20000002672896","","image-keyboard-response","223","281872","0.0-6.0-0.1","","img/blue.png","32","trial","32","true","1,0","3:go_c","",""
"null","","html-keyboard-response","224","282875","0.0-6.0-1.1","","<img src=""img/blue-r.png"" border=""10"">","null","trial","32","","1,0","3:go_c","1",""
"null","","html-keyboard-response","225","283877","0.0-6.0-2.1","","<div style=""font-size:60px;"">+</div>","null","","","","","","",""
"805.980000004638","","image-keyboard-response","226","284684","0.0-6.0-0.2","","img/pink.png","32","trial","32","true","0.8,0.2","1:go_a","",""
"null","","html-keyboard-response","227","285686","0.0-6.0-1.2","","<img src=""img/pink-r.png"" border=""10"">","null","trial","32","","0.8,0.2","1:go_a","1",""
"null","","html-keyboard-response","228","286688","0.0-6.0-2.2","","<div style=""font-size:60px;"">+</div>","null","","","","","","",""
"1416.304999962449","","image-keyboard-response","229","288105","0.0-6.0-0.3","","img/orange.png","32","trial","null","false","0,1","4:nogo_d","",""
"null","","html-keyboard-response","230","289108","0.0-6.0-1.3","","<img src=""img/orange-n.png"" border=""10"">","null","trial","null","","0,1","4:nogo_d","0",""
"null","","html-keyboard-response","231","290110","0.0-6.0-2.3","","<div style=""font-size:60px;"">+</div>","null","","","","","","",""
"610.7550000306219","","image-keyboard-response","232","290721","0.0-6.0-0.4","","img/pink.png","32","trial","32","true","0.8,0.2","1:go_a","",""
"null","","html-keyboard-response","233","291724","0.0-6.0-1.4","","<img src=""img/pink-r.png"" border=""10"">","null","trial","32","","0.8,0.2","1:go_a","1",""
"null","","html-keyboard-response","234","292725","0.0-6.0-2.4","","<div style=""font-size:60px;"">+</div>","null","","","","","","",""
"null","","image-keyboard-response","235","294227","0.0-6.0-0.5","","img/yellow.png","null","trial","null","true","0.2,0.8","2:nogo_b","",""
"null","","html-keyboard-response","236","295230","0.0-6.0-1.5","","<img src=""img/yellow-r.png"">","null","trial","null","","0.2,0.8","2:nogo_b","1",""
"null","","html-keyboard-response","237","296232","0.0-6.0-2.5","","<div style=""font-size:60px;"">+</div>","null","","","","","","",""
"912.0850000181235","","image-keyboard-response","238","297144","0.0-6.0-0.6","","img/orange.png","32","trial","null","false","0,1","4:nogo_d","",""
"null","","html-keyboard-response","239","298147","0.0-6.0-1.6","","<img src=""img/orange-n.png"" border=""10"">","null","trial","null","","0,1","4:nogo_d","0",""
"null","","html-keyboard-response","240","299148","0.0-6.0-2.6","","<div style=""font-size:60px;"">+</div>","null","","","","","","",""
"561.8150000227615","","image-keyboard-response","241","299710","0.0-6.0-0.7","","img/blue.png","32","trial","32","true","1,0","3:go_c","",""
"null","","html-keyboard-response","242","300712","0.0-6.0-1.7","","<img src=""img/blue-r.png"" border=""10"">","null","trial","32","","1,0","3:go_c","1",""
"null","","html-keyboard-response","243","301713","0.0-6.0-2.7","","<div style=""font-size:60px;"">+</div>","null","","","","","","",""
"1085.880000027828","","image-keyboard-response","244","302800","0.0-6.0-0.8","","img/yellow.png","32","trial","null","false","0.2,0.8","2:nogo_b","",""
"null","","html-keyboard-response","245","303802","0.0-6.0-1.8","","<img src=""img/yellow-n.png"" border=""10"">","null","trial","null","","0.2,0.8","2:nogo_b","0",""
"null","","html-keyboard-response","246","304803","0.0-6.0-2.8","","<div style=""font-size:60px;"">+</div>","null","","","","","","",""
"585.9150000032969","","image-keyboard-response","247","305391","0.0-6.0-0.9","","img/blue.png","32","trial","32","true","1,0","3:go_c","",""
"null","","html-keyboard-response","248","306392","0.0-6.0-1.9","","<img src=""img/blue-r.png"" border=""10"">","null","trial","32","","1,0","3:go_c","1",""
"null","","html-keyboard-response","249","307394","0.0-6.0-2.9","","<div style=""font-size:60px;"">+</div>","null","","","","","","",""
"null","","image-keyboard-response","250","308896","0.0-6.0-0.10","","img/orange.png","null","trial","null","true","0,1","4:nogo_d","",""
"null","","html-keyboard-response","251","309898","0.0-6.0-1.10","","<img src=""img/orange-r.png"">","null","trial","null","","0,1","4:nogo_d","1",""
"null","","html-keyboard-response","252","310900","0.0-6.0-2.10","","<div style=""font-size:60px;"">+</div>","null","","","","","","",""
"468.3649999788031","","image-keyboard-response","253","311370","0.0-6.0-0.11","","img/pink.png","32","trial","32","true","0.8,0.2","1:go_a","",""
"null","","html-keyboard-response","254","312372","0.0-6.0-1.11","","<img src=""img/pink-r.png"" border=""10"">","null","trial","32","","0.8,0.2","1:go_a","1",""
"null","","html-keyboard-response","255","313374","0.0-6.0-2.11","","<div style=""font-size:60px;"">+</div>","null","","","","","","",""
"null","","image-keyboard-response","256","314875","0.0-6.0-0.12","","img/orange.png","null","trial","null","true","0,1","4:nogo_d","",""
"null","","html-keyboard-response","257","315877","0.0-6.0-1.12","","<img src=""img/orange-r.png"">","null","trial","null","","0,1","4:nogo_d","1",""
"null","","html-keyboard-response","258","316878","0.0-6.0-2.12","","<div style=""font-size:60px;"">+</div>","null","","","","","","",""
"343.9699999871664","","image-keyboard-response","259","317223","0.0-6.0-0.13","","img/pink.png","32","trial","32","true","0.8,0.2","1:go_a","",""
"null","","html-keyboard-response","260","318225","0.0-6.0-1.13","","<img src=""img/pink-r.png"" border=""10"">","null","trial","32","","0.8,0.2","1:go_a","1",""
"null","","html-keyboard-response","261","319225","0.0-6.0-2.13","","<div style=""font-size:60px;"">+</div>","null","","","","","","",""
"null","","image-keyboard-response","262","320727","0.0-6.0-0.14","","img/yellow.png","null","trial","null","true","0.2,0.8","2:nogo_b","",""
"null","","html-keyboard-response","263","321729","0.0-6.0-1.14","","<img src=""img/yellow-r.png"">","null","trial","null","","0.2,0.8","2:nogo_b","1",""
"null","","html-keyboard-response","264","322732","0.0-6.0-2.14","","<div style=""font-size:60px;"">+</div>","null","","","","","","",""
"430.28500000946224","","image-keyboard-response","265","323163","0.0-6.0-0.15","","img/blue.png","32","trial","32","true","1,0","3:go_c","",""
"null","","html-keyboard-response","266","324165","0.0-6.0-1.15","","<img src=""img/blue-r.png"" border=""10"">","null","trial","32","","1,0","3:go_c","1",""
"null","","html-keyboard-response","267","325167","0.0-6.0-2.15","","<div style=""font-size:60px;"">+</div>","null","","","","","","",""
"null","","image-keyboard-response","268","326669","0.0-6.0-0.16","","img/yellow.png","null","trial","null","true","0.2,0.8","2:nogo_b","",""
"null","","html-keyboard-response","269","327671","0.0-6.0-1.16","","<img src=""img/yellow-n.png"">","null","trial","null","","0.2,0.8","2:nogo_b","0",""
"null","","html-keyboard-response","270","328673","0.0-6.0-2.16","","<div style=""font-size:60px;"">+</div>","null","","","","","","",""
"711.0250000259839","","image-keyboard-response","271","329385","0.0-6.0-0.17","","img/blue.png","32","trial","32","true","1,0","3:go_c","",""
"null","","html-keyboard-response","272","330388","0.0-6.0-1.17","","<img src=""img/blue-r.png"" border=""10"">","null","trial","32","","1,0","3:go_c","1",""
"null","","html-keyboard-response","273","331389","0.0-6.0-2.17","","<div style=""font-size:60px;"">+</div>","null","","","","","","",""
"882.1299999835901","","image-keyboard-response","274","332272","0.0-6.0-0.18","","img/pink.png","32","trial","32","true","0.8,0.2","1:go_a","",""
"null","","html-keyboard-response","275","333275","0.0-6.0-1.18","","<img src=""img/pink-r.png"" border=""10"">","null","trial","32","","0.8,0.2","1:go_a","1",""
"null","","html-keyboard-response","276","334277","0.0-6.0-2.18","","<div style=""font-size:60px;"">+</div>","null","","","","","","",""
"null","","image-keyboard-response","277","335778","0.0-6.0-0.19","","img/orange.png","null","trial","null","true","0,1","4:nogo_d","",""
"null","","html-keyboard-response","278","336780","0.0-6.0-1.19","","<img src=""img/orange-r.png"">","null","trial","null","","0,1","4:nogo_d","1",""
"null","","html-keyboard-response","279","337781","0.0-6.0-2.19","","<div style=""font-size:60px;"">+</div>","null","","","","","","",""
"579.3650000123307","","image-keyboard-response","280","338361","0.0-6.0-0.20","","img/yellow.png","32","trial","null","false","0.2,0.8","2:nogo_b","",""
"null","","html-keyboard-response","281","339363","0.0-6.0-1.20","","<img src=""img/yellow-r.png"" border=""10"">","null","trial","null","","0.2,0.8","2:nogo_b","1",""
"null","","html-keyboard-response","282","340365","0.0-6.0-2.20","","<div style=""font-size:60px;"">+</div>","null","","","","","","",""
"616.074999968987","","image-keyboard-response","283","340981","0.0-6.0-0.21","","img/pink.png","32","trial","32","true","0.8,0.2","1:go_a","",""
"null","","html-keyboard-response","284","341983","0.0-6.0-1.21","","<img src=""img/pink-r.png"" border=""10"">","null","trial","32","","0.8,0.2","1:go_a","1",""
"null","","html-keyboard-response","285","342985","0.0-6.0-2.21","","<div style=""font-size:60px;"">+</div>","null","","","","","","",""
"629.8399999504909","","image-keyboard-response","286","343616","0.0-6.0-0.22","","img/blue.png","32","trial","32","true","1,0","3:go_c","",""
"null","","html-keyboard-response","287","344619","0.0-6.0-1.22","","<img src=""img/blue-r.png"" border=""10"">","null","trial","32","","1,0","3:go_c","1",""
"null","","html-keyboard-response","288","345621","0.0-6.0-2.22","","<div style=""font-size:60px;"">+</div>","null","","","","","","",""
"null","","image-keyboard-response","289","347123","0.0-6.0-0.23","","img/orange.png","null","trial","null","true","0,1","4:nogo_d","",""
"null","","html-keyboard-response","290","348125","0.0-6.0-1.23","","<img src=""img/orange-r.png"">","null","trial","null","","0,1","4:nogo_d","1",""
"null","","html-keyboard-response","291","349127","0.0-6.0-2.23","","<div style=""font-size:60px;"">+</div>","null","","","","","","",""
"548.4899999573827","","image-keyboard-response","292","349677","0.0-6.0-0.24","","img/pink.png","32","trial","32","true","0.8,0.2","1:go_a","",""
"null","","html-keyboard-response","293","350678","0.0-6.0-1.24","","<img src=""img/pink-r.png"" border=""10"">","null","trial","32","","0.8,0.2","1:go_a","1",""
"null","","html-keyboard-response","294","351679","0.0-6.0-2.24","","<div style=""font-size:60px;"">+</div>","null","","","","","","",""
"544.7050000075251","","image-keyboard-response","295","352224","0.0-6.0-0.25","","img/blue.png","32","trial","32","true","1,0","3:go_c","",""
"null","","html-keyboard-response","296","353225","0.0-6.0-1.25","","<img src=""img/blue-r.png"" border=""10"">","null","trial","32","","1,0","3:go_c","1",""
"null","","html-keyboard-response","297","354227","0.0-6.0-2.25","","<div style=""font-size:60px;"">+</div>","null","","","","","","",""
"null","","image-keyboard-response","298","355729","0.0-6.0-0.26","","img/orange.png","null","trial","null","true","0,1","4:nogo_d","",""
"null","","html-keyboard-response","299","356731","0.0-6.0-1.26","","<img src=""img/orange-r.png"">","null","trial","null","","0,1","4:nogo_d","1",""
"null","","html-keyboard-response","300","357733","0.0-6.0-2.26","","<div style=""font-size:60px;"">+</div>","null","","","","","","",""
"null","","image-keyboard-response","301","359235","0.0-6.0-0.27","","img/yellow.png","null","trial","null","true","0.2,0.8","2:nogo_b","",""
"null","","html-keyboard-response","302","360237","0.0-6.0-1.27","","<img src=""img/yellow-r.png"">","null","trial","null","","0.2,0.8","2:nogo_b","1",""
"null","","html-keyboard-response","303","361238","0.0-6.0-2.27","","<div style=""font-size:60px;"">+</div>","null","","","","","","",""
"472.64500003075227","","image-keyboard-response","304","361711","0.0-6.0-0.28","","img/blue.png","32","trial","32","true","1,0","3:go_c","",""
"null","","html-keyboard-response","305","362712","0.0-6.0-1.28","","<img src=""img/blue-r.png"" border=""10"">","null","trial","32","","1,0","3:go_c","1",""
"null","","html-keyboard-response","306","363714","0.0-6.0-2.28","","<div style=""font-size:60px;"">+</div>","null","","","","","","",""
"435.21500000497326","","image-keyboard-response","307","364150","0.0-6.0-0.29","","img/pink.png","32","trial","32","true","0.8,0.2","1:go_a","",""
"null","","html-keyboard-response","308","365152","0.0-6.0-1.29","","<img src=""img/pink-r.png"" border=""10"">","null","trial","32","","0.8,0.2","1:go_a","1",""
"null","","html-keyboard-response","309","366154","0.0-6.0-2.29","","<div style=""font-size:60px;"">+</div>","null","","","","","","",""
"516.3099999772385","","image-keyboard-response","310","366671","0.0-6.0-0.30","","img/yellow.png","32","trial","null","false","0.2,0.8","2:nogo_b","",""
"null","","html-keyboard-response","311","367673","0.0-6.0-1.30","","<img src=""img/yellow-n.png"" border=""10"">","null","trial","null","","0.2,0.8","2:nogo_b","0",""
"null","","html-keyboard-response","312","368674","0.0-6.0-2.30","","<div style=""font-size:60px;"">+</div>","null","","","","","","",""
"422.54500003764406","","image-keyboard-response","313","369098","0.0-6.0-0.31","","img/orange.png","32","trial","null","false","0,1","4:nogo_d","",""
"null","","html-keyboard-response","314","370101","0.0-6.0-1.31","","<img src=""img/orange-n.png"" border=""10"">","null","trial","null","","0,1","4:nogo_d","0",""
"null","","html-keyboard-response","315","371102","0.0-6.0-2.31","","<div style=""font-size:60px;"">+</div>","null","","","","","","",""
"432.0700000389479","","image-keyboard-response","316","371535","0.0-6.0-0.32","","img/blue.png","32","trial","32","true","1,0","3:go_c","",""
"null","","html-keyboard-response","317","372537","0.0-6.0-1.32","","<img src=""img/blue-r.png"" border=""10"">","null","trial","32","","1,0","3:go_c","1",""
"null","","html-keyboard-response","318","373538","0.0-6.0-2.32","","<div style=""font-size:60px;"">+</div>","null","","","","","","",""
"515.4749999637716","","image-keyboard-response","319","374055","0.0-6.0-0.33","","img/orange.png","32","trial","null","false","0,1","4:nogo_d","",""
"null","","html-keyboard-response","320","375056","0.0-6.0-1.33","","<img src=""img/orange-n.png"" border=""10"">","null","trial","null","","0,1","4:nogo_d","0",""
"null","","html-keyboard-response","321","376058","0.0-6.0-2.33","","<div style=""font-size:60px;"">+</div>","null","","","","","","",""
"null","","image-keyboard-response","322","377560","0.0-6.0-0.34","","img/yellow.png","null","trial","null","true","0.2,0.8","2:nogo_b","",""
"null","","html-keyboard-response","323","378563","0.0-6.0-1.34","","<img src=""img/yellow-r.png"">","null","trial","null","","0.2,0.8","2:nogo_b","1",""
"null","","html-keyboard-response","324","379564","0.0-6.0-2.34","","<div style=""font-size:60px;"">+</div>","null","","","","","","",""
"361.3350000232458","","image-keyboard-response","325","379925","0.0-6.0-0.35","","img/pink.png","32","trial","32","true","0.8,0.2","1:go_a","",""
"null","","html-keyboard-response","326","380926","0.0-6.0-1.35","","<img src=""img/pink-n.png"" border=""10"">","null","trial","32","","0.8,0.2","1:go_a","0",""
"null","","html-keyboard-response","327","381928","0.0-6.0-2.35","","<div style=""font-size:60px;"">+</div>","null","","","","","","",""
"517.7900000126101","","image-keyboard-response","328","382447","0.0-6.0-0.36","","img/orange.png","32","trial","null","false","0,1","4:nogo_d","",""
"null","","html-keyboard-response","329","383448","0.0-6.0-1.36","","<img src=""img/orange-n.png"" border=""10"">","null","trial","null","","0,1","4:nogo_d","0",""
"null","","html-keyboard-response","330","384450","0.0-6.0-2.36","","<div style=""font-size:60px;"">+</div>","null","","","","","","",""
"null","","image-keyboard-response","331","385952","0.0-6.0-0.37","","img/yellow.png","null","trial","null","true","0.2,0.8","2:nogo_b","",""
"null","","html-keyboard-response","332","386954","0.0-6.0-1.37","","<img src=""img/yellow-r.png"">","null","trial","null","","0.2,0.8","2:nogo_b","1",""
"null","","html-keyboard-response","333","387955","0.0-6.0-2.37","","<div style=""font-size:60px;"">+</div>","null","","","","","","",""
"467.26000000489876","","image-keyboard-response","334","388423","0.0-6.0-0.38","","img/blue.png","32","trial","32","true","1,0","3:go_c","",""
"null","","html-keyboard-response","335","389424","0.0-6.0-1.38","","<img src=""img/blue-r.png"" border=""10"">","null","trial","32","","1,0","3:go_c","1",""
"null","","html-keyboard-response","336","390426","0.0-6.0-2.38","","<div style=""font-size:60px;"">+</div>","null","","","","","","",""
"762.9249999881722","","image-keyboard-response","337","391190","0.0-6.0-0.39","","img/pink.png","32","trial","32","true","0.8,0.2","1:go_a","",""
"null","","html-keyboard-response","338","392191","0.0-6.0-1.39","","<img src=""img/pink-n.png"" border=""10"">","null","trial","32","","0.8,0.2","1:go_a","0",""
"null","","html-keyboard-response","339","393193","0.0-6.0-2.39","","<div style=""font-size:60px;"">+</div>","null","","","","","","",""
"null","","image-keyboard-response","340","394695","0.0-6.0-0.40","","img/pink.png","null","trial","32","false","0.8,0.2","1:go_a","",""
"null","","html-keyboard-response","341","395696","0.0-6.0-1.40","","<img src=""img/pink-n.png"">","null","trial","32","","0.8,0.2","1:go_a","0",""
"null","","html-keyboard-response","342","396697","0.0-6.0-2.40","","<div style=""font-size:60px;"">+</div>","null","","","","","","",""
"406.7949999589473","","image-keyboard-response","343","397104","0.0-6.0-0.41","","img/yellow.png","32","trial","null","false","0.2,0.8","2:nogo_b","",""
"null","","html-keyboard-response","344","398108","0.0-6.0-1.41","","<img src=""img/yellow-n.png"" border=""10"">","null","trial","null","","0.2,0.8","2:nogo_b","0",""
"null","","html-keyboard-response","345","399110","0.0-6.0-2.41","","<div style=""font-size:60px;"">+</div>","null","","","","","","",""
"839.559999993071","","image-keyboard-response","346","399950","0.0-6.0-0.42","","img/orange.png","32","trial","null","false","0,1","4:nogo_d","",""
"null","","html-keyboard-response","347","400953","0.0-6.0-1.42","","<img src=""img/orange-n.png"" border=""10"">","null","trial","null","","0,1","4:nogo_d","0",""
"null","","html-keyboard-response","348","401954","0.0-6.0-2.42","","<div style=""font-size:60px;"">+</div>","null","","","","","","",""
"683.0250000348315","","image-keyboard-response","349","402638","0.0-6.0-0.43","","img/blue.png","32","trial","32","true","1,0","3:go_c","",""
"null","","html-keyboard-response","350","403640","0.0-6.0-1.43","","<img src=""img/blue-r.png"" border=""10"">","null","trial","32","","1,0","3:go_c","1",""
"null","","html-keyboard-response","351","404641","0.0-6.0-2.43","","<div style=""font-size:60px;"">+</div>","null","","","","","","",""
"null","","image-keyboard-response","352","406142","0.0-6.0-0.44","","img/yellow.png","null","trial","null","true","0.2,0.8","2:nogo_b","",""
"null","","html-keyboard-response","353","407144","0.0-6.0-1.44","","<img src=""img/yellow-r.png"">","null","trial","null","","0.2,0.8","2:nogo_b","1",""
"null","","html-keyboard-response","354","408145","0.0-6.0-2.44","","<div style=""font-size:60px;"">+</div>","null","","","","","","",""
"579.7100000199862","","image-keyboard-response","355","408727","0.0-6.0-0.45","","img/blue.png","32","trial","32","true","1,0","3:go_c","",""
"null","","html-keyboard-response","356","409730","0.0-6.0-1.45","","<img src=""img/blue-r.png"" border=""10"">","null","trial","32","","1,0","3:go_c","1",""
"null","","html-keyboard-response","357","410731","0.0-6.0-2.45","","<div style=""font-size:60px;"">+</div>","null","","","","","","",""
"895.844999991823","","image-keyboard-response","358","411628","0.0-6.0-0.46","","img/pink.png","32","trial","32","true","0.8,0.2","1:go_a","",""
"null","","html-keyboard-response","359","412631","0.0-6.0-1.46","","<img src=""img/pink-n.png"" border=""10"">","null","trial","32","","0.8,0.2","1:go_a","0",""
"null","","html-keyboard-response","360","413631","0.0-6.0-2.46","","<div style=""font-size:60px;"">+</div>","null","","","","","","",""
"null","","image-keyboard-response","361","415133","0.0-6.0-0.47","","img/orange.png","null","trial","null","true","0,1","4:nogo_d","",""
"null","","html-keyboard-response","362","416135","0.0-6.0-1.47","","<img src=""img/orange-r.png"">","null","trial","null","","0,1","4:nogo_d","1",""
"null","","html-keyboard-response","363","417136","0.0-6.0-2.47","","<div style=""font-size:60px;"">+</div>","null","","","","","","",""
"null","","image-keyboard-response","364","418638","0.0-6.0-0.48","","img/yellow.png","null","trial","null","true","0.2,0.8","2:nogo_b","",""
"null","","html-keyboard-response","365","419640","0.0-6.0-1.48","","<img src=""img/yellow-r.png"">","null","trial","null","","0.2,0.8","2:nogo_b","1",""
"null","","html-keyboard-response","366","420641","0.0-6.0-2.48","","<div style=""font-size:60px;"">+</div>","null","","","","","","",""
"390.98000002559274","","image-keyboard-response","367","421033","0.0-6.0-0.49","","img/orange.png","32","trial","null","false","0,1","4:nogo_d","",""
"null","","html-keyboard-response","368","422035","0.0-6.0-1.49","","<img src=""img/orange-n.png"" border=""10"">","null","trial","null","","0,1","4:nogo_d","0",""
"null","","html-keyboard-response","369","423036","0.0-6.0-2.49","","<div style=""font-size:60px;"">+</div>","null","","","","","","",""
"446.094999962952","","image-keyboard-response","370","423483","0.0-6.0-0.50","","img/pink.png","32","trial","32","true","0.8,0.2","1:go_a","",""
"null","","html-keyboard-response","371","424485","0.0-6.0-1.50","","<img src=""img/pink-r.png"" border=""10"">","null","trial","32","","0.8,0.2","1:go_a","1",""
"null","","html-keyboard-response","372","425486","0.0-6.0-2.50","","<div style=""font-size:60px;"">+</div>","null","","","","","","",""
"367.4499999615364","","image-keyboard-response","373","425854","0.0-6.0-0.51","","img/blue.png","32","trial","32","true","1,0","3:go_c","",""
"null","","html-keyboard-response","374","426855","0.0-6.0-1.51","","<img src=""img/blue-r.png"" border=""10"">","null","trial","32","","1,0","3:go_c","1",""
"null","","html-keyboard-response","375","427857","0.0-6.0-2.51","","<div style=""font-size:60px;"">+</div>","null","","","","","","",""
"444.4800000055693","","image-keyboard-response","376","428302","0.0-6.0-0.52","","img/blue.png","32","trial","32","true","1,0","3:go_c","",""
"null","","html-keyboard-response","377","429305","0.0-6.0-1.52","","<img src=""img/blue-r.png"" border=""10"">","null","trial","32","","1,0","3:go_c","1",""
"null","","html-keyboard-response","378","430306","0.0-6.0-2.52","","<div style=""font-size:60px;"">+</div>","null","","","","","","",""
"null","","image-keyboard-response","379","431808","0.0-6.0-0.53","","img/orange.png","null","trial","null","true","0,1","4:nogo_d","",""
"null","","html-keyboard-response","380","432810","0.0-6.0-1.53","","<img src=""img/orange-r.png"">","null","trial","null","","0,1","4:nogo_d","1",""
"null","","html-keyboard-response","381","433811","0.0-6.0-2.53","","<div style=""font-size:60px;"">+</div>","null","","","","","","",""
"593.0250000092201","","image-keyboard-response","382","434404","0.0-6.0-0.54","","img/yellow.png","32","trial","null","false","0.2,0.8","2:nogo_b","",""
"null","","html-keyboard-response","383","435405","0.0-6.0-1.54","","<img src=""img/yellow-r.png"" border=""10"">","null","trial","null","","0.2,0.8","2:nogo_b","1",""
"null","","html-keyboard-response","384","436407","0.0-6.0-2.54","","<div style=""font-size:60px;"">+</div>","null","","","","","","",""
"697.5349999847822","","image-keyboard-response","385","437105","0.0-6.0-0.55","","img/pink.png","32","trial","32","true","0.8,0.2","1:go_a","",""
"null","","html-keyboard-response","386","438106","0.0-6.0-1.55","","<img src=""img/pink-r.png"" border=""10"">","null","trial","32","","0.8,0.2","1:go_a","1",""
"null","","html-keyboard-response","387","439108","0.0-6.0-2.55","","<div style=""font-size:60px;"">+</div>","null","","","","","","",""
"536.8250000174157","","image-keyboard-response","388","439647","0.0-6.0-0.56","","img/blue.png","32","trial","32","true","1,0","3:go_c","",""
"null","","html-keyboard-response","389","440650","0.0-6.0-1.56","","<img src=""img/blue-r.png"" border=""10"">","null","trial","32","","1,0","3:go_c","1",""
"null","","html-keyboard-response","390","441652","0.0-6.0-2.56","","<div style=""font-size:60px;"">+</div>","null","","","","","","",""
"619.6449999697506","","image-keyboard-response","391","442273","0.0-6.0-0.57","","img/pink.png","32","trial","32","true","0.8,0.2","1:go_a","",""
"null","","html-keyboard-response","392","443275","0.0-6.0-1.57","","<img src=""img/pink-n.png"" border=""10"">","null","trial","32","","0.8,0.2","1:go_a","0",""
"null","","html-keyboard-response","393","444277","0.0-6.0-2.57","","<div style=""font-size:60px;"">+</div>","null","","","","","","",""
"null","","image-keyboard-response","394","445780","0.0-6.0-0.58","","img/orange.png","null","trial","null","true","0,1","4:nogo_d","",""
"null","","html-keyboard-response","395","446782","0.0-6.0-1.58","","<img src=""img/orange-r.png"">","null","trial","null","","0,1","4:nogo_d","1",""
"null","","html-keyboard-response","396","447784","0.0-6.0-2.58","","<div style=""font-size:60px;"">+</div>","null","","","","","","",""
"968.4550000238232","","image-keyboard-response","397","448753","0.0-6.0-0.59","","img/yellow.png","32","trial","null","false","0.2,0.8","2:nogo_b","",""
"null","","html-keyboard-response","398","449755","0.0-6.0-1.59","","<img src=""img/yellow-n.png"" border=""10"">","null","trial","null","","0.2,0.8","2:nogo_b","0",""
"null","","html-keyboard-response","399","450755","0.0-6.0-2.59","","<div style=""font-size:60px;"">+</div>","null","","","","","","",""
"null","","image-keyboard-response","400","452256","0.0-6.0-0.60","","img/orange.png","null","trial","null","true","0,1","4:nogo_d","",""
"null","","html-keyboard-response","401","453259","0.0-6.0-1.60","","<img src=""img/orange-r.png"">","null","trial","null","","0,1","4:nogo_d","1",""
"null","","html-keyboard-response","402","454260","0.0-6.0-2.60","","<div style=""font-size:60px;"">+</div>","null","","","","","","",""
"562.5899999868125","","image-keyboard-response","403","454824","0.0-6.0-0.61","","img/yellow.png","32","trial","null","false","0.2,0.8","2:nogo_b","",""
"null","","html-keyboard-response","404","455826","0.0-6.0-1.61","","<img src=""img/yellow-n.png"" border=""10"">","null","trial","null","","0.2,0.8","2:nogo_b","0",""
"null","","html-keyboard-response","405","456827","0.0-6.0-2.61","","<div style=""font-size:60px;"">+</div>","null","","","","","","",""
"673.8200000254437","","image-keyboard-response","406","457502","0.0-6.0-0.62","","img/pink.png","32","trial","32","true","0.8,0.2","1:go_a","",""
"null","","html-keyboard-response","407","458503","0.0-6.0-1.62","","<img src=""img/pink-r.png"" border=""10"">","null","trial","32","","0.8,0.2","1:go_a","1",""
"null","","html-keyboard-response","408","459505","0.0-6.0-2.62","","<div style=""font-size:60px;"">+</div>","null","","","","","","",""
"379.97000000905246","","image-keyboard-response","409","459885","0.0-6.0-0.63","","img/blue.png","32","trial","32","true","1,0","3:go_c","",""
"null","","html-keyboard-response","410","460888","0.0-6.0-1.63","","<img src=""img/blue-r.png"" border=""10"">","null","trial","32","","1,0","3:go_c","1",""
"null","","html-keyboard-response","411","461890","0.0-6.0-2.63","","<div style=""font-size:60px;"">+</div>","null","","","","","","",""
"1019.6950000245124","","image-keyboard-response","412","462910","0.0-6.0-0.64","","img/pink.png","32","trial","32","true","0.8,0.2","1:go_a","",""
"null","","html-keyboard-response","413","463912","0.0-6.0-1.64","","<img src=""img/pink-r.png"" border=""10"">","null","trial","32","","0.8,0.2","1:go_a","1",""
"null","","html-keyboard-response","414","464915","0.0-6.0-2.64","","<div style=""font-size:60px;"">+</div>","null","","","","","","",""
"348.4949999838136","","image-keyboard-response","415","465264","0.0-6.0-0.65","","img/blue.png","32","trial","32","true","1,0","3:go_c","",""
"null","","html-keyboard-response","416","466267","0.0-6.0-1.65","","<img src=""img/blue-r.png"" border=""10"">","null","trial","32","","1,0","3:go_c","1",""
"null","","html-keyboard-response","417","467268","0.0-6.0-2.65","","<div style=""font-size:60px;"">+</div>","null","","","","","","",""
"null","","image-keyboard-response","418","468770","0.0-6.0-0.66","","img/yellow.png","null","trial","null","true","0.2,0.8","2:nogo_b","",""
"null","","html-keyboard-response","419","469772","0.0-6.0-1.66","","<img src=""img/yellow-r.png"">","null","trial","null","","0.2,0.8","2:nogo_b","1",""
"null","","html-keyboard-response","420","470773","0.0-6.0-2.66","","<div style=""font-size:60px;"">+</div>","null","","","","","","",""
"556.4000000013039","","image-keyboard-response","421","471330","0.0-6.0-0.67","","img/orange.png","32","trial","null","false","0,1","4:nogo_d","",""
"null","","html-keyboard-response","422","472332","0.0-6.0-1.67","","<img src=""img/orange-n.png"" border=""10"">","null","trial","null","","0,1","4:nogo_d","0",""
"null","","html-keyboard-response","423","473334","0.0-6.0-2.67","","<div style=""font-size:60px;"">+</div>","null","","","","","","",""
"1157.5200000079349","","image-keyboard-response","424","474493","0.0-6.0-0.68","","img/blue.png","32","trial","32","true","1,0","3:go_c","",""
"null","","html-keyboard-response","425","475494","0.0-6.0-1.68","","<img src=""img/blue-r.png"" border=""10"">","null","trial","32","","1,0","3:go_c","1",""
"null","","html-keyboard-response","426","476498","0.0-6.0-2.68","","<div style=""font-size:60px;"">+</div>","null","","","","","","",""
"843.2349999784492","","image-keyboard-response","427","477342","0.0-6.0-0.69","","img/pink.png","32","trial","32","true","0.8,0.2","1:go_a","",""
"null","","html-keyboard-response","428","478345","0.0-6.0-1.69","","<img src=""img/pink-r.png"" border=""10"">","null","trial","32","","0.8,0.2","1:go_a","1",""
"null","","html-keyboard-response","429","479346","0.0-6.0-2.69","","<div style=""font-size:60px;"">+</div>","null","","","","","","",""
"null","","image-keyboard-response","430","480848","0.0-6.0-0.70","","img/yellow.png","null","trial","null","true","0.2,0.8","2:nogo_b","",""
"null","","html-keyboard-response","431","481849","0.0-6.0-1.70","","<img src=""img/yellow-r.png"">","null","trial","null","","0.2,0.8","2:nogo_b","1",""
"null","","html-keyboard-response","432","482850","0.0-6.0-2.70","","<div style=""font-size:60px;"">+</div>","null","","","","","","",""
"411.0649999929592","","image-keyboard-response","433","483263","0.0-6.0-0.71","","img/orange.png","32","trial","null","false","0,1","4:nogo_d","",""
"null","","html-keyboard-response","434","484264","0.0-6.0-1.71","","<img src=""img/orange-n.png"" border=""10"">","null","trial","null","","0,1","4:nogo_d","0",""
"null","","html-keyboard-response","435","485266","0.0-6.0-2.71","","<div style=""font-size:60px;"">+</div>","null","","","","","","",""
"null","","image-keyboard-response","436","486767","0.0-6.0-0.72","","img/pink.png","null","trial","32","false","0.8,0.2","1:go_a","",""
"null","","html-keyboard-response","437","487768","0.0-6.0-1.72","","<img src=""img/pink-n.png"">","null","trial","32","","0.8,0.2","1:go_a","0",""
"null","","html-keyboard-response","438","488769","0.0-6.0-2.72","","<div style=""font-size:60px;"">+</div>","null","","","","","","",""
"477.42999996989965","","image-keyboard-response","439","489247","0.0-6.0-0.73","","img/orange.png","32","trial","null","false","0,1","4:nogo_d","",""
"null","","html-keyboard-response","440","490250","0.0-6.0-1.73","","<img src=""img/orange-n.png"" border=""10"">","null","trial","null","","0,1","4:nogo_d","0",""
"null","","html-keyboard-response","441","491252","0.0-6.0-2.73","","<div style=""font-size:60px;"">+</div>","null","","","","","","",""
"656.3050000113435","","image-keyboard-response","442","491910","0.0-6.0-0.74","","img/yellow.png","32","trial","null","false","0.2,0.8","2:nogo_b","",""
"null","","html-keyboard-response","443","492911","0.0-6.0-1.74","","<img src=""img/yellow-r.png"" border=""10"">","null","trial","null","","0.2,0.8","2:nogo_b","1",""
"null","","html-keyboard-response","444","493924","0.0-6.0-2.74","","<div style=""font-size:60px;"">+</div>","null","","","","","","",""
"447.1750000375323","","image-keyboard-response","445","494372","0.0-6.0-0.75","","img/blue.png","32","trial","32","true","1,0","3:go_c","",""
"null","","html-keyboard-response","446","495374","0.0-6.0-1.75","","<img src=""img/blue-r.png"" border=""10"">","null","trial","32","","1,0","3:go_c","1",""
"null","","html-keyboard-response","447","496376","0.0-6.0-2.75","","<div style=""font-size:60px;"">+</div>","null","","","","","","",""
"525.6200000294484","","image-keyboard-response","448","496902","0.0-6.0-0.76","","img/blue.png","32","trial","32","true","1,0","3:go_c","",""
"null","","html-keyboard-response","449","497904","0.0-6.0-1.76","","<img src=""img/blue-r.png"" border=""10"">","null","trial","32","","1,0","3:go_c","1",""
"null","","html-keyboard-response","450","498906","0.0-6.0-2.76","","<div style=""font-size:60px;"">+</div>","null","","","","","","",""
"null","","image-keyboard-response","451","500408","0.0-6.0-0.77","","img/orange.png","null","trial","null","true","0,1","4:nogo_d","",""
"null","","html-keyboard-response","452","501409","0.0-6.0-1.77","","<img src=""img/orange-r.png"">","null","trial","null","","0,1","4:nogo_d","1",""
"null","","html-keyboard-response","453","502411","0.0-6.0-2.77","","<div style=""font-size:60px;"">+</div>","null","","","","","","",""
"null","","image-keyboard-response","454","503913","0.0-6.0-0.78","","img/yellow.png","null","trial","null","true","0.2,0.8","2:nogo_b","",""
"null","","html-keyboard-response","455","504916","0.0-6.0-1.78","","<img src=""img/yellow-r.png"">","null","trial","null","","0.2,0.8","2:nogo_b","1",""
"null","","html-keyboard-response","456","505918","0.0-6.0-2.78","","<div style=""font-size:60px;"">+</div>","null","","","","","","",""
"469.6049999911338","","image-keyboard-response","457","506389","0.0-6.0-0.79","","img/pink.png","32","trial","32","true","0.8,0.2","1:go_a","",""
"null","","html-keyboard-response","458","507391","0.0-6.0-1.79","","<img src=""img/pink-n.png"" border=""10"">","null","trial","32","","0.8,0.2","1:go_a","0",""
"null","","html-keyboard-response","459","508393","0.0-6.0-2.79","","<div style=""font-size:60px;"">+</div>","null","","","","","","",""
"511.4750000066124","","image-keyboard-response","460","508905","0.0-6.0-0.80","","img/orange.png","32","trial","null","false","0,1","4:nogo_d","",""
"null","","html-keyboard-response","461","509909","0.0-6.0-1.80","","<img src=""img/orange-n.png"" border=""10"">","null","trial","null","","0,1","4:nogo_d","0",""
"null","","html-keyboard-response","462","510910","0.0-6.0-2.80","","<div style=""font-size:60px;"">+</div>","null","","","","","","",""
"463.3699999540113","","image-keyboard-response","463","511374","0.0-6.0-0.81","","img/pink.png","32","trial","32","true","0.8,0.2","1:go_a","",""
"null","","html-keyboard-response","464","512375","0.0-6.0-1.81","","<img src=""img/pink-r.png"" border=""10"">","null","trial","32","","0.8,0.2","1:go_a","1",""
"null","","html-keyboard-response","465","513376","0.0-6.0-2.81","","<div style=""font-size:60px;"">+</div>","null","","","","","","",""
"526.3099999865517","","image-keyboard-response","466","513903","0.0-6.0-0.82","","img/blue.png","32","trial","32","true","1,0","3:go_c","",""
"null","","html-keyboard-response","467","514906","0.0-6.0-1.82","","<img src=""img/blue-r.png"" border=""10"">","null","trial","32","","1,0","3:go_c","1",""
"null","","html-keyboard-response","468","515907","0.0-6.0-2.82","","<div style=""font-size:60px;"">+</div>","null","","","","","","",""
"null","","image-keyboard-response","469","517408","0.0-6.0-0.83","","img/yellow.png","null","trial","null","true","0.2,0.8","2:nogo_b","",""
"null","","html-keyboard-response","470","518411","0.0-6.0-1.83","","<img src=""img/yellow-r.png"">","null","trial","null","","0.2,0.8","2:nogo_b","1",""
"null","","html-keyboard-response","471","519412","0.0-6.0-2.83","","<div style=""font-size:60px;"">+</div>","null","","","","","","",""
"498.59999999171123","","image-keyboard-response","472","519912","0.0-6.0-0.84","","img/yellow.png","32","trial","null","false","0.2,0.8","2:nogo_b","",""
"null","","html-keyboard-response","473","520914","0.0-6.0-1.84","","<img src=""img/yellow-n.png"" border=""10"">","null","trial","null","","0.2,0.8","2:nogo_b","0",""
"null","","html-keyboard-response","474","521917","0.0-6.0-2.84","","<div style=""font-size:60px;"">+</div>","null","","","","","","",""
"559.6550000482239","","image-keyboard-response","475","522477","0.0-6.0-0.85","","img/orange.png","32","trial","null","false","0,1","4:nogo_d","",""
"null","","html-keyboard-response","476","523479","0.0-6.0-1.85","","<img src=""img/orange-n.png"" border=""10"">","null","trial","null","","0,1","4:nogo_d","0",""
"null","","html-keyboard-response","477","524481","0.0-6.0-2.85","","<div style=""font-size:60px;"">+</div>","null","","","","","","",""
"588.6900000041351","","image-keyboard-response","478","525071","0.0-6.0-0.86","","img/blue.png","32","trial","32","true","1,0","3:go_c","",""
"null","","html-keyboard-response","479","526072","0.0-6.0-1.86","","<img src=""img/blue-r.png"" border=""10"">","null","trial","32","","1,0","3:go_c","1",""
"null","","html-keyboard-response","480","527073","0.0-6.0-2.86","","<div style=""font-size:60px;"">+</div>","null","","","","","","",""
"941.0599999828264","","image-keyboard-response","481","528015","0.0-6.0-0.87","","img/pink.png","32","trial","32","true","0.8,0.2","1:go_a","",""
"null","","html-keyboard-response","482","529017","0.0-6.0-1.87","","<img src=""img/pink-r.png"" border=""10"">","null","trial","32","","0.8,0.2","1:go_a","1",""
"null","","html-keyboard-response","483","530019","0.0-6.0-2.87","","<div style=""font-size:60px;"">+</div>","null","","","","","","",""
"481.8149999482557","","image-keyboard-response","484","530501","0.0-6.0-0.88","","img/pink.png","32","trial","32","true","0.8,0.2","1:go_a","",""
"null","","html-keyboard-response","485","531503","0.0-6.0-1.88","","<img src=""img/pink-n.png"" border=""10"">","null","trial","32","","0.8,0.2","1:go_a","0",""
"null","","html-keyboard-response","486","532504","0.0-6.0-2.88","","<div style=""font-size:60px;"">+</div>","null","","","","","","",""
"493.69999999180436","","image-keyboard-response","487","532998","0.0-6.0-0.89","","img/blue.png","32","trial","32","true","1,0","3:go_c","",""
"null","","html-keyboard-response","488","534000","0.0-6.0-1.89","","<img src=""img/blue-r.png"" border=""10"">","null","trial","32","","1,0","3:go_c","1",""
"null","","html-keyboard-response","489","535002","0.0-6.0-2.89","","<div style=""font-size:60px;"">+</div>","null","","","","","","",""
"null","","image-keyboard-response","490","536504","0.0-6.0-0.90","","img/orange.png","null","trial","null","true","0,1","4:nogo_d","",""
"null","","html-keyboard-response","491","537506","0.0-6.0-1.90","","<img src=""img/orange-r.png"">","null","trial","null","","0,1","4:nogo_d","1",""
"null","","html-keyboard-response","492","538507","0.0-6.0-2.90","","<div style=""font-size:60px;"">+</div>","null","","","","","","",""
"null","","image-keyboard-response","493","540009","0.0-6.0-0.91","","img/yellow.png","null","trial","null","true","0.2,0.8","2:nogo_b","",""
"null","","html-keyboard-response","494","541012","0.0-6.0-1.91","","<img src=""img/yellow-r.png"">","null","trial","null","","0.2,0.8","2:nogo_b","1",""
"null","","html-keyboard-response","495","542013","0.0-6.0-2.91","","<div style=""font-size:60px;"">+</div>","null","","","","","","",""
"515.079999982845","","image-keyboard-response","496","542528","0.0-6.0-0.92","","img/orange.png","32","trial","null","false","0,1","4:nogo_d","",""
"null","","html-keyboard-response","497","543531","0.0-6.0-1.92","","<img src=""img/orange-n.png"" border=""10"">","null","trial","null","","0,1","4:nogo_d","0",""
"null","","html-keyboard-response","498","544532","0.0-6.0-2.92","","<div style=""font-size:60px;"">+</div>","null","","","","","","",""
"513.2350000203587","","image-keyboard-response","499","545047","0.0-6.0-0.93","","img/blue.png","32","trial","32","true","1,0","3:go_c","",""
"null","","html-keyboard-response","500","546049","0.0-6.0-1.93","","<img src=""img/blue-r.png"" border=""10"">","null","trial","32","","1,0","3:go_c","1",""
"null","","html-keyboard-response","501","547050","0.0-6.0-2.93","","<div style=""font-size:60px;"">+</div>","null","","","","","","",""
"null","","image-keyboard-response","502","548552","0.0-6.0-0.94","","img/yellow.png","null","trial","null","true","0.2,0.8","2:nogo_b","",""
"null","","html-keyboard-response","503","549554","0.0-6.0-1.94","","<img src=""img/yellow-r.png"">","null","trial","null","","0.2,0.8","2:nogo_b","1",""
"null","","html-keyboard-response","504","550555","0.0-6.0-2.94","","<div style=""font-size:60px;"">+</div>","null","","","","","","",""
"387.140000006184","","image-keyboard-response","505","550944","0.0-6.0-0.95","","img/pink.png","32","trial","32","true","0.8,0.2","1:go_a","",""
"null","","html-keyboard-response","506","551946","0.0-6.0-1.95","","<img src=""img/pink-r.png"" border=""10"">","null","trial","32","","0.8,0.2","1:go_a","1",""
"null","","html-keyboard-response","507","552947","0.0-6.0-2.95","","<div style=""font-size:60px;"">+</div>","null","","","","","","",""
"null","","image-keyboard-response","508","554448","0.0-6.0-0.96","","img/yellow.png","null","trial","null","true","0.2,0.8","2:nogo_b","",""
"null","","html-keyboard-response","509","555450","0.0-6.0-1.96","","<img src=""img/yellow-r.png"">","null","trial","null","","0.2,0.8","2:nogo_b","1",""
"null","","html-keyboard-response","510","556450","0.0-6.0-2.96","","<div style=""font-size:60px;"">+</div>","null","","","","","","",""
"661.5250000031665","","image-keyboard-response","511","557113","0.0-6.0-0.97","","img/orange.png","32","trial","null","false","0,1","4:nogo_d","",""
"null","","html-keyboard-response","512","558114","0.0-6.0-1.97","","<img src=""img/orange-n.png"" border=""10"">","null","trial","null","","0,1","4:nogo_d","0",""
"null","","html-keyboard-response","513","559116","0.0-6.0-2.97","","<div style=""font-size:60px;"">+</div>","null","","","","","","",""
"354.64999999385327","","image-keyboard-response","514","559472","0.0-6.0-0.98","","img/pink.png","32","trial","32","true","0.8,0.2","1:go_a","",""
"null","","html-keyboard-response","515","560475","0.0-6.0-1.98","","<img src=""img/pink-r.png"" border=""10"">","null","trial","32","","0.8,0.2","1:go_a","1",""
"null","","html-keyboard-response","516","561477","0.0-6.0-2.98","","<div style=""font-size:60px;"">+</div>","null","","","","","","",""
"484.33000000659376","","image-keyboard-response","517","561961","0.0-6.0-0.99","","img/blue.png","32","trial","32","true","1,0","3:go_c","",""
"null","","html-keyboard-response","518","562963","0.0-6.0-1.99","","<img src=""img/blue-r.png"" border=""10"">","null","trial","32","","1,0","3:go_c","1",""
"null","","html-keyboard-response","519","563965","0.0-6.0-2.99","","<div style=""font-size:60px;"">+</div>","null","","","","","","",""
"641.059999994468","","image-keyboard-response","520","564608","0.0-6.0-0.100","","img/orange.png","32","trial","null","false","0,1","4:nogo_d","",""
"null","","html-keyboard-response","521","565610","0.0-6.0-1.100","","<img src=""img/orange-n.png"" border=""10"">","null","trial","null","","0,1","4:nogo_d","0",""
"null","","html-keyboard-response","522","566611","0.0-6.0-2.100","","<div style=""font-size:60px;"">+</div>","null","","","","","","",""
"527.6750000193715","","image-keyboard-response","523","567140","0.0-6.0-0.101","","img/pink.png","32","trial","32","true","0.8,0.2","1:go_a","",""
"null","","html-keyboard-response","524","568141","0.0-6.0-1.101","","<img src=""img/pink-r.png"" border=""10"">","null","trial","32","","0.8,0.2","1:go_a","1",""
"null","","html-keyboard-response","525","569143","0.0-6.0-2.101","","<div style=""font-size:60px;"">+</div>","null","","","","","","",""
"662.140000029467","","image-keyboard-response","526","569806","0.0-6.0-0.102","","img/yellow.png","32","trial","null","false","0.2,0.8","2:nogo_b","",""
"null","","html-keyboard-response","527","570823","0.0-6.0-1.102","","<img src=""img/yellow-r.png"" border=""10"">","null","trial","null","","0.2,0.8","2:nogo_b","1",""
"null","","html-keyboard-response","528","571824","0.0-6.0-2.102","","<div style=""font-size:60px;"">+</div>","null","","","","","","",""
"621.2950000190176","","image-keyboard-response","529","572446","0.0-6.0-0.103","","img/blue.png","32","trial","32","true","1,0","3:go_c","",""
"null","","html-keyboard-response","530","573448","0.0-6.0-1.103","","<img src=""img/blue-r.png"" border=""10"">","null","trial","32","","1,0","3:go_c","1",""
"null","","html-keyboard-response","531","574449","0.0-6.0-2.103","","<div style=""font-size:60px;"">+</div>","null","","","","","","",""
"734.375","","image-keyboard-response","532","575184","0.0-6.0-0.104","","img/pink.png","32","trial","32","true","0.8,0.2","1:go_a","",""
"null","","html-keyboard-response","533","576186","0.0-6.0-1.104","","<img src=""img/pink-r.png"" border=""10"">","null","trial","32","","0.8,0.2","1:go_a","1",""
"null","","html-keyboard-response","534","577187","0.0-6.0-2.104","","<div style=""font-size:60px;"">+</div>","null","","","","","","",""
"769.3149999831803","","image-keyboard-response","535","577957","0.0-6.0-0.105","","img/orange.png","32","trial","null","false","0,1","4:nogo_d","",""
"null","","html-keyboard-response","536","578958","0.0-6.0-1.105","","<img src=""img/orange-n.png"" border=""10"">","null","trial","null","","0,1","4:nogo_d","0",""
"null","","html-keyboard-response","537","579959","0.0-6.0-2.105","","<div style=""font-size:60px;"">+</div>","null","","","","","","",""
"null","","image-keyboard-response","538","581460","0.0-6.0-0.106","","img/yellow.png","null","trial","null","true","0.2,0.8","2:nogo_b","",""
"null","","html-keyboard-response","539","582463","0.0-6.0-1.106","","<img src=""img/yellow-r.png"">","null","trial","null","","0.2,0.8","2:nogo_b","1",""
"null","","html-keyboard-response","540","583464","0.0-6.0-2.106","","<div style=""font-size:60px;"">+</div>","null","","","","","","",""
"629.3300000252202","","image-keyboard-response","541","584094","0.0-6.0-0.107","","img/blue.png","32","trial","32","true","1,0","3:go_c","",""
"null","","html-keyboard-response","542","585095","0.0-6.0-1.107","","<img src=""img/blue-r.png"" border=""10"">","null","trial","32","","1,0","3:go_c","1",""
"null","","html-keyboard-response","543","586097","0.0-6.0-2.107","","<div style=""font-size:60px;"">+</div>","null","","","","","","",""
"1028.8999999756925","","image-keyboard-response","544","587127","0.0-6.0-0.108","","img/yellow.png","32","trial","null","false","0.2,0.8","2:nogo_b","",""
"null","","html-keyboard-response","545","588128","0.0-6.0-1.108","","<img src=""img/yellow-n.png"" border=""10"">","null","trial","null","","0.2,0.8","2:nogo_b","0",""
"null","","html-keyboard-response","546","589130","0.0-6.0-2.108","","<div style=""font-size:60px;"">+</div>","null","","","","","","",""
"null","","image-keyboard-response","547","590632","0.0-6.0-0.109","","img/orange.png","null","trial","null","true","0,1","4:nogo_d","",""
"null","","html-keyboard-response","548","591637","0.0-6.0-1.109","","<img src=""img/orange-r.png"">","null","trial","null","","0,1","4:nogo_d","1",""
"null","","html-keyboard-response","549","592638","0.0-6.0-2.109","","<div style=""font-size:60px;"">+</div>","null","","","","","","",""
"534.3400000128895","","image-keyboard-response","550","593173","0.0-6.0-0.110","","img/pink.png","32","trial","32","true","0.8,0.2","1:go_a","",""
"null","","html-keyboard-response","551","594175","0.0-6.0-1.110","","<img src=""img/pink-r.png"" border=""10"">","null","trial","32","","0.8,0.2","1:go_a","1",""
"null","","html-keyboard-response","552","595177","0.0-6.0-2.110","","<div style=""font-size:60px;"">+</div>","null","","","","","","",""
"477.60000004200265","","image-keyboard-response","553","595655","0.0-6.0-0.111","","img/blue.png","32","trial","32","true","1,0","3:go_c","",""
"null","","html-keyboard-response","554","596657","0.0-6.0-1.111","","<img src=""img/blue-r.png"" border=""10"">","null","trial","32","","1,0","3:go_c","1",""
"null","","html-keyboard-response","555","597658","0.0-6.0-2.111","","<div style=""font-size:60px;"">+</div>","null","","","","","","",""
"null","","image-keyboard-response","556","599160","0.0-6.0-0.112","","img/yellow.png","null","trial","null","true","0.2,0.8","2:nogo_b","",""
"null","","html-keyboard-response","557","600161","0.0-6.0-1.112","","<img src=""img/yellow-r.png"">","null","trial","null","","0.2,0.8","2:nogo_b","1",""
"null","","html-keyboard-response","558","601163","0.0-6.0-2.112","","<div style=""font-size:60px;"">+</div>","null","","","","","","",""
"578.075000026729","","image-keyboard-response","559","601741","0.0-6.0-0.113","","img/pink.png","32","trial","32","true","0.8,0.2","1:go_a","",""
"null","","html-keyboard-response","560","602743","0.0-6.0-1.113","","<img src=""img/pink-r.png"" border=""10"">","null","trial","32","","0.8,0.2","1:go_a","1",""
"null","","html-keyboard-response","561","603745","0.0-6.0-2.113","","<div style=""font-size:60px;"">+</div>","null","","","","","","",""
"615.479999978561","","image-keyboard-response","562","604361","0.0-6.0-0.114","","img/orange.png","32","trial","null","false","0,1","4:nogo_d","",""
"null","","html-keyboard-response","563","605362","0.0-6.0-1.114","","<img src=""img/orange-n.png"" border=""10"">","null","trial","null","","0,1","4:nogo_d","0",""
"null","","html-keyboard-response","564","606364","0.0-6.0-2.114","","<div style=""font-size:60px;"">+</div>","null","","","","","","",""
"538.2649999810383","","image-keyboard-response","565","606904","0.0-6.0-0.115","","img/blue.png","32","trial","32","true","1,0","3:go_c","",""
"null","","html-keyboard-response","566","607906","0.0-6.0-1.115","","<img src=""img/blue-r.png"" border=""10"">","null","trial","32","","1,0","3:go_c","1",""
"null","","html-keyboard-response","567","608907","0.0-6.0-2.115","","<div style=""font-size:60px;"">+</div>","null","","","","","","",""
"null","","image-keyboard-response","568","610408","0.0-6.0-0.116","","img/yellow.png","null","trial","null","true","0.2,0.8","2:nogo_b","",""
"null","","html-keyboard-response","569","611411","0.0-6.0-1.116","","<img src=""img/yellow-r.png"">","null","trial","null","","0.2,0.8","2:nogo_b","1",""
"null","","html-keyboard-response","570","612413","0.0-6.0-2.116","","<div style=""font-size:60px;"">+</div>","null","","","","","","",""
"569.019999995362","","image-keyboard-response","571","612982","0.0-6.0-0.117","","img/pink.png","32","trial","32","true","0.8,0.2","1:go_a","",""
"null","","html-keyboard-response","572","613984","0.0-6.0-1.117","","<img src=""img/pink-r.png"" border=""10"">","null","trial","32","","0.8,0.2","1:go_a","1",""
"null","","html-keyboard-response","573","614986","0.0-6.0-2.117","","<div style=""font-size:60px;"">+</div>","null","","","","","","",""
"860.4449999984354","","image-keyboard-response","574","615849","0.0-6.0-0.118","","img/orange.png","32","trial","null","false","0,1","4:nogo_d","",""
"null","","html-keyboard-response","575","616851","0.0-6.0-1.118","","<img src=""img/orange-n.png"" border=""10"">","null","trial","null","","0,1","4:nogo_d","0",""
"null","","html-keyboard-response","576","617852","0.0-6.0-2.118","","<div style=""font-size:60px;"">+</div>","null","","","","","","",""
"537.2150000184774","","image-keyboard-response","577","618390","0.0-6.0-0.119","","img/blue.png","32","trial","32","true","1,0","3:go_c","",""
"null","","html-keyboard-response","578","619391","0.0-6.0-1.119","","<img src=""img/blue-r.png"" border=""10"">","null","trial","32","","1,0","3:go_c","1",""
"null","","html-keyboard-response","579","620393","0.0-6.0-2.119","","<div style=""font-size:60px;"">+</div>","null","","","","","","",""
"2253.850000037346","","instructions","580","622647","0.0-7.0","[{""page_index"":0,""viewing_time"":2253.6749999853782}]","","","","","","","","",""
"734.0550000080839","","image-keyboard-response","581","623382","0.0-8.0-0.0","","img/purple.png","32","trial","null","false","0.2,0.8","2:nogo_b","",""
"null","","html-keyboard-response","582","624385","0.0-8.0-1.0","","<img src=""img/purple-n.png"" border=""10"">","null","trial","null","","0.2,0.8","2:nogo_b","0",""
"null","","html-keyboard-response","583","625386","0.0-8.0-2.0","","<div style=""font-size:60px;"">+</div>","null","","","","","","",""
"322.82000000122935","","image-keyboard-response","584","625710","0.0-8.0-0.1","","img/yellow.png","32","trial","32","true","0.8,0.2","1:go_a","",""
"null","","html-keyboard-response","585","626712","0.0-8.0-1.1","","<img src=""img/yellow-r.png"" border=""10"">","null","trial","32","","0.8,0.2","1:go_a","1",""
"null","","html-keyboard-response","586","627714","0.0-8.0-2.1","","<div style=""font-size:60px;"">+</div>","null","","","","","","",""
"523.2449999894015","","image-keyboard-response","587","628238","0.0-8.0-0.2","","img/red.png","32","trial","32","true","0.6,0.4","3:go_c","",""
"null","","html-keyboard-response","588","629240","0.0-8.0-1.2","","<img src=""img/red-r.png"" border=""10"">","null","trial","32","","0.6,0.4","3:go_c","1",""
"null","","html-keyboard-response","589","630241","0.0-8.0-2.2","","<div style=""font-size:60px;"">+</div>","null","","","","","","",""
"747.6199999800883","","image-keyboard-response","590","630990","0.0-8.0-0.3","","img/grey.png","32","trial","null","false","0.4,0.6","4:nogo_d","",""
"null","","html-keyboard-response","591","631992","0.0-8.0-1.3","","<img src=""img/grey-r.png"" border=""10"">","null","trial","null","","0.4,0.6","4:nogo_d","1",""
"null","","html-keyboard-response","592","632993","0.0-8.0-2.3","","<div style=""font-size:60px;"">+</div>","null","","","","","","",""
"860.6799999834038","","image-keyboard-response","593","633854","0.0-8.0-0.4","","img/red.png","32","trial","32","true","0.6,0.4","3:go_c","",""
"null","","html-keyboard-response","594","634855","0.0-8.0-1.4","","<img src=""img/red-r.png"" border=""10"">","null","trial","32","","0.6,0.4","3:go_c","1",""
"null","","html-keyboard-response","595","635856","0.0-8.0-2.4","","<div style=""font-size:60px;"">+</div>","null","","","","","","",""
"821.8599999672733","","image-keyboard-response","596","636679","0.0-8.0-0.5","","img/purple.png","32","trial","null","false","0.2,0.8","2:nogo_b","",""
"null","","html-keyboard-response","597","637682","0.0-8.0-1.5","","<img src=""img/purple-n.png"" border=""10"">","null","trial","null","","0.2,0.8","2:nogo_b","0",""
"null","","html-keyboard-response","598","638683","0.0-8.0-2.5","","<div style=""font-size:60px;"">+</div>","null","","","","","","",""
"504.58000000799075","","image-keyboard-response","599","639188","0.0-8.0-0.6","","img/yellow.png","32","trial","32","true","0.8,0.2","1:go_a","",""
"null","","html-keyboard-response","600","640190","0.0-8.0-1.6","","<img src=""img/yellow-r.png"" border=""10"">","null","trial","32","","0.8,0.2","1:go_a","1",""
"null","","html-keyboard-response","601","641193","0.0-8.0-2.6","","<div style=""font-size:60px;"">+</div>","null","","","","","","",""
"669.8650000034831","","image-keyboard-response","602","641864","0.0-8.0-0.7","","img/grey.png","32","trial","null","false","0.4,0.6","4:nogo_d","",""
"null","","html-keyboard-response","603","642866","0.0-8.0-1.7","","<img src=""img/grey-r.png"" border=""10"">","null","trial","null","","0.4,0.6","4:nogo_d","1",""
"null","","html-keyboard-response","604","643868","0.0-8.0-2.7","","<div style=""font-size:60px;"">+</div>","null","","","","","","",""
"546.6200000373647","","image-keyboard-response","605","644416","0.0-8.0-0.8","","img/grey.png","32","trial","null","false","0.4,0.6","4:nogo_d","",""
"null","","html-keyboard-response","606","645427","0.0-8.0-1.8","","<img src=""img/grey-r.png"" border=""10"">","null","trial","null","","0.4,0.6","4:nogo_d","1",""
"null","","html-keyboard-response","607","646428","0.0-8.0-2.8","","<div style=""font-size:60px;"">+</div>","null","","","","","","",""
"497.53999995300546","","image-keyboard-response","608","646926","0.0-8.0-0.9","","img/red.png","32","trial","32","true","0.6,0.4","3:go_c","",""
"null","","html-keyboard-response","609","647928","0.0-8.0-1.9","","<img src=""img/red-n.png"" border=""10"">","null","trial","32","","0.6,0.4","3:go_c","0",""
"null","","html-keyboard-response","610","648929","0.0-8.0-2.9","","<div style=""font-size:60px;"">+</div>","null","","","","","","",""
"653.6099999793805","","image-keyboard-response","611","649584","0.0-8.0-0.10","","img/yellow.png","32","trial","32","true","0.8,0.2","1:go_a","",""
"null","","html-keyboard-response","612","650586","0.0-8.0-1.10","","<img src=""img/yellow-r.png"" border=""10"">","null","trial","32","","0.8,0.2","1:go_a","1",""
"null","","html-keyboard-response","613","651587","0.0-8.0-2.10","","<div style=""font-size:60px;"">+</div>","null","","","","","","",""
"900.8200000389479","","image-keyboard-response","614","652489","0.0-8.0-0.11","","img/purple.png","32","trial","null","false","0.2,0.8","2:nogo_b","",""
"null","","html-keyboard-response","615","653492","0.0-8.0-1.11","","<img src=""img/purple-r.png"" border=""10"">","null","trial","null","","0.2,0.8","2:nogo_b","1",""
"null","","html-keyboard-response","616","654502","0.0-8.0-2.11","","<div style=""font-size:60px;"">+</div>","null","","","","","","",""
"767.2249999595806","","image-keyboard-response","617","655270","0.0-8.0-0.12","","img/yellow.png","32","trial","32","true","0.8,0.2","1:go_a","",""
"null","","html-keyboard-response","618","656272","0.0-8.0-1.12","","<img src=""img/yellow-r.png"" border=""10"">","null","trial","32","","0.8,0.2","1:go_a","1",""
"null","","html-keyboard-response","619","657273","0.0-8.0-2.12","","<div style=""font-size:60px;"">+</div>","null","","","","","","",""
"null","","image-keyboard-response","620","658774","0.0-8.0-0.13","","img/red.png","null","trial","32","false","0.6,0.4","3:go_c","",""
"null","","html-keyboard-response","621","659776","0.0-8.0-1.13","","<img src=""img/red-n.png"">","null","trial","32","","0.6,0.4","3:go_c","0",""
"null","","html-keyboard-response","622","660777","0.0-8.0-2.13","","<div style=""font-size:60px;"">+</div>","null","","","","","","",""
"612.3249999945983","","image-keyboard-response","623","661390","0.0-8.0-0.14","","img/grey.png","32","trial","null","false","0.4,0.6","4:nogo_d","",""
"null","","html-keyboard-response","624","662393","0.0-8.0-1.14","","<img src=""img/grey-r.png"" border=""10"">","null","trial","null","","0.4,0.6","4:nogo_d","1",""
"null","","html-keyboard-response","625","663394","0.0-8.0-2.14","","<div style=""font-size:60px;"">+</div>","null","","","","","","",""
"645.325000048615","","image-keyboard-response","626","664040","0.0-8.0-0.15","","img/purple.png","32","trial","null","false","0.2,0.8","2:nogo_b","",""
"null","","html-keyboard-response","627","665043","0.0-8.0-1.15","","<img src=""img/purple-n.png"" border=""10"">","null","trial","null","","0.2,0.8","2:nogo_b","0",""
"null","","html-keyboard-response","628","666045","0.0-8.0-2.15","","<div style=""font-size:60px;"">+</div>","null","","","","","","",""
"null","","image-keyboard-response","629","667546","0.0-8.0-0.16","","img/red.png","null","trial","32","false","0.6,0.4","3:go_c","",""
"null","","html-keyboard-response","630","668548","0.0-8.0-1.16","","<img src=""img/red-n.png"">","null","trial","32","","0.6,0.4","3:go_c","0",""
"null","","html-keyboard-response","631","669549","0.0-8.0-2.16","","<div style=""font-size:60px;"">+</div>","null","","","","","","",""
"496.2999999988824","","image-keyboard-response","632","670046","0.0-8.0-0.17","","img/grey.png","32","trial","null","false","0.4,0.6","4:nogo_d","",""
"null","","html-keyboard-response","633","671048","0.0-8.0-1.17","","<img src=""img/grey-n.png"" border=""10"">","null","trial","null","","0.4,0.6","4:nogo_d","0",""
"null","","html-keyboard-response","634","672049","0.0-8.0-2.17","","<div style=""font-size:60px;"">+</div>","null","","","","","","",""
"586.9499999680556","","image-keyboard-response","635","672637","0.0-8.0-0.18","","img/yellow.png","32","trial","32","true","0.8,0.2","1:go_a","",""
"null","","html-keyboard-response","636","673639","0.0-8.0-1.18","","<img src=""img/yellow-n.png"" border=""10"">","null","trial","32","","0.8,0.2","1:go_a","0",""
"null","","html-keyboard-response","637","674640","0.0-8.0-2.18","","<div style=""font-size:60px;"">+</div>","null","","","","","","",""
"605.3349999710917","","image-keyboard-response","638","675246","0.0-8.0-0.19","","img/purple.png","32","trial","null","false","0.2,0.8","2:nogo_b","",""
"null","","html-keyboard-response","639","676248","0.0-8.0-1.19","","<img src=""img/purple-n.png"" border=""10"">","null","trial","null","","0.2,0.8","2:nogo_b","0",""
"null","","html-keyboard-response","640","677249","0.0-8.0-2.19","","<div style=""font-size:60px;"">+</div>","null","","","","","","",""
"null","","image-keyboard-response","641","678751","0.0-8.0-0.20","","img/grey.png","null","trial","null","true","0.4,0.6","4:nogo_d","",""
"null","","html-keyboard-response","642","679753","0.0-8.0-1.20","","<img src=""img/grey-r.png"">","null","trial","null","","0.4,0.6","4:nogo_d","1",""
"null","","html-keyboard-response","643","680755","0.0-8.0-2.20","","<div style=""font-size:60px;"">+</div>","null","","","","","","",""
"346.6550000011921","","image-keyboard-response","644","681103","0.0-8.0-0.21","","img/purple.png","32","trial","null","false","0.2,0.8","2:nogo_b","",""
"null","","html-keyboard-response","645","682105","0.0-8.0-1.21","","<img src=""img/purple-r.png"" border=""10"">","null","trial","null","","0.2,0.8","2:nogo_b","1",""
"null","","html-keyboard-response","646","683107","0.0-8.0-2.21","","<div style=""font-size:60px;"">+</div>","null","","","","","","",""
"402.1749999956228","","image-keyboard-response","647","683510","0.0-8.0-0.22","","img/yellow.png","32","trial","32","true","0.8,0.2","1:go_a","",""
"null","","html-keyboard-response","648","684512","0.0-8.0-1.22","","<img src=""img/yellow-r.png"" border=""10"">","null","trial","32","","0.8,0.2","1:go_a","1",""
"null","","html-keyboard-response","649","685513","0.0-8.0-2.22","","<div style=""font-size:60px;"">+</div>","null","","","","","","",""
"805.4700000211596","","image-keyboard-response","650","686320","0.0-8.0-0.23","","img/red.png","32","trial","32","true","0.6,0.4","3:go_c","",""
"null","","html-keyboard-response","651","687323","0.0-8.0-1.23","","<img src=""img/red-r.png"" border=""10"">","null","trial","32","","0.6,0.4","3:go_c","1",""
"null","","html-keyboard-response","652","688324","0.0-8.0-2.23","","<div style=""font-size:60px;"">+</div>","null","","","","","","",""
"411.66000004159287","","image-keyboard-response","653","688737","0.0-8.0-0.24","","img/purple.png","32","trial","null","false","0.2,0.8","2:nogo_b","",""
"null","","html-keyboard-response","654","689741","0.0-8.0-1.24","","<img src=""img/purple-r.png"" border=""10"">","null","trial","null","","0.2,0.8","2:nogo_b","1",""
"null","","html-keyboard-response","655","690743","0.0-8.0-2.24","","<div style=""font-size:60px;"">+</div>","null","","","","","","",""
"401.2399999774061","","image-keyboard-response","656","691145","0.0-8.0-0.25","","img/yellow.png","32","trial","32","true","0.8,0.2","1:go_a","",""
"null","","html-keyboard-response","657","692147","0.0-8.0-1.25","","<img src=""img/yellow-r.png"" border=""10"">","null","trial","32","","0.8,0.2","1:go_a","1",""
"null","","html-keyboard-response","658","693148","0.0-8.0-2.25","","<div style=""font-size:60px;"">+</div>","null","","","","","","",""
"506.2000000034459","","image-keyboard-response","659","693654","0.0-8.0-0.26","","img/grey.png","32","trial","null","false","0.4,0.6","4:nogo_d","",""
"null","","html-keyboard-response","660","694656","0.0-8.0-1.26","","<img src=""img/grey-r.png"" border=""10"">","null","trial","null","","0.4,0.6","4:nogo_d","1",""
"null","","html-keyboard-response","661","695658","0.0-8.0-2.26","","<div style=""font-size:60px;"">+</div>","null","","","","","","",""
"389.72500001545995","","image-keyboard-response","662","696048","0.0-8.0-0.27","","img/red.png","32","trial","32","true","0.6,0.4","3:go_c","",""
"null","","html-keyboard-response","663","697052","0.0-8.0-1.27","","<img src=""img/red-r.png"" border=""10"">","null","trial","32","","0.6,0.4","3:go_c","1",""
"null","","html-keyboard-response","664","698054","0.0-8.0-2.27","","<div style=""font-size:60px;"">+</div>","null","","","","","","",""
"760.2300000144169","","image-keyboard-response","665","698815","0.0-8.0-0.28","","img/yellow.png","32","trial","32","true","0.8,0.2","1:go_a","",""
"null","","html-keyboard-response","666","699817","0.0-8.0-1.28","","<img src=""img/yellow-r.png"" border=""10"">","null","trial","32","","0.8,0.2","1:go_a","1",""
"null","","html-keyboard-response","667","700818","0.0-8.0-2.28","","<div style=""font-size:60px;"">+</div>","null","","","","","","",""
"684.7599999746308","","image-keyboard-response","668","701504","0.0-8.0-0.29","","img/purple.png","32","trial","null","false","0.2,0.8","2:nogo_b","",""
"null","","html-keyboard-response","669","702507","0.0-8.0-1.29","","<img src=""img/purple-n.png"" border=""10"">","null","trial","null","","0.2,0.8","2:nogo_b","0",""
"null","","html-keyboard-response","670","703509","0.0-8.0-2.29","","<div style=""font-size:60px;"">+</div>","null","","","","","","",""
"884.905000042636","","image-keyboard-response","671","704394","0.0-8.0-0.30","","img/red.png","32","trial","32","true","0.6,0.4","3:go_c","",""
"null","","html-keyboard-response","672","705395","0.0-8.0-1.30","","<img src=""img/red-n.png"" border=""10"">","null","trial","32","","0.6,0.4","3:go_c","0",""
"null","","html-keyboard-response","673","706398","0.0-8.0-2.30","","<div style=""font-size:60px;"">+</div>","null","","","","","","",""
"631.2650000327267","","image-keyboard-response","674","707030","0.0-8.0-0.31","","img/grey.png","32","trial","null","false","0.4,0.6","4:nogo_d","",""
"null","","html-keyboard-response","675","708032","0.0-8.0-1.31","","<img src=""img/grey-n.png"" border=""10"">","null","trial","null","","0.4,0.6","4:nogo_d","0",""
"null","","html-keyboard-response","676","709034","0.0-8.0-2.31","","<div style=""font-size:60px;"">+</div>","null","","","","","","",""
"675.8749999571592","","image-keyboard-response","677","709710","0.0-8.0-0.32","","img/red.png","32","trial","32","true","0.6,0.4","3:go_c","",""
