"rt","url","trial_type","trial_index","time_elapsed","internal_node_id","view_history","stimulus","key_press","test_part","correct_response","correct","use_rew","which_stim","reward","responses"
"20593.185000005178","consent.html","external-html","0","20640","0.0-0.0","","","","","","","","","",""
"42671.6599999927","","instructions","1","63315","0.0-1.0","[{""page_index"":0,""viewing_time"":1355.0800000084564},{""page_index"":1,""viewing_time"":11315.754999988712},{""page_index"":2,""viewing_time"":2898.0800000135787},{""page_index"":3,""viewing_time"":10996.61499998183},{""page_index"":4,""viewing_time"":5947.750000021188},{""page_index"":5,""viewing_time"":2468.989999993937},{""page_index"":6,""viewing_time"":1633.2799999800045},{""page_index"":5,""viewing_time"":2292.220000002999},{""page_index"":6,""viewing_time"":3761.625000013737}]","","","","","","","","",""
"977.7600000088569","","image-keyboard-response","2","64297","0.0-2.0-0.0","","img/test3.PNG","32","practice","null","false","","","",""
"null","","html-keyboard-response","3","65299","0.0-2.0-1.0","","<img src=""img/test3-neutral.PNG"" border=""10px; grey"">","null","","","","","","",""
"null","","html-keyboard-response","4","66302","0.0-2.0-2.0","","<div style=""font-size:60px;"">+</div>","null","","","","","","",""
"552.045000018552","","image-keyboard-response","5","66855","0.0-2.0-0.1","","img/test1.PNG","32","practice","32","true","","","",""
"null","","html-keyboard-response","6","67856","0.0-2.0-1.1","","<img src=""img/test1-reward.PNG"" border=""10px; grey"">","null","","","","","","",""
"null","","html-keyboard-response","7","68857","0.0-2.0-2.1","","<div style=""font-size:60px;"">+</div>","null","","","","","","",""
"840.9899999969639","","image-keyboard-response","8","69698","0.0-2.0-0.2","","img/test2.PNG","32","practice","null","false","","","",""
"null","","html-keyboard-response","9","70700","0.0-2.0-1.2","","<img src=""img/test2-neutral.PNG"" border=""10px; grey"">","null","","","","","","",""
"null","","html-keyboard-response","10","71701","0.0-2.0-2.2","","<div style=""font-size:60px;"">+</div>","null","","","","","","",""
"333.0149999819696","","image-keyboard-response","11","72036","0.0-2.0-0.3","","img/test1.PNG","32","practice","32","true","","","",""
"null","","html-keyboard-response","12","73039","0.0-2.0-1.3","","<img src=""img/test1-reward.PNG"" border=""10px; grey"">","null","","","","","","",""
"null","","html-keyboard-response","13","74040","0.0-2.0-2.3","","<div style=""font-size:60px;"">+</div>","null","","","","","","",""
"null","","image-keyboard-response","14","75541","0.0-2.0-0.4","","img/test3.PNG","null","practice","null","true","","","",""
"null","","html-keyboard-response","15","76543","0.0-2.0-1.4","","<img src=""img/test3-reward.PNG"">","null","","","","","","",""
"null","","html-keyboard-response","16","77544","0.0-2.0-2.4","","<div style=""font-size:60px;"">+</div>","null","","","","","","",""
"539.6900000050664","","image-keyboard-response","17","78084","0.0-2.0-0.5","","img/test2.PNG","32","practice","null","false","","","",""
"null","","html-keyboard-response","18","79085","0.0-2.0-1.5","","<img src=""img/test2-neutral.PNG"" border=""10px; grey"">","null","","","","","","",""
"null","","html-keyboard-response","19","80086","0.0-2.0-2.5","","<div style=""font-size:60px;"">+</div>","null","","","","","","",""
"1157.2900000028312","","image-keyboard-response","20","81246","0.0-2.0-0.6","","img/test2.PNG","32","practice","null","false","","","",""
"null","","html-keyboard-response","21","82248","0.0-2.0-1.6","","<img src=""img/test2-neutral.PNG"" border=""10px; grey"">","null","","","","","","",""
"null","","html-keyboard-response","22","83251","0.0-2.0-2.6","","<div style=""font-size:60px;"">+</div>","null","","","","","","",""
"402.250000013737","","image-keyboard-response","23","83653","0.0-2.0-0.7","","img/test3.PNG","32","practice","null","false","","","",""
"null","","html-keyboard-response","24","84655","0.0-2.0-1.7","","<img src=""img/test3-neutral.PNG"" border=""10px; grey"">","null","","","","","","",""
"null","","html-keyboard-response","25","85656","0.0-2.0-2.7","","<div style=""font-size:60px;"">+</div>","null","","","","","","",""
"369.88499999279156","","image-keyboard-response","26","86026","0.0-2.0-0.8","","img/test1.PNG","32","practice","32","true","","","",""
"null","","html-keyboard-response","27","87029","0.0-2.0-1.8","","<img src=""img/test1-reward.PNG"" border=""10px; grey"">","null","","","","","","",""
"null","","html-keyboard-response","28","88030","0.0-2.0-2.8","","<div style=""font-size:60px;"">+</div>","null","","","","","","",""
"563.4800000116229","","image-keyboard-response","29","88594","0.0-2.0-0.9","","img/test1.PNG","32","practice","32","true","","","",""
"null","","html-keyboard-response","30","89597","0.0-2.0-1.9","","<img src=""img/test1-reward.PNG"" border=""10px; grey"">","null","","","","","","",""
"null","","html-keyboard-response","31","90599","0.0-2.0-2.9","","<div style=""font-size:60px;"">+</div>","null","","","","","","",""
"398.8899999822024","","image-keyboard-response","32","91000","0.0-2.0-0.10","","img/test3.PNG","32","practice","null","false","","","",""
"null","","html-keyboard-response","33","92002","0.0-2.0-1.10","","<img src=""img/test3-neutral.PNG"" border=""10px; grey"">","null","","","","","","",""
"null","","html-keyboard-response","34","93003","0.0-2.0-2.10","","<div style=""font-size:60px;"">+</div>","null","","","","","","",""
"null","","image-keyboard-response","35","94504","0.0-2.0-0.11","","img/test2.PNG","null","practice","null","true","","","",""
"null","","html-keyboard-response","36","95505","0.0-2.0-1.11","","<img src=""img/test2-reward.PNG"">","null","","","","","","",""
"null","","html-keyboard-response","37","96507","0.0-2.0-2.11","","<div style=""font-size:60px;"">+</div>","null","","","","","","",""
"1964.9400000052992","","instructions","38","98473","0.0-3.0","[{""page_index"":0,""viewing_time"":1964.36499999254}]","","","","","","","","",""
"803.5099999979138","","image-keyboard-response","39","99279","0.0-4.0-0.0","","img/blue.png","32","trial","null","false","0.2,0.8","2:nogo_b","",""
"null","","html-keyboard-response","40","100284","0.0-4.0-1.0","","<img src=""img/blue-r.png"" border=""10"">","null","trial","null","","0.2,0.8","2:nogo_b","1",""
"null","","html-keyboard-response","41","101288","0.0-4.0-2.0","","<div style=""font-size:60px;"">+</div>","null","","","","","","",""
"423.58999999123625","","image-keyboard-response","42","101712","0.0-4.0-0.1","","img/red.png","32","trial","32","true","0.8,0.2","1:go_a","",""
"null","","html-keyboard-response","43","102714","0.0-4.0-1.1","","<img src=""img/red-r.png"" border=""10"">","null","trial","32","","0.8,0.2","1:go_a","1",""
"null","","html-keyboard-response","44","103715","0.0-4.0-2.1","","<div style=""font-size:60px;"">+</div>","null","","","","","","",""
"345.01499999896623","","image-keyboard-response","45","104061","0.0-4.0-0.2","","img/blue.png","32","trial","null","false","0.2,0.8","2:nogo_b","",""
"null","","html-keyboard-response","46","105064","0.0-4.0-1.2","","<img src=""img/blue-n.png"" border=""10"">","null","trial","null","","0.2,0.8","2:nogo_b","0",""
"null","","html-keyboard-response","47","106065","0.0-4.0-2.2","","<div style=""font-size:60px;"">+</div>","null","","","","","","",""
"340.7500000030268","","image-keyboard-response","48","106407","0.0-4.0-0.3","","img/red.png","32","trial","32","true","0.8,0.2","1:go_a","",""
"null","","html-keyboard-response","49","107410","0.0-4.0-1.3","","<img src=""img/red-r.png"" border=""10"">","null","trial","32","","0.8,0.2","1:go_a","1",""
"null","","html-keyboard-response","50","108411","0.0-4.0-2.3","","<div style=""font-size:60px;"">+</div>","null","","","","","","",""
"null","","image-keyboard-response","51","109913","0.0-4.0-0.4","","img/blue.png","null","trial","null","true","0.2,0.8","2:nogo_b","",""
"null","","html-keyboard-response","52","110914","0.0-4.0-1.4","","<img src=""img/blue-r.png"">","null","trial","null","","0.2,0.8","2:nogo_b","1",""
"null","","html-keyboard-response","53","111915","0.0-4.0-2.4","","<div style=""font-size:60px;"">+</div>","null","","","","","","",""
"283.6749999842141","","image-keyboard-response","54","112200","0.0-4.0-0.5","","img/red.png","32","trial","32","true","0.8,0.2","1:go_a","",""
"null","","html-keyboard-response","55","113203","0.0-4.0-1.5","","<img src=""img/red-r.png"" border=""10"">","null","trial","32","","0.8,0.2","1:go_a","1",""
"null","","html-keyboard-response","56","114205","0.0-4.0-2.5","","<div style=""font-size:60px;"">+</div>","null","","","","","","",""
"null","","image-keyboard-response","57","115707","0.0-4.0-0.6","","img/blue.png","null","trial","null","true","0.2,0.8","2:nogo_b","",""
"null","","html-keyboard-response","58","116709","0.0-4.0-1.6","","<img src=""img/blue-r.png"">","null","trial","null","","0.2,0.8","2:nogo_b","1",""
"null","","html-keyboard-response","59","117711","0.0-4.0-2.6","","<div style=""font-size:60px;"">+</div>","null","","","","","","",""
"392.11000001523644","","image-keyboard-response","60","118104","0.0-4.0-0.7","","img/red.png","32","trial","32","true","0.8,0.2","1:go_a","",""
"null","","html-keyboard-response","61","119107","0.0-4.0-1.7","","<img src=""img/red-n.png"" border=""10"">","null","trial","32","","0.8,0.2","1:go_a","0",""
"null","","html-keyboard-response","62","120109","0.0-4.0-2.7","","<div style=""font-size:60px;"">+</div>","null","","","","","","",""
"477.7749999775551","","image-keyboard-response","63","120588","0.0-4.0-0.8","","img/red.png","32","trial","32","true","0.8,0.2","1:go_a","",""
"null","","html-keyboard-response","64","121590","0.0-4.0-1.8","","<img src=""img/red-r.png"" border=""10"">","null","trial","32","","0.8,0.2","1:go_a","1",""
"null","","html-keyboard-response","65","122592","0.0-4.0-2.8","","<div style=""font-size:60px;"">+</div>","null","","","","","","",""
"300.9799999999814","","image-keyboard-response","66","122894","0.0-4.0-0.9","","img/blue.png","32","trial","null","false","0.2,0.8","2:nogo_b","",""
"null","","html-keyboard-response","67","123898","0.0-4.0-1.9","","<img src=""img/blue-n.png"" border=""10"">","null","trial","null","","0.2,0.8","2:nogo_b","0",""
"null","","html-keyboard-response","68","124901","0.0-4.0-2.9","","<div style=""font-size:60px;"">+</div>","null","","","","","","",""
"361.960000009276","","image-keyboard-response","69","125265","0.0-4.0-0.10","","img/blue.png","32","trial","null","false","0.2,0.8","2:nogo_b","",""
"null","","html-keyboard-response","70","126268","0.0-4.0-1.10","","<img src=""img/blue-n.png"" border=""10"">","null","trial","null","","0.2,0.8","2:nogo_b","0",""
"null","","html-keyboard-response","71","127270","0.0-4.0-2.10","","<div style=""font-size:60px;"">+</div>","null","","","","","","",""
"505.2250000007916","","image-keyboard-response","72","127777","0.0-4.0-0.11","","img/red.png","32","trial","32","true","0.8,0.2","1:go_a","",""
"null","","html-keyboard-response","73","128780","0.0-4.0-1.11","","<img src=""img/red-r.png"" border=""10"">","null","trial","32","","0.8,0.2","1:go_a","1",""
"null","","html-keyboard-response","74","129783","0.0-4.0-2.11","","<div style=""font-size:60px;"">+</div>","null","","","","","","",""
"551.8400000000838","","image-keyboard-response","75","130335","0.0-4.0-0.12","","img/red.png","32","trial","32","true","0.8,0.2","1:go_a","",""
"null","","html-keyboard-response","76","131339","0.0-4.0-1.12","","<img src=""img/red-r.png"" border=""10"">","null","trial","32","","0.8,0.2","1:go_a","1",""
"null","","html-keyboard-response","77","132342","0.0-4.0-2.12","","<div style=""font-size:60px;"">+</div>","null","","","","","","",""
"null","","image-keyboard-response","78","133844","0.0-4.0-0.13","","img/blue.png","null","trial","null","true","0.2,0.8","2:nogo_b","",""
"null","","html-keyboard-response","79","134846","0.0-4.0-1.13","","<img src=""img/blue-r.png"">","null","trial","null","","0.2,0.8","2:nogo_b","1",""
"null","","html-keyboard-response","80","135847","0.0-4.0-2.13","","<div style=""font-size:60px;"">+</div>","null","","","","","","",""
"null","","image-keyboard-response","81","137349","0.0-4.0-0.14","","img/blue.png","null","trial","null","true","0.2,0.8","2:nogo_b","",""
"null","","html-keyboard-response","82","138352","0.0-4.0-1.14","","<img src=""img/blue-r.png"">","null","trial","null","","0.2,0.8","2:nogo_b","1",""
"null","","html-keyboard-response","83","139355","0.0-4.0-2.14","","<div style=""font-size:60px;"">+</div>","null","","","","","","",""
"706.7199999873992","","image-keyboard-response","84","140063","0.0-4.0-0.15","","img/red.png","32","trial","32","true","0.8,0.2","1:go_a","",""
"null","","html-keyboard-response","85","141064","0.0-4.0-1.15","","<img src=""img/red-r.png"" border=""10"">","null","trial","32","","0.8,0.2","1:go_a","1",""
"null","","html-keyboard-response","86","142066","0.0-4.0-2.15","","<div style=""font-size:60px;"">+</div>","null","","","","","","",""
"null","","image-keyboard-response","87","143568","0.0-4.0-0.16","","img/blue.png","null","trial","null","true","0.2,0.8","2:nogo_b","",""
"null","","html-keyboard-response","88","144571","0.0-4.0-1.16","","<img src=""img/blue-r.png"">","null","trial","null","","0.2,0.8","2:nogo_b","1",""
"null","","html-keyboard-response","89","145573","0.0-4.0-2.16","","<div style=""font-size:60px;"">+</div>","null","","","","","","",""
"373.2099999906495","","image-keyboard-response","90","145948","0.0-4.0-0.17","","img/red.png","32","trial","32","true","0.8,0.2","1:go_a","",""
"null","","html-keyboard-response","91","146952","0.0-4.0-1.17","","<img src=""img/red-r.png"" border=""10"">","null","trial","32","","0.8,0.2","1:go_a","1",""
"null","","html-keyboard-response","92","147954","0.0-4.0-2.17","","<div style=""font-size:60px;"">+</div>","null","","","","","","",""
"null","","image-keyboard-response","93","149456","0.0-4.0-0.18","","img/blue.png","null","trial","null","true","0.2,0.8","2:nogo_b","",""
"null","","html-keyboard-response","94","150458","0.0-4.0-1.18","","<img src=""img/blue-r.png"">","null","trial","null","","0.2,0.8","2:nogo_b","1",""
"null","","html-keyboard-response","95","151459","0.0-4.0-2.18","","<div style=""font-size:60px;"">+</div>","null","","","","","","",""
"325.22999998764135","","image-keyboard-response","96","151785","0.0-4.0-0.19","","img/red.png","32","trial","32","true","0.8,0.2","1:go_a","",""
"null","","html-keyboard-response","97","152786","0.0-4.0-1.19","","<img src=""img/red-r.png"" border=""10"">","null","trial","32","","0.8,0.2","1:go_a","1",""
"null","","html-keyboard-response","98","153788","0.0-4.0-2.19","","<div style=""font-size:60px;"">+</div>","null","","","","","","",""
"null","","image-keyboard-response","99","155289","0.0-4.0-0.20","","img/blue.png","null","trial","null","true","0.2,0.8","2:nogo_b","",""
"null","","html-keyboard-response","100","156293","0.0-4.0-1.20","","<img src=""img/blue-n.png"">","null","trial","null","","0.2,0.8","2:nogo_b","0",""
"null","","html-keyboard-response","101","157294","0.0-4.0-2.20","","<div style=""font-size:60px;"">+</div>","null","","","","","","",""
"463.9399999869056","","image-keyboard-response","102","157759","0.0-4.0-0.21","","img/red.png","32","trial","32","true","0.8,0.2","1:go_a","",""
"null","","html-keyboard-response","103","158761","0.0-4.0-1.21","","<img src=""img/red-n.png"" border=""10"">","null","trial","32","","0.8,0.2","1:go_a","0",""
"null","","html-keyboard-response","104","159763","0.0-4.0-2.21","","<div style=""font-size:60px;"">+</div>","null","","","","","","",""
"545.8599999838043","","image-keyboard-response","105","160310","0.0-4.0-0.22","","img/red.png","32","trial","32","true","0.8,0.2","1:go_a","",""
"null","","html-keyboard-response","106","161311","0.0-4.0-1.22","","<img src=""img/red-r.png"" border=""10"">","null","trial","32","","0.8,0.2","1:go_a","1",""
"null","","html-keyboard-response","107","162312","0.0-4.0-2.22","","<div style=""font-size:60px;"">+</div>","null","","","","","","",""
"273.9249999867752","","image-keyboard-response","108","162587","0.0-4.0-0.23","","img/blue.png","32","trial","null","false","0.2,0.8","2:nogo_b","",""
"null","","html-keyboard-response","109","163589","0.0-4.0-1.23","","<img src=""img/blue-r.png"" border=""10"">","null","trial","null","","0.2,0.8","2:nogo_b","1",""
"null","","html-keyboard-response","110","164590","0.0-4.0-2.23","","<div style=""font-size:60px;"">+</div>","null","","","","","","",""
"400.2350000082515","","image-keyboard-response","111","164991","0.0-4.0-0.24","","img/blue.png","32","trial","null","false","0.2,0.8","2:nogo_b","",""
"null","","html-keyboard-response","112","165997","0.0-4.0-1.24","","<img src=""img/blue-n.png"" border=""10"">","null","trial","null","","0.2,0.8","2:nogo_b","0",""
"null","","html-keyboard-response","113","166999","0.0-4.0-2.24","","<div style=""font-size:60px;"">+</div>","null","","","","","","",""
"679.6750000212342","","image-keyboard-response","114","167680","0.0-4.0-0.25","","img/red.png","32","trial","32","true","0.8,0.2","1:go_a","",""
"null","","html-keyboard-response","115","168681","0.0-4.0-1.25","","<img src=""img/red-r.png"" border=""10"">","null","trial","32","","0.8,0.2","1:go_a","1",""
"null","","html-keyboard-response","116","169683","0.0-4.0-2.25","","<div style=""font-size:60px;"">+</div>","null","","","","","","",""
"716.9099999882746","","image-keyboard-response","117","170400","0.0-4.0-0.26","","img/blue.png","32","trial","null","false","0.2,0.8","2:nogo_b","",""
"null","","html-keyboard-response","118","171403","0.0-4.0-1.26","","<img src=""img/blue-n.png"" border=""10"">","null","trial","null","","0.2,0.8","2:nogo_b","0",""
"null","","html-keyboard-response","119","172406","0.0-4.0-2.26","","<div style=""font-size:60px;"">+</div>","null","","","","","","",""
"290.50000000279397","","image-keyboard-response","120","172698","0.0-4.0-0.27","","img/red.png","32","trial","32","true","0.8,0.2","1:go_a","",""
"null","","html-keyboard-response","121","173701","0.0-4.0-1.27","","<img src=""img/red-r.png"" border=""10"">","null","trial","32","","0.8,0.2","1:go_a","1",""
"null","","html-keyboard-response","122","174702","0.0-4.0-2.27","","<div style=""font-size:60px;"">+</div>","null","","","","","","",""
"null","","image-keyboard-response","123","176203","0.0-4.0-0.28","","img/blue.png","null","trial","null","true","0.2,0.8","2:nogo_b","",""
"null","","html-keyboard-response","124","177206","0.0-4.0-1.28","","<img src=""img/blue-n.png"">","null","trial","null","","0.2,0.8","2:nogo_b","0",""
"null","","html-keyboard-response","125","178207","0.0-4.0-2.28","","<div style=""font-size:60px;"">+</div>","null","","","","","","",""
"338.63000001292676","","image-keyboard-response","126","178546","0.0-4.0-0.29","","img/red.png","32","trial","32","true","0.8,0.2","1:go_a","",""
"null","","html-keyboard-response","127","179548","0.0-4.0-1.29","","<img src=""img/red-n.png"" border=""10"">","null","trial","32","","0.8,0.2","1:go_a","0",""
"null","","html-keyboard-response","128","180550","0.0-4.0-2.29","","<div style=""font-size:60px;"">+</div>","null","","","","","","",""
"770.1600000145845","","image-keyboard-response","129","181321","0.0-4.0-0.30","","img/blue.png","32","trial","null","false","0.2,0.8","2:nogo_b","",""
"null","","html-keyboard-response","130","182324","0.0-4.0-1.30","","<img src=""img/blue-n.png"" border=""10"">","null","trial","null","","0.2,0.8","2:nogo_b","0",""
"null","","html-keyboard-response","131","183327","0.0-4.0-2.30","","<div style=""font-size:60px;"">+</div>","null","","","","","","",""
"606.4149999874644","","image-keyboard-response","132","183934","0.0-4.0-0.31","","img/red.png","32","trial","32","true","0.8,0.2","1:go_a","",""
"null","","html-keyboard-response","133","184936","0.0-4.0-1.31","","<img src=""img/red-r.png"" border=""10"">","null","trial","32","","0.8,0.2","1:go_a","1",""
"null","","html-keyboard-response","134","185936","0.0-4.0-2.31","","<div style=""font-size:60px;"">+</div>","null","","","","","","",""
"null","","image-keyboard-response","135","187439","0.0-4.0-0.32","","img/blue.png","null","trial","null","true","0.2,0.8","2:nogo_b","",""
"null","","html-keyboard-response","136","188441","0.0-4.0-1.32","","<img src=""img/blue-n.png"">","null","trial","null","","0.2,0.8","2:nogo_b","0",""
"null","","html-keyboard-response","137","189443","0.0-4.0-2.32","","<div style=""font-size:60px;"">+</div>","null","","","","","","",""
"332.6649999944493","","image-keyboard-response","138","189777","0.0-4.0-0.33","","img/red.png","32","trial","32","true","0.8,0.2","1:go_a","",""
"null","","html-keyboard-response","139","190781","0.0-4.0-1.33","","<img src=""img/red-r.png"" border=""10"">","null","trial","32","","0.8,0.2","1:go_a","1",""
"null","","html-keyboard-response","140","191784","0.0-4.0-2.33","","<div style=""font-size:60px;"">+</div>","null","","","","","","",""
"1400.6700000027195","","image-keyboard-response","141","193186","0.0-4.0-0.34","","img/red.png","32","trial","32","true","0.8,0.2","1:go_a","",""
"null","","html-keyboard-response","142","194189","0.0-4.0-1.34","","<img src=""img/red-r.png"" border=""10"">","null","trial","32","","0.8,0.2","1:go_a","1",""
"null","","html-keyboard-response","143","195192","0.0-4.0-2.34","","<div style=""font-size:60px;"">+</div>","null","","","","","","",""
"null","","image-keyboard-response","144","196692","0.0-4.0-0.35","","img/blue.png","null","trial","null","true","0.2,0.8","2:nogo_b","",""
"null","","html-keyboard-response","145","197694","0.0-4.0-1.35","","<img src=""img/blue-r.png"">","null","trial","null","","0.2,0.8","2:nogo_b","1",""
"null","","html-keyboard-response","146","198696","0.0-4.0-2.35","","<div style=""font-size:60px;"">+</div>","null","","","","","","",""
"493.71499998960644","","image-keyboard-response","147","199191","0.0-4.0-0.36","","img/blue.png","32","trial","null","false","0.2,0.8","2:nogo_b","",""
"null","","html-keyboard-response","148","200192","0.0-4.0-1.36","","<img src=""img/blue-n.png"" border=""10"">","null","trial","null","","0.2,0.8","2:nogo_b","0",""
"null","","html-keyboard-response","149","201195","0.0-4.0-2.36","","<div style=""font-size:60px;"">+</div>","null","","","","","","",""
"413.22000001673587","","image-keyboard-response","150","201609","0.0-4.0-0.37","","img/red.png","32","trial","32","true","0.8,0.2","1:go_a","",""
"null","","html-keyboard-response","151","202613","0.0-4.0-1.37","","<img src=""img/red-r.png"" border=""10"">","null","trial","32","","0.8,0.2","1:go_a","1",""
"null","","html-keyboard-response","152","203615","0.0-4.0-2.37","","<div style=""font-size:60px;"">+</div>","null","","","","","","",""
"598.1800000008661","","image-keyboard-response","153","204214","0.0-4.0-0.38","","img/red.png","32","trial","32","true","0.8,0.2","1:go_a","",""
"null","","html-keyboard-response","154","205217","0.0-4.0-1.38","","<img src=""img/red-r.png"" border=""10"">","null","trial","32","","0.8,0.2","1:go_a","1",""
"null","","html-keyboard-response","155","206217","0.0-4.0-2.38","","<div style=""font-size:60px;"">+</div>","null","","","","","","",""
"null","","image-keyboard-response","156","207720","0.0-4.0-0.39","","img/blue.png","null","trial","null","true","0.2,0.8","2:nogo_b","",""
"null","","html-keyboard-response","157","208723","0.0-4.0-1.39","","<img src=""img/blue-r.png"">","null","trial","null","","0.2,0.8","2:nogo_b","1",""
"null","","html-keyboard-response","158","209725","0.0-4.0-2.39","","<div style=""font-size:60px;"">+</div>","null","","","","","","",""
"450.54999997955747","","image-keyboard-response","159","210177","0.0-4.0-0.40","","img/red.png","32","trial","32","true","0.8,0.2","1:go_a","",""
"null","","html-keyboard-response","160","211180","0.0-4.0-1.40","","<img src=""img/red-r.png"" border=""10"">","null","trial","32","","0.8,0.2","1:go_a","1",""
"null","","html-keyboard-response","161","212181","0.0-4.0-2.40","","<div style=""font-size:60px;"">+</div>","null","","","","","","",""
"null","","image-keyboard-response","162","213684","0.0-4.0-0.41","","img/blue.png","null","trial","null","true","0.2,0.8","2:nogo_b","",""
"null","","html-keyboard-response","163","214685","0.0-4.0-1.41","","<img src=""img/blue-r.png"">","null","trial","null","","0.2,0.8","2:nogo_b","1",""
"null","","html-keyboard-response","164","215685","0.0-4.0-2.41","","<div style=""font-size:60px;"">+</div>","null","","","","","","",""
"265.76000000932254","","image-keyboard-response","165","215952","0.0-4.0-0.42","","img/red.png","32","trial","32","true","0.8,0.2","1:go_a","",""
"null","","html-keyboard-response","166","216953","0.0-4.0-1.42","","<img src=""img/red-r.png"" border=""10"">","null","trial","32","","0.8,0.2","1:go_a","1",""
"null","","html-keyboard-response","167","217954","0.0-4.0-2.42","","<div style=""font-size:60px;"">+</div>","null","","","","","","",""
"null","","image-keyboard-response","168","219456","0.0-4.0-0.43","","img/blue.png","null","trial","null","true","0.2,0.8","2:nogo_b","",""
"null","","html-keyboard-response","169","220459","0.0-4.0-1.43","","<img src=""img/blue-r.png"">","null","trial","null","","0.2,0.8","2:nogo_b","1",""
"null","","html-keyboard-response","170","221460","0.0-4.0-2.43","","<div style=""font-size:60px;"">+</div>","null","","","","","","",""
"338.080000015907","","image-keyboard-response","171","221800","0.0-4.0-0.44","","img/red.png","32","trial","32","true","0.8,0.2","1:go_a","",""
"null","","html-keyboard-response","172","222803","0.0-4.0-1.44","","<img src=""img/red-r.png"" border=""10"">","null","trial","32","","0.8,0.2","1:go_a","1",""
"null","","html-keyboard-response","173","223804","0.0-4.0-2.44","","<div style=""font-size:60px;"">+</div>","null","","","","","","",""
"null","","image-keyboard-response","174","225306","0.0-4.0-0.45","","img/blue.png","null","trial","null","true","0.2,0.8","2:nogo_b","",""
"null","","html-keyboard-response","175","226308","0.0-4.0-1.45","","<img src=""img/blue-r.png"">","null","trial","null","","0.2,0.8","2:nogo_b","1",""
"null","","html-keyboard-response","176","227310","0.0-4.0-2.45","","<div style=""font-size:60px;"">+</div>","null","","","","","","",""
"445.8699999959208","","image-keyboard-response","177","227757","0.0-4.0-0.46","","img/blue.png","32","trial","null","false","0.2,0.8","2:nogo_b","",""
"null","","html-keyboard-response","178","228760","0.0-4.0-1.46","","<img src=""img/blue-n.png"" border=""10"">","null","trial","null","","0.2,0.8","2:nogo_b","0",""
"null","","html-keyboard-response","179","229761","0.0-4.0-2.46","","<div style=""font-size:60px;"">+</div>","null","","","","","","",""
"725.1150000083726","","image-keyboard-response","180","230487","0.0-4.0-0.47","","img/red.png","32","trial","32","true","0.8,0.2","1:go_a","",""
"null","","html-keyboard-response","181","231490","0.0-4.0-1.47","","<img src=""img/red-r.png"" border=""10"">","null","trial","32","","0.8,0.2","1:go_a","1",""
"null","","html-keyboard-response","182","232493","0.0-4.0-2.47","","<div style=""font-size:60px;"">+</div>","null","","","","","","",""
"null","","image-keyboard-response","183","233995","0.0-4.0-0.48","","img/blue.png","null","trial","null","true","0.2,0.8","2:nogo_b","",""
"null","","html-keyboard-response","184","234996","0.0-4.0-1.48","","<img src=""img/blue-r.png"">","null","trial","null","","0.2,0.8","2:nogo_b","1",""
"null","","html-keyboard-response","185","235997","0.0-4.0-2.48","","<div style=""font-size:60px;"">+</div>","null","","","","","","",""
"451.46999999997206","","image-keyboard-response","186","236449","0.0-4.0-0.49","","img/red.png","32","trial","32","true","0.8,0.2","1:go_a","",""
"null","","html-keyboard-response","187","237452","0.0-4.0-1.49","","<img src=""img/red-n.png"" border=""10"">","null","trial","32","","0.8,0.2","1:go_a","0",""
"null","","html-keyboard-response","188","238454","0.0-4.0-2.49","","<div style=""font-size:60px;"">+</div>","null","","","","","","",""
"null","","image-keyboard-response","189","239955","0.0-4.0-0.50","","img/red.png","null","trial","32","false","0.8,0.2","1:go_a","",""
"null","","html-keyboard-response","190","240958","0.0-4.0-1.50","","<img src=""img/red-n.png"">","null","trial","32","","0.8,0.2","1:go_a","0",""
"null","","html-keyboard-response","191","241960","0.0-4.0-2.50","","<div style=""font-size:60px;"">+</div>","null","","","","","","",""
"1000.6949999951757","","image-keyboard-response","192","242962","0.0-4.0-0.51","","img/blue.png","32","trial","null","false","0.2,0.8","2:nogo_b","",""
"null","","html-keyboard-response","193","243963","0.0-4.0-1.51","","<img src=""img/blue-n.png"" border=""10"">","null","trial","null","","0.2,0.8","2:nogo_b","0",""
"null","","html-keyboard-response","194","244963","0.0-4.0-2.51","","<div style=""font-size:60px;"">+</div>","null","","","","","","",""
"409.0849999920465","","image-keyboard-response","195","245374","0.0-4.0-0.52","","img/red.png","32","trial","32","true","0.8,0.2","1:go_a","",""
"null","","html-keyboard-response","196","246377","0.0-4.0-1.52","","<img src=""img/red-r.png"" border=""10"">","null","trial","32","","0.8,0.2","1:go_a","1",""
"null","","html-keyboard-response","197","247380","0.0-4.0-2.52","","<div style=""font-size:60px;"">+</div>","null","","","","","","",""
"null","","image-keyboard-response","198","248883","0.0-4.0-0.53","","img/blue.png","null","trial","null","true","0.2,0.8","2:nogo_b","",""
"null","","html-keyboard-response","199","249885","0.0-4.0-1.53","","<img src=""img/blue-r.png"">","null","trial","null","","0.2,0.8","2:nogo_b","1",""
"null","","html-keyboard-response","200","250886","0.0-4.0-2.53","","<div style=""font-size:60px;"">+</div>","null","","","","","","",""
"205.15500000328757","","image-keyboard-response","201","251092","0.0-4.0-0.54","","img/blue.png","32","trial","null","false","0.2,0.8","2:nogo_b","",""
"null","","html-keyboard-response","202","252093","0.0-4.0-1.54","","<img src=""img/blue-n.png"" border=""10"">","null","trial","null","","0.2,0.8","2:nogo_b","0",""
"null","","html-keyboard-response","203","253094","0.0-4.0-2.54","","<div style=""font-size:60px;"">+</div>","null","","","","","","",""
"525.1050000078976","","image-keyboard-response","204","253620","0.0-4.0-0.55","","img/red.png","32","trial","32","true","0.8,0.2","1:go_a","",""
"null","","html-keyboard-response","205","254622","0.0-4.0-1.55","","<img src=""img/red-n.png"" border=""10"">","null","trial","32","","0.8,0.2","1:go_a","0",""
"null","","html-keyboard-response","206","255624","0.0-4.0-2.55","","<div style=""font-size:60px;"">+</div>","null","","","","","","",""
"743.3400000154506","","image-keyboard-response","207","256368","0.0-4.0-0.56","","img/red.png","32","trial","32","true","0.8,0.2","1:go_a","",""
"null","","html-keyboard-response","208","257372","0.0-4.0-1.56","","<img src=""img/red-r.png"" border=""10"">","null","trial","32","","0.8,0.2","1:go_a","1",""
"null","","html-keyboard-response","209","258375","0.0-4.0-2.56","","<div style=""font-size:60px;"">+</div>","null","","","","","","",""
"null","","image-keyboard-response","210","259876","0.0-4.0-0.57","","img/blue.png","null","trial","null","true","0.2,0.8","2:nogo_b","",""
"null","","html-keyboard-response","211","260878","0.0-4.0-1.57","","<img src=""img/blue-r.png"">","null","trial","null","","0.2,0.8","2:nogo_b","1",""
"null","","html-keyboard-response","212","261879","0.0-4.0-2.57","","<div style=""font-size:60px;"">+</div>","null","","","","","","",""
"null","","image-keyboard-response","213","263381","0.0-4.0-0.58","","img/blue.png","null","trial","null","true","0.2,0.8","2:nogo_b","",""
"null","","html-keyboard-response","214","264383","0.0-4.0-1.58","","<img src=""img/blue-r.png"">","null","trial","null","","0.2,0.8","2:nogo_b","1",""
"null","","html-keyboard-response","215","265384","0.0-4.0-2.58","","<div style=""font-size:60px;"">+</div>","null","","","","","","",""
"539.5250000001397","","image-keyboard-response","216","265925","0.0-4.0-0.59","","img/red.png","32","trial","32","true","0.8,0.2","1:go_a","",""
"null","","html-keyboard-response","217","266927","0.0-4.0-1.59","","<img src=""img/red-r.png"" border=""10"">","null","trial","32","","0.8,0.2","1:go_a","1",""
"null","","html-keyboard-response","218","267928","0.0-4.0-2.59","","<div style=""font-size:60px;"">+</div>","null","","","","","","",""
"1528.3399999898393","","instructions","219","269457","0.0-5.0","[{""page_index"":0,""viewing_time"":1528.1299999915063}]","","","","","","","","",""
"917.8850000025705","","image-keyboard-response","220","270376","0.0-6.0-0.0","","img/green.png","32","trial","32","true","0.8,0.2","1:go_a","",""
"null","","html-keyboard-response","221","271377","0.0-6.0-1.0","","<img src=""img/green-r.png"" border=""10"">","null","trial","32","","0.8,0.2","1:go_a","1",""
"null","","html-keyboard-response","222","272379","0.0-6.0-2.0","","<div style=""font-size:60px;"">+</div>","null","","","","","","",""
"305.40499999187887","","image-keyboard-response","223","272685","0.0-6.0-0.1","","img/grey.png","32","trial","32","true","0.8,0.2","3:go_c","",""
"null","","html-keyboard-response","224","273689","0.0-6.0-1.1","","<img src=""img/grey-r.png"" border=""10"">","null","trial","32","","0.8,0.2","3:go_c","1",""
"null","","html-keyboard-response","225","274690","0.0-6.0-2.1","","<div style=""font-size:60px;"">+</div>","null","","","","","","",""
"364.88000000827014","","image-keyboard-response","226","275055","0.0-6.0-0.2","","img/red.png","32","trial","null","false","0.2,0.8","2:nogo_b","",""
"null","","html-keyboard-response","227","276059","0.0-6.0-1.2","","<img src=""img/red-n.png"" border=""10"">","null","trial","null","","0.2,0.8","2:nogo_b","0",""
"null","","html-keyboard-response","228","277061","0.0-6.0-2.2","","<div style=""font-size:60px;"">+</div>","null","","","","","","",""
"559.6199999854434","","image-keyboard-response","229","277622","0.0-6.0-0.3","","img/blue.png","32","trial","null","false","0.2,0.8","4:nogo_d","",""
"null","","html-keyboard-response","230","278624","0.0-6.0-1.3","","<img src=""img/blue-n.png"" border=""10"">","null","trial","null","","0.2,0.8","4:nogo_d","0",""
"null","","html-keyboard-response","231","279624","0.0-6.0-2.3","","<div style=""font-size:60px;"">+</div>","null","","","","","","",""
"618.4549999888986","","image-keyboard-response","232","280244","0.0-6.0-0.4","","img/red.png","32","trial","null","false","0.2,0.8","2:nogo_b","",""
"null","","html-keyboard-response","233","281246","0.0-6.0-1.4","","<img src=""img/red-n.png"" border=""10"">","null","trial","null","","0.2,0.8","2:nogo_b","0",""
"null","","html-keyboard-response","234","282249","0.0-6.0-2.4","","<div style=""font-size:60px;"">+</div>","null","","","","","","",""
"531.0499999905005","","image-keyboard-response","235","282781","0.0-6.0-0.5","","img/grey.png","32","trial","32","true","0.8,0.2","3:go_c","",""
"null","","html-keyboard-response","236","283784","0.0-6.0-1.5","","<img src=""img/grey-r.png"" border=""10"">","null","trial","32","","0.8,0.2","3:go_c","1",""
"null","","html-keyboard-response","237","284785","0.0-6.0-2.5","","<div style=""font-size:60px;"">+</div>","null","","","","","","",""
"392.070000001695","","image-keyboard-response","238","285179","0.0-6.0-0.6","","img/green.png","32","trial","32","true","0.8,0.2","1:go_a","",""
"null","","html-keyboard-response","239","286182","0.0-6.0-1.6","","<img src=""img/green-n.png"" border=""10"">","null","trial","32","","0.8,0.2","1:go_a","0",""
"null","","html-keyboard-response","240","287183","0.0-6.0-2.6","","<div style=""font-size:60px;"">+</div>","null","","","","","","",""
"null","","image-keyboard-response","241","288685","0.0-6.0-0.7","","img/blue.png","null","trial","null","true","0.2,0.8","4:nogo_d","",""
"null","","html-keyboard-response","242","289688","0.0-6.0-1.7","","<img src=""img/blue-r.png"">","null","trial","null","","0.2,0.8","4:nogo_d","1",""
"null","","html-keyboard-response","243","290689","0.0-6.0-2.7","","<div style=""font-size:60px;"">+</div>","null","","","","","","",""
"711.5850000118371","","image-keyboard-response","244","291402","0.0-6.0-0.8","","img/grey.png","32","trial","32","true","0.8,0.2","3:go_c","",""
"null","","html-keyboard-response","245","292405","0.0-6.0-1.8","","<img src=""img/grey-r.png"" border=""10"">","null","trial","32","","0.8,0.2","3:go_c","1",""
"null","","html-keyboard-response","246","293407","0.0-6.0-2.8","","<div style=""font-size:60px;"">+</div>","null","","","","","","",""
"856.9549999956507","","image-keyboard-response","247","294265","0.0-6.0-0.9","","img/blue.png","32","trial","null","false","0.2,0.8","4:nogo_d","",""
"null","","html-keyboard-response","248","295268","0.0-6.0-1.9","","<img src=""img/blue-n.png"" border=""10"">","null","trial","null","","0.2,0.8","4:nogo_d","0",""
"null","","html-keyboard-response","249","296270","0.0-6.0-2.9","","<div style=""font-size:60px;"">+</div>","null","","","","","","",""
"null","","image-keyboard-response","250","297773","0.0-6.0-0.10","","img/red.png","null","trial","null","true","0.2,0.8","2:nogo_b","",""
"null","","html-keyboard-response","251","298777","0.0-6.0-1.10","","<img src=""img/red-n.png"">","null","trial","null","","0.2,0.8","2:nogo_b","0",""
"null","","html-keyboard-response","252","299778","0.0-6.0-2.10","","<div style=""font-size:60px;"">+</div>","null","","","","","","",""
"712.4849999963772","","image-keyboard-response","253","300492","0.0-6.0-0.11","","img/green.png","32","trial","32","true","0.8,0.2","1:go_a","",""
"null","","html-keyboard-response","254","301494","0.0-6.0-1.11","","<img src=""img/green-r.png"" border=""10"">","null","trial","32","","0.8,0.2","1:go_a","1",""
"null","","html-keyboard-response","255","302496","0.0-6.0-2.11","","<div style=""font-size:60px;"">+</div>","null","","","","","","",""
"null","","image-keyboard-response","256","303997","0.0-6.0-0.12","","img/red.png","null","trial","null","true","0.2,0.8","2:nogo_b","",""
"null","","html-keyboard-response","257","305001","0.0-6.0-1.12","","<img src=""img/red-r.png"">","null","trial","null","","0.2,0.8","2:nogo_b","1",""
"null","","html-keyboard-response","258","306002","0.0-6.0-2.12","","<div style=""font-size:60px;"">+</div>","null","","","","","","",""
"791.2749999959487","","image-keyboard-response","259","306794","0.0-6.0-0.13","","img/green.png","32","trial","32","true","0.8,0.2","1:go_a","",""
"null","","html-keyboard-response","260","307795","0.0-6.0-1.13","","<img src=""img/green-n.png"" border=""10"">","null","trial","32","","0.8,0.2","1:go_a","0",""
"null","","html-keyboard-response","261","308796","0.0-6.0-2.13","","<div style=""font-size:60px;"">+</div>","null","","","","","","",""
"null","","image-keyboard-response","262","310298","0.0-6.0-0.14","","img/blue.png","null","trial","null","true","0.2,0.8","4:nogo_d","",""
"null","","html-keyboard-response","263","311303","0.0-6.0-1.14","","<img src=""img/blue-n.png"">","null","trial","null","","0.2,0.8","4:nogo_d","0",""
"null","","html-keyboard-response","264","312306","0.0-6.0-2.14","","<div style=""font-size:60px;"">+</div>","null","","","","","","",""
"931.9450000184588","","image-keyboard-response","265","313239","0.0-6.0-0.15","","img/grey.png","32","trial","32","true","0.8,0.2","3:go_c","",""
"null","","html-keyboard-response","266","314241","0.0-6.0-1.15","","<img src=""img/grey-n.png"" border=""10"">","null","trial","32","","0.8,0.2","3:go_c","0",""
"null","","html-keyboard-response","267","315242","0.0-6.0-2.15","","<div style=""font-size:60px;"">+</div>","null","","","","","","",""
"578.8750000065193","","image-keyboard-response","268","315822","0.0-6.0-0.16","","img/green.png","32","trial","32","true","0.8,0.2","1:go_a","",""
"null","","html-keyboard-response","269","316825","0.0-6.0-1.16","","<img src=""img/green-r.png"" border=""10"">","null","trial","32","","0.8,0.2","1:go_a","1",""
"null","","html-keyboard-response","270","317826","0.0-6.0-2.16","","<div style=""font-size:60px;"">+</div>","null","","","","","","",""
"null","","image-keyboard-response","271","319327","0.0-6.0-0.17","","img/blue.png","null","trial","null","true","0.2,0.8","4:nogo_d","",""
"null","","html-keyboard-response","272","320331","0.0-6.0-1.17","","<img src=""img/blue-r.png"">","null","trial","null","","0.2,0.8","4:nogo_d","1",""
"null","","html-keyboard-response","273","321333","0.0-6.0-2.17","","<div style=""font-size:60px;"">+</div>","null","","","","","","",""
"864.6549999830313","","image-keyboard-response","274","322199","0.0-6.0-0.18","","img/red.png","32","trial","null","false","0.2,0.8","2:nogo_b","",""
"null","","html-keyboard-response","275","323201","0.0-6.0-1.18","","<img src=""img/red-n.png"" border=""10"">","null","trial","null","","0.2,0.8","2:nogo_b","0",""
"null","","html-keyboard-response","276","324203","0.0-6.0-2.18","","<div style=""font-size:60px;"">+</div>","null","","","","","","",""
"459.2399999964982","","image-keyboard-response","277","324663","0.0-6.0-0.19","","img/grey.png","32","trial","32","true","0.8,0.2","3:go_c","",""
"null","","html-keyboard-response","278","325667","0.0-6.0-1.19","","<img src=""img/grey-r.png"" border=""10"">","null","trial","32","","0.8,0.2","3:go_c","1",""
"null","","html-keyboard-response","279","326670","0.0-6.0-2.19","","<div style=""font-size:60px;"">+</div>","null","","","","","","",""
"648.4349999809638","","image-keyboard-response","280","327319","0.0-6.0-0.20","","img/green.png","32","trial","32","true","0.8,0.2","1:go_a","",""
"null","","html-keyboard-response","281","328321","0.0-6.0-1.20","","<img src=""img/green-r.png"" border=""10"">","null","trial","32","","0.8,0.2","1:go_a","1",""
"null","","html-keyboard-response","282","329322","0.0-6.0-2.20","","<div style=""font-size:60px;"">+</div>","null","","","","","","",""
"null","","image-keyboard-response","283","330825","0.0-6.0-0.21","","img/blue.png","null","trial","null","true","0.2,0.8","4:nogo_d","",""
"null","","html-keyboard-response","284","331828","0.0-6.0-1.21","","<img src=""img/blue-r.png"">","null","trial","null","","0.2,0.8","4:nogo_d","1",""
"null","","html-keyboard-response","285","332829","0.0-6.0-2.21","","<div style=""font-size:60px;"">+</div>","null","","","","","","",""
"431.67499999981374","","image-keyboard-response","286","333261","0.0-6.0-0.22","","img/red.png","32","trial","null","false","0.2,0.8","2:nogo_b","",""
"null","","html-keyboard-response","287","334264","0.0-6.0-1.22","","<img src=""img/red-n.png"" border=""10"">","null","trial","null","","0.2,0.8","2:nogo_b","0",""
"null","","html-keyboard-response","288","335265","0.0-6.0-2.22","","<div style=""font-size:60px;"">+</div>","null","","","","","","",""
"566.5250000020023","","image-keyboard-response","289","335833","0.0-6.0-0.23","","img/grey.png","32","trial","32","true","0.8,0.2","3:go_c","",""
"null","","html-keyboard-response","290","336836","0.0-6.0-1.23","","<img src=""img/grey-r.png"" border=""10"">","null","trial","32","","0.8,0.2","3:go_c","1",""
"null","","html-keyboard-response","291","337837","0.0-6.0-2.23","","<div style=""font-size:60px;"">+</div>","null","","","","","","",""
"1006.0900000098627","","image-keyboard-response","292","338844","0.0-6.0-0.24","","img/blue.png","32","trial","null","false","0.2,0.8","4:nogo_d","",""
"null","","html-keyboard-response","293","339845","0.0-6.0-1.24","","<img src=""img/blue-r.png"" border=""10"">","null","trial","null","","0.2,0.8","4:nogo_d","1",""
"null","","html-keyboard-response","294","340847","0.0-6.0-2.24","","<div style=""font-size:60px;"">+</div>","null","","","","","","",""
"670.9749999863561","","image-keyboard-response","295","341520","0.0-6.0-0.25","","img/green.png","32","trial","32","true","0.8,0.2","1:go_a","",""
"null","","html-keyboard-response","296","342521","0.0-6.0-1.25","","<img src=""img/green-n.png"" border=""10"">","null","trial","32","","0.8,0.2","1:go_a","0",""
"null","","html-keyboard-response","297","343523","0.0-6.0-2.25","","<div style=""font-size:60px;"">+</div>","null","","","","","","",""
"null","","image-keyboard-response","298","345024","0.0-6.0-0.26","","img/red.png","null","trial","null","true","0.2,0.8","2:nogo_b","",""
"null","","html-keyboard-response","299","346028","0.0-6.0-1.26","","<img src=""img/red-r.png"">","null","trial","null","","0.2,0.8","2:nogo_b","1",""
"null","","html-keyboard-response","300","347029","0.0-6.0-2.26","","<div style=""font-size:60px;"">+</div>","null","","","","","","",""
"806.7249999730848","","image-keyboard-response","301","347837","0.0-6.0-0.27","","img/grey.png","32","trial","32","true","0.8,0.2","3:go_c","",""
"null","","html-keyboard-response","302","348840","0.0-6.0-1.27","","<img src=""img/grey-r.png"" border=""10"">","null","trial","32","","0.8,0.2","3:go_c","1",""
"null","","html-keyboard-response","303","349842","0.0-6.0-2.27","","<div style=""font-size:60px;"">+</div>","null","","","","","","",""
"434.385000000475","","image-keyboard-response","304","350278","0.0-6.0-0.28","","img/green.png","32","trial","32","true","0.8,0.2","1:go_a","",""
"null","","html-keyboard-response","305","351280","0.0-6.0-1.28","","<img src=""img/green-r.png"" border=""10"">","null","trial","32","","0.8,0.2","1:go_a","1",""
"null","","html-keyboard-response","306","352281","0.0-6.0-2.28","","<div style=""font-size:60px;"">+</div>","null","","","","","","",""
"null","","image-keyboard-response","307","353784","0.0-6.0-0.29","","img/blue.png","null","trial","null","true","0.2,0.8","4:nogo_d","",""
"null","","html-keyboard-response","308","354787","0.0-6.0-1.29","","<img src=""img/blue-r.png"">","null","trial","null","","0.2,0.8","4:nogo_d","1",""
"null","","html-keyboard-response","309","355789","0.0-6.0-2.29","","<div style=""font-size:60px;"">+</div>","null","","","","","","",""
"null","","image-keyboard-response","310","357291","0.0-6.0-0.30","","img/red.png","null","trial","null","true","0.2,0.8","2:nogo_b","",""
"null","","html-keyboard-response","311","358295","0.0-6.0-1.30","","<img src=""img/red-n.png"">","null","trial","null","","0.2,0.8","2:nogo_b","0",""
"null","","html-keyboard-response","312","359296","0.0-6.0-2.30","","<div style=""font-size:60px;"">+</div>","null","","","","","","",""
"400.034999998752","","image-keyboard-response","313","359697","0.0-6.0-0.31","","img/grey.png","32","trial","32","true","0.8,0.2","3:go_c","",""
"null","","html-keyboard-response","314","360700","0.0-6.0-1.31","","<img src=""img/grey-r.png"" border=""10"">","null","trial","32","","0.8,0.2","3:go_c","1",""
"null","","html-keyboard-response","315","361701","0.0-6.0-2.31","","<div style=""font-size:60px;"">+</div>","null","","","","","","",""
"481.8500000110362","","image-keyboard-response","316","362184","0.0-6.0-0.32","","img/grey.png","32","trial","32","true","0.8,0.2","3:go_c","",""
"null","","html-keyboard-response","317","363187","0.0-6.0-1.32","","<img src=""img/grey-r.png"" border=""10"">","null","trial","32","","0.8,0.2","3:go_c","1",""
"null","","html-keyboard-response","318","364188","0.0-6.0-2.32","","<div style=""font-size:60px;"">+</div>","null","","","","","","",""
"null","","image-keyboard-response","319","365690","0.0-6.0-0.33","","img/blue.png","null","trial","null","true","0.2,0.8","4:nogo_d","",""
"null","","html-keyboard-response","320","366692","0.0-6.0-1.33","","<img src=""img/blue-r.png"">","null","trial","null","","0.2,0.8","4:nogo_d","1",""
"null","","html-keyboard-response","321","367693","0.0-6.0-2.33","","<div style=""font-size:60px;"">+</div>","null","","","","","","",""
"null","","image-keyboard-response","322","369194","0.0-6.0-0.34","","img/red.png","null","trial","null","true","0.2,0.8","2:nogo_b","",""
"null","","html-keyboard-response","323","370197","0.0-6.0-1.34","","<img src=""img/red-n.png"">","null","trial","null","","0.2,0.8","2:nogo_b","0",""
"null","","html-keyboard-response","324","371199","0.0-6.0-2.34","","<div style=""font-size:60px;"">+</div>","null","","","","","","",""
"745.264999975916","","image-keyboard-response","325","371946","0.0-6.0-0.35","","img/green.png","32","trial","32","true","0.8,0.2","1:go_a","",""
"null","","html-keyboard-response","326","372949","0.0-6.0-1.35","","<img src=""img/green-r.png"" border=""10"">","null","trial","32","","0.8,0.2","1:go_a","1",""
"null","","html-keyboard-response","327","373950","0.0-6.0-2.35","","<div style=""font-size:60px;"">+</div>","null","","","","","","",""
"null","","image-keyboard-response","328","375452","0.0-6.0-0.36","","img/blue.png","null","trial","null","true","0.2,0.8","4:nogo_d","",""
"null","","html-keyboard-response","329","376454","0.0-6.0-1.36","","<img src=""img/blue-r.png"">","null","trial","null","","0.2,0.8","4:nogo_d","1",""
"null","","html-keyboard-response","330","377456","0.0-6.0-2.36","","<div style=""font-size:60px;"">+</div>","null","","","","","","",""
"765.2100000123028","","image-keyboard-response","331","378222","0.0-6.0-0.37","","img/green.png","32","trial","32","true","0.8,0.2","1:go_a","",""
"null","","html-keyboard-response","332","379223","0.0-6.0-1.37","","<img src=""img/green-r.png"" border=""10"">","null","trial","32","","0.8,0.2","1:go_a","1",""
"null","","html-keyboard-response","333","380226","0.0-6.0-2.37","","<div style=""font-size:60px;"">+</div>","null","","","","","","",""
"520.1599999854807","","image-keyboard-response","334","380748","0.0-6.0-0.38","","img/grey.png","32","trial","32","true","0.8,0.2","3:go_c","",""
"null","","html-keyboard-response","335","381750","0.0-6.0-1.38","","<img src=""img/grey-r.png"" border=""10"">","null","trial","32","","0.8,0.2","3:go_c","1",""
"null","","html-keyboard-response","336","382752","0.0-6.0-2.38","","<div style=""font-size:60px;"">+</div>","null","","","","","","",""
"null","","image-keyboard-response","337","384255","0.0-6.0-0.39","","img/red.png","null","trial","null","true","0.2,0.8","2:nogo_b","",""
"null","","html-keyboard-response","338","385257","0.0-6.0-1.39","","<img src=""img/red-r.png"">","null","trial","null","","0.2,0.8","2:nogo_b","1",""
"null","","html-keyboard-response","339","386258","0.0-6.0-2.39","","<div style=""font-size:60px;"">+</div>","null","","","","","","",""
"358.42000000411645","","image-keyboard-response","340","386618","0.0-6.0-0.40","","img/blue.png","32","trial","null","false","0.2,0.8","4:nogo_d","",""
"null","","html-keyboard-response","341","387620","0.0-6.0-1.40","","<img src=""img/blue-n.png"" border=""10"">","null","trial","null","","0.2,0.8","4:nogo_d","0",""
"null","","html-keyboard-response","342","388622","0.0-6.0-2.40","","<div style=""font-size:60px;"">+</div>","null","","","","","","",""
"null","","image-keyboard-response","343","390123","0.0-6.0-0.41","","img/red.png","null","trial","null","true","0.2,0.8","2:nogo_b","",""
"null","","html-keyboard-response","344","391125","0.0-6.0-1.41","","<img src=""img/red-r.png"">","null","trial","null","","0.2,0.8","2:nogo_b","1",""
"null","","html-keyboard-response","345","392126","0.0-6.0-2.41","","<div style=""font-size:60px;"">+</div>","null","","","","","","",""
"702.9299999994691","","image-keyboard-response","346","392830","0.0-6.0-0.42","","img/grey.png","32","trial","32","true","0.8,0.2","3:go_c","",""
"null","","html-keyboard-response","347","393832","0.0-6.0-1.42","","<img src=""img/grey-r.png"" border=""10"">","null","trial","32","","0.8,0.2","3:go_c","1",""
"null","","html-keyboard-response","348","394834","0.0-6.0-2.42","","<div style=""font-size:60px;"">+</div>","null","","","","","","",""
"653.1949999916833","","image-keyboard-response","349","395488","0.0-6.0-0.43","","img/green.png","32","trial","32","true","0.8,0.2","1:go_a","",""
"null","","html-keyboard-response","350","396489","0.0-6.0-1.43","","<img src=""img/green-r.png"" border=""10"">","null","trial","32","","0.8,0.2","1:go_a","1",""
"null","","html-keyboard-response","351","397490","0.0-6.0-2.43","","<div style=""font-size:60px;"">+</div>","null","","","","","","",""
"429.97499997727573","","image-keyboard-response","352","397921","0.0-6.0-0.44","","img/green.png","32","trial","32","true","0.8,0.2","1:go_a","",""
"null","","html-keyboard-response","353","398922","0.0-6.0-1.44","","<img src=""img/green-n.png"" border=""10"">","null","trial","32","","0.8,0.2","1:go_a","0",""
"null","","html-keyboard-response","354","399923","0.0-6.0-2.44","","<div style=""font-size:60px;"">+</div>","null","","","","","","",""
"638.5249999875668","","image-keyboard-response","355","400563","0.0-6.0-0.45","","img/blue.png","32","trial","null","false","0.2,0.8","4:nogo_d","",""
"null","","html-keyboard-response","356","401565","0.0-6.0-1.45","","<img src=""img/blue-r.png"" border=""10"">","null","trial","null","","0.2,0.8","4:nogo_d","1",""
"null","","html-keyboard-response","357","402566","0.0-6.0-2.45","","<div style=""font-size:60px;"">+</div>","null","","","","","","",""
"491.92000000039116","","image-keyboard-response","358","403059","0.0-6.0-0.46","","img/grey.png","32","trial","32","true","0.8,0.2","3:go_c","",""
"null","","html-keyboard-response","359","404062","0.0-6.0-1.46","","<img src=""img/grey-r.png"" border=""10"">","null","trial","32","","0.8,0.2","3:go_c","1",""
"null","","html-keyboard-response","360","405063","0.0-6.0-2.46","","<div style=""font-size:60px;"">+</div>","null","","","","","","",""
"734.7499999741558","","image-keyboard-response","361","405798","0.0-6.0-0.47","","img/red.png","32","trial","null","false","0.2,0.8","2:nogo_b","",""
"null","","html-keyboard-response","362","406802","0.0-6.0-1.47","","<img src=""img/red-n.png"" border=""10"">","null","trial","null","","0.2,0.8","2:nogo_b","0",""
"null","","html-keyboard-response","363","407805","0.0-6.0-2.47","","<div style=""font-size:60px;"">+</div>","null","","","","","","",""
"null","","image-keyboard-response","364","409307","0.0-6.0-0.48","","img/red.png","null","trial","null","true","0.2,0.8","2:nogo_b","",""
"null","","html-keyboard-response","365","410309","0.0-6.0-1.48","","<img src=""img/red-n.png"">","null","trial","null","","0.2,0.8","2:nogo_b","0",""
"null","","html-keyboard-response","366","411310","0.0-6.0-2.48","","<div style=""font-size:60px;"">+</div>","null","","","","","","",""
"613.9400000101887","","image-keyboard-response","367","411926","0.0-6.0-0.49","","img/green.png","32","trial","32","true","0.8,0.2","1:go_a","",""
"null","","html-keyboard-response","368","412927","0.0-6.0-1.49","","<img src=""img/green-r.png"" border=""10"">","null","trial","32","","0.8,0.2","1:go_a","1",""
"null","","html-keyboard-response","369","413929","0.0-6.0-2.49","","<div style=""font-size:60px;"">+</div>","null","","","","","","",""
"402.9349999909755","","image-keyboard-response","370","414333","0.0-6.0-0.50","","img/grey.png","32","trial","32","true","0.8,0.2","3:go_c","",""
"null","","html-keyboard-response","371","415335","0.0-6.0-1.50","","<img src=""img/grey-r.png"" border=""10"">","null","trial","32","","0.8,0.2","3:go_c","1",""
"null","","html-keyboard-response","372","416336","0.0-6.0-2.50","","<div style=""font-size:60px;"">+</div>","null","","","","","","",""
"null","","image-keyboard-response","373","417840","0.0-6.0-0.51","","img/blue.png","null","trial","null","true","0.2,0.8","4:nogo_d","",""
"null","","html-keyboard-response","374","418843","0.0-6.0-1.51","","<img src=""img/blue-r.png"">","null","trial","null","","0.2,0.8","4:nogo_d","1",""
"null","","html-keyboard-response","375","419846","0.0-6.0-2.51","","<div style=""font-size:60px;"">+</div>","null","","","","","","",""
"null","","image-keyboard-response","376","421348","0.0-6.0-0.52","","img/red.png","null","trial","null","true","0.2,0.8","2:nogo_b","",""
"null","","html-keyboard-response","377","422350","0.0-6.0-1.52","","<img src=""img/red-r.png"">","null","trial","null","","0.2,0.8","2:nogo_b","1",""
"null","","html-keyboard-response","378","423351","0.0-6.0-2.52","","<div style=""font-size:60px;"">+</div>","null","","","","","","",""
"513.1649999821093","","image-keyboard-response","379","423865","0.0-6.0-0.53","","img/blue.png","32","trial","null","false","0.2,0.8","4:nogo_d","",""
"null","","html-keyboard-response","380","424866","0.0-6.0-1.53","","<img src=""img/blue-n.png"" border=""10"">","null","trial","null","","0.2,0.8","4:nogo_d","0",""
"null","","html-keyboard-response","381","425867","0.0-6.0-2.53","","<div style=""font-size:60px;"">+</div>","null","","","","","","",""
"551.8800000136252","","image-keyboard-response","382","426420","0.0-6.0-0.54","","img/grey.png","32","trial","32","true","0.8,0.2","3:go_c","",""
"null","","html-keyboard-response","383","427423","0.0-6.0-1.54","","<img src=""img/grey-r.png"" border=""10"">","null","trial","32","","0.8,0.2","3:go_c","1",""
"null","","html-keyboard-response","384","428424","0.0-6.0-2.54","","<div style=""font-size:60px;"">+</div>","null","","","","","","",""
"329.25999999861233","","image-keyboard-response","385","428754","0.0-6.0-0.55","","img/green.png","32","trial","32","true","0.8,0.2","1:go_a","",""
"null","","html-keyboard-response","386","429756","0.0-6.0-1.55","","<img src=""img/green-r.png"" border=""10"">","null","trial","32","","0.8,0.2","1:go_a","1",""
"null","","html-keyboard-response","387","430759","0.0-6.0-2.55","","<div style=""font-size:60px;"">+</div>","null","","","","","","",""
"525.1699999789707","","image-keyboard-response","388","431285","0.0-6.0-0.56","","img/green.png","32","trial","32","true","0.8,0.2","1:go_a","",""
"null","","html-keyboard-response","389","432286","0.0-6.0-1.56","","<img src=""img/green-n.png"" border=""10"">","null","trial","32","","0.8,0.2","1:go_a","0",""
"null","","html-keyboard-response","390","433288","0.0-6.0-2.56","","<div style=""font-size:60px;"">+</div>","null","","","","","","",""
"null","","image-keyboard-response","391","434789","0.0-6.0-0.57","","img/red.png","null","trial","null","true","0.2,0.8","2:nogo_b","",""
"null","","html-keyboard-response","392","435792","0.0-6.0-1.57","","<img src=""img/red-r.png"">","null","trial","null","","0.2,0.8","2:nogo_b","1",""
"null","","html-keyboard-response","393","436794","0.0-6.0-2.57","","<div style=""font-size:60px;"">+</div>","null","","","","","","",""
"505.47499998356216","","image-keyboard-response","394","437301","0.0-6.0-0.58","","img/grey.png","32","trial","32","true","0.8,0.2","3:go_c","",""
"null","","html-keyboard-response","395","438305","0.0-6.0-1.58","","<img src=""img/grey-r.png"" border=""10"">","null","trial","32","","0.8,0.2","3:go_c","1",""
"null","","html-keyboard-response","396","439307","0.0-6.0-2.58","","<div style=""font-size:60px;"">+</div>","null","","","","","","",""
"559.0849999862257","","image-keyboard-response","397","439866","0.0-6.0-0.59","","img/blue.png","32","trial","null","false","0.2,0.8","4:nogo_d","",""
"null","","html-keyboard-response","398","440870","0.0-6.0-1.59","","<img src=""img/blue-r.png"" border=""10"">","null","trial","null","","0.2,0.8","4:nogo_d","1",""
"null","","html-keyboard-response","399","441873","0.0-6.0-2.59","","<div style=""font-size:60px;"">+</div>","null","","","","","","",""
"null","","image-keyboard-response","400","443374","0.0-6.0-0.60","","img/red.png","null","trial","null","true","0.2,0.8","2:nogo_b","",""
"null","","html-keyboard-response","401","444376","0.0-6.0-1.60","","<img src=""img/red-n.png"">","null","trial","null","","0.2,0.8","2:nogo_b","0",""
"null","","html-keyboard-response","402","445379","0.0-6.0-2.60","","<div style=""font-size:60px;"">+</div>","null","","","","","","",""
"473.99999998742715","","image-keyboard-response","403","445854","0.0-6.0-0.61","","img/green.png","32","trial","32","true","0.8,0.2","1:go_a","",""
"null","","html-keyboard-response","404","446856","0.0-6.0-1.61","","<img src=""img/green-r.png"" border=""10"">","null","trial","32","","0.8,0.2","1:go_a","1",""
"null","","html-keyboard-response","405","447857","0.0-6.0-2.61","","<div style=""font-size:60px;"">+</div>","null","","","","","","",""
"851.4200000208803","","image-keyboard-response","406","448709","0.0-6.0-0.62","","img/blue.png","32","trial","null","false","0.2,0.8","4:nogo_d","",""
"null","","html-keyboard-response","407","449713","0.0-6.0-1.62","","<img src=""img/blue-n.png"" border=""10"">","null","trial","null","","0.2,0.8","4:nogo_d","0",""
"null","","html-keyboard-response","408","450715","0.0-6.0-2.62","","<div style=""font-size:60px;"">+</div>","null","","","","","","",""
"438.48500002059154","","image-keyboard-response","409","451154","0.0-6.0-0.63","","img/grey.png","32","trial","32","true","0.8,0.2","3:go_c","",""
"null","","html-keyboard-response","410","452156","0.0-6.0-1.63","","<img src=""img/grey-n.png"" border=""10"">","null","trial","32","","0.8,0.2","3:go_c","0",""
"null","","html-keyboard-response","411","453158","0.0-6.0-2.63","","<div style=""font-size:60px;"">+</div>","null","","","","","","",""
"448.08000000193715","","image-keyboard-response","412","453607","0.0-6.0-0.64","","img/green.png","32","trial","32","true","0.8,0.2","1:go_a","",""
"null","","html-keyboard-response","413","454609","0.0-6.0-1.64","","<img src=""img/green-r.png"" border=""10"">","null","trial","32","","0.8,0.2","1:go_a","1",""
"null","","html-keyboard-response","414","455613","0.0-6.0-2.64","","<div style=""font-size:60px;"">+</div>","null","","","","","","",""
"null","","image-keyboard-response","415","457115","0.0-6.0-0.65","","img/blue.png","null","trial","null","true","0.2,0.8","4:nogo_d","",""
"null","","html-keyboard-response","416","458118","0.0-6.0-1.65","","<img src=""img/blue-r.png"">","null","trial","null","","0.2,0.8","4:nogo_d","1",""
"null","","html-keyboard-response","417","459119","0.0-6.0-2.65","","<div style=""font-size:60px;"">+</div>","null","","","","","","",""
"424.0249999857042","","image-keyboard-response","418","459544","0.0-6.0-0.66","","img/grey.png","32","trial","32","true","0.8,0.2","3:go_c","",""
"null","","html-keyboard-response","419","460546","0.0-6.0-1.66","","<img src=""img/grey-n.png"" border=""10"">","null","trial","32","","0.8,0.2","3:go_c","0",""
"null","","html-keyboard-response","420","461547","0.0-6.0-2.66","","<div style=""font-size:60px;"">+</div>","null","","","","","","",""
"null","","image-keyboard-response","421","463048","0.0-6.0-0.67","","img/red.png","null","trial","null","true","0.2,0.8","2:nogo_b","",""
"null","","html-keyboard-response","422","464050","0.0-6.0-1.67","","<img src=""img/red-r.png"">","null","trial","null","","0.2,0.8","2:nogo_b","1",""
"null","","html-keyboard-response","423","465052","0.0-6.0-2.67","","<div style=""font-size:60px;"">+</div>","null","","","","","","",""
"501.0249999759253","","image-keyboard-response","424","465554","0.0-6.0-0.68","","img/green.png","32","trial","32","true","0.8,0.2","1:go_a","",""
"null","","html-keyboard-response","425","466556","0.0-6.0-1.68","","<img src=""img/green-r.png"" border=""10"">","null","trial","32","","0.8,0.2","1:go_a","1",""
"null","","html-keyboard-response","426","467557","0.0-6.0-2.68","","<div style=""font-size:60px;"">+</div>","null","","","","","","",""
"948.6399999877904","","image-keyboard-response","427","468507","0.0-6.0-0.69","","img/blue.png","32","trial","null","false","0.2,0.8","4:nogo_d","",""
"null","","html-keyboard-response","428","469508","0.0-6.0-1.69","","<img src=""img/blue-r.png"" border=""10"">","null","trial","null","","0.2,0.8","4:nogo_d","1",""
"null","","html-keyboard-response","429","470509","0.0-6.0-2.69","","<div style=""font-size:60px;"">+</div>","null","","","","","","",""
"null","","image-keyboard-response","430","472010","0.0-6.0-0.70","","img/red.png","null","trial","null","true","0.2,0.8","2:nogo_b","",""
"null","","html-keyboard-response","431","473013","0.0-6.0-1.70","","<img src=""img/red-r.png"">","null","trial","null","","0.2,0.8","2:nogo_b","1",""
"null","","html-keyboard-response","432","474015","0.0-6.0-2.70","","<div style=""font-size:60px;"">+</div>","null","","","","","","",""
"null","","image-keyboard-response","433","475517","0.0-6.0-0.71","","img/grey.png","null","trial","32","false","0.8,0.2","3:go_c","",""
"null","","html-keyboard-response","434","476521","0.0-6.0-1.71","","<img src=""img/grey-r.png"">","null","trial","32","","0.8,0.2","3:go_c","1",""
"null","","html-keyboard-response","435","477524","0.0-6.0-2.71","","<div style=""font-size:60px;"">+</div>","null","","","","","","",""
"475.32999998657033","","image-keyboard-response","436","478000","0.0-6.0-0.72","","img/red.png","32","trial","null","false","0.2,0.8","2:nogo_b","",""
"null","","html-keyboard-response","437","479002","0.0-6.0-1.72","","<img src=""img/red-n.png"" border=""10"">","null","trial","null","","0.2,0.8","2:nogo_b","0",""
"null","","html-keyboard-response","438","480003","0.0-6.0-2.72","","<div style=""font-size:60px;"">+</div>","null","","","","","","",""
"454.0549999801442","","image-keyboard-response","439","480458","0.0-6.0-0.73","","img/green.png","32","trial","32","true","0.8,0.2","1:go_a","",""
"null","","html-keyboard-response","440","481462","0.0-6.0-1.73","","<img src=""img/green-r.png"" border=""10"">","null","trial","32","","0.8,0.2","1:go_a","1",""
"null","","html-keyboard-response","441","482465","0.0-6.0-2.73","","<div style=""font-size:60px;"">+</div>","null","","","","","","",""
"445.7949999778066","","image-keyboard-response","442","482912","0.0-6.0-0.74","","img/grey.png","32","trial","32","true","0.8,0.2","3:go_c","",""
"null","","html-keyboard-response","443","483916","0.0-6.0-1.74","","<img src=""img/grey-r.png"" border=""10"">","null","trial","32","","0.8,0.2","3:go_c","1",""
"null","","html-keyboard-response","444","484918","0.0-6.0-2.74","","<div style=""font-size:60px;"">+</div>","null","","","","","","",""
"663.2950000057463","","image-keyboard-response","445","485583","0.0-6.0-0.75","","img/blue.png","32","trial","null","false","0.2,0.8","4:nogo_d","",""
"null","","html-keyboard-response","446","486587","0.0-6.0-1.75","","<img src=""img/blue-n.png"" border=""10"">","null","trial","null","","0.2,0.8","4:nogo_d","0",""
"null","","html-keyboard-response","447","487588","0.0-6.0-2.75","","<div style=""font-size:60px;"">+</div>","null","","","","","","",""
"520.6250000046566","","image-keyboard-response","448","488109","0.0-6.0-0.76","","img/grey.png","32","trial","32","true","0.8,0.2","3:go_c","",""
"null","","html-keyboard-response","449","489110","0.0-6.0-1.76","","<img src=""img/grey-r.png"" border=""10"">","null","trial","32","","0.8,0.2","3:go_c","1",""
"null","","html-keyboard-response","450","490113","0.0-6.0-2.76","","<div style=""font-size:60px;"">+</div>","null","","","","","","",""
"null","","image-keyboard-response","451","491615","0.0-6.0-0.77","","img/red.png","null","trial","null","true","0.2,0.8","2:nogo_b","",""
"null","","html-keyboard-response","452","492619","0.0-6.0-1.77","","<img src=""img/red-r.png"">","null","trial","null","","0.2,0.8","2:nogo_b","1",""
"null","","html-keyboard-response","453","493620","0.0-6.0-2.77","","<div style=""font-size:60px;"">+</div>","null","","","","","","",""
"494.12000001757406","","image-keyboard-response","454","494115","0.0-6.0-0.78","","img/green.png","32","trial","32","true","0.8,0.2","1:go_a","",""
"null","","html-keyboard-response","455","495120","0.0-6.0-1.78","","<img src=""img/green-r.png"" border=""10"">","null","trial","32","","0.8,0.2","1:go_a","1",""
"null","","html-keyboard-response","456","496121","0.0-6.0-2.78","","<div style=""font-size:60px;"">+</div>","null","","","","","","",""
"null","","image-keyboard-response","457","497622","0.0-6.0-0.79","","img/blue.png","null","trial","null","true","0.2,0.8","4:nogo_d","",""
"null","","html-keyboard-response","458","498624","0.0-6.0-1.79","","<img src=""img/blue-r.png"">","null","trial","null","","0.2,0.8","4:nogo_d","1",""
"null","","html-keyboard-response","459","499625","0.0-6.0-2.79","","<div style=""font-size:60px;"">+</div>","null","","","","","","",""
"null","","image-keyboard-response","460","501127","0.0-6.0-0.80","","img/red.png","null","trial","null","true","0.2,0.8","2:nogo_b","",""
"null","","html-keyboard-response","461","502131","0.0-6.0-1.80","","<img src=""img/red-r.png"">","null","trial","null","","0.2,0.8","2:nogo_b","1",""
"null","","html-keyboard-response","462","503133","0.0-6.0-2.80","","<div style=""font-size:60px;"">+</div>","null","","","","","","",""
"348.60500000650063","","image-keyboard-response","463","503483","0.0-6.0-0.81","","img/grey.png","32","trial","32","true","0.8,0.2","3:go_c","",""
"null","","html-keyboard-response","464","504485","0.0-6.0-1.81","","<img src=""img/grey-r.png"" border=""10"">","null","trial","32","","0.8,0.2","3:go_c","1",""
"null","","html-keyboard-response","465","505485","0.0-6.0-2.81","","<div style=""font-size:60px;"">+</div>","null","","","","","","",""
"null","","image-keyboard-response","466","506987","0.0-6.0-0.82","","img/blue.png","null","trial","null","true","0.2,0.8","4:nogo_d","",""
"null","","html-keyboard-response","467","507990","0.0-6.0-1.82","","<img src=""img/blue-r.png"">","null","trial","null","","0.2,0.8","4:nogo_d","1",""
"null","","html-keyboard-response","468","508990","0.0-6.0-2.82","","<div style=""font-size:60px;"">+</div>","null","","","","","","",""
"684.0699999884237","","image-keyboard-response","469","509676","0.0-6.0-0.83","","img/green.png","32","trial","32","true","0.8,0.2","1:go_a","",""
"null","","html-keyboard-response","470","510678","0.0-6.0-1.83","","<img src=""img/green-r.png"" border=""10"">","null","trial","32","","0.8,0.2","1:go_a","1",""
"null","","html-keyboard-response","471","511679","0.0-6.0-2.83","","<div style=""font-size:60px;"">+</div>","null","","","","","","",""
"null","","image-keyboard-response","472","513182","0.0-6.0-0.84","","img/red.png","null","trial","null","true","0.2,0.8","2:nogo_b","",""
"null","","html-keyboard-response","473","514184","0.0-6.0-1.84","","<img src=""img/red-r.png"">","null","trial","null","","0.2,0.8","2:nogo_b","1",""
"null","","html-keyboard-response","474","515185","0.0-6.0-2.84","","<div style=""font-size:60px;"">+</div>","null","","","","","","",""
"443.72500001918525","","image-keyboard-response","475","515629","0.0-6.0-0.85","","img/green.png","32","trial","32","true","0.8,0.2","1:go_a","",""
"null","","html-keyboard-response","476","516631","0.0-6.0-1.85","","<img src=""img/green-r.png"" border=""10"">","null","trial","32","","0.8,0.2","1:go_a","1",""
"null","","html-keyboard-response","477","517632","0.0-6.0-2.85","","<div style=""font-size:60px;"">+</div>","null","","","","","","",""
"482.82999999355525","","image-keyboard-response","478","518116","0.0-6.0-0.86","","img/blue.png","32","trial","null","false","0.2,0.8","4:nogo_d","",""
"null","","html-keyboard-response","479","519120","0.0-6.0-1.86","","<img src=""img/blue-n.png"" border=""10"">","null","trial","null","","0.2,0.8","4:nogo_d","0",""
"null","","html-keyboard-response","480","520122","0.0-6.0-2.86","","<div style=""font-size:60px;"">+</div>","null","","","","","","",""
"524.1649999807123","","image-keyboard-response","481","520647","0.0-6.0-0.87","","img/grey.png","32","trial","32","true","0.8,0.2","3:go_c","",""
"null","","html-keyboard-response","482","521648","0.0-6.0-1.87","","<img src=""img/grey-r.png"" border=""10"">","null","trial","32","","0.8,0.2","3:go_c","1",""
"null","","html-keyboard-response","483","522650","0.0-6.0-2.87","","<div style=""font-size:60px;"">+</div>","null","","","","","","",""
"491.8650000181515","","image-keyboard-response","484","523142","0.0-6.0-0.88","","img/green.png","32","trial","32","true","0.8,0.2","1:go_a","",""
"null","","html-keyboard-response","485","524148","0.0-6.0-1.88","","<img src=""img/green-n.png"" border=""10"">","null","trial","32","","0.8,0.2","1:go_a","0",""
"null","","html-keyboard-response","486","525149","0.0-6.0-2.88","","<div style=""font-size:60px;"">+</div>","null","","","","","","",""
"461.1099999747239","","image-keyboard-response","487","525611","0.0-6.0-0.89","","img/blue.png","32","trial","null","false","0.2,0.8","4:nogo_d","",""
"null","","html-keyboard-response","488","526613","0.0-6.0-1.89","","<img src=""img/blue-r.png"" border=""10"">","null","trial","null","","0.2,0.8","4:nogo_d","1",""
"null","","html-keyboard-response","489","527615","0.0-6.0-2.89","","<div style=""font-size:60px;"">+</div>","null","","","","","","",""
"null","","image-keyboard-response","490","529117","0.0-6.0-0.90","","img/red.png","null","trial","null","true","0.2,0.8","2:nogo_b","",""
"null","","html-keyboard-response","491","530121","0.0-6.0-1.90","","<img src=""img/red-r.png"">","null","trial","null","","0.2,0.8","2:nogo_b","1",""
"null","","html-keyboard-response","492","531122","0.0-6.0-2.90","","<div style=""font-size:60px;"">+</div>","null","","","","","","",""
"444.34000001638196","","image-keyboard-response","493","531568","0.0-6.0-0.91","","img/grey.png","32","trial","32","true","0.8,0.2","3:go_c","",""
"null","","html-keyboard-response","494","532569","0.0-6.0-1.91","","<img src=""img/grey-r.png"" border=""10"">","null","trial","32","","0.8,0.2","3:go_c","1",""
"null","","html-keyboard-response","495","533571","0.0-6.0-2.91","","<div style=""font-size:60px;"">+</div>","null","","","","","","",""
"738.6449999758042","","image-keyboard-response","496","534310","0.0-6.0-0.92","","img/grey.png","32","trial","32","true","0.8,0.2","3:go_c","",""
"null","","html-keyboard-response","497","535312","0.0-6.0-1.92","","<img src=""img/grey-r.png"" border=""10"">","null","trial","32","","0.8,0.2","3:go_c","1",""
"null","","html-keyboard-response","498","536313","0.0-6.0-2.92","","<div style=""font-size:60px;"">+</div>","null","","","","","","",""
"687.4550000065938","","image-keyboard-response","499","537002","0.0-6.0-0.93","","img/blue.png","32","trial","null","false","0.2,0.8","4:nogo_d","",""
"null","","html-keyboard-response","500","538004","0.0-6.0-1.93","","<img src=""img/blue-n.png"" border=""10"">","null","trial","null","","0.2,0.8","4:nogo_d","0",""
"null","","html-keyboard-response","501","539007","0.0-6.0-2.93","","<div style=""font-size:60px;"">+</div>","null","","","","","","",""
"440.3549999988172","","image-keyboard-response","502","539448","0.0-6.0-0.94","","img/green.png","32","trial","32","true","0.8,0.2","1:go_a","",""
"null","","html-keyboard-response","503","540451","0.0-6.0-1.94","","<img src=""img/green-r.png"" border=""10"">","null","trial","32","","0.8,0.2","1:go_a","1",""
"null","","html-keyboard-response","504","541452","0.0-6.0-2.94","","<div style=""font-size:60px;"">+</div>","null","","","","","","",""
"null","","image-keyboard-response","505","542955","0.0-6.0-0.95","","img/red.png","null","trial","null","true","0.2,0.8","2:nogo_b","",""
"null","","html-keyboard-response","506","543956","0.0-6.0-1.95","","<img src=""img/red-r.png"">","null","trial","null","","0.2,0.8","2:nogo_b","1",""
"null","","html-keyboard-response","507","544957","0.0-6.0-2.95","","<div style=""font-size:60px;"">+</div>","null","","","","","","",""
"541.4099999761675","","image-keyboard-response","508","545499","0.0-6.0-0.96","","img/green.png","32","trial","32","true","0.8,0.2","1:go_a","",""
"null","","html-keyboard-response","509","546501","0.0-6.0-1.96","","<img src=""img/green-r.png"" border=""10"">","null","trial","32","","0.8,0.2","1:go_a","1",""
"null","","html-keyboard-response","510","547502","0.0-6.0-2.96","","<div style=""font-size:60px;"">+</div>","null","","","","","","",""
"783.6999999999534","","image-keyboard-response","511","548288","0.0-6.0-0.97","","img/blue.png","32","trial","null","false","0.2,0.8","4:nogo_d","",""
"null","","html-keyboard-response","512","549290","0.0-6.0-1.97","","<img src=""img/blue-n.png"" border=""10"">","null","trial","null","","0.2,0.8","4:nogo_d","0",""
"null","","html-keyboard-response","513","550293","0.0-6.0-2.97","","<div style=""font-size:60px;"">+</div>","null","","","","","","",""
"620.9950000047684","","image-keyboard-response","514","550914","0.0-6.0-0.98","","img/grey.png","32","trial","32","true","0.8,0.2","3:go_c","",""
"null","","html-keyboard-response","515","551916","0.0-6.0-1.98","","<img src=""img/grey-r.png"" border=""10"">","null","trial","32","","0.8,0.2","3:go_c","1",""
"null","","html-keyboard-response","516","552917","0.0-6.0-2.98","","<div style=""font-size:60px;"">+</div>","null","","","","","","",""
"null","","image-keyboard-response","517","554419","0.0-6.0-0.99","","img/red.png","null","trial","null","true","0.2,0.8","2:nogo_b","",""
"null","","html-keyboard-response","518","555422","0.0-6.0-1.99","","<img src=""img/red-r.png"">","null","trial","null","","0.2,0.8","2:nogo_b","1",""
"null","","html-keyboard-response","519","556427","0.0-6.0-2.99","","<div style=""font-size:60px;"">+</div>","null","","","","","","",""
"465.55500000249594","","image-keyboard-response","520","556894","0.0-6.0-0.100","","img/grey.png","32","trial","32","true","0.8,0.2","3:go_c","",""
"null","","html-keyboard-response","521","557895","0.0-6.0-1.100","","<img src=""img/grey-r.png"" border=""10"">","null","trial","32","","0.8,0.2","3:go_c","1",""
"null","","html-keyboard-response","522","558897","0.0-6.0-2.100","","<div style=""font-size:60px;"">+</div>","null","","","","","","",""
"null","","image-keyboard-response","523","560399","0.0-6.0-0.101","","img/red.png","null","trial","null","true","0.2,0.8","2:nogo_b","",""
"null","","html-keyboard-response","524","561401","0.0-6.0-1.101","","<img src=""img/red-r.png"">","null","trial","null","","0.2,0.8","2:nogo_b","1",""
"null","","html-keyboard-response","525","562403","0.0-6.0-2.101","","<div style=""font-size:60px;"">+</div>","null","","","","","","",""
"439.6649999835063","","image-keyboard-response","526","562843","0.0-6.0-0.102","","img/blue.png","32","trial","null","false","0.2,0.8","4:nogo_d","",""
"null","","html-keyboard-response","527","563847","0.0-6.0-1.102","","<img src=""img/blue-n.png"" border=""10"">","null","trial","null","","0.2,0.8","4:nogo_d","0",""
"null","","html-keyboard-response","528","564848","0.0-6.0-2.102","","<div style=""font-size:60px;"">+</div>","null","","","","","","",""
"328.24499998241663","","image-keyboard-response","529","565178","0.0-6.0-0.103","","img/green.png","32","trial","32","true","0.8,0.2","1:go_a","",""
"null","","html-keyboard-response","530","566182","0.0-6.0-1.103","","<img src=""img/green-r.png"" border=""10"">","null","trial","32","","0.8,0.2","1:go_a","1",""
"null","","html-keyboard-response","531","567184","0.0-6.0-2.103","","<div style=""font-size:60px;"">+</div>","null","","","","","","",""
"null","","image-keyboard-response","532","568686","0.0-6.0-0.104","","img/blue.png","null","trial","null","true","0.2,0.8","4:nogo_d","",""
"null","","html-keyboard-response","533","569688","0.0-6.0-1.104","","<img src=""img/blue-n.png"">","null","trial","null","","0.2,0.8","4:nogo_d","0",""
"null","","html-keyboard-response","534","570689","0.0-6.0-2.104","","<div style=""font-size:60px;"">+</div>","null","","","","","","",""
"485.12999998638406","","image-keyboard-response","535","571175","0.0-6.0-0.105","","img/grey.png","32","trial","32","true","0.8,0.2","3:go_c","",""
"null","","html-keyboard-response","536","572178","0.0-6.0-1.105","","<img src=""img/grey-r.png"" border=""10"">","null","trial","32","","0.8,0.2","3:go_c","1",""
"null","","html-keyboard-response","537","573180","0.0-6.0-2.105","","<div style=""font-size:60px;"">+</div>","null","","","","","","",""
"644.6500000020023","","image-keyboard-response","538","573826","0.0-6.0-0.106","","img/green.png","32","trial","32","true","0.8,0.2","1:go_a","",""
"null","","html-keyboard-response","539","574829","0.0-6.0-1.106","","<img src=""img/green-r.png"" border=""10"">","null","trial","32","","0.8,0.2","1:go_a","1",""
"null","","html-keyboard-response","540","575832","0.0-6.0-2.106","","<div style=""font-size:60px;"">+</div>","null","","","","","","",""
"null","","image-keyboard-response","541","577335","0.0-6.0-0.107","","img/red.png","null","trial","null","true","0.2,0.8","2:nogo_b","",""
"null","","html-keyboard-response","542","578339","0.0-6.0-1.107","","<img src=""img/red-r.png"">","null","trial","null","","0.2,0.8","2:nogo_b","1",""
"null","","html-keyboard-response","543","579340","0.0-6.0-2.107","","<div style=""font-size:60px;"">+</div>","null","","","","","","",""
"null","","image-keyboard-response","544","580842","0.0-6.0-0.108","","img/red.png","null","trial","null","true","0.2,0.8","2:nogo_b","",""
"null","","html-keyboard-response","545","581845","0.0-6.0-1.108","","<img src=""img/red-r.png"">","null","trial","null","","0.2,0.8","2:nogo_b","1",""
"null","","html-keyboard-response","546","582846","0.0-6.0-2.108","","<div style=""font-size:60px;"">+</div>","null","","","","","","",""
"537.8700000001118","","image-keyboard-response","547","583385","0.0-6.0-0.109","","img/blue.png","32","trial","null","false","0.2,0.8","4:nogo_d","",""
"null","","html-keyboard-response","548","584387","0.0-6.0-1.109","","<img src=""img/blue-r.png"" border=""10"">","null","trial","null","","0.2,0.8","4:nogo_d","1",""
"null","","html-keyboard-response","549","585388","0.0-6.0-2.109","","<div style=""font-size:60px;"">+</div>","null","","","","","","",""
"458.29500001855195","","image-keyboard-response","550","585848","0.0-6.0-0.110","","img/grey.png","32","trial","32","true","0.8,0.2","3:go_c","",""
"null","","html-keyboard-response","551","586849","0.0-6.0-1.110","","<img src=""img/grey-r.png"" border=""10"">","null","trial","32","","0.8,0.2","3:go_c","1",""
"null","","html-keyboard-response","552","587852","0.0-6.0-2.110","","<div style=""font-size:60px;"">+</div>","null","","","","","","",""
"362.2599999944214","","image-keyboard-response","553","588214","0.0-6.0-0.111","","img/green.png","32","trial","32","true","0.8,0.2","1:go_a","",""
"null","","html-keyboard-response","554","589216","0.0-6.0-1.111","","<img src=""img/green-r.png"" border=""10"">","null","trial","32","","0.8,0.2","1:go_a","1",""
"null","","html-keyboard-response","555","590219","0.0-6.0-2.111","","<div style=""font-size:60px;"">+</div>","null","","","","","","",""
"null","","image-keyboard-response","556","591720","0.0-6.0-0.112","","img/blue.png","null","trial","null","true","0.2,0.8","4:nogo_d","",""
"null","","html-keyboard-response","557","592723","0.0-6.0-1.112","","<img src=""img/blue-r.png"">","null","trial","null","","0.2,0.8","4:nogo_d","1",""
"null","","html-keyboard-response","558","593724","0.0-6.0-2.112","","<div style=""font-size:60px;"">+</div>","null","","","","","","",""
"347.77999998186715","","image-keyboard-response","559","594073","0.0-6.0-0.113","","img/red.png","32","trial","null","false","0.2,0.8","2:nogo_b","",""
"null","","html-keyboard-response","560","595076","0.0-6.0-1.113","","<img src=""img/red-n.png"" border=""10"">","null","trial","null","","0.2,0.8","2:nogo_b","0",""
"null","","html-keyboard-response","561","596078","0.0-6.0-2.113","","<div style=""font-size:60px;"">+</div>","null","","","","","","",""
"417.8550000069663","","image-keyboard-response","562","596497","0.0-6.0-0.114","","img/green.png","32","trial","32","true","0.8,0.2","1:go_a","",""
"null","","html-keyboard-response","563","597501","0.0-6.0-1.114","","<img src=""img/green-r.png"" border=""10"">","null","trial","32","","0.8,0.2","1:go_a","1",""
"null","","html-keyboard-response","564","598502","0.0-6.0-2.114","","<div style=""font-size:60px;"">+</div>","null","","","","","","",""
"495.08500000229105","","image-keyboard-response","565","598998","0.0-6.0-0.115","","img/grey.png","32","trial","32","true","0.8,0.2","3:go_c","",""
"null","","html-keyboard-response","566","600000","0.0-6.0-1.115","","<img src=""img/grey-n.png"" border=""10"">","null","trial","32","","0.8,0.2","3:go_c","0",""
"null","","html-keyboard-response","567","601002","0.0-6.0-2.115","","<div style=""font-size:60px;"">+</div>","null","","","","","","",""
"715.0949999922886","","image-keyboard-response","568","601719","0.0-6.0-0.116","","img/blue.png","32","trial","null","false","0.2,0.8","4:nogo_d","",""
"null","","html-keyboard-response","569","602724","0.0-6.0-1.116","","<img src=""img/blue-n.png"" border=""10"">","null","trial","null","","0.2,0.8","4:nogo_d","0",""
"null","","html-keyboard-response","570","603725","0.0-6.0-2.116","","<div style=""font-size:60px;"">+</div>","null","","","","","","",""
"539.87499998766","","image-keyboard-response","571","604266","0.0-6.0-0.117","","img/red.png","32","trial","null","false","0.2,0.8","2:nogo_b","",""
"null","","html-keyboard-response","572","605269","0.0-6.0-1.117","","<img src=""img/red-r.png"" border=""10"">","null","trial","null","","0.2,0.8","2:nogo_b","1",""
"null","","html-keyboard-response","573","606270","0.0-6.0-2.117","","<div style=""font-size:60px;"">+</div>","null","","","","","","",""
"538.0299999960698","","image-keyboard-response","574","606809","0.0-6.0-0.118","","img/green.png","32","trial","32","true","0.8,0.2","1:go_a","",""
"null","","html-keyboard-response","575","607812","0.0-6.0-1.118","","<img src=""img/green-r.png"" border=""10"">","null","trial","32","","0.8,0.2","1:go_a","1",""
"null","","html-keyboard-response","576","608814","0.0-6.0-2.118","","<div style=""font-size:60px;"">+</div>","null","","","","","","",""
"571.540000004461","","image-keyboard-response","577","609386","0.0-6.0-0.119","","img/grey.png","32","trial","32","true","0.8,0.2","3:go_c","",""
"null","","html-keyboard-response","578","610388","0.0-6.0-1.119","","<img src=""img/grey-n.png"" border=""10"">","null","trial","32","","0.8,0.2","3:go_c","0",""
"null","","html-keyboard-response","579","611389","0.0-6.0-2.119","","<div style=""font-size:60px;"">+</div>","null","","","","","","",""
"1787.7600000065286","","instructions","580","613178","0.0-7.0","[{""page_index"":0,""viewing_time"":1787.2600000118837}]","","","","","","","","",""
"748.7700000056066","","image-keyboard-response","581","613930","0.0-8.0-0.0","","img/grey.png","32","trial","32","true","1,0","3:go_c","",""
"null","","html-keyboard-response","582","614932","0.0-8.0-1.0","","<img src=""img/grey-r.png"" border=""10"">","null","trial","32","","1,0","3:go_c","1",""
"null","","html-keyboard-response","583","615933","0.0-8.0-2.0","","<div style=""font-size:60px;"">+</div>","null","","","","","","",""
"539.4350000133272","","image-keyboard-response","584","616473","0.0-8.0-0.1","","img/purple.png","32","trial","null","false","0.2,0.8","2:nogo_b","",""
"null","","html-keyboard-response","585","617475","0.0-8.0-1.1","","<img src=""img/purple-n.png"" border=""10"">","null","trial","null","","0.2,0.8","2:nogo_b","0",""
"null","","html-keyboard-response","586","618477","0.0-8.0-2.1","","<div style=""font-size:60px;"">+</div>","null","","","","","","",""
"536.6499999945518","","image-keyboard-response","587","619015","0.0-8.0-0.2","","img/blue.png","32","trial","32","true","0.8,0.2","1:go_a","",""
"null","","html-keyboard-response","588","620018","0.0-8.0-1.2","","<img src=""img/blue-r.png"" border=""10"">","null","trial","32","","0.8,0.2","1:go_a","1",""
"null","","html-keyboard-response","589","621020","0.0-8.0-2.2","","<div style=""font-size:60px;"">+</div>","null","","","","","","",""
"629.1199999977835","","image-keyboard-response","590","621651","0.0-8.0-0.3","","img/red.png","32","trial","null","false","0,1","4:nogo_d","",""
"null","","html-keyboard-response","591","622652","0.0-8.0-1.3","","<img src=""img/red-n.png"" border=""10"">","null","trial","null","","0,1","4:nogo_d","0",""
"null","","html-keyboard-response","592","623652","0.0-8.0-2.3","","<div style=""font-size:60px;"">+</div>","null","","","","","","",""
"327.9200000106357","","image-keyboard-response","593","623981","0.0-8.0-0.4","","img/purple.png","32","trial","null","false","0.2,0.8","2:nogo_b","",""
"null","","html-keyboard-response","594","624982","0.0-8.0-1.4","","<img src=""img/purple-n.png"" border=""10"">","null","trial","null","","0.2,0.8","2:nogo_b","0",""
"null","","html-keyboard-response","595","625984","0.0-8.0-2.4","","<div style=""font-size:60px;"">+</div>","null","","","","","","",""
"848.295000003418","","image-keyboard-response","596","626833","0.0-8.0-0.5","","img/blue.png","32","trial","32","true","0.8,0.2","1:go_a","",""
"null","","html-keyboard-response","597","627836","0.0-8.0-1.5","","<img src=""img/blue-n.png"" border=""10"">","null","trial","32","","0.8,0.2","1:go_a","0",""
"null","","html-keyboard-response","598","628839","0.0-8.0-2.5","","<div style=""font-size:60px;"">+</div>","null","","","","","","",""
"557.1999999810942","","image-keyboard-response","599","629397","0.0-8.0-0.6","","img/red.png","32","trial","null","false","0,1","4:nogo_d","",""
"null","","html-keyboard-response","600","630402","0.0-8.0-1.6","","<img src=""img/red-n.png"" border=""10"">","null","trial","null","","0,1","4:nogo_d","0",""
"null","","html-keyboard-response","601","631403","0.0-8.0-2.6","","<div style=""font-size:60px;"">+</div>","null","","","","","","",""
"512.5800000096206","","image-keyboard-response","602","631918","0.0-8.0-0.7","","img/grey.png","32","trial","32","true","1,0","3:go_c","",""
"null","","html-keyboard-response","603","632922","0.0-8.0-1.7","","<img src=""img/grey-r.png"" border=""10"">","null","trial","32","","1,0","3:go_c","1",""
"null","","html-keyboard-response","604","633923","0.0-8.0-2.7","","<div style=""font-size:60px;"">+</div>","null","","","","","","",""
"null","","image-keyboard-response","605","635427","0.0-8.0-0.8","","img/red.png","null","trial","null","true","0,1","4:nogo_d","",""
"null","","html-keyboard-response","606","636429","0.0-8.0-1.8","","<img src=""img/red-r.png"">","null","trial","null","","0,1","4:nogo_d","1",""
"null","","html-keyboard-response","607","637431","0.0-8.0-2.8","","<div style=""font-size:60px;"">+</div>","null","","","","","","",""
"null","","image-keyboard-response","608","638933","0.0-8.0-0.9","","img/purple.png","null","trial","null","true","0.2,0.8","2:nogo_b","",""
"null","","html-keyboard-response","609","639934","0.0-8.0-1.9","","<img src=""img/purple-n.png"">","null","trial","null","","0.2,0.8","2:nogo_b","0",""
"null","","html-keyboard-response","610","640936","0.0-8.0-2.9","","<div style=""font-size:60px;"">+</div>","null","","","","","","",""
"681.3799999945331","","image-keyboard-response","611","641619","0.0-8.0-0.10","","img/grey.png","32","trial","32","true","1,0","3:go_c","",""
"null","","html-keyboard-response","612","642621","0.0-8.0-1.10","","<img src=""img/grey-r.png"" border=""10"">","null","trial","32","","1,0","3:go_c","1",""
"null","","html-keyboard-response","613","643622","0.0-8.0-2.10","","<div style=""font-size:60px;"">+</div>","null","","","","","","",""
"1421.4199999987613","","image-keyboard-response","614","645044","0.0-8.0-0.11","","img/blue.png","32","trial","32","true","0.8,0.2","1:go_a","",""
"null","","html-keyboard-response","615","646047","0.0-8.0-1.11","","<img src=""img/blue-r.png"" border=""10"">","null","trial","32","","0.8,0.2","1:go_a","1",""
"null","","html-keyboard-response","616","647049","0.0-8.0-2.11","","<div style=""font-size:60px;"">+</div>","null","","","","","","",""
"null","","image-keyboard-response","617","648550","0.0-8.0-0.12","","img/red.png","null","trial","null","true","0,1","4:nogo_d","",""
"null","","html-keyboard-response","618","649554","0.0-8.0-1.12","","<img src=""img/red-r.png"">","null","trial","null","","0,1","4:nogo_d","1",""
"null","","html-keyboard-response","619","650555","0.0-8.0-2.12","","<div style=""font-size:60px;"">+</div>","null","","","","","","",""
"501.26499999896623","","image-keyboard-response","620","651058","0.0-8.0-0.13","","img/grey.png","32","trial","32","true","1,0","3:go_c","",""
"null","","html-keyboard-response","621","652061","0.0-8.0-1.13","","<img src=""img/grey-r.png"" border=""10"">","null","trial","32","","1,0","3:go_c","1",""
"null","","html-keyboard-response","622","653064","0.0-8.0-2.13","","<div style=""font-size:60px;"">+</div>","null","","","","","","",""
"null","","image-keyboard-response","623","654567","0.0-8.0-0.14","","img/purple.png","null","trial","null","true","0.2,0.8","2:nogo_b","",""
"null","","html-keyboard-response","624","655569","0.0-8.0-1.14","","<img src=""img/purple-r.png"">","null","trial","null","","0.2,0.8","2:nogo_b","1",""
"null","","html-keyboard-response","625","656571","0.0-8.0-2.14","","<div style=""font-size:60px;"">+</div>","null","","","","","","",""
"1084.0399999869987","","image-keyboard-response","626","657655","0.0-8.0-0.15","","img/blue.png","32","trial","32","true","0.8,0.2","1:go_a","",""
"null","","html-keyboard-response","627","658658","0.0-8.0-1.15","","<img src=""img/blue-r.png"" border=""10"">","null","trial","32","","0.8,0.2","1:go_a","1",""
"null","","html-keyboard-response","628","659661","0.0-8.0-2.15","","<div style=""font-size:60px;"">+</div>","null","","","","","","",""
"636.4149999863002","","image-keyboard-response","629","660299","0.0-8.0-0.16","","img/grey.png","32","trial","32","true","1,0","3:go_c","",""
"null","","html-keyboard-response","630","661303","0.0-8.0-1.16","","<img src=""img/grey-r.png"" border=""10"">","null","trial","32","","1,0","3:go_c","1",""
"null","","html-keyboard-response","631","662304","0.0-8.0-2.16","","<div style=""font-size:60px;"">+</div>","null","","","","","","",""
"495.599999994738","","image-keyboard-response","632","662801","0.0-8.0-0.17","","img/red.png","32","trial","null","false","0,1","4:nogo_d","",""
"null","","html-keyboard-response","633","663804","0.0-8.0-1.17","","<img src=""img/red-n.png"" border=""10"">","null","trial","null","","0,1","4:nogo_d","0",""
"null","","html-keyboard-response","634","664805","0.0-8.0-2.17","","<div style=""font-size:60px;"">+</div>","null","","","","","","",""
"null","","image-keyboard-response","635","666308","0.0-8.0-0.18","","img/purple.png","null","trial","null","true","0.2,0.8","2:nogo_b","",""
"null","","html-keyboard-response","636","667310","0.0-8.0-1.18","","<img src=""img/purple-r.png"">","null","trial","null","","0.2,0.8","2:nogo_b","1",""
"null","","html-keyboard-response","637","668313","0.0-8.0-2.18","","<div style=""font-size:60px;"">+</div>","null","","","","","","",""
"689.2750000115484","","image-keyboard-response","638","669003","0.0-8.0-0.19","","img/blue.png","32","trial","32","true","0.8,0.2","1:go_a","",""
"null","","html-keyboard-response","639","670006","0.0-8.0-1.19","","<img src=""img/blue-r.png"" border=""10"">","null","trial","32","","0.8,0.2","1:go_a","1",""
"null","","html-keyboard-response","640","671009","0.0-8.0-2.19","","<div style=""font-size:60px;"">+</div>","null","","","","","","",""
"1129.2850000027101","","image-keyboard-response","641","672140","0.0-8.0-0.20","","img/purple.png","32","trial","null","false","0.2,0.8","2:nogo_b","",""
"null","","html-keyboard-response","642","673144","0.0-8.0-1.20","","<img src=""img/purple-n.png"" border=""10"">","null","trial","null","","0.2,0.8","2:nogo_b","0",""
"null","","html-keyboard-response","643","674146","0.0-8.0-2.20","","<div style=""font-size:60px;"">+</div>","null","","","","","","",""
"640.5399999930523","","image-keyboard-response","644","674787","0.0-8.0-0.21","","img/blue.png","32","trial","32","true","0.8,0.2","1:go_a","",""
"null","","html-keyboard-response","645","675789","0.0-8.0-1.21","","<img src=""img/blue-r.png"" border=""10"">","null","trial","32","","0.8,0.2","1:go_a","1",""
"null","","html-keyboard-response","646","676790","0.0-8.0-2.21","","<div style=""font-size:60px;"">+</div>","null","","","","","","",""
"489.2799999797717","","image-keyboard-response","647","677280","0.0-8.0-0.22","","img/grey.png","32","trial","32","true","1,0","3:go_c","",""
"null","","html-keyboard-response","648","678282","0.0-8.0-1.22","","<img src=""img/grey-r.png"" border=""10"">","null","trial","32","","1,0","3:go_c","1",""
"null","","html-keyboard-response","649","679284","0.0-8.0-2.22","","<div style=""font-size:60px;"">+</div>","null","","","","","","",""
"null","","image-keyboard-response","650","680787","0.0-8.0-0.23","","img/red.png","null","trial","null","true","0,1","4:nogo_d","",""
"null","","html-keyboard-response","651","681788","0.0-8.0-1.23","","<img src=""img/red-r.png"">","null","trial","null","","0,1","4:nogo_d","1",""
"null","","html-keyboard-response","652","682789","0.0-8.0-2.23","","<div style=""font-size:60px;"">+</div>","null","","","","","","",""
"730.4200000071432","","image-keyboard-response","653","683520","0.0-8.0-0.24","","img/blue.png","32","trial","32","true","0.8,0.2","1:go_a","",""
"null","","html-keyboard-response","654","684523","0.0-8.0-1.24","","<img src=""img/blue-n.png"" border=""10"">","null","trial","32","","0.8,0.2","1:go_a","0",""
"null","","html-keyboard-response","655","685524","0.0-8.0-2.24","","<div style=""font-size:60px;"">+</div>","null","","","","","","",""
"null","","image-keyboard-response","656","687026","0.0-8.0-0.25","","img/purple.png","null","trial","null","true","0.2,0.8","2:nogo_b","",""
"null","","html-keyboard-response","657","688028","0.0-8.0-1.25","","<img src=""img/purple-r.png"">","null","trial","null","","0.2,0.8","2:nogo_b","1",""
"null","","html-keyboard-response","658","689032","0.0-8.0-2.25","","<div style=""font-size:60px;"">+</div>","null","","","","","","",""
"1104.0550000034273","","image-keyboard-response","659","690138","0.0-8.0-0.26","","img/red.png","32","trial","null","false","0,1","4:nogo_d","",""
"null","","html-keyboard-response","660","691142","0.0-8.0-1.26","","<img src=""img/red-n.png"" border=""10"">","null","trial","null","","0,1","4:nogo_d","0",""
"null","","html-keyboard-response","661","692145","0.0-8.0-2.26","","<div style=""font-size:60px;"">+</div>","null","","","","","","",""
"488.93999998108484","","image-keyboard-response","662","692635","0.0-8.0-0.27","","img/grey.png","32","trial","32","true","1,0","3:go_c","",""
"null","","html-keyboard-response","663","693637","0.0-8.0-1.27","","<img src=""img/grey-r.png"" border=""10"">","null","trial","32","","1,0","3:go_c","1",""
"null","","html-keyboard-response","664","694639","0.0-8.0-2.27","","<div style=""font-size:60px;"">+</div>","null","","","","","","",""
"865.220000006957","","image-keyboard-response","665","695505","0.0-8.0-0.28","","img/blue.png","32","trial","32","true","0.8,0.2","1:go_a","",""
"null","","html-keyboard-response","666","696508","0.0-8.0-1.28","","<img src=""img/blue-r.png"" border=""10"">","null","trial","32","","0.8,0.2","1:go_a","1",""
"null","","html-keyboard-response","667","697511","0.0-8.0-2.28","","<div style=""font-size:60px;"">+</div>","null","","","","","","",""
"467.31500001624227","","image-keyboard-response","668","697979","0.0-8.0-0.29","","img/grey.png","32","trial","32","true","1,0","3:go_c","",""
"null","","html-keyboard-response","669","698983","0.0-8.0-1.29","","<img src=""img/grey-r.png"" border=""10"">","null","trial","32","","1,0","3:go_c","1",""
"null","","html-keyboard-response","670","699984","0.0-8.0-2.29","","<div style=""font-size:60px;"">+</div>","null","","","","","","",""
"null","","image-keyboard-response","671","701485","0.0-8.0-0.30","","img/purple.png","null","trial","null","true","0.2,0.8","2:nogo_b","",""
"null","","html-keyboard-response","672","702486","0.0-8.0-1.30","","<img src=""img/purple-r.png"">","null","trial","null","","0.2,0.8","2:nogo_b","1",""
"null","","html-keyboard-response","673","703488","0.0-8.0-2.30","","<div style=""font-size:60px;"">+</div>","null","","","","","","",""
"null","","image-keyboard-response","674","704990","0.0-8.0-0.31","","img/red.png","null","trial","null","true","0,1","4:nogo_d","",""
"null","","html-keyboard-response","675","705993","0.0-8.0-1.31","","<img src=""img/red-r.png"">","null","trial","null","","0,1","4:nogo_d","1",""
"null","","html-keyboard-response","676","706995","0.0-8.0-2.31","","<div style=""font-size:60px;"">+</div>","null","","","","","","",""
