"rt","url","trial_type","trial_index","time_elapsed","internal_node_id","view_history","stimulus","key_press","test_part","correct_response","correct","use_rew","which_stim","reward","responses"
"34422.700000047684","consent.html","external-html","0","34611","0.0-0.0","","","","","","","","","",""
"197285","","instructions","1","231911","0.0-1.0","[{""page_index"":0,""viewing_time"":25136.700000047684},{""page_index"":1,""viewing_time"":34928.200000047684},{""page_index"":2,""viewing_time"":18151.699999928474},{""page_index"":3,""viewing_time"":53204.60000002384},{""page_index"":4,""viewing_time"":45823.200000047684},{""page_index"":5,""viewing_time"":13222.699999928474},{""page_index"":6,""viewing_time"":6815.700000047684}]","","","","","","","","",""
"null","","image-keyboard-response","2","233416","0.0-2.0-0.0","","img/test2.PNG","null","practice","null","true","","","",""
"null","","html-keyboard-response","3","234420","0.0-2.0-1.0","","<img src=""img/test2-reward.PNG"">","null","","","","","","",""
"null","","html-keyboard-response","4","235430","0.0-2.0-2.0","","<div style=""font-size:60px;"">+</div>","null","","","","","","",""
"836.6000000238419","","image-keyboard-response","5","236271","0.0-2.0-0.1","","img/test1.PNG","32","practice","32","true","","","",""
"null","","html-keyboard-response","6","237287","0.0-2.0-1.1","","<img src=""img/test1-reward.PNG"" border=""10px; grey"">","null","","","","","","",""
"null","","html-keyboard-response","7","238298","0.0-2.0-2.1","","<div style=""font-size:60px;"">+</div>","null","","","","","","",""
"849.3999999761581","","image-keyboard-response","8","239150","0.0-2.0-0.2","","img/test3.PNG","32","practice","null","false","","","",""
"null","","html-keyboard-response","9","240160","0.0-2.0-1.2","","<img src=""img/test3-neutral.PNG"" border=""10px; grey"">","null","","","","","","",""
"null","","html-keyboard-response","10","241165","0.0-2.0-2.2","","<div style=""font-size:60px;"">+</div>","null","","","","","","",""
"783.3999999761581","","image-keyboard-response","11","241951","0.0-2.0-0.3","","img/test3.PNG","32","practice","null","false","","","",""
"null","","html-keyboard-response","12","242983","0.0-2.0-1.3","","<img src=""img/test3-neutral.PNG"" border=""10px; grey"">","null","","","","","","",""
"null","","html-keyboard-response","13","243985","0.0-2.0-2.3","","<div style=""font-size:60px;"">+</div>","null","","","","","","",""
"845.7000000476837","","image-keyboard-response","14","244834","0.0-2.0-0.4","","img/test1.PNG","32","practice","32","true","","","",""
"null","","html-keyboard-response","15","245847","0.0-2.0-1.4","","<img src=""img/test1-reward.PNG"" border=""10px; grey"">","null","","","","","","",""
"null","","html-keyboard-response","16","246849","0.0-2.0-2.4","","<div style=""font-size:60px;"">+</div>","null","","","","","","",""
"643.5","","image-keyboard-response","17","247495","0.0-2.0-0.5","","img/test2.PNG","32","practice","null","false","","","",""
"null","","html-keyboard-response","18","248500","0.0-2.0-1.5","","<img src=""img/test2-neutral.PNG"" border=""10px; grey"">","null","","","","","","",""
"null","","html-keyboard-response","19","249502","0.0-2.0-2.5","","<div style=""font-size:60px;"">+</div>","null","","","","","","",""
"709.5","","image-keyboard-response","20","250214","0.0-2.0-0.6","","img/test1.PNG","32","practice","32","true","","","",""
"null","","html-keyboard-response","21","251217","0.0-2.0-1.6","","<img src=""img/test1-reward.PNG"" border=""10px; grey"">","null","","","","","","",""
"null","","html-keyboard-response","22","252219","0.0-2.0-2.6","","<div style=""font-size:60px;"">+</div>","null","","","","","","",""
"611","","image-keyboard-response","23","252832","0.0-2.0-0.7","","img/test3.PNG","32","practice","null","false","","","",""
"null","","html-keyboard-response","24","253835","0.0-2.0-1.7","","<img src=""img/test3-neutral.PNG"" border=""10px; grey"">","null","","","","","","",""
"null","","html-keyboard-response","25","254848","0.0-2.0-2.7","","<div style=""font-size:60px;"">+</div>","null","","","","","","",""
"827.3999999761581","","image-keyboard-response","26","255678","0.0-2.0-0.8","","img/test2.PNG","32","practice","null","false","","","",""
"null","","html-keyboard-response","27","256681","0.0-2.0-1.8","","<img src=""img/test2-neutral.PNG"" border=""10px; grey"">","null","","","","","","",""
"null","","html-keyboard-response","28","257684","0.0-2.0-2.8","","<div style=""font-size:60px;"">+</div>","null","","","","","","",""
"284.60000002384186","","image-keyboard-response","29","257970","0.0-2.0-0.9","","img/test2.PNG","32","practice","null","false","","","",""
"null","","html-keyboard-response","30","258982","0.0-2.0-1.9","","<img src=""img/test2-neutral.PNG"" border=""10px; grey"">","null","","","","","","",""
"null","","html-keyboard-response","31","259984","0.0-2.0-2.9","","<div style=""font-size:60px;"">+</div>","null","","","","","","",""
"723.2999999523163","","image-keyboard-response","32","260709","0.0-2.0-0.10","","img/test1.PNG","32","practice","32","true","","","",""
"null","","html-keyboard-response","33","261712","0.0-2.0-1.10","","<img src=""img/test1-reward.PNG"" border=""10px; grey"">","null","","","","","","",""
"null","","html-keyboard-response","34","262714","0.0-2.0-2.10","","<div style=""font-size:60px;"">+</div>","null","","","","","","",""
"609.7999999523163","","image-keyboard-response","35","263326","0.0-2.0-0.11","","img/test3.PNG","32","practice","null","false","","","",""
"null","","html-keyboard-response","36","264330","0.0-2.0-1.11","","<img src=""img/test3-neutral.PNG"" border=""10px; grey"">","null","","","","","","",""
"null","","html-keyboard-response","37","265333","0.0-2.0-2.11","","<div style=""font-size:60px;"">+</div>","null","","","","","","",""
"4877.899999976158","","instructions","38","270212","0.0-3.0","[{""page_index"":0,""viewing_time"":4877.200000047684}]","","","","","","","","",""
"1126","","image-keyboard-response","39","271342","0.0-4.0-0.0","","img/red.png","32","trial","32","true","0.8,0.2","1:go_a","",""
"null","","html-keyboard-response","40","272367","0.0-4.0-1.0","","<img src=""img/red-n.png"" border=""10"">","null","trial","32","","0.8,0.2","1:go_a","0",""
"null","","html-keyboard-response","41","273369","0.0-4.0-2.0","","<div style=""font-size:60px;"">+</div>","null","","","","","","",""
"994.6000000238419","","image-keyboard-response","42","274366","0.0-4.0-0.1","","img/pink.png","32","trial","null","false","0.2,0.8","2:nogo_b","",""
"null","","html-keyboard-response","43","275382","0.0-4.0-1.1","","<img src=""img/pink-n.png"" border=""10"">","null","trial","null","","0.2,0.8","2:nogo_b","0",""
"null","","html-keyboard-response","44","276385","0.0-4.0-2.1","","<div style=""font-size:60px;"">+</div>","null","","","","","","",""
"890","","image-keyboard-response","45","277277","0.0-4.0-0.2","","img/pink.png","32","trial","null","false","0.2,0.8","2:nogo_b","",""
"null","","html-keyboard-response","46","278281","0.0-4.0-1.2","","<img src=""img/pink-n.png"" border=""10"">","null","trial","null","","0.2,0.8","2:nogo_b","0",""
"null","","html-keyboard-response","47","279283","0.0-4.0-2.2","","<div style=""font-size:60px;"">+</div>","null","","","","","","",""
"686","","image-keyboard-response","48","279973","0.0-4.0-0.3","","img/red.png","32","trial","32","true","0.8,0.2","1:go_a","",""
"null","","html-keyboard-response","49","280977","0.0-4.0-1.3","","<img src=""img/red-r.png"" border=""10"">","null","trial","32","","0.8,0.2","1:go_a","1",""
"null","","html-keyboard-response","50","281984","0.0-4.0-2.3","","<div style=""font-size:60px;"">+</div>","null","","","","","","",""
"756.3999999761581","","image-keyboard-response","51","282743","0.0-4.0-0.4","","img/red.png","32","trial","32","true","0.8,0.2","1:go_a","",""
"null","","html-keyboard-response","52","283748","0.0-4.0-1.4","","<img src=""img/red-r.png"" border=""10"">","null","trial","32","","0.8,0.2","1:go_a","1",""
"null","","html-keyboard-response","53","284752","0.0-4.0-2.4","","<div style=""font-size:60px;"">+</div>","null","","","","","","",""
"1009.3999999761581","","image-keyboard-response","54","285764","0.0-4.0-0.5","","img/pink.png","32","trial","null","false","0.2,0.8","2:nogo_b","",""
"null","","html-keyboard-response","55","286770","0.0-4.0-1.5","","<img src=""img/pink-n.png"" border=""10"">","null","trial","null","","0.2,0.8","2:nogo_b","0",""
"null","","html-keyboard-response","56","287772","0.0-4.0-2.5","","<div style=""font-size:60px;"">+</div>","null","","","","","","",""
"807","","image-keyboard-response","57","288582","0.0-4.0-0.6","","img/red.png","32","trial","32","true","0.8,0.2","1:go_a","",""
"null","","html-keyboard-response","58","289586","0.0-4.0-1.6","","<img src=""img/red-n.png"" border=""10"">","null","trial","32","","0.8,0.2","1:go_a","0",""
"null","","html-keyboard-response","59","290587","0.0-4.0-2.6","","<div style=""font-size:60px;"">+</div>","null","","","","","","",""
"679","","image-keyboard-response","60","291268","0.0-4.0-0.7","","img/pink.png","32","trial","null","false","0.2,0.8","2:nogo_b","",""
"null","","html-keyboard-response","61","292274","0.0-4.0-1.7","","<img src=""img/pink-n.png"" border=""10"">","null","trial","null","","0.2,0.8","2:nogo_b","0",""
"null","","html-keyboard-response","62","293282","0.0-4.0-2.7","","<div style=""font-size:60px;"">+</div>","null","","","","","","",""
"467.2999999523163","","image-keyboard-response","63","293752","0.0-4.0-0.8","","img/red.png","32","trial","32","true","0.8,0.2","1:go_a","",""
"null","","html-keyboard-response","64","294756","0.0-4.0-1.8","","<img src=""img/red-r.png"" border=""10"">","null","trial","32","","0.8,0.2","1:go_a","1",""
"null","","html-keyboard-response","65","295762","0.0-4.0-2.8","","<div style=""font-size:60px;"">+</div>","null","","","","","","",""
"831.7000000476837","","image-keyboard-response","66","296595","0.0-4.0-0.9","","img/pink.png","32","trial","null","false","0.2,0.8","2:nogo_b","",""
"null","","html-keyboard-response","67","297601","0.0-4.0-1.9","","<img src=""img/pink-n.png"" border=""10"">","null","trial","null","","0.2,0.8","2:nogo_b","0",""
"null","","html-keyboard-response","68","298603","0.0-4.0-2.9","","<div style=""font-size:60px;"">+</div>","null","","","","","","",""
"1410.2999999523163","","image-keyboard-response","69","300015","0.0-4.0-0.10","","img/red.png","32","trial","32","true","0.8,0.2","1:go_a","",""
"null","","html-keyboard-response","70","301031","0.0-4.0-1.10","","<img src=""img/red-r.png"" border=""10"">","null","trial","32","","0.8,0.2","1:go_a","1",""
"null","","html-keyboard-response","71","302042","0.0-4.0-2.10","","<div style=""font-size:60px;"">+</div>","null","","","","","","",""
"null","","image-keyboard-response","72","303545","0.0-4.0-0.11","","img/pink.png","null","trial","null","true","0.2,0.8","2:nogo_b","",""
"null","","html-keyboard-response","73","304549","0.0-4.0-1.11","","<img src=""img/pink-r.png"">","null","trial","null","","0.2,0.8","2:nogo_b","1",""
"null","","html-keyboard-response","74","305564","0.0-4.0-2.11","","<div style=""font-size:60px;"">+</div>","null","","","","","","",""
"877","","image-keyboard-response","75","306443","0.0-4.0-0.12","","img/pink.png","32","trial","null","false","0.2,0.8","2:nogo_b","",""
"null","","html-keyboard-response","76","307455","0.0-4.0-1.12","","<img src=""img/pink-n.png"" border=""10"">","null","trial","null","","0.2,0.8","2:nogo_b","0",""
"null","","html-keyboard-response","77","308456","0.0-4.0-2.12","","<div style=""font-size:60px;"">+</div>","null","","","","","","",""
"null","","image-keyboard-response","78","309958","0.0-4.0-0.13","","img/red.png","null","trial","32","false","0.8,0.2","1:go_a","",""
"null","","html-keyboard-response","79","310966","0.0-4.0-1.13","","<img src=""img/red-n.png"">","null","trial","32","","0.8,0.2","1:go_a","0",""
"null","","html-keyboard-response","80","311979","0.0-4.0-2.13","","<div style=""font-size:60px;"">+</div>","null","","","","","","",""
"null","","image-keyboard-response","81","313483","0.0-4.0-0.14","","img/red.png","null","trial","32","false","0.8,0.2","1:go_a","",""
"null","","html-keyboard-response","82","314486","0.0-4.0-1.14","","<img src=""img/red-r.png"">","null","trial","32","","0.8,0.2","1:go_a","1",""
"null","","html-keyboard-response","83","315490","0.0-4.0-2.14","","<div style=""font-size:60px;"">+</div>","null","","","","","","",""
"575.8999999761581","","image-keyboard-response","84","316067","0.0-4.0-0.15","","img/pink.png","32","trial","null","false","0.2,0.8","2:nogo_b","",""
"null","","html-keyboard-response","85","317074","0.0-4.0-1.15","","<img src=""img/pink-n.png"" border=""10"">","null","trial","null","","0.2,0.8","2:nogo_b","0",""
"null","","html-keyboard-response","86","318089","0.0-4.0-2.15","","<div style=""font-size:60px;"">+</div>","null","","","","","","",""
"null","","image-keyboard-response","87","319592","0.0-4.0-0.16","","img/pink.png","null","trial","null","true","0.2,0.8","2:nogo_b","",""
"null","","html-keyboard-response","88","320595","0.0-4.0-1.16","","<img src=""img/pink-r.png"">","null","trial","null","","0.2,0.8","2:nogo_b","1",""
"null","","html-keyboard-response","89","321597","0.0-4.0-2.16","","<div style=""font-size:60px;"">+</div>","null","","","","","","",""
"1303.2000000476837","","image-keyboard-response","90","322902","0.0-4.0-0.17","","img/red.png","32","trial","32","true","0.8,0.2","1:go_a","",""
"null","","html-keyboard-response","91","323906","0.0-4.0-1.17","","<img src=""img/red-r.png"" border=""10"">","null","trial","32","","0.8,0.2","1:go_a","1",""
"null","","html-keyboard-response","92","324908","0.0-4.0-2.17","","<div style=""font-size:60px;"">+</div>","null","","","","","","",""
"960.3999999761581","","image-keyboard-response","93","325871","0.0-4.0-0.18","","img/red.png","32","trial","32","true","0.8,0.2","1:go_a","",""
"null","","html-keyboard-response","94","326884","0.0-4.0-1.18","","<img src=""img/red-r.png"" border=""10"">","null","trial","32","","0.8,0.2","1:go_a","1",""
"null","","html-keyboard-response","95","327887","0.0-4.0-2.18","","<div style=""font-size:60px;"">+</div>","null","","","","","","",""
"null","","image-keyboard-response","96","329392","0.0-4.0-0.19","","img/pink.png","null","trial","null","true","0.2,0.8","2:nogo_b","",""
"null","","html-keyboard-response","97","330405","0.0-4.0-1.19","","<img src=""img/pink-r.png"">","null","trial","null","","0.2,0.8","2:nogo_b","1",""
"null","","html-keyboard-response","98","331407","0.0-4.0-2.19","","<div style=""font-size:60px;"">+</div>","null","","","","","","",""
"869.2000000476837","","image-keyboard-response","99","332278","0.0-4.0-0.20","","img/pink.png","32","trial","null","false","0.2,0.8","2:nogo_b","",""
"null","","html-keyboard-response","100","333295","0.0-4.0-1.20","","<img src=""img/pink-n.png"" border=""10"">","null","trial","null","","0.2,0.8","2:nogo_b","0",""
"null","","html-keyboard-response","101","334298","0.0-4.0-2.20","","<div style=""font-size:60px;"">+</div>","null","","","","","","",""
"885.2000000476837","","image-keyboard-response","102","335185","0.0-4.0-0.21","","img/red.png","32","trial","32","true","0.8,0.2","1:go_a","",""
"null","","html-keyboard-response","103","336189","0.0-4.0-1.21","","<img src=""img/red-r.png"" border=""10"">","null","trial","32","","0.8,0.2","1:go_a","1",""
"null","","html-keyboard-response","104","337201","0.0-4.0-2.21","","<div style=""font-size:60px;"">+</div>","null","","","","","","",""
"1063","","image-keyboard-response","105","338266","0.0-4.0-0.22","","img/red.png","32","trial","32","true","0.8,0.2","1:go_a","",""
"null","","html-keyboard-response","106","339270","0.0-4.0-1.22","","<img src=""img/red-n.png"" border=""10"">","null","trial","32","","0.8,0.2","1:go_a","0",""
"null","","html-keyboard-response","107","340276","0.0-4.0-2.22","","<div style=""font-size:60px;"">+</div>","null","","","","","","",""
"970.5","","image-keyboard-response","108","341249","0.0-4.0-0.23","","img/pink.png","32","trial","null","false","0.2,0.8","2:nogo_b","",""
"null","","html-keyboard-response","109","342264","0.0-4.0-1.23","","<img src=""img/pink-n.png"" border=""10"">","null","trial","null","","0.2,0.8","2:nogo_b","0",""
"null","","html-keyboard-response","110","343272","0.0-4.0-2.23","","<div style=""font-size:60px;"">+</div>","null","","","","","","",""
"914.6000000238419","","image-keyboard-response","111","344189","0.0-4.0-0.24","","img/red.png","32","trial","32","true","0.8,0.2","1:go_a","",""
"null","","html-keyboard-response","112","345207","0.0-4.0-1.24","","<img src=""img/red-r.png"" border=""10"">","null","trial","32","","0.8,0.2","1:go_a","1",""
"null","","html-keyboard-response","113","346226","0.0-4.0-2.24","","<div style=""font-size:60px;"">+</div>","null","","","","","","",""
"854.3999999761581","","image-keyboard-response","114","347082","0.0-4.0-0.25","","img/pink.png","32","trial","null","false","0.2,0.8","2:nogo_b","",""
"null","","html-keyboard-response","115","348109","0.0-4.0-1.25","","<img src=""img/pink-n.png"" border=""10"">","null","trial","null","","0.2,0.8","2:nogo_b","0",""
"null","","html-keyboard-response","116","349114","0.0-4.0-2.25","","<div style=""font-size:60px;"">+</div>","null","","","","","","",""
"620.5","","image-keyboard-response","117","349736","0.0-4.0-0.26","","img/red.png","32","trial","32","true","0.8,0.2","1:go_a","",""
"null","","html-keyboard-response","118","350741","0.0-4.0-1.26","","<img src=""img/red-r.png"" border=""10"">","null","trial","32","","0.8,0.2","1:go_a","1",""
"null","","html-keyboard-response","119","351744","0.0-4.0-2.26","","<div style=""font-size:60px;"">+</div>","null","","","","","","",""
"null","","image-keyboard-response","120","353252","0.0-4.0-0.27","","img/pink.png","null","trial","null","true","0.2,0.8","2:nogo_b","",""
"null","","html-keyboard-response","121","354259","0.0-4.0-1.27","","<img src=""img/pink-r.png"">","null","trial","null","","0.2,0.8","2:nogo_b","1",""
"null","","html-keyboard-response","122","355261","0.0-4.0-2.27","","<div style=""font-size:60px;"">+</div>","null","","","","","","",""
"788.1000000238419","","image-keyboard-response","123","356052","0.0-4.0-0.28","","img/red.png","32","trial","32","true","0.8,0.2","1:go_a","",""
"null","","html-keyboard-response","124","357064","0.0-4.0-1.28","","<img src=""img/red-r.png"" border=""10"">","null","trial","32","","0.8,0.2","1:go_a","1",""
"null","","html-keyboard-response","125","358075","0.0-4.0-2.28","","<div style=""font-size:60px;"">+</div>","null","","","","","","",""
"998.2000000476837","","image-keyboard-response","126","359075","0.0-4.0-0.29","","img/pink.png","32","trial","null","false","0.2,0.8","2:nogo_b","",""
"null","","html-keyboard-response","127","360089","0.0-4.0-1.29","","<img src=""img/pink-n.png"" border=""10"">","null","trial","null","","0.2,0.8","2:nogo_b","0",""
"null","","html-keyboard-response","128","361104","0.0-4.0-2.29","","<div style=""font-size:60px;"">+</div>","null","","","","","","",""
"1053.7999999523163","","image-keyboard-response","129","362160","0.0-4.0-0.30","","img/pink.png","32","trial","null","false","0.2,0.8","2:nogo_b","",""
"null","","html-keyboard-response","130","363174","0.0-4.0-1.30","","<img src=""img/pink-n.png"" border=""10"">","null","trial","null","","0.2,0.8","2:nogo_b","0",""
"null","","html-keyboard-response","131","364188","0.0-4.0-2.30","","<div style=""font-size:60px;"">+</div>","null","","","","","","",""
"1006.8000000715256","","image-keyboard-response","132","365197","0.0-4.0-0.31","","img/red.png","32","trial","32","true","0.8,0.2","1:go_a","",""
"null","","html-keyboard-response","133","366210","0.0-4.0-1.31","","<img src=""img/red-r.png"" border=""10"">","null","trial","32","","0.8,0.2","1:go_a","1",""
"null","","html-keyboard-response","134","367227","0.0-4.0-2.31","","<div style=""font-size:60px;"">+</div>","null","","","","","","",""
"1070.8999999761581","","image-keyboard-response","135","368300","0.0-4.0-0.32","","img/red.png","32","trial","32","true","0.8,0.2","1:go_a","",""
"null","","html-keyboard-response","136","369308","0.0-4.0-1.32","","<img src=""img/red-r.png"" border=""10"">","null","trial","32","","0.8,0.2","1:go_a","1",""
"null","","html-keyboard-response","137","370309","0.0-4.0-2.32","","<div style=""font-size:60px;"">+</div>","null","","","","","","",""
"null","","image-keyboard-response","138","371815","0.0-4.0-0.33","","img/pink.png","null","trial","null","true","0.2,0.8","2:nogo_b","",""
"null","","html-keyboard-response","139","372833","0.0-4.0-1.33","","<img src=""img/pink-r.png"">","null","trial","null","","0.2,0.8","2:nogo_b","1",""
"null","","html-keyboard-response","140","373848","0.0-4.0-2.33","","<div style=""font-size:60px;"">+</div>","null","","","","","","",""
"1275.8999999761581","","image-keyboard-response","141","375129","0.0-4.0-0.34","","img/pink.png","32","trial","null","false","0.2,0.8","2:nogo_b","",""
"null","","html-keyboard-response","142","376144","0.0-4.0-1.34","","<img src=""img/pink-n.png"" border=""10"">","null","trial","null","","0.2,0.8","2:nogo_b","0",""
"null","","html-keyboard-response","143","377146","0.0-4.0-2.34","","<div style=""font-size:60px;"">+</div>","null","","","","","","",""
"1019.6000000238419","","image-keyboard-response","144","378167","0.0-4.0-0.35","","img/red.png","32","trial","32","true","0.8,0.2","1:go_a","",""
"null","","html-keyboard-response","145","379183","0.0-4.0-1.35","","<img src=""img/red-n.png"" border=""10"">","null","trial","32","","0.8,0.2","1:go_a","0",""
"null","","html-keyboard-response","146","380188","0.0-4.0-2.35","","<div style=""font-size:60px;"">+</div>","null","","","","","","",""
"874.7999999523163","","image-keyboard-response","147","381065","0.0-4.0-0.36","","img/red.png","32","trial","32","true","0.8,0.2","1:go_a","",""
"null","","html-keyboard-response","148","382081","0.0-4.0-1.36","","<img src=""img/red-r.png"" border=""10"">","null","trial","32","","0.8,0.2","1:go_a","1",""
"null","","html-keyboard-response","149","383094","0.0-4.0-2.36","","<div style=""font-size:60px;"">+</div>","null","","","","","","",""
"1239.7000000476837","","image-keyboard-response","150","384335","0.0-4.0-0.37","","img/pink.png","32","trial","null","false","0.2,0.8","2:nogo_b","",""
"null","","html-keyboard-response","151","385339","0.0-4.0-1.37","","<img src=""img/pink-r.png"" border=""10"">","null","trial","null","","0.2,0.8","2:nogo_b","1",""
"null","","html-keyboard-response","152","386346","0.0-4.0-2.37","","<div style=""font-size:60px;"">+</div>","null","","","","","","",""
"818.3999999761581","","image-keyboard-response","153","387166","0.0-4.0-0.38","","img/red.png","32","trial","32","true","0.8,0.2","1:go_a","",""
"null","","html-keyboard-response","154","388180","0.0-4.0-1.38","","<img src=""img/red-r.png"" border=""10"">","null","trial","32","","0.8,0.2","1:go_a","1",""
"null","","html-keyboard-response","155","389193","0.0-4.0-2.38","","<div style=""font-size:60px;"">+</div>","null","","","","","","",""
"null","","image-keyboard-response","156","390705","0.0-4.0-0.39","","img/pink.png","null","trial","null","true","0.2,0.8","2:nogo_b","",""
"null","","html-keyboard-response","157","391726","0.0-4.0-1.39","","<img src=""img/pink-r.png"">","null","trial","null","","0.2,0.8","2:nogo_b","1",""
"null","","html-keyboard-response","158","392731","0.0-4.0-2.39","","<div style=""font-size:60px;"">+</div>","null","","","","","","",""
"987.2999999523163","","image-keyboard-response","159","393721","0.0-4.0-0.40","","img/pink.png","32","trial","null","false","0.2,0.8","2:nogo_b","",""
"null","","html-keyboard-response","160","394737","0.0-4.0-1.40","","<img src=""img/pink-n.png"" border=""10"">","null","trial","null","","0.2,0.8","2:nogo_b","0",""
"null","","html-keyboard-response","161","395739","0.0-4.0-2.40","","<div style=""font-size:60px;"">+</div>","null","","","","","","",""
"744.6000000238419","","image-keyboard-response","162","396487","0.0-4.0-0.41","","img/red.png","32","trial","32","true","0.8,0.2","1:go_a","",""
"null","","html-keyboard-response","163","397492","0.0-4.0-1.41","","<img src=""img/red-r.png"" border=""10"">","null","trial","32","","0.8,0.2","1:go_a","1",""
"null","","html-keyboard-response","164","398501","0.0-4.0-2.41","","<div style=""font-size:60px;"">+</div>","null","","","","","","",""
"791.3999999761581","","image-keyboard-response","165","399294","0.0-4.0-0.42","","img/red.png","32","trial","32","true","0.8,0.2","1:go_a","",""
"null","","html-keyboard-response","166","400300","0.0-4.0-1.42","","<img src=""img/red-n.png"" border=""10"">","null","trial","32","","0.8,0.2","1:go_a","0",""
"null","","html-keyboard-response","167","401318","0.0-4.0-2.42","","<div style=""font-size:60px;"">+</div>","null","","","","","","",""
"849","","image-keyboard-response","168","402168","0.0-4.0-0.43","","img/pink.png","32","trial","null","false","0.2,0.8","2:nogo_b","",""
"null","","html-keyboard-response","169","403184","0.0-4.0-1.43","","<img src=""img/pink-n.png"" border=""10"">","null","trial","null","","0.2,0.8","2:nogo_b","0",""
"null","","html-keyboard-response","170","404196","0.0-4.0-2.43","","<div style=""font-size:60px;"">+</div>","null","","","","","","",""
"776","","image-keyboard-response","171","404974","0.0-4.0-0.44","","img/red.png","32","trial","32","true","0.8,0.2","1:go_a","",""
"null","","html-keyboard-response","172","405985","0.0-4.0-1.44","","<img src=""img/red-r.png"" border=""10"">","null","trial","32","","0.8,0.2","1:go_a","1",""
"null","","html-keyboard-response","173","406989","0.0-4.0-2.44","","<div style=""font-size:60px;"">+</div>","null","","","","","","",""
"1248.1000000238419","","image-keyboard-response","174","408239","0.0-4.0-0.45","","img/pink.png","32","trial","null","false","0.2,0.8","2:nogo_b","",""
"null","","html-keyboard-response","175","409255","0.0-4.0-1.45","","<img src=""img/pink-n.png"" border=""10"">","null","trial","null","","0.2,0.8","2:nogo_b","0",""
"null","","html-keyboard-response","176","410278","0.0-4.0-2.45","","<div style=""font-size:60px;"">+</div>","null","","","","","","",""
"null","","image-keyboard-response","177","411787","0.0-4.0-0.46","","img/pink.png","null","trial","null","true","0.2,0.8","2:nogo_b","",""
"null","","html-keyboard-response","178","412793","0.0-4.0-1.46","","<img src=""img/pink-n.png"">","null","trial","null","","0.2,0.8","2:nogo_b","0",""
"null","","html-keyboard-response","179","413810","0.0-4.0-2.46","","<div style=""font-size:60px;"">+</div>","null","","","","","","",""
"714.2000000476837","","image-keyboard-response","180","414526","0.0-4.0-0.47","","img/red.png","32","trial","32","true","0.8,0.2","1:go_a","",""
"null","","html-keyboard-response","181","415545","0.0-4.0-1.47","","<img src=""img/red-r.png"" border=""10"">","null","trial","32","","0.8,0.2","1:go_a","1",""
"null","","html-keyboard-response","182","416553","0.0-4.0-2.47","","<div style=""font-size:60px;"">+</div>","null","","","","","","",""
"804.3000000715256","","image-keyboard-response","183","417359","0.0-4.0-0.48","","img/red.png","32","trial","32","true","0.8,0.2","1:go_a","",""
"null","","html-keyboard-response","184","418369","0.0-4.0-1.48","","<img src=""img/red-n.png"" border=""10"">","null","trial","32","","0.8,0.2","1:go_a","0",""
"null","","html-keyboard-response","185","419384","0.0-4.0-2.48","","<div style=""font-size:60px;"">+</div>","null","","","","","","",""
"1266.2000000476837","","image-keyboard-response","186","420652","0.0-4.0-0.49","","img/pink.png","32","trial","null","false","0.2,0.8","2:nogo_b","",""
"null","","html-keyboard-response","187","421669","0.0-4.0-1.49","","<img src=""img/pink-n.png"" border=""10"">","null","trial","null","","0.2,0.8","2:nogo_b","0",""
"null","","html-keyboard-response","188","422673","0.0-4.0-2.49","","<div style=""font-size:60px;"">+</div>","null","","","","","","",""
"779","","image-keyboard-response","189","423454","0.0-4.0-0.50","","img/red.png","32","trial","32","true","0.8,0.2","1:go_a","",""
"null","","html-keyboard-response","190","424474","0.0-4.0-1.50","","<img src=""img/red-r.png"" border=""10"">","null","trial","32","","0.8,0.2","1:go_a","1",""
"null","","html-keyboard-response","191","425486","0.0-4.0-2.50","","<div style=""font-size:60px;"">+</div>","null","","","","","","",""
"null","","image-keyboard-response","192","426992","0.0-4.0-0.51","","img/pink.png","null","trial","null","true","0.2,0.8","2:nogo_b","",""
"null","","html-keyboard-response","193","427998","0.0-4.0-1.51","","<img src=""img/pink-n.png"">","null","trial","null","","0.2,0.8","2:nogo_b","0",""
"null","","html-keyboard-response","194","429000","0.0-4.0-2.51","","<div style=""font-size:60px;"">+</div>","null","","","","","","",""
"915.8999999761581","","image-keyboard-response","195","429918","0.0-4.0-0.52","","img/pink.png","32","trial","null","false","0.2,0.8","2:nogo_b","",""
"null","","html-keyboard-response","196","430924","0.0-4.0-1.52","","<img src=""img/pink-r.png"" border=""10"">","null","trial","null","","0.2,0.8","2:nogo_b","1",""
"null","","html-keyboard-response","197","431926","0.0-4.0-2.52","","<div style=""font-size:60px;"">+</div>","null","","","","","","",""
"812.2999999523163","","image-keyboard-response","198","432741","0.0-4.0-0.53","","img/red.png","32","trial","32","true","0.8,0.2","1:go_a","",""
"null","","html-keyboard-response","199","433745","0.0-4.0-1.53","","<img src=""img/red-r.png"" border=""10"">","null","trial","32","","0.8,0.2","1:go_a","1",""
"null","","html-keyboard-response","200","434749","0.0-4.0-2.53","","<div style=""font-size:60px;"">+</div>","null","","","","","","",""
"1303.8000000715256","","image-keyboard-response","201","436058","0.0-4.0-0.54","","img/red.png","32","trial","32","true","0.8,0.2","1:go_a","",""
"null","","html-keyboard-response","202","437070","0.0-4.0-1.54","","<img src=""img/red-r.png"" border=""10"">","null","trial","32","","0.8,0.2","1:go_a","1",""
"null","","html-keyboard-response","203","438087","0.0-4.0-2.54","","<div style=""font-size:60px;"">+</div>","null","","","","","","",""
"null","","image-keyboard-response","204","439593","0.0-4.0-0.55","","img/pink.png","null","trial","null","true","0.2,0.8","2:nogo_b","",""
"null","","html-keyboard-response","205","440609","0.0-4.0-1.55","","<img src=""img/pink-r.png"">","null","trial","null","","0.2,0.8","2:nogo_b","1",""
"null","","html-keyboard-response","206","441624","0.0-4.0-2.55","","<div style=""font-size:60px;"">+</div>","null","","","","","","",""
"null","","image-keyboard-response","207","443127","0.0-4.0-0.56","","img/pink.png","null","trial","null","true","0.2,0.8","2:nogo_b","",""
"null","","html-keyboard-response","208","444132","0.0-4.0-1.56","","<img src=""img/pink-n.png"">","null","trial","null","","0.2,0.8","2:nogo_b","0",""
"null","","html-keyboard-response","209","445148","0.0-4.0-2.56","","<div style=""font-size:60px;"">+</div>","null","","","","","","",""
"1320.2000000476837","","image-keyboard-response","210","446470","0.0-4.0-0.57","","img/red.png","32","trial","32","true","0.8,0.2","1:go_a","",""
"null","","html-keyboard-response","211","447474","0.0-4.0-1.57","","<img src=""img/red-r.png"" border=""10"">","null","trial","32","","0.8,0.2","1:go_a","1",""
"null","","html-keyboard-response","212","448486","0.0-4.0-2.57","","<div style=""font-size:60px;"">+</div>","null","","","","","","",""
"869.5","","image-keyboard-response","213","449358","0.0-4.0-0.58","","img/red.png","32","trial","32","true","0.8,0.2","1:go_a","",""
"null","","html-keyboard-response","214","450375","0.0-4.0-1.58","","<img src=""img/red-r.png"" border=""10"">","null","trial","32","","0.8,0.2","1:go_a","1",""
"null","","html-keyboard-response","215","451390","0.0-4.0-2.58","","<div style=""font-size:60px;"">+</div>","null","","","","","","",""
"957.3999999761581","","image-keyboard-response","216","452349","0.0-4.0-0.59","","img/pink.png","32","trial","null","false","0.2,0.8","2:nogo_b","",""
"null","","html-keyboard-response","217","453355","0.0-4.0-1.59","","<img src=""img/pink-n.png"" border=""10"">","null","trial","null","","0.2,0.8","2:nogo_b","0",""
"null","","html-keyboard-response","218","454369","0.0-4.0-2.59","","<div style=""font-size:60px;"">+</div>","null","","","","","","",""
"4065.3000000715256","","instructions","219","458436","0.0-5.0","[{""page_index"":0,""viewing_time"":4064.3000000715256}]","","","","","","","","",""
"1211.2999999523163","","image-keyboard-response","220","459652","0.0-6.0-0.0","","img/pink.png","32","trial","null","false","0.4,0.6","4:nogo_d","",""
"null","","html-keyboard-response","221","460668","0.0-6.0-1.0","","<img src=""img/pink-n.png"" border=""10"">","null","trial","null","","0.4,0.6","4:nogo_d","0",""
"null","","html-keyboard-response","222","461674","0.0-6.0-2.0","","<div style=""font-size:60px;"">+</div>","null","","","","","","",""
"824.1000000238419","","image-keyboard-response","223","462499","0.0-6.0-0.1","","img/red.png","32","trial","32","true","0.6,0.4","3:go_c","",""
"null","","html-keyboard-response","224","463522","0.0-6.0-1.1","","<img src=""img/red-r.png"" border=""10"">","null","trial","32","","0.6,0.4","3:go_c","1",""
"null","","html-keyboard-response","225","464524","0.0-6.0-2.1","","<div style=""font-size:60px;"">+</div>","null","","","","","","",""
"958.1999999284744","","image-keyboard-response","226","465484","0.0-6.0-0.2","","img/grey.png","32","trial","32","true","0.8,0.2","1:go_a","",""
"null","","html-keyboard-response","227","466497","0.0-6.0-1.2","","<img src=""img/grey-r.png"" border=""10"">","null","trial","32","","0.8,0.2","1:go_a","1",""
"null","","html-keyboard-response","228","467510","0.0-6.0-2.2","","<div style=""font-size:60px;"">+</div>","null","","","","","","",""
"916","","image-keyboard-response","229","468435","0.0-6.0-0.3","","img/orange.png","32","trial","null","false","0.2,0.8","2:nogo_b","",""
"null","","html-keyboard-response","230","469454","0.0-6.0-1.3","","<img src=""img/orange-n.png"" border=""10"">","null","trial","null","","0.2,0.8","2:nogo_b","0",""
"null","","html-keyboard-response","231","470468","0.0-6.0-2.3","","<div style=""font-size:60px;"">+</div>","null","","","","","","",""
"null","","image-keyboard-response","232","471985","0.0-6.0-0.4","","img/orange.png","null","trial","null","true","0.2,0.8","2:nogo_b","",""
"null","","html-keyboard-response","233","473009","0.0-6.0-1.4","","<img src=""img/orange-n.png"">","null","trial","null","","0.2,0.8","2:nogo_b","0",""
"null","","html-keyboard-response","234","474025","0.0-6.0-2.4","","<div style=""font-size:60px;"">+</div>","null","","","","","","",""
"1442.2999999523163","","image-keyboard-response","235","475469","0.0-6.0-0.5","","img/grey.png","32","trial","32","true","0.8,0.2","1:go_a","",""
"null","","html-keyboard-response","236","476485","0.0-6.0-1.5","","<img src=""img/grey-r.png"" border=""10"">","null","trial","32","","0.8,0.2","1:go_a","1",""
"null","","html-keyboard-response","237","477499","0.0-6.0-2.5","","<div style=""font-size:60px;"">+</div>","null","","","","","","",""
"814.0999999046326","","image-keyboard-response","238","478315","0.0-6.0-0.6","","img/red.png","32","trial","32","true","0.6,0.4","3:go_c","",""
"null","","html-keyboard-response","239","479333","0.0-6.0-1.6","","<img src=""img/red-r.png"" border=""10"">","null","trial","32","","0.6,0.4","3:go_c","1",""
"null","","html-keyboard-response","240","480350","0.0-6.0-2.6","","<div style=""font-size:60px;"">+</div>","null","","","","","","",""
"null","","image-keyboard-response","241","481866","0.0-6.0-0.7","","img/pink.png","null","trial","null","true","0.4,0.6","4:nogo_d","",""
"null","","html-keyboard-response","242","482879","0.0-6.0-1.7","","<img src=""img/pink-n.png"">","null","trial","null","","0.4,0.6","4:nogo_d","0",""
"null","","html-keyboard-response","243","483894","0.0-6.0-2.7","","<div style=""font-size:60px;"">+</div>","null","","","","","","",""
"null","","image-keyboard-response","244","485397","0.0-6.0-0.8","","img/pink.png","null","trial","null","true","0.4,0.6","4:nogo_d","",""
"null","","html-keyboard-response","245","486402","0.0-6.0-1.8","","<img src=""img/pink-n.png"">","null","trial","null","","0.4,0.6","4:nogo_d","0",""
"null","","html-keyboard-response","246","487405","0.0-6.0-2.8","","<div style=""font-size:60px;"">+</div>","null","","","","","","",""
"956.3999999761581","","image-keyboard-response","247","488363","0.0-6.0-0.9","","img/red.png","32","trial","32","true","0.6,0.4","3:go_c","",""
"null","","html-keyboard-response","248","489377","0.0-6.0-1.9","","<img src=""img/red-r.png"" border=""10"">","null","trial","32","","0.6,0.4","3:go_c","1",""
"null","","html-keyboard-response","249","490392","0.0-6.0-2.9","","<div style=""font-size:60px;"">+</div>","null","","","","","","",""
"null","","image-keyboard-response","250","491894","0.0-6.0-0.10","","img/grey.png","null","trial","32","false","0.8,0.2","1:go_a","",""
"null","","html-keyboard-response","251","492906","0.0-6.0-1.10","","<img src=""img/grey-n.png"">","null","trial","32","","0.8,0.2","1:go_a","0",""
"null","","html-keyboard-response","252","493918","0.0-6.0-2.10","","<div style=""font-size:60px;"">+</div>","null","","","","","","",""
"null","","image-keyboard-response","253","495436","0.0-6.0-0.11","","img/orange.png","null","trial","null","true","0.2,0.8","2:nogo_b","",""
"null","","html-keyboard-response","254","496445","0.0-6.0-1.11","","<img src=""img/orange-r.png"">","null","trial","null","","0.2,0.8","2:nogo_b","1",""
"null","","html-keyboard-response","255","497452","0.0-6.0-2.11","","<div style=""font-size:60px;"">+</div>","null","","","","","","",""
"null","","image-keyboard-response","256","498962","0.0-6.0-0.12","","img/grey.png","null","trial","32","false","0.8,0.2","1:go_a","",""
"null","","html-keyboard-response","257","499966","0.0-6.0-1.12","","<img src=""img/grey-n.png"">","null","trial","32","","0.8,0.2","1:go_a","0",""
"null","","html-keyboard-response","258","500981","0.0-6.0-2.12","","<div style=""font-size:60px;"">+</div>","null","","","","","","",""
"776.7000000476837","","image-keyboard-response","259","501760","0.0-6.0-0.13","","img/red.png","32","trial","32","true","0.6,0.4","3:go_c","",""
"null","","html-keyboard-response","260","502765","0.0-6.0-1.13","","<img src=""img/red-r.png"" border=""10"">","null","trial","32","","0.6,0.4","3:go_c","1",""
"null","","html-keyboard-response","261","503768","0.0-6.0-2.13","","<div style=""font-size:60px;"">+</div>","null","","","","","","",""
"null","","image-keyboard-response","262","505276","0.0-6.0-0.14","","img/orange.png","null","trial","null","true","0.2,0.8","2:nogo_b","",""
"null","","html-keyboard-response","263","506287","0.0-6.0-1.14","","<img src=""img/orange-r.png"">","null","trial","null","","0.2,0.8","2:nogo_b","1",""
"null","","html-keyboard-response","264","507297","0.0-6.0-2.14","","<div style=""font-size:60px;"">+</div>","null","","","","","","",""
"null","","image-keyboard-response","265","508810","0.0-6.0-0.15","","img/pink.png","null","trial","null","true","0.4,0.6","4:nogo_d","",""
"null","","html-keyboard-response","266","509813","0.0-6.0-1.15","","<img src=""img/pink-r.png"">","null","trial","null","","0.4,0.6","4:nogo_d","1",""
"null","","html-keyboard-response","267","510816","0.0-6.0-2.15","","<div style=""font-size:60px;"">+</div>","null","","","","","","",""
"702","","image-keyboard-response","268","511521","0.0-6.0-0.16","","img/red.png","32","trial","32","true","0.6,0.4","3:go_c","",""
"null","","html-keyboard-response","269","512538","0.0-6.0-1.16","","<img src=""img/red-r.png"" border=""10"">","null","trial","32","","0.6,0.4","3:go_c","1",""
"null","","html-keyboard-response","270","513541","0.0-6.0-2.16","","<div style=""font-size:60px;"">+</div>","null","","","","","","",""
"null","","image-keyboard-response","271","515059","0.0-6.0-0.17","","img/grey.png","null","trial","32","false","0.8,0.2","1:go_a","",""
"null","","html-keyboard-response","272","516075","0.0-6.0-1.17","","<img src=""img/grey-n.png"">","null","trial","32","","0.8,0.2","1:go_a","0",""
"null","","html-keyboard-response","273","517078","0.0-6.0-2.17","","<div style=""font-size:60px;"">+</div>","null","","","","","","",""
"820.7999999523163","","image-keyboard-response","274","517901","0.0-6.0-0.18","","img/orange.png","32","trial","null","false","0.2,0.8","2:nogo_b","",""
"null","","html-keyboard-response","275","518914","0.0-6.0-1.18","","<img src=""img/orange-n.png"" border=""10"">","null","trial","null","","0.2,0.8","2:nogo_b","0",""
"null","","html-keyboard-response","276","519923","0.0-6.0-2.18","","<div style=""font-size:60px;"">+</div>","null","","","","","","",""
"null","","image-keyboard-response","277","521439","0.0-6.0-0.19","","img/pink.png","null","trial","null","true","0.4,0.6","4:nogo_d","",""
"null","","html-keyboard-response","278","522445","0.0-6.0-1.19","","<img src=""img/pink-r.png"">","null","trial","null","","0.4,0.6","4:nogo_d","1",""
"null","","html-keyboard-response","279","523464","0.0-6.0-2.19","","<div style=""font-size:60px;"">+</div>","null","","","","","","",""
"912.7999999523163","","image-keyboard-response","280","524379","0.0-6.0-0.20","","img/red.png","32","trial","32","true","0.6,0.4","3:go_c","",""
"null","","html-keyboard-response","281","525397","0.0-6.0-1.20","","<img src=""img/red-r.png"" border=""10"">","null","trial","32","","0.6,0.4","3:go_c","1",""
"null","","html-keyboard-response","282","526406","0.0-6.0-2.20","","<div style=""font-size:60px;"">+</div>","null","","","","","","",""
"1356.8999999761581","","image-keyboard-response","283","527765","0.0-6.0-0.21","","img/pink.png","32","trial","null","false","0.4,0.6","4:nogo_d","",""
"null","","html-keyboard-response","284","528801","0.0-6.0-1.21","","<img src=""img/pink-r.png"" border=""10"">","null","trial","null","","0.4,0.6","4:nogo_d","1",""
"null","","html-keyboard-response","285","529810","0.0-6.0-2.21","","<div style=""font-size:60px;"">+</div>","null","","","","","","",""
"null","","image-keyboard-response","286","531312","0.0-6.0-0.22","","img/orange.png","null","trial","null","true","0.2,0.8","2:nogo_b","",""
"null","","html-keyboard-response","287","532320","0.0-6.0-1.22","","<img src=""img/orange-r.png"">","null","trial","null","","0.2,0.8","2:nogo_b","1",""
"null","","html-keyboard-response","288","533332","0.0-6.0-2.22","","<div style=""font-size:60px;"">+</div>","null","","","","","","",""
"null","","image-keyboard-response","289","534846","0.0-6.0-0.23","","img/grey.png","null","trial","32","false","0.8,0.2","1:go_a","",""
"null","","html-keyboard-response","290","535874","0.0-6.0-1.23","","<img src=""img/grey-n.png"">","null","trial","32","","0.8,0.2","1:go_a","0",""
"null","","html-keyboard-response","291","536883","0.0-6.0-2.23","","<div style=""font-size:60px;"">+</div>","null","","","","","","",""
"null","","image-keyboard-response","292","538391","0.0-6.0-0.24","","img/grey.png","null","trial","32","false","0.8,0.2","1:go_a","",""
"null","","html-keyboard-response","293","539404","0.0-6.0-1.24","","<img src=""img/grey-n.png"">","null","trial","32","","0.8,0.2","1:go_a","0",""
"null","","html-keyboard-response","294","540408","0.0-6.0-2.24","","<div style=""font-size:60px;"">+</div>","null","","","","","","",""
"713.1000000238419","","image-keyboard-response","295","541124","0.0-6.0-0.25","","img/red.png","32","trial","32","true","0.6,0.4","3:go_c","",""
"null","","html-keyboard-response","296","542128","0.0-6.0-1.25","","<img src=""img/red-r.png"" border=""10"">","null","trial","32","","0.6,0.4","3:go_c","1",""
"null","","html-keyboard-response","297","543136","0.0-6.0-2.25","","<div style=""font-size:60px;"">+</div>","null","","","","","","",""
"908.5999999046326","","image-keyboard-response","298","544047","0.0-6.0-0.26","","img/orange.png","32","trial","null","false","0.2,0.8","2:nogo_b","",""
"null","","html-keyboard-response","299","545051","0.0-6.0-1.26","","<img src=""img/orange-n.png"" border=""10"">","null","trial","null","","0.2,0.8","2:nogo_b","0",""
"null","","html-keyboard-response","300","546069","0.0-6.0-2.26","","<div style=""font-size:60px;"">+</div>","null","","","","","","",""
"1386.1999999284744","","image-keyboard-response","301","547457","0.0-6.0-0.27","","img/pink.png","32","trial","null","false","0.4,0.6","4:nogo_d","",""
"null","","html-keyboard-response","302","548479","0.0-6.0-1.27","","<img src=""img/pink-r.png"" border=""10"">","null","trial","null","","0.4,0.6","4:nogo_d","1",""
"null","","html-keyboard-response","303","549495","0.0-6.0-2.27","","<div style=""font-size:60px;"">+</div>","null","","","","","","",""
"1157.6999999284744","","image-keyboard-response","304","550656","0.0-6.0-0.28","","img/pink.png","32","trial","null","false","0.4,0.6","4:nogo_d","",""
"null","","html-keyboard-response","305","551671","0.0-6.0-1.28","","<img src=""img/pink-r.png"" border=""10"">","null","trial","null","","0.4,0.6","4:nogo_d","1",""
"null","","html-keyboard-response","306","552675","0.0-6.0-2.28","","<div style=""font-size:60px;"">+</div>","null","","","","","","",""
"null","","image-keyboard-response","307","554196","0.0-6.0-0.29","","img/orange.png","null","trial","null","true","0.2,0.8","2:nogo_b","",""
"null","","html-keyboard-response","308","555208","0.0-6.0-1.29","","<img src=""img/orange-n.png"">","null","trial","null","","0.2,0.8","2:nogo_b","0",""
"null","","html-keyboard-response","309","556225","0.0-6.0-2.29","","<div style=""font-size:60px;"">+</div>","null","","","","","","",""
"965.2000000476837","","image-keyboard-response","310","557192","0.0-6.0-0.30","","img/red.png","32","trial","32","true","0.6,0.4","3:go_c","",""
"null","","html-keyboard-response","311","558199","0.0-6.0-1.30","","<img src=""img/red-n.png"" border=""10"">","null","trial","32","","0.6,0.4","3:go_c","0",""
"null","","html-keyboard-response","312","559201","0.0-6.0-2.30","","<div style=""font-size:60px;"">+</div>","null","","","","","","",""
"null","","image-keyboard-response","313","560705","0.0-6.0-0.31","","img/grey.png","null","trial","32","false","0.8,0.2","1:go_a","",""
"null","","html-keyboard-response","314","561714","0.0-6.0-1.31","","<img src=""img/grey-r.png"">","null","trial","32","","0.8,0.2","1:go_a","1",""
"null","","html-keyboard-response","315","562730","0.0-6.0-2.31","","<div style=""font-size:60px;"">+</div>","null","","","","","","",""
"1215.0999999046326","","image-keyboard-response","316","563959","0.0-6.0-0.32","","img/pink.png","32","trial","null","false","0.4,0.6","4:nogo_d","",""
"null","","html-keyboard-response","317","564974","0.0-6.0-1.32","","<img src=""img/pink-r.png"" border=""10"">","null","trial","null","","0.4,0.6","4:nogo_d","1",""
"null","","html-keyboard-response","318","565979","0.0-6.0-2.32","","<div style=""font-size:60px;"">+</div>","null","","","","","","",""
"1125.4000000953674","","image-keyboard-response","319","567106","0.0-6.0-0.33","","img/grey.png","32","trial","32","true","0.8,0.2","1:go_a","",""
"null","","html-keyboard-response","320","568118","0.0-6.0-1.33","","<img src=""img/grey-r.png"" border=""10"">","null","trial","32","","0.8,0.2","1:go_a","1",""
"null","","html-keyboard-response","321","569135","0.0-6.0-2.33","","<div style=""font-size:60px;"">+</div>","null","","","","","","",""
"null","","image-keyboard-response","322","570641","0.0-6.0-0.34","","img/red.png","null","trial","32","false","0.6,0.4","3:go_c","",""
"null","","html-keyboard-response","323","571652","0.0-6.0-1.34","","<img src=""img/red-r.png"">","null","trial","32","","0.6,0.4","3:go_c","1",""
"null","","html-keyboard-response","324","572665","0.0-6.0-2.34","","<div style=""font-size:60px;"">+</div>","null","","","","","","",""
"null","","image-keyboard-response","325","574207","0.0-6.0-0.35","","img/orange.png","null","trial","null","true","0.2,0.8","2:nogo_b","",""
"null","","html-keyboard-response","326","575215","0.0-6.0-1.35","","<img src=""img/orange-n.png"">","null","trial","null","","0.2,0.8","2:nogo_b","0",""
"null","","html-keyboard-response","327","576219","0.0-6.0-2.35","","<div style=""font-size:60px;"">+</div>","null","","","","","","",""
"null","","image-keyboard-response","328","577746","0.0-6.0-0.36","","img/pink.png","null","trial","null","true","0.4,0.6","4:nogo_d","",""
"null","","html-keyboard-response","329","578758","0.0-6.0-1.36","","<img src=""img/pink-r.png"">","null","trial","null","","0.4,0.6","4:nogo_d","1",""
"null","","html-keyboard-response","330","579763","0.0-6.0-2.36","","<div style=""font-size:60px;"">+</div>","null","","","","","","",""
"986.1000000238419","","image-keyboard-response","331","580751","0.0-6.0-0.37","","img/orange.png","32","trial","null","false","0.2,0.8","2:nogo_b","",""
"null","","html-keyboard-response","332","581759","0.0-6.0-1.37","","<img src=""img/orange-n.png"" border=""10"">","null","trial","null","","0.2,0.8","2:nogo_b","0",""
"null","","html-keyboard-response","333","582797","0.0-6.0-2.37","","<div style=""font-size:60px;"">+</div>","null","","","","","","",""
"null","","image-keyboard-response","334","584306","0.0-6.0-0.38","","img/red.png","null","trial","32","false","0.6,0.4","3:go_c","",""
"null","","html-keyboard-response","335","585312","0.0-6.0-1.38","","<img src=""img/red-n.png"">","null","trial","32","","0.6,0.4","3:go_c","0",""
"null","","html-keyboard-response","336","586324","0.0-6.0-2.38","","<div style=""font-size:60px;"">+</div>","null","","","","","","",""
"null","","image-keyboard-response","337","587834","0.0-6.0-0.39","","img/grey.png","null","trial","32","false","0.8,0.2","1:go_a","",""
"null","","html-keyboard-response","338","588838","0.0-6.0-1.39","","<img src=""img/grey-n.png"">","null","trial","32","","0.8,0.2","1:go_a","0",""
"null","","html-keyboard-response","339","589857","0.0-6.0-2.39","","<div style=""font-size:60px;"">+</div>","null","","","","","","",""
"810.3999999761581","","image-keyboard-response","340","590670","0.0-6.0-0.40","","img/red.png","32","trial","32","true","0.6,0.4","3:go_c","",""
"null","","html-keyboard-response","341","591685","0.0-6.0-1.40","","<img src=""img/red-r.png"" border=""10"">","null","trial","32","","0.6,0.4","3:go_c","1",""
"null","","html-keyboard-response","342","592697","0.0-6.0-2.40","","<div style=""font-size:60px;"">+</div>","null","","","","","","",""
"null","","image-keyboard-response","343","594212","0.0-6.0-0.41","","img/grey.png","null","trial","32","false","0.8,0.2","1:go_a","",""
"null","","html-keyboard-response","344","595221","0.0-6.0-1.41","","<img src=""img/grey-n.png"">","null","trial","32","","0.8,0.2","1:go_a","0",""
"null","","html-keyboard-response","345","596237","0.0-6.0-2.41","","<div style=""font-size:60px;"">+</div>","null","","","","","","",""
"1206.7999999523163","","image-keyboard-response","346","597446","0.0-6.0-0.42","","img/orange.png","32","trial","null","false","0.2,0.8","2:nogo_b","",""
"null","","html-keyboard-response","347","598455","0.0-6.0-1.42","","<img src=""img/orange-n.png"" border=""10"">","null","trial","null","","0.2,0.8","2:nogo_b","0",""
"null","","html-keyboard-response","348","599471","0.0-6.0-2.42","","<div style=""font-size:60px;"">+</div>","null","","","","","","",""
"1045.7000000476837","","image-keyboard-response","349","600519","0.0-6.0-0.43","","img/pink.png","32","trial","null","false","0.4,0.6","4:nogo_d","",""
"null","","html-keyboard-response","350","601533","0.0-6.0-1.43","","<img src=""img/pink-r.png"" border=""10"">","null","trial","null","","0.4,0.6","4:nogo_d","1",""
"null","","html-keyboard-response","351","602548","0.0-6.0-2.43","","<div style=""font-size:60px;"">+</div>","null","","","","","","",""
"null","","image-keyboard-response","352","604053","0.0-6.0-0.44","","img/orange.png","null","trial","null","true","0.2,0.8","2:nogo_b","",""
"null","","html-keyboard-response","353","605070","0.0-6.0-1.44","","<img src=""img/orange-r.png"">","null","trial","null","","0.2,0.8","2:nogo_b","1",""
"null","","html-keyboard-response","354","606079","0.0-6.0-2.44","","<div style=""font-size:60px;"">+</div>","null","","","","","","",""
"null","","image-keyboard-response","355","607596","0.0-6.0-0.45","","img/grey.png","null","trial","32","false","0.8,0.2","1:go_a","",""
"null","","html-keyboard-response","356","608600","0.0-6.0-1.45","","<img src=""img/grey-r.png"">","null","trial","32","","0.8,0.2","1:go_a","1",""
"null","","html-keyboard-response","357","609611","0.0-6.0-2.45","","<div style=""font-size:60px;"">+</div>","null","","","","","","",""
"null","","image-keyboard-response","358","611123","0.0-6.0-0.46","","img/pink.png","null","trial","null","true","0.4,0.6","4:nogo_d","",""
"null","","html-keyboard-response","359","612134","0.0-6.0-1.46","","<img src=""img/pink-n.png"">","null","trial","null","","0.4,0.6","4:nogo_d","0",""
"null","","html-keyboard-response","360","613135","0.0-6.0-2.46","","<div style=""font-size:60px;"">+</div>","null","","","","","","",""
"931.8000000715256","","image-keyboard-response","361","614069","0.0-6.0-0.47","","img/red.png","32","trial","32","true","0.6,0.4","3:go_c","",""
"null","","html-keyboard-response","362","615088","0.0-6.0-1.47","","<img src=""img/red-n.png"" border=""10"">","null","trial","32","","0.6,0.4","3:go_c","0",""
"null","","html-keyboard-response","363","616099","0.0-6.0-2.47","","<div style=""font-size:60px;"">+</div>","null","","","","","","",""
"null","","image-keyboard-response","364","617606","0.0-6.0-0.48","","img/grey.png","null","trial","32","false","0.8,0.2","1:go_a","",""
"null","","html-keyboard-response","365","618625","0.0-6.0-1.48","","<img src=""img/grey-n.png"">","null","trial","32","","0.8,0.2","1:go_a","0",""
"null","","html-keyboard-response","366","619640","0.0-6.0-2.48","","<div style=""font-size:60px;"">+</div>","null","","","","","","",""
"1355.8000000715256","","image-keyboard-response","367","620998","0.0-6.0-0.49","","img/pink.png","32","trial","null","false","0.4,0.6","4:nogo_d","",""
"null","","html-keyboard-response","368","622016","0.0-6.0-1.49","","<img src=""img/pink-r.png"" border=""10"">","null","trial","null","","0.4,0.6","4:nogo_d","1",""
"null","","html-keyboard-response","369","623024","0.0-6.0-2.49","","<div style=""font-size:60px;"">+</div>","null","","","","","","",""
"null","","image-keyboard-response","370","624532","0.0-6.0-0.50","","img/red.png","null","trial","32","false","0.6,0.4","3:go_c","",""
"null","","html-keyboard-response","371","625548","0.0-6.0-1.50","","<img src=""img/red-r.png"">","null","trial","32","","0.6,0.4","3:go_c","1",""
"null","","html-keyboard-response","372","626550","0.0-6.0-2.50","","<div style=""font-size:60px;"">+</div>","null","","","","","","",""
"null","","image-keyboard-response","373","628067","0.0-6.0-0.51","","img/orange.png","null","trial","null","true","0.2,0.8","2:nogo_b","",""
"null","","html-keyboard-response","374","629085","0.0-6.0-1.51","","<img src=""img/orange-n.png"">","null","trial","null","","0.2,0.8","2:nogo_b","0",""
"null","","html-keyboard-response","375","630087","0.0-6.0-2.51","","<div style=""font-size:60px;"">+</div>","null","","","","","","",""
"null","","image-keyboard-response","376","631602","0.0-6.0-0.52","","img/pink.png","null","trial","null","true","0.4,0.6","4:nogo_d","",""
"null","","html-keyboard-response","377","632608","0.0-6.0-1.52","","<img src=""img/pink-n.png"">","null","trial","null","","0.4,0.6","4:nogo_d","0",""
"null","","html-keyboard-response","378","633616","0.0-6.0-2.52","","<div style=""font-size:60px;"">+</div>","null","","","","","","",""
"811.8999999761581","","image-keyboard-response","379","634430","0.0-6.0-0.53","","img/red.png","32","trial","32","true","0.6,0.4","3:go_c","",""
"null","","html-keyboard-response","380","635449","0.0-6.0-1.53","","<img src=""img/red-n.png"" border=""10"">","null","trial","32","","0.6,0.4","3:go_c","0",""
"null","","html-keyboard-response","381","636451","0.0-6.0-2.53","","<div style=""font-size:60px;"">+</div>","null","","","","","","",""
"null","","image-keyboard-response","382","637971","0.0-6.0-0.54","","img/grey.png","null","trial","32","false","0.8,0.2","1:go_a","",""
"null","","html-keyboard-response","383","638994","0.0-6.0-1.54","","<img src=""img/grey-n.png"">","null","trial","32","","0.8,0.2","1:go_a","0",""
"null","","html-keyboard-response","384","640013","0.0-6.0-2.54","","<div style=""font-size:60px;"">+</div>","null","","","","","","",""
"1004.1000000238419","","image-keyboard-response","385","641019","0.0-6.0-0.55","","img/orange.png","32","trial","null","false","0.2,0.8","2:nogo_b","",""
"null","","html-keyboard-response","386","642048","0.0-6.0-1.55","","<img src=""img/orange-n.png"" border=""10"">","null","trial","null","","0.2,0.8","2:nogo_b","0",""
"null","","html-keyboard-response","387","643072","0.0-6.0-2.55","","<div style=""font-size:60px;"">+</div>","null","","","","","","",""
"1034.8999999761581","","image-keyboard-response","388","644108","0.0-6.0-0.56","","img/red.png","32","trial","32","true","0.6,0.4","3:go_c","",""
"null","","html-keyboard-response","389","645115","0.0-6.0-1.56","","<img src=""img/red-n.png"" border=""10"">","null","trial","32","","0.6,0.4","3:go_c","0",""
"null","","html-keyboard-response","390","646117","0.0-6.0-2.56","","<div style=""font-size:60px;"">+</div>","null","","","","","","",""
"989.2000000476837","","image-keyboard-response","391","647108","0.0-6.0-0.57","","img/pink.png","32","trial","null","false","0.4,0.6","4:nogo_d","",""
"null","","html-keyboard-response","392","648115","0.0-6.0-1.57","","<img src=""img/pink-n.png"" border=""10"">","null","trial","null","","0.4,0.6","4:nogo_d","0",""
"null","","html-keyboard-response","393","649122","0.0-6.0-2.57","","<div style=""font-size:60px;"">+</div>","null","","","","","","",""
"992.5","","image-keyboard-response","394","650116","0.0-6.0-0.58","","img/orange.png","32","trial","null","false","0.2,0.8","2:nogo_b","",""
"null","","html-keyboard-response","395","651126","0.0-6.0-1.58","","<img src=""img/orange-n.png"" border=""10"">","null","trial","null","","0.2,0.8","2:nogo_b","0",""
"null","","html-keyboard-response","396","652141","0.0-6.0-2.58","","<div style=""font-size:60px;"">+</div>","null","","","","","","",""
"null","","image-keyboard-response","397","653657","0.0-6.0-0.59","","img/grey.png","null","trial","32","false","0.8,0.2","1:go_a","",""
"null","","html-keyboard-response","398","654661","0.0-6.0-1.59","","<img src=""img/grey-n.png"">","null","trial","32","","0.8,0.2","1:go_a","0",""
"null","","html-keyboard-response","399","655676","0.0-6.0-2.59","","<div style=""font-size:60px;"">+</div>","null","","","","","","",""
"null","","image-keyboard-response","400","657183","0.0-6.0-0.60","","img/grey.png","null","trial","32","false","0.8,0.2","1:go_a","",""
"null","","html-keyboard-response","401","658198","0.0-6.0-1.60","","<img src=""img/grey-n.png"">","null","trial","32","","0.8,0.2","1:go_a","0",""
"null","","html-keyboard-response","402","659214","0.0-6.0-2.60","","<div style=""font-size:60px;"">+</div>","null","","","","","","",""
"1027.1999999284744","","image-keyboard-response","403","660243","0.0-6.0-0.61","","img/red.png","32","trial","32","true","0.6,0.4","3:go_c","",""
"null","","html-keyboard-response","404","661249","0.0-6.0-1.61","","<img src=""img/red-r.png"" border=""10"">","null","trial","32","","0.6,0.4","3:go_c","1",""
"null","","html-keyboard-response","405","662251","0.0-6.0-2.61","","<div style=""font-size:60px;"">+</div>","null","","","","","","",""
"1245.6999999284744","","image-keyboard-response","406","663499","0.0-6.0-0.62","","img/orange.png","32","trial","null","false","0.2,0.8","2:nogo_b","",""
"null","","html-keyboard-response","407","664511","0.0-6.0-1.62","","<img src=""img/orange-n.png"" border=""10"">","null","trial","null","","0.2,0.8","2:nogo_b","0",""
"null","","html-keyboard-response","408","665516","0.0-6.0-2.62","","<div style=""font-size:60px;"">+</div>","null","","","","","","",""
"null","","image-keyboard-response","409","667027","0.0-6.0-0.63","","img/pink.png","null","trial","null","true","0.4,0.6","4:nogo_d","",""
"null","","html-keyboard-response","410","668041","0.0-6.0-1.63","","<img src=""img/pink-n.png"">","null","trial","null","","0.4,0.6","4:nogo_d","0",""
"null","","html-keyboard-response","411","669056","0.0-6.0-2.63","","<div style=""font-size:60px;"">+</div>","null","","","","","","",""
"null","","image-keyboard-response","412","670565","0.0-6.0-0.64","","img/pink.png","null","trial","null","true","0.4,0.6","4:nogo_d","",""
"null","","html-keyboard-response","413","671585","0.0-6.0-1.64","","<img src=""img/pink-n.png"">","null","trial","null","","0.4,0.6","4:nogo_d","0",""
"null","","html-keyboard-response","414","672596","0.0-6.0-2.64","","<div style=""font-size:60px;"">+</div>","null","","","","","","",""
"1181.2000000476837","","image-keyboard-response","415","673779","0.0-6.0-0.65","","img/orange.png","32","trial","null","false","0.2,0.8","2:nogo_b","",""
"null","","html-keyboard-response","416","674801","0.0-6.0-1.65","","<img src=""img/orange-r.png"" border=""10"">","null","trial","null","","0.2,0.8","2:nogo_b","1",""
"null","","html-keyboard-response","417","675809","0.0-6.0-2.65","","<div style=""font-size:60px;"">+</div>","null","","","","","","",""
"null","","image-keyboard-response","418","677313","0.0-6.0-0.66","","img/red.png","null","trial","32","false","0.6,0.4","3:go_c","",""
"null","","html-keyboard-response","419","678325","0.0-6.0-1.66","","<img src=""img/red-n.png"">","null","trial","32","","0.6,0.4","3:go_c","0",""
"null","","html-keyboard-response","420","679337","0.0-6.0-2.66","","<div style=""font-size:60px;"">+</div>","null","","","","","","",""
"null","","image-keyboard-response","421","680842","0.0-6.0-0.67","","img/grey.png","null","trial","32","false","0.8,0.2","1:go_a","",""
"null","","html-keyboard-response","422","681853","0.0-6.0-1.67","","<img src=""img/grey-n.png"">","null","trial","32","","0.8,0.2","1:go_a","0",""
"null","","html-keyboard-response","423","682861","0.0-6.0-2.67","","<div style=""font-size:60px;"">+</div>","null","","","","","","",""
"null","","image-keyboard-response","424","684378","0.0-6.0-0.68","","img/orange.png","null","trial","null","true","0.2,0.8","2:nogo_b","",""
"null","","html-keyboard-response","425","685394","0.0-6.0-1.68","","<img src=""img/orange-r.png"">","null","trial","null","","0.2,0.8","2:nogo_b","1",""
"null","","html-keyboard-response","426","686407","0.0-6.0-2.68","","<div style=""font-size:60px;"">+</div>","null","","","","","","",""
"1428.1000000238419","","image-keyboard-response","427","687842","0.0-6.0-0.69","","img/red.png","32","trial","32","true","0.6,0.4","3:go_c","",""
"null","","html-keyboard-response","428","688853","0.0-6.0-1.69","","<img src=""img/red-r.png"" border=""10"">","null","trial","32","","0.6,0.4","3:go_c","1",""
"null","","html-keyboard-response","429","689857","0.0-6.0-2.69","","<div style=""font-size:60px;"">+</div>","null","","","","","","",""
"null","","image-keyboard-response","430","691376","0.0-6.0-0.70","","img/grey.png","null","trial","32","false","0.8,0.2","1:go_a","",""
"null","","html-keyboard-response","431","692393","0.0-6.0-1.70","","<img src=""img/grey-n.png"">","null","trial","32","","0.8,0.2","1:go_a","0",""
"null","","html-keyboard-response","432","693402","0.0-6.0-2.70","","<div style=""font-size:60px;"">+</div>","null","","","","","","",""
"null","","image-keyboard-response","433","694917","0.0-6.0-0.71","","img/pink.png","null","trial","null","true","0.4,0.6","4:nogo_d","",""
"null","","html-keyboard-response","434","695922","0.0-6.0-1.71","","<img src=""img/pink-r.png"">","null","trial","null","","0.4,0.6","4:nogo_d","1",""
"null","","html-keyboard-response","435","696924","0.0-6.0-2.71","","<div style=""font-size:60px;"">+</div>","null","","","","","","",""
"null","","image-keyboard-response","436","698439","0.0-6.0-0.72","","img/orange.png","null","trial","null","true","0.2,0.8","2:nogo_b","",""
"null","","html-keyboard-response","437","699453","0.0-6.0-1.72","","<img src=""img/orange-r.png"">","null","trial","null","","0.2,0.8","2:nogo_b","1",""
"null","","html-keyboard-response","438","700469","0.0-6.0-2.72","","<div style=""font-size:60px;"">+</div>","null","","","","","","",""
"1090.2000000476837","","image-keyboard-response","439","701561","0.0-6.0-0.73","","img/red.png","32","trial","32","true","0.6,0.4","3:go_c","",""
"null","","html-keyboard-response","440","702573","0.0-6.0-1.73","","<img src=""img/red-r.png"" border=""10"">","null","trial","32","","0.6,0.4","3:go_c","1",""
"null","","html-keyboard-response","441","703578","0.0-6.0-2.73","","<div style=""font-size:60px;"">+</div>","null","","","","","","",""
"null","","image-keyboard-response","442","705084","0.0-6.0-0.74","","img/grey.png","null","trial","32","false","0.8,0.2","1:go_a","",""
"null","","html-keyboard-response","443","706096","0.0-6.0-1.74","","<img src=""img/grey-n.png"">","null","trial","32","","0.8,0.2","1:go_a","0",""
"null","","html-keyboard-response","444","707108","0.0-6.0-2.74","","<div style=""font-size:60px;"">+</div>","null","","","","","","",""
"1026.3999999761581","","image-keyboard-response","445","708137","0.0-6.0-0.75","","img/pink.png","32","trial","null","false","0.4,0.6","4:nogo_d","",""
"null","","html-keyboard-response","446","709154","0.0-6.0-1.75","","<img src=""img/pink-r.png"" border=""10"">","null","trial","null","","0.4,0.6","4:nogo_d","1",""
"null","","html-keyboard-response","447","710157","0.0-6.0-2.75","","<div style=""font-size:60px;"">+</div>","null","","","","","","",""
"null","","image-keyboard-response","448","711670","0.0-6.0-0.76","","img/grey.png","null","trial","32","false","0.8,0.2","1:go_a","",""
"null","","html-keyboard-response","449","712689","0.0-6.0-1.76","","<img src=""img/grey-n.png"">","null","trial","32","","0.8,0.2","1:go_a","0",""
"null","","html-keyboard-response","450","713703","0.0-6.0-2.76","","<div style=""font-size:60px;"">+</div>","null","","","","","","",""
"1255.2000000476837","","image-keyboard-response","451","714960","0.0-6.0-0.77","","img/pink.png","32","trial","null","false","0.4,0.6","4:nogo_d","",""
"null","","html-keyboard-response","452","715971","0.0-6.0-1.77","","<img src=""img/pink-n.png"" border=""10"">","null","trial","null","","0.4,0.6","4:nogo_d","0",""
"null","","html-keyboard-response","453","716976","0.0-6.0-2.77","","<div style=""font-size:60px;"">+</div>","null","","","","","","",""
"null","","image-keyboard-response","454","718481","0.0-6.0-0.78","","img/orange.png","null","trial","null","true","0.2,0.8","2:nogo_b","",""
"null","","html-keyboard-response","455","719499","0.0-6.0-1.78","","<img src=""img/orange-r.png"">","null","trial","null","","0.2,0.8","2:nogo_b","1",""
"null","","html-keyboard-response","456","720519","0.0-6.0-2.78","","<div style=""font-size:60px;"">+</div>","null","","","","","","",""
"879.8999999761581","","image-keyboard-response","457","721401","0.0-6.0-0.79","","img/red.png","32","trial","32","true","0.6,0.4","3:go_c","",""
"null","","html-keyboard-response","458","722415","0.0-6.0-1.79","","<img src=""img/red-n.png"" border=""10"">","null","trial","32","","0.6,0.4","3:go_c","0",""
"null","","html-keyboard-response","459","723429","0.0-6.0-2.79","","<div style=""font-size:60px;"">+</div>","null","","","","","","",""
"null","","image-keyboard-response","460","724935","0.0-6.0-0.80","","img/grey.png","null","trial","32","false","0.8,0.2","1:go_a","",""
"null","","html-keyboard-response","461","725949","0.0-6.0-1.80","","<img src=""img/grey-r.png"">","null","trial","32","","0.8,0.2","1:go_a","1",""
"null","","html-keyboard-response","462","726959","0.0-6.0-2.80","","<div style=""font-size:60px;"">+</div>","null","","","","","","",""
"1126.5","","image-keyboard-response","463","728087","0.0-6.0-0.81","","img/red.png","32","trial","32","true","0.6,0.4","3:go_c","",""
"null","","html-keyboard-response","464","729106","0.0-6.0-1.81","","<img src=""img/red-n.png"" border=""10"">","null","trial","32","","0.6,0.4","3:go_c","0",""
"null","","html-keyboard-response","465","730119","0.0-6.0-2.81","","<div style=""font-size:60px;"">+</div>","null","","","","","","",""
"1303.7000000476837","","image-keyboard-response","466","731425","0.0-6.0-0.82","","img/orange.png","32","trial","null","false","0.2,0.8","2:nogo_b","",""
"null","","html-keyboard-response","467","732451","0.0-6.0-1.82","","<img src=""img/orange-n.png"" border=""10"">","null","trial","null","","0.2,0.8","2:nogo_b","0",""
"null","","html-keyboard-response","468","733466","0.0-6.0-2.82","","<div style=""font-size:60px;"">+</div>","null","","","","","","",""
"null","","image-keyboard-response","469","734968","0.0-6.0-0.83","","img/pink.png","null","trial","null","true","0.4,0.6","4:nogo_d","",""
"null","","html-keyboard-response","470","735984","0.0-6.0-1.83","","<img src=""img/pink-n.png"">","null","trial","null","","0.4,0.6","4:nogo_d","0",""
"null","","html-keyboard-response","471","736999","0.0-6.0-2.83","","<div style=""font-size:60px;"">+</div>","null","","","","","","",""
"920.2000000476837","","image-keyboard-response","472","737921","0.0-6.0-0.84","","img/pink.png","32","trial","null","false","0.4,0.6","4:nogo_d","",""
"null","","html-keyboard-response","473","738925","0.0-6.0-1.84","","<img src=""img/pink-n.png"" border=""10"">","null","trial","null","","0.4,0.6","4:nogo_d","0",""
"null","","html-keyboard-response","474","739938","0.0-6.0-2.84","","<div style=""font-size:60px;"">+</div>","null","","","","","","",""
"981.7000000476837","","image-keyboard-response","475","740922","0.0-6.0-0.85","","img/red.png","32","trial","32","true","0.6,0.4","3:go_c","",""
"null","","html-keyboard-response","476","741941","0.0-6.0-1.85","","<img src=""img/red-r.png"" border=""10"">","null","trial","32","","0.6,0.4","3:go_c","1",""
"null","","html-keyboard-response","477","742959","0.0-6.0-2.85","","<div style=""font-size:60px;"">+</div>","null","","","","","","",""
"null","","image-keyboard-response","478","744470","0.0-6.0-0.86","","img/grey.png","null","trial","32","false","0.8,0.2","1:go_a","",""
"null","","html-keyboard-response","479","745486","0.0-6.0-1.86","","<img src=""img/grey-n.png"">","null","trial","32","","0.8,0.2","1:go_a","0",""
"null","","html-keyboard-response","480","746502","0.0-6.0-2.86","","<div style=""font-size:60px;"">+</div>","null","","","","","","",""
"895.2999999523163","","image-keyboard-response","481","747399","0.0-6.0-0.87","","img/orange.png","32","trial","null","false","0.2,0.8","2:nogo_b","",""
"null","","html-keyboard-response","482","748417","0.0-6.0-1.87","","<img src=""img/orange-n.png"" border=""10"">","null","trial","null","","0.2,0.8","2:nogo_b","0",""
"null","","html-keyboard-response","483","749435","0.0-6.0-2.87","","<div style=""font-size:60px;"">+</div>","null","","","","","","",""
"null","","image-keyboard-response","484","750938","0.0-6.0-0.88","","img/grey.png","null","trial","32","false","0.8,0.2","1:go_a","",""
"null","","html-keyboard-response","485","751943","0.0-6.0-1.88","","<img src=""img/grey-n.png"">","null","trial","32","","0.8,0.2","1:go_a","0",""
"null","","html-keyboard-response","486","752958","0.0-6.0-2.88","","<div style=""font-size:60px;"">+</div>","null","","","","","","",""
"864","","image-keyboard-response","487","753825","0.0-6.0-0.89","","img/red.png","32","trial","32","true","0.6,0.4","3:go_c","",""
"null","","html-keyboard-response","488","754834","0.0-6.0-1.89","","<img src=""img/red-r.png"" border=""10"">","null","trial","32","","0.6,0.4","3:go_c","1",""
"null","","html-keyboard-response","489","755846","0.0-6.0-2.89","","<div style=""font-size:60px;"">+</div>","null","","","","","","",""
"null","","image-keyboard-response","490","757349","0.0-6.0-0.90","","img/orange.png","null","trial","null","true","0.2,0.8","2:nogo_b","",""
"null","","html-keyboard-response","491","758366","0.0-6.0-1.90","","<img src=""img/orange-r.png"">","null","trial","null","","0.2,0.8","2:nogo_b","1",""
"null","","html-keyboard-response","492","759367","0.0-6.0-2.90","","<div style=""font-size:60px;"">+</div>","null","","","","","","",""
"994.2999999523163","","image-keyboard-response","493","760364","0.0-6.0-0.91","","img/pink.png","32","trial","null","false","0.4,0.6","4:nogo_d","",""
"null","","html-keyboard-response","494","761370","0.0-6.0-1.91","","<img src=""img/pink-r.png"" border=""10"">","null","trial","null","","0.4,0.6","4:nogo_d","1",""
"null","","html-keyboard-response","495","762376","0.0-6.0-2.91","","<div style=""font-size:60px;"">+</div>","null","","","","","","",""
"null","","image-keyboard-response","496","763888","0.0-6.0-0.92","","img/pink.png","null","trial","null","true","0.4,0.6","4:nogo_d","",""
"null","","html-keyboard-response","497","764896","0.0-6.0-1.92","","<img src=""img/pink-n.png"">","null","trial","null","","0.4,0.6","4:nogo_d","0",""
"null","","html-keyboard-response","498","765913","0.0-6.0-2.92","","<div style=""font-size:60px;"">+</div>","null","","","","","","",""
"null","","image-keyboard-response","499","767416","0.0-6.0-0.93","","img/grey.png","null","trial","32","false","0.8,0.2","1:go_a","",""
"null","","html-keyboard-response","500","768435","0.0-6.0-1.93","","<img src=""img/grey-n.png"">","null","trial","32","","0.8,0.2","1:go_a","0",""
"null","","html-keyboard-response","501","769458","0.0-6.0-2.93","","<div style=""font-size:60px;"">+</div>","null","","","","","","",""
"944.3999999761581","","image-keyboard-response","502","770405","0.0-6.0-0.94","","img/red.png","32","trial","32","true","0.6,0.4","3:go_c","",""
"null","","html-keyboard-response","503","771410","0.0-6.0-1.94","","<img src=""img/red-r.png"" border=""10"">","null","trial","32","","0.6,0.4","3:go_c","1",""
"null","","html-keyboard-response","504","772417","0.0-6.0-2.94","","<div style=""font-size:60px;"">+</div>","null","","","","","","",""
"1204.6000000238419","","image-keyboard-response","505","773624","0.0-6.0-0.95","","img/orange.png","32","trial","null","false","0.2,0.8","2:nogo_b","",""
"null","","html-keyboard-response","506","774639","0.0-6.0-1.95","","<img src=""img/orange-n.png"" border=""10"">","null","trial","null","","0.2,0.8","2:nogo_b","0",""
"null","","html-keyboard-response","507","775644","0.0-6.0-2.95","","<div style=""font-size:60px;"">+</div>","null","","","","","","",""
"null","","image-keyboard-response","508","777150","0.0-6.0-0.96","","img/orange.png","null","trial","null","true","0.2,0.8","2:nogo_b","",""
"null","","html-keyboard-response","509","778166","0.0-6.0-1.96","","<img src=""img/orange-r.png"">","null","trial","null","","0.2,0.8","2:nogo_b","1",""
"null","","html-keyboard-response","510","779174","0.0-6.0-2.96","","<div style=""font-size:60px;"">+</div>","null","","","","","","",""
"966.8999999761581","","image-keyboard-response","511","780143","0.0-6.0-0.97","","img/pink.png","32","trial","null","false","0.4,0.6","4:nogo_d","",""
"null","","html-keyboard-response","512","781150","0.0-6.0-1.97","","<img src=""img/pink-n.png"" border=""10"">","null","trial","null","","0.4,0.6","4:nogo_d","0",""
"null","","html-keyboard-response","513","782156","0.0-6.0-2.97","","<div style=""font-size:60px;"">+</div>","null","","","","","","",""
"null","","image-keyboard-response","514","783663","0.0-6.0-0.98","","img/grey.png","null","trial","32","false","0.8,0.2","1:go_a","",""
"null","","html-keyboard-response","515","784671","0.0-6.0-1.98","","<img src=""img/grey-n.png"">","null","trial","32","","0.8,0.2","1:go_a","0",""
"null","","html-keyboard-response","516","785684","0.0-6.0-2.98","","<div style=""font-size:60px;"">+</div>","null","","","","","","",""
"818.6000000238419","","image-keyboard-response","517","786510","0.0-6.0-0.99","","img/red.png","32","trial","32","true","0.6,0.4","3:go_c","",""
"null","","html-keyboard-response","518","787517","0.0-6.0-1.99","","<img src=""img/red-n.png"" border=""10"">","null","trial","32","","0.6,0.4","3:go_c","0",""
"null","","html-keyboard-response","519","788525","0.0-6.0-2.99","","<div style=""font-size:60px;"">+</div>","null","","","","","","",""
"871.1000000238419","","image-keyboard-response","520","789400","0.0-6.0-0.100","","img/red.png","32","trial","32","true","0.6,0.4","3:go_c","",""
"null","","html-keyboard-response","521","790414","0.0-6.0-1.100","","<img src=""img/red-n.png"" border=""10"">","null","trial","32","","0.6,0.4","3:go_c","0",""
"null","","html-keyboard-response","522","791431","0.0-6.0-2.100","","<div style=""font-size:60px;"">+</div>","null","","","","","","",""
"1031.1000000238419","","image-keyboard-response","523","792464","0.0-6.0-0.101","","img/pink.png","32","trial","null","false","0.4,0.6","4:nogo_d","",""
"null","","html-keyboard-response","524","793480","0.0-6.0-1.101","","<img src=""img/pink-n.png"" border=""10"">","null","trial","null","","0.4,0.6","4:nogo_d","0",""
"null","","html-keyboard-response","525","794496","0.0-6.0-2.101","","<div style=""font-size:60px;"">+</div>","null","","","","","","",""
"null","","image-keyboard-response","526","795999","0.0-6.0-0.102","","img/grey.png","null","trial","32","false","0.8,0.2","1:go_a","",""
"null","","html-keyboard-response","527","797020","0.0-6.0-1.102","","<img src=""img/grey-r.png"">","null","trial","32","","0.8,0.2","1:go_a","1",""
"null","","html-keyboard-response","528","798036","0.0-6.0-2.102","","<div style=""font-size:60px;"">+</div>","null","","","","","","",""
"903.1000000238419","","image-keyboard-response","529","798942","0.0-6.0-0.103","","img/orange.png","32","trial","null","false","0.2,0.8","2:nogo_b","",""
"null","","html-keyboard-response","530","799951","0.0-6.0-1.103","","<img src=""img/orange-n.png"" border=""10"">","null","trial","null","","0.2,0.8","2:nogo_b","0",""
"null","","html-keyboard-response","531","800964","0.0-6.0-2.103","","<div style=""font-size:60px;"">+</div>","null","","","","","","",""
"974.6000000238419","","image-keyboard-response","532","801941","0.0-6.0-0.104","","img/grey.png","32","trial","32","true","0.8,0.2","1:go_a","",""
"null","","html-keyboard-response","533","802946","0.0-6.0-1.104","","<img src=""img/grey-r.png"" border=""10"">","null","trial","32","","0.8,0.2","1:go_a","1",""
"null","","html-keyboard-response","534","803948","0.0-6.0-2.104","","<div style=""font-size:60px;"">+</div>","null","","","","","","",""
"969.3000000715256","","image-keyboard-response","535","804919","0.0-6.0-0.105","","img/red.png","32","trial","32","true","0.6,0.4","3:go_c","",""
"null","","html-keyboard-response","536","805934","0.0-6.0-1.105","","<img src=""img/red-r.png"" border=""10"">","null","trial","32","","0.6,0.4","3:go_c","1",""
"null","","html-keyboard-response","537","806941","0.0-6.0-2.105","","<div style=""font-size:60px;"">+</div>","null","","","","","","",""
"null","","image-keyboard-response","538","808458","0.0-6.0-0.106","","img/pink.png","null","trial","null","true","0.4,0.6","4:nogo_d","",""
"null","","html-keyboard-response","539","809470","0.0-6.0-1.106","","<img src=""img/pink-r.png"">","null","trial","null","","0.4,0.6","4:nogo_d","1",""
"null","","html-keyboard-response","540","810486","0.0-6.0-2.106","","<div style=""font-size:60px;"">+</div>","null","","","","","","",""
"null","","image-keyboard-response","541","811997","0.0-6.0-0.107","","img/orange.png","null","trial","null","true","0.2,0.8","2:nogo_b","",""
"null","","html-keyboard-response","542","813006","0.0-6.0-1.107","","<img src=""img/orange-r.png"">","null","trial","null","","0.2,0.8","2:nogo_b","1",""
"null","","html-keyboard-response","543","814014","0.0-6.0-2.107","","<div style=""font-size:60px;"">+</div>","null","","","","","","",""
"988.3999999761581","","image-keyboard-response","544","815004","0.0-6.0-0.108","","img/red.png","32","trial","32","true","0.6,0.4","3:go_c","",""
"null","","html-keyboard-response","545","816014","0.0-6.0-1.108","","<img src=""img/red-r.png"" border=""10"">","null","trial","32","","0.6,0.4","3:go_c","1",""
"null","","html-keyboard-response","546","817016","0.0-6.0-2.108","","<div style=""font-size:60px;"">+</div>","null","","","","","","",""
"1099.3999999761581","","image-keyboard-response","547","818118","0.0-6.0-0.109","","img/grey.png","32","trial","32","true","0.8,0.2","1:go_a","",""
"null","","html-keyboard-response","548","819140","0.0-6.0-1.109","","<img src=""img/grey-r.png"" border=""10"">","null","trial","32","","0.8,0.2","1:go_a","1",""
"null","","html-keyboard-response","549","820142","0.0-6.0-2.109","","<div style=""font-size:60px;"">+</div>","null","","","","","","",""
"1003.3000000715256","","image-keyboard-response","550","821148","0.0-6.0-0.110","","img/pink.png","32","trial","null","false","0.4,0.6","4:nogo_d","",""
"null","","html-keyboard-response","551","822155","0.0-6.0-1.110","","<img src=""img/pink-n.png"" border=""10"">","null","trial","null","","0.4,0.6","4:nogo_d","0",""
"null","","html-keyboard-response","552","823164","0.0-6.0-2.110","","<div style=""font-size:60px;"">+</div>","null","","","","","","",""
"908.8999999761581","","image-keyboard-response","553","824077","0.0-6.0-0.111","","img/orange.png","32","trial","null","false","0.2,0.8","2:nogo_b","",""
"null","","html-keyboard-response","554","825087","0.0-6.0-1.111","","<img src=""img/orange-n.png"" border=""10"">","null","trial","null","","0.2,0.8","2:nogo_b","0",""
"null","","html-keyboard-response","555","826091","0.0-6.0-2.111","","<div style=""font-size:60px;"">+</div>","null","","","","","","",""
"878.3000000715256","","image-keyboard-response","556","826972","0.0-6.0-0.112","","img/red.png","32","trial","32","true","0.6,0.4","3:go_c","",""
"null","","html-keyboard-response","557","827988","0.0-6.0-1.112","","<img src=""img/red-r.png"" border=""10"">","null","trial","32","","0.6,0.4","3:go_c","1",""
"null","","html-keyboard-response","558","828993","0.0-6.0-2.112","","<div style=""font-size:60px;"">+</div>","null","","","","","","",""
"null","","image-keyboard-response","559","830496","0.0-6.0-0.113","","img/grey.png","null","trial","32","false","0.8,0.2","1:go_a","",""
"null","","html-keyboard-response","560","831508","0.0-6.0-1.113","","<img src=""img/grey-n.png"">","null","trial","32","","0.8,0.2","1:go_a","0",""
"null","","html-keyboard-response","561","832515","0.0-6.0-2.113","","<div style=""font-size:60px;"">+</div>","null","","","","","","",""
"945","","image-keyboard-response","562","833462","0.0-6.0-0.114","","img/pink.png","32","trial","null","false","0.4,0.6","4:nogo_d","",""
"null","","html-keyboard-response","563","834480","0.0-6.0-1.114","","<img src=""img/pink-r.png"" border=""10"">","null","trial","null","","0.4,0.6","4:nogo_d","1",""
"null","","html-keyboard-response","564","835488","0.0-6.0-2.114","","<div style=""font-size:60px;"">+</div>","null","","","","","","",""
"361.8000000715256","","image-keyboard-response","565","835852","0.0-6.0-0.115","","img/orange.png","32","trial","null","false","0.2,0.8","2:nogo_b","",""
"null","","html-keyboard-response","566","836877","0.0-6.0-1.115","","<img src=""img/orange-n.png"" border=""10"">","null","trial","null","","0.2,0.8","2:nogo_b","0",""
"null","","html-keyboard-response","567","837919","0.0-6.0-2.115","","<div style=""font-size:60px;"">+</div>","null","","","","","","",""
"952.5","","image-keyboard-response","568","838875","0.0-6.0-0.116","","img/red.png","32","trial","32","true","0.6,0.4","3:go_c","",""
"null","","html-keyboard-response","569","839899","0.0-6.0-1.116","","<img src=""img/red-n.png"" border=""10"">","null","trial","32","","0.6,0.4","3:go_c","0",""
"null","","html-keyboard-response","570","840916","0.0-6.0-2.116","","<div style=""font-size:60px;"">+</div>","null","","","","","","",""
"1089.2000000476837","","image-keyboard-response","571","842008","0.0-6.0-0.117","","img/orange.png","32","trial","null","false","0.2,0.8","2:nogo_b","",""
"null","","html-keyboard-response","572","843023","0.0-6.0-1.117","","<img src=""img/orange-n.png"" border=""10"">","null","trial","null","","0.2,0.8","2:nogo_b","0",""
"null","","html-keyboard-response","573","844033","0.0-6.0-2.117","","<div style=""font-size:60px;"">+</div>","null","","","","","","",""
"null","","image-keyboard-response","574","845544","0.0-6.0-0.118","","img/grey.png","null","trial","32","false","0.8,0.2","1:go_a","",""
"null","","html-keyboard-response","575","846569","0.0-6.0-1.118","","<img src=""img/grey-n.png"">","null","trial","32","","0.8,0.2","1:go_a","0",""
"null","","html-keyboard-response","576","847576","0.0-6.0-2.118","","<div style=""font-size:60px;"">+</div>","null","","","","","","",""
"null","","image-keyboard-response","577","849090","0.0-6.0-0.119","","img/pink.png","null","trial","null","true","0.4,0.6","4:nogo_d","",""
"null","","html-keyboard-response","578","850112","0.0-6.0-1.119","","<img src=""img/pink-r.png"">","null","trial","null","","0.4,0.6","4:nogo_d","1",""
"null","","html-keyboard-response","579","851114","0.0-6.0-2.119","","<div style=""font-size:60px;"">+</div>","null","","","","","","",""
"120232.5","","instructions","580","971348","0.0-7.0","[{""page_index"":0,""viewing_time"":120231.79999995232}]","","","","","","","","",""
"416.8000000715256","","image-keyboard-response","581","971769","0.0-8.0-0.0","","img/blue.png","32","trial","null","false","0.2,0.8","2:nogo_b","",""
"null","","html-keyboard-response","582","972796","0.0-8.0-1.0","","<img src=""img/blue-n.png"" border=""10"">","null","trial","null","","0.2,0.8","2:nogo_b","0",""
"null","","html-keyboard-response","583","973800","0.0-8.0-2.0","","<div style=""font-size:60px;"">+</div>","null","","","","","","",""
"803.1000000238419","","image-keyboard-response","584","974605","0.0-8.0-0.1","","img/orange.png","32","trial","null","false","0,1","4:nogo_d","",""
"null","","html-keyboard-response","585","975610","0.0-8.0-1.1","","<img src=""img/orange-n.png"" border=""10"">","null","trial","null","","0,1","4:nogo_d","0",""
"null","","html-keyboard-response","586","976626","0.0-8.0-2.1","","<div style=""font-size:60px;"">+</div>","null","","","","","","",""
"985.1000000238419","","image-keyboard-response","587","977613","0.0-8.0-0.2","","img/purple.png","32","trial","32","true","1,0","3:go_c","",""
"null","","html-keyboard-response","588","978624","0.0-8.0-1.2","","<img src=""img/purple-r.png"" border=""10"">","null","trial","32","","1,0","3:go_c","1",""
"null","","html-keyboard-response","589","979631","0.0-8.0-2.2","","<div style=""font-size:60px;"">+</div>","null","","","","","","",""
"null","","image-keyboard-response","590","981141","0.0-8.0-0.3","","img/yellow.png","null","trial","32","false","0.8,0.2","1:go_a","",""
"null","","html-keyboard-response","591","982151","0.0-8.0-1.3","","<img src=""img/yellow-n.png"">","null","trial","32","","0.8,0.2","1:go_a","0",""
"null","","html-keyboard-response","592","983168","0.0-8.0-2.3","","<div style=""font-size:60px;"">+</div>","null","","","","","","",""
"null","","image-keyboard-response","593","984680","0.0-8.0-0.4","","img/yellow.png","null","trial","32","false","0.8,0.2","1:go_a","",""
"null","","html-keyboard-response","594","985697","0.0-8.0-1.4","","<img src=""img/yellow-n.png"">","null","trial","32","","0.8,0.2","1:go_a","0",""
"null","","html-keyboard-response","595","986704","0.0-8.0-2.4","","<div style=""font-size:60px;"">+</div>","null","","","","","","",""
"1250.4000000953674","","image-keyboard-response","596","987972","0.0-8.0-0.5","","img/blue.png","32","trial","null","false","0.2,0.8","2:nogo_b","",""
"null","","html-keyboard-response","597","988983","0.0-8.0-1.5","","<img src=""img/blue-n.png"" border=""10"">","null","trial","null","","0.2,0.8","2:nogo_b","0",""
"null","","html-keyboard-response","598","989999","0.0-8.0-2.5","","<div style=""font-size:60px;"">+</div>","null","","","","","","",""
"null","","image-keyboard-response","599","991516","0.0-8.0-0.6","","img/orange.png","null","trial","null","true","0,1","4:nogo_d","",""
"null","","html-keyboard-response","600","992534","0.0-8.0-1.6","","<img src=""img/orange-r.png"">","null","trial","null","","0,1","4:nogo_d","1",""
"null","","html-keyboard-response","601","993546","0.0-8.0-2.6","","<div style=""font-size:60px;"">+</div>","null","","","","","","",""
"null","","image-keyboard-response","602","995057","0.0-8.0-0.7","","img/purple.png","null","trial","32","false","1,0","3:go_c","",""
"null","","html-keyboard-response","603","996061","0.0-8.0-1.7","","<img src=""img/purple-n.png"">","null","trial","32","","1,0","3:go_c","0",""
"null","","html-keyboard-response","604","997063","0.0-8.0-2.7","","<div style=""font-size:60px;"">+</div>","null","","","","","","",""
"null","","image-keyboard-response","605","998580","0.0-8.0-0.8","","img/purple.png","null","trial","32","false","1,0","3:go_c","",""
"null","","html-keyboard-response","606","999589","0.0-8.0-1.8","","<img src=""img/purple-n.png"">","null","trial","32","","1,0","3:go_c","0",""
"null","","html-keyboard-response","607","1000591","0.0-8.0-2.8","","<div style=""font-size:60px;"">+</div>","null","","","","","","",""
"1382.7000000476837","","image-keyboard-response","608","1001976","0.0-8.0-0.9","","img/blue.png","32","trial","null","false","0.2,0.8","2:nogo_b","",""
"null","","html-keyboard-response","609","1002992","0.0-8.0-1.9","","<img src=""img/blue-n.png"" border=""10"">","null","trial","null","","0.2,0.8","2:nogo_b","0",""
"null","","html-keyboard-response","610","1004007","0.0-8.0-2.9","","<div style=""font-size:60px;"">+</div>","null","","","","","","",""
"null","","image-keyboard-response","611","1005519","0.0-8.0-0.10","","img/orange.png","null","trial","null","true","0,1","4:nogo_d","",""
"null","","html-keyboard-response","612","1006545","0.0-8.0-1.10","","<img src=""img/orange-r.png"">","null","trial","null","","0,1","4:nogo_d","1",""
"null","","html-keyboard-response","613","1007560","0.0-8.0-2.10","","<div style=""font-size:60px;"">+</div>","null","","","","","","",""
"null","","image-keyboard-response","614","1009072","0.0-8.0-0.11","","img/yellow.png","null","trial","32","false","0.8,0.2","1:go_a","",""
"null","","html-keyboard-response","615","1010076","0.0-8.0-1.11","","<img src=""img/yellow-n.png"">","null","trial","32","","0.8,0.2","1:go_a","0",""
"null","","html-keyboard-response","616","1011091","0.0-8.0-2.11","","<div style=""font-size:60px;"">+</div>","null","","","","","","",""
"998.5999999046326","","image-keyboard-response","617","1012092","0.0-8.0-0.12","","img/blue.png","32","trial","null","false","0.2,0.8","2:nogo_b","",""
"null","","html-keyboard-response","618","1013108","0.0-8.0-1.12","","<img src=""img/blue-n.png"" border=""10"">","null","trial","null","","0.2,0.8","2:nogo_b","0",""
"null","","html-keyboard-response","619","1014125","0.0-8.0-2.12","","<div style=""font-size:60px;"">+</div>","null","","","","","","",""
"null","","image-keyboard-response","620","1015641","0.0-8.0-0.13","","img/orange.png","null","trial","null","true","0,1","4:nogo_d","",""
"null","","html-keyboard-response","621","1016657","0.0-8.0-1.13","","<img src=""img/orange-r.png"">","null","trial","null","","0,1","4:nogo_d","1",""
"null","","html-keyboard-response","622","1017673","0.0-8.0-2.13","","<div style=""font-size:60px;"">+</div>","null","","","","","","",""
"null","","image-keyboard-response","623","1019176","0.0-8.0-0.14","","img/purple.png","null","trial","32","false","1,0","3:go_c","",""
"null","","html-keyboard-response","624","1020185","0.0-8.0-1.14","","<img src=""img/purple-n.png"">","null","trial","32","","1,0","3:go_c","0",""
"null","","html-keyboard-response","625","1021200","0.0-8.0-2.14","","<div style=""font-size:60px;"">+</div>","null","","","","","","",""
"1291.3999999761581","","image-keyboard-response","626","1022493","0.0-8.0-0.15","","img/yellow.png","32","trial","32","true","0.8,0.2","1:go_a","",""
"null","","html-keyboard-response","627","1023505","0.0-8.0-1.15","","<img src=""img/yellow-n.png"" border=""10"">","null","trial","32","","0.8,0.2","1:go_a","0",""
"null","","html-keyboard-response","628","1024507","0.0-8.0-2.15","","<div style=""font-size:60px;"">+</div>","null","","","","","","",""
"null","","image-keyboard-response","629","1026017","0.0-8.0-0.16","","img/blue.png","null","trial","null","true","0.2,0.8","2:nogo_b","",""
"null","","html-keyboard-response","630","1027028","0.0-8.0-1.16","","<img src=""img/blue-r.png"">","null","trial","null","","0.2,0.8","2:nogo_b","1",""
"null","","html-keyboard-response","631","1028042","0.0-8.0-2.16","","<div style=""font-size:60px;"">+</div>","null","","","","","","",""
"null","","image-keyboard-response","632","1029555","0.0-8.0-0.17","","img/yellow.png","null","trial","32","false","0.8,0.2","1:go_a","",""
"null","","html-keyboard-response","633","1030562","0.0-8.0-1.17","","<img src=""img/yellow-n.png"">","null","trial","32","","0.8,0.2","1:go_a","0",""
"null","","html-keyboard-response","634","1031565","0.0-8.0-2.17","","<div style=""font-size:60px;"">+</div>","null","","","","","","",""
"null","","image-keyboard-response","635","1033072","0.0-8.0-0.18","","img/purple.png","null","trial","32","false","1,0","3:go_c","",""
"null","","html-keyboard-response","636","1034083","0.0-8.0-1.18","","<img src=""img/purple-n.png"">","null","trial","32","","1,0","3:go_c","0",""
"null","","html-keyboard-response","637","1035096","0.0-8.0-2.18","","<div style=""font-size:60px;"">+</div>","null","","","","","","",""
"1049","","image-keyboard-response","638","1036148","0.0-8.0-0.19","","img/orange.png","32","trial","null","false","0,1","4:nogo_d","",""
"null","","html-keyboard-response","639","1037163","0.0-8.0-1.19","","<img src=""img/orange-n.png"" border=""10"">","null","trial","null","","0,1","4:nogo_d","0",""
"null","","html-keyboard-response","640","1038166","0.0-8.0-2.19","","<div style=""font-size:60px;"">+</div>","null","","","","","","",""
"null","","image-keyboard-response","641","1039684","0.0-8.0-0.20","","img/yellow.png","null","trial","32","false","0.8,0.2","1:go_a","",""
"null","","html-keyboard-response","642","1040702","0.0-8.0-1.20","","<img src=""img/yellow-n.png"">","null","trial","32","","0.8,0.2","1:go_a","0",""
"null","","html-keyboard-response","643","1041716","0.0-8.0-2.20","","<div style=""font-size:60px;"">+</div>","null","","","","","","",""
"861.2000000476837","","image-keyboard-response","644","1042584","0.0-8.0-0.21","","img/orange.png","32","trial","null","false","0,1","4:nogo_d","",""
"null","","html-keyboard-response","645","1043597","0.0-8.0-1.21","","<img src=""img/orange-n.png"" border=""10"">","null","trial","null","","0,1","4:nogo_d","0",""
"null","","html-keyboard-response","646","1044600","0.0-8.0-2.21","","<div style=""font-size:60px;"">+</div>","null","","","","","","",""
"1161.5","","image-keyboard-response","647","1045763","0.0-8.0-0.22","","img/purple.png","32","trial","32","true","1,0","3:go_c","",""
"null","","html-keyboard-response","648","1046769","0.0-8.0-1.22","","<img src=""img/purple-r.png"" border=""10"">","null","trial","32","","1,0","3:go_c","1",""
"null","","html-keyboard-response","649","1047773","0.0-8.0-2.22","","<div style=""font-size:60px;"">+</div>","null","","","","","","",""
"null","","image-keyboard-response","650","1049278","0.0-8.0-0.23","","img/blue.png","null","trial","null","true","0.2,0.8","2:nogo_b","",""
"null","","html-keyboard-response","651","1050289","0.0-8.0-1.23","","<img src=""img/blue-n.png"">","null","trial","null","","0.2,0.8","2:nogo_b","0",""
"null","","html-keyboard-response","652","1051302","0.0-8.0-2.23","","<div style=""font-size:60px;"">+</div>","null","","","","","","",""
"null","","image-keyboard-response","653","1052811","0.0-8.0-0.24","","img/orange.png","null","trial","null","true","0,1","4:nogo_d","",""
"null","","html-keyboard-response","654","1053848","0.0-8.0-1.24","","<img src=""img/orange-r.png"">","null","trial","null","","0,1","4:nogo_d","1",""
"null","","html-keyboard-response","655","1054865","0.0-8.0-2.24","","<div style=""font-size:60px;"">+</div>","null","","","","","","",""
"null","","image-keyboard-response","656","1056369","0.0-8.0-0.25","","img/yellow.png","null","trial","32","false","0.8,0.2","1:go_a","",""
"null","","html-keyboard-response","657","1057373","0.0-8.0-1.25","","<img src=""img/yellow-n.png"">","null","trial","32","","0.8,0.2","1:go_a","0",""
"null","","html-keyboard-response","658","1058388","0.0-8.0-2.25","","<div style=""font-size:60px;"">+</div>","null","","","","","","",""
"1135.3000000715256","","image-keyboard-response","659","1059525","0.0-8.0-0.26","","img/blue.png","32","trial","null","false","0.2,0.8","2:nogo_b","",""
"null","","html-keyboard-response","660","1060535","0.0-8.0-1.26","","<img src=""img/blue-n.png"" border=""10"">","null","trial","null","","0.2,0.8","2:nogo_b","0",""
"null","","html-keyboard-response","661","1061539","0.0-8.0-2.26","","<div style=""font-size:60px;"">+</div>","null","","","","","","",""
"null","","image-keyboard-response","662","1063042","0.0-8.0-0.27","","img/purple.png","null","trial","32","false","1,0","3:go_c","",""
"null","","html-keyboard-response","663","1064058","0.0-8.0-1.27","","<img src=""img/purple-n.png"">","null","trial","32","","1,0","3:go_c","0",""
"null","","html-keyboard-response","664","1065061","0.0-8.0-2.27","","<div style=""font-size:60px;"">+</div>","null","","","","","","",""
"810.1000000238419","","image-keyboard-response","665","1065873","0.0-8.0-0.28","","img/yellow.png","32","trial","32","true","0.8,0.2","1:go_a","",""
"null","","html-keyboard-response","666","1066890","0.0-8.0-1.28","","<img src=""img/yellow-n.png"" border=""10"">","null","trial","32","","0.8,0.2","1:go_a","0",""
"null","","html-keyboard-response","667","1067900","0.0-8.0-2.28","","<div style=""font-size:60px;"">+</div>","null","","","","","","",""
"null","","image-keyboard-response","668","1069414","0.0-8.0-0.29","","img/purple.png","null","trial","32","false","1,0","3:go_c","",""
"null","","html-keyboard-response","669","1070430","0.0-8.0-1.29","","<img src=""img/purple-n.png"">","null","trial","32","","1,0","3:go_c","0",""
"null","","html-keyboard-response","670","1071444","0.0-8.0-2.29","","<div style=""font-size:60px;"">+</div>","null","","","","","","",""
"1157.3999999761581","","image-keyboard-response","671","1072603","0.0-8.0-0.30","","img/blue.png","32","trial","null","false","0.2,0.8","2:nogo_b","",""
"null","","html-keyboard-response","672","1073611","0.0-8.0-1.30","","<img src=""img/blue-n.png"" border=""10"">","null","trial","null","","0.2,0.8","2:nogo_b","0",""
"null","","html-keyboard-response","673","1074628","0.0-8.0-2.30","","<div style=""font-size:60px;"">+</div>","null","","","","","","",""
"819","","image-keyboard-response","674","1075454","0.0-8.0-0.31","","img/orange.png","32","trial","null","false","0,1","4:nogo_d","",""
"null","","html-keyboard-response","675","1076480","0.0-8.0-1.31","","<img src=""img/orange-n.png"" border=""10"">","null","trial","null","","0,1","4:nogo_d","0",""
"null","","html-keyboard-response","676","1077488","0.0-8.0-2.31","","<div style=""font-size:60px;"">+</div>","null","","","","","","",""
"null","","image-keyboard-response","677","1078998","0.0-8.0-0.32","","img/purple.png","null","trial","32","false","1,0","3:go_c","",""
"null","","html-keyboard-response","678","1080017","0.0-8.0-1.32","","<img src=""img/purple-n.png"">","null","trial","32","","1,0","3:go_c","0",""
"null","","html-keyboard-response","679","1081027","0.0-8.0-2.32","","<div style=""font-size:60px;"">+</div>","null","","","","","","",""
"1068.7999999523163","","image-keyboard-response","680","1082098","0.0-8.0-0.33","","img/orange.png","32","trial","null","false","0,1","4:nogo_d","",""
