"rt","url","trial_type","trial_index","time_elapsed","internal_node_id","view_history","stimulus","key_press","test_part","correct_response","correct","use_rew","which_stim","reward","responses"
"160069.28000005428","consent.html","external-html","0","160185","0.0-0.0","","","","","","","","","",""
"191281.5549999941","","instructions","1","351471","0.0-1.0","[{""page_index"":0,""viewing_time"":4185.484999907203},{""page_index"":1,""viewing_time"":40805.67000003066},{""page_index"":2,""viewing_time"":15762.770000030287},{""page_index"":3,""viewing_time"":61213.11000001151},{""page_index"":4,""viewing_time"":37307.70999996457},{""page_index"":5,""viewing_time"":11732.070000027306},{""page_index"":6,""viewing_time"":20273.999999975786}]","","","","","","","","",""
"815.5650000553578","","image-keyboard-response","2","352288","0.0-2.0-0.0","","img/test1.PNG","32","practice","32","true","","","",""
"null","","html-keyboard-response","3","353290","0.0-2.0-1.0","","<img src=""img/test1-reward.PNG"" border=""10px; grey"">","null","","","","","","",""
"null","","html-keyboard-response","4","354292","0.0-2.0-2.0","","<div style=""font-size:60px;"">+</div>","null","","","","","","",""
"null","","image-keyboard-response","5","355793","0.0-2.0-0.1","","img/test2.PNG","null","practice","null","true","","","",""
"null","","html-keyboard-response","6","356796","0.0-2.0-1.1","","<img src=""img/test2-reward.PNG"">","null","","","","","","",""
"null","","html-keyboard-response","7","357798","0.0-2.0-2.1","","<div style=""font-size:60px;"">+</div>","null","","","","","","",""
"null","","image-keyboard-response","8","359300","0.0-2.0-0.2","","img/test3.PNG","null","practice","null","true","","","",""
"null","","html-keyboard-response","9","360302","0.0-2.0-1.2","","<img src=""img/test3-reward.PNG"">","null","","","","","","",""
"null","","html-keyboard-response","10","361303","0.0-2.0-2.2","","<div style=""font-size:60px;"">+</div>","null","","","","","","",""
"null","","image-keyboard-response","11","362805","0.0-2.0-0.3","","img/test3.PNG","null","practice","null","true","","","",""
"null","","html-keyboard-response","12","363807","0.0-2.0-1.3","","<img src=""img/test3-reward.PNG"">","null","","","","","","",""
"null","","html-keyboard-response","13","364810","0.0-2.0-2.3","","<div style=""font-size:60px;"">+</div>","null","","","","","","",""
"452.36500003375113","","image-keyboard-response","14","365265","0.0-2.0-0.4","","img/test1.PNG","32","practice","32","true","","","",""
"null","","html-keyboard-response","15","366268","0.0-2.0-1.4","","<img src=""img/test1-reward.PNG"" border=""10px; grey"">","null","","","","","","",""
"null","","html-keyboard-response","16","367270","0.0-2.0-2.4","","<div style=""font-size:60px;"">+</div>","null","","","","","","",""
"null","","image-keyboard-response","17","368772","0.0-2.0-0.5","","img/test2.PNG","null","practice","null","true","","","",""
"null","","html-keyboard-response","18","369774","0.0-2.0-1.5","","<img src=""img/test2-reward.PNG"">","null","","","","","","",""
"null","","html-keyboard-response","19","370776","0.0-2.0-2.5","","<div style=""font-size:60px;"">+</div>","null","","","","","","",""
"null","","image-keyboard-response","20","372278","0.0-2.0-0.6","","img/test3.PNG","null","practice","null","true","","","",""
"null","","html-keyboard-response","21","373280","0.0-2.0-1.6","","<img src=""img/test3-reward.PNG"">","null","","","","","","",""
"null","","html-keyboard-response","22","374281","0.0-2.0-2.6","","<div style=""font-size:60px;"">+</div>","null","","","","","","",""
"null","","image-keyboard-response","23","375783","0.0-2.0-0.7","","img/test2.PNG","null","practice","null","true","","","",""
"null","","html-keyboard-response","24","376786","0.0-2.0-1.7","","<img src=""img/test2-reward.PNG"">","null","","","","","","",""
"null","","html-keyboard-response","25","377791","0.0-2.0-2.7","","<div style=""font-size:60px;"">+</div>","null","","","","","","",""
"452.3300000000745","","image-keyboard-response","26","378246","0.0-2.0-0.8","","img/test1.PNG","32","practice","32","true","","","",""
"null","","html-keyboard-response","27","379249","0.0-2.0-1.8","","<img src=""img/test1-reward.PNG"" border=""10px; grey"">","null","","","","","","",""
"null","","html-keyboard-response","28","380252","0.0-2.0-2.8","","<div style=""font-size:60px;"">+</div>","null","","","","","","",""
"null","","image-keyboard-response","29","381755","0.0-2.0-0.9","","img/test2.PNG","null","practice","null","true","","","",""
"null","","html-keyboard-response","30","382757","0.0-2.0-1.9","","<img src=""img/test2-reward.PNG"">","null","","","","","","",""
"null","","html-keyboard-response","31","383760","0.0-2.0-2.9","","<div style=""font-size:60px;"">+</div>","null","","","","","","",""
"484.65500003658235","","image-keyboard-response","32","384247","0.0-2.0-0.10","","img/test1.PNG","32","practice","32","true","","","",""
"null","","html-keyboard-response","33","385251","0.0-2.0-1.10","","<img src=""img/test1-reward.PNG"" border=""10px; grey"">","null","","","","","","",""
"null","","html-keyboard-response","34","386253","0.0-2.0-2.10","","<div style=""font-size:60px;"">+</div>","null","","","","","","",""
"null","","image-keyboard-response","35","387756","0.0-2.0-0.11","","img/test3.PNG","null","practice","null","true","","","",""
"null","","html-keyboard-response","36","388758","0.0-2.0-1.11","","<img src=""img/test3-reward.PNG"">","null","","","","","","",""
"null","","html-keyboard-response","37","389760","0.0-2.0-2.11","","<div style=""font-size:60px;"">+</div>","null","","","","","","",""
"2885.825000004843","","instructions","38","392647","0.0-3.0","[{""page_index"":0,""viewing_time"":2885.615000035614}]","","","","","","","","",""
"null","","image-keyboard-response","39","394149","0.0-4.0-0.0","","img/yellow.png","null","trial","32","false","0.8,0.2","1:go_a","",""
"null","","html-keyboard-response","40","395153","0.0-4.0-1.0","","<img src=""img/yellow-n.png"">","null","trial","32","","0.8,0.2","1:go_a","0",""
"null","","html-keyboard-response","41","396155","0.0-4.0-2.0","","<div style=""font-size:60px;"">+</div>","null","","","","","","",""
"518.9000000245869","","image-keyboard-response","42","396676","0.0-4.0-0.1","","img/grey.png","32","trial","null","false","0.2,0.8","2:nogo_b","",""
"null","","html-keyboard-response","43","397679","0.0-4.0-1.1","","<img src=""img/grey-n.png"" border=""10"">","null","trial","null","","0.2,0.8","2:nogo_b","0",""
"null","","html-keyboard-response","44","398682","0.0-4.0-2.1","","<div style=""font-size:60px;"">+</div>","null","","","","","","",""
"null","","image-keyboard-response","45","400183","0.0-4.0-0.2","","img/yellow.png","null","trial","32","false","0.8,0.2","1:go_a","",""
"null","","html-keyboard-response","46","401187","0.0-4.0-1.2","","<img src=""img/yellow-n.png"">","null","trial","32","","0.8,0.2","1:go_a","0",""
"null","","html-keyboard-response","47","402189","0.0-4.0-2.2","","<div style=""font-size:60px;"">+</div>","null","","","","","","",""
"653.1050000339746","","image-keyboard-response","48","402844","0.0-4.0-0.3","","img/grey.png","32","trial","null","false","0.2,0.8","2:nogo_b","",""
"null","","html-keyboard-response","49","403847","0.0-4.0-1.3","","<img src=""img/grey-n.png"" border=""10"">","null","trial","null","","0.2,0.8","2:nogo_b","0",""
"null","","html-keyboard-response","50","404849","0.0-4.0-2.3","","<div style=""font-size:60px;"">+</div>","null","","","","","","",""
"496.44500005524606","","image-keyboard-response","51","405347","0.0-4.0-0.4","","img/yellow.png","32","trial","32","true","0.8,0.2","1:go_a","",""
"null","","html-keyboard-response","52","406351","0.0-4.0-1.4","","<img src=""img/yellow-r.png"" border=""10"">","null","trial","32","","0.8,0.2","1:go_a","1",""
"null","","html-keyboard-response","53","407353","0.0-4.0-2.4","","<div style=""font-size:60px;"">+</div>","null","","","","","","",""
"null","","image-keyboard-response","54","408855","0.0-4.0-0.5","","img/grey.png","null","trial","null","true","0.2,0.8","2:nogo_b","",""
"null","","html-keyboard-response","55","409858","0.0-4.0-1.5","","<img src=""img/grey-r.png"">","null","trial","null","","0.2,0.8","2:nogo_b","1",""
"null","","html-keyboard-response","56","410861","0.0-4.0-2.5","","<div style=""font-size:60px;"">+</div>","null","","","","","","",""
"null","","image-keyboard-response","57","412364","0.0-4.0-0.6","","img/grey.png","null","trial","null","true","0.2,0.8","2:nogo_b","",""
"null","","html-keyboard-response","58","413368","0.0-4.0-1.6","","<img src=""img/grey-r.png"">","null","trial","null","","0.2,0.8","2:nogo_b","1",""
"null","","html-keyboard-response","59","414370","0.0-4.0-2.6","","<div style=""font-size:60px;"">+</div>","null","","","","","","",""
"361.7200000444427","","image-keyboard-response","60","414732","0.0-4.0-0.7","","img/yellow.png","32","trial","32","true","0.8,0.2","1:go_a","",""
"null","","html-keyboard-response","61","415735","0.0-4.0-1.7","","<img src=""img/yellow-r.png"" border=""10"">","null","trial","32","","0.8,0.2","1:go_a","1",""
"null","","html-keyboard-response","62","416738","0.0-4.0-2.7","","<div style=""font-size:60px;"">+</div>","null","","","","","","",""
"512.9149999702349","","image-keyboard-response","63","417253","0.0-4.0-0.8","","img/yellow.png","32","trial","32","true","0.8,0.2","1:go_a","",""
"null","","html-keyboard-response","64","418257","0.0-4.0-1.8","","<img src=""img/yellow-r.png"" border=""10"">","null","trial","32","","0.8,0.2","1:go_a","1",""
"null","","html-keyboard-response","65","419260","0.0-4.0-2.8","","<div style=""font-size:60px;"">+</div>","null","","","","","","",""
"656.2849999172613","","image-keyboard-response","66","419919","0.0-4.0-0.9","","img/grey.png","32","trial","null","false","0.2,0.8","2:nogo_b","",""
"null","","html-keyboard-response","67","420923","0.0-4.0-1.9","","<img src=""img/grey-n.png"" border=""10"">","null","trial","null","","0.2,0.8","2:nogo_b","0",""
"null","","html-keyboard-response","68","421924","0.0-4.0-2.9","","<div style=""font-size:60px;"">+</div>","null","","","","","","",""
"null","","image-keyboard-response","69","423428","0.0-4.0-0.10","","img/grey.png","null","trial","null","true","0.2,0.8","2:nogo_b","",""
"null","","html-keyboard-response","70","424436","0.0-4.0-1.10","","<img src=""img/grey-r.png"">","null","trial","null","","0.2,0.8","2:nogo_b","1",""
"null","","html-keyboard-response","71","425438","0.0-4.0-2.10","","<div style=""font-size:60px;"">+</div>","null","","","","","","",""
"363.0100000882521","","image-keyboard-response","72","425802","0.0-4.0-0.11","","img/yellow.png","32","trial","32","true","0.8,0.2","1:go_a","",""
"null","","html-keyboard-response","73","426806","0.0-4.0-1.11","","<img src=""img/yellow-r.png"" border=""10"">","null","trial","32","","0.8,0.2","1:go_a","1",""
"null","","html-keyboard-response","74","427809","0.0-4.0-2.11","","<div style=""font-size:60px;"">+</div>","null","","","","","","",""
"null","","image-keyboard-response","75","429312","0.0-4.0-0.12","","img/grey.png","null","trial","null","true","0.2,0.8","2:nogo_b","",""
"null","","html-keyboard-response","76","430314","0.0-4.0-1.12","","<img src=""img/grey-n.png"">","null","trial","null","","0.2,0.8","2:nogo_b","0",""
"null","","html-keyboard-response","77","431317","0.0-4.0-2.12","","<div style=""font-size:60px;"">+</div>","null","","","","","","",""
"350.5649999715388","","image-keyboard-response","78","431669","0.0-4.0-0.13","","img/yellow.png","32","trial","32","true","0.8,0.2","1:go_a","",""
"null","","html-keyboard-response","79","432671","0.0-4.0-1.13","","<img src=""img/yellow-n.png"" border=""10"">","null","trial","32","","0.8,0.2","1:go_a","0",""
"null","","html-keyboard-response","80","433673","0.0-4.0-2.13","","<div style=""font-size:60px;"">+</div>","null","","","","","","",""
"null","","image-keyboard-response","81","435176","0.0-4.0-0.14","","img/grey.png","null","trial","null","true","0.2,0.8","2:nogo_b","",""
"null","","html-keyboard-response","82","436179","0.0-4.0-1.14","","<img src=""img/grey-r.png"">","null","trial","null","","0.2,0.8","2:nogo_b","1",""
"null","","html-keyboard-response","83","437182","0.0-4.0-2.14","","<div style=""font-size:60px;"">+</div>","null","","","","","","",""
"310.43499999213964","","image-keyboard-response","84","437493","0.0-4.0-0.15","","img/yellow.png","32","trial","32","true","0.8,0.2","1:go_a","",""
"null","","html-keyboard-response","85","438496","0.0-4.0-1.15","","<img src=""img/yellow-r.png"" border=""10"">","null","trial","32","","0.8,0.2","1:go_a","1",""
"null","","html-keyboard-response","86","439501","0.0-4.0-2.15","","<div style=""font-size:60px;"">+</div>","null","","","","","","",""
"null","","image-keyboard-response","87","441003","0.0-4.0-0.16","","img/grey.png","null","trial","null","true","0.2,0.8","2:nogo_b","",""
"null","","html-keyboard-response","88","442006","0.0-4.0-1.16","","<img src=""img/grey-r.png"">","null","trial","null","","0.2,0.8","2:nogo_b","1",""
"null","","html-keyboard-response","89","443026","0.0-4.0-2.16","","<div style=""font-size:60px;"">+</div>","null","","","","","","",""
"275.2800000598654","","image-keyboard-response","90","443305","0.0-4.0-0.17","","img/yellow.png","32","trial","32","true","0.8,0.2","1:go_a","",""
"null","","html-keyboard-response","91","444307","0.0-4.0-1.17","","<img src=""img/yellow-n.png"" border=""10"">","null","trial","32","","0.8,0.2","1:go_a","0",""
"null","","html-keyboard-response","92","445309","0.0-4.0-2.17","","<div style=""font-size:60px;"">+</div>","null","","","","","","",""
"null","","image-keyboard-response","93","446810","0.0-4.0-0.18","","img/grey.png","null","trial","null","true","0.2,0.8","2:nogo_b","",""
"null","","html-keyboard-response","94","447813","0.0-4.0-1.18","","<img src=""img/grey-r.png"">","null","trial","null","","0.2,0.8","2:nogo_b","1",""
"null","","html-keyboard-response","95","448815","0.0-4.0-2.18","","<div style=""font-size:60px;"">+</div>","null","","","","","","",""
"302.4849999928847","","image-keyboard-response","96","449119","0.0-4.0-0.19","","img/yellow.png","32","trial","32","true","0.8,0.2","1:go_a","",""
"null","","html-keyboard-response","97","450122","0.0-4.0-1.19","","<img src=""img/yellow-r.png"" border=""10"">","null","trial","32","","0.8,0.2","1:go_a","1",""
"null","","html-keyboard-response","98","451125","0.0-4.0-2.19","","<div style=""font-size:60px;"">+</div>","null","","","","","","",""
"null","","image-keyboard-response","99","452627","0.0-4.0-0.20","","img/grey.png","null","trial","null","true","0.2,0.8","2:nogo_b","",""
"null","","html-keyboard-response","100","453630","0.0-4.0-1.20","","<img src=""img/grey-r.png"">","null","trial","null","","0.2,0.8","2:nogo_b","1",""
"null","","html-keyboard-response","101","454632","0.0-4.0-2.20","","<div style=""font-size:60px;"">+</div>","null","","","","","","",""
"261.13999995868653","","image-keyboard-response","102","454894","0.0-4.0-0.21","","img/yellow.png","32","trial","32","true","0.8,0.2","1:go_a","",""
"null","","html-keyboard-response","103","455897","0.0-4.0-1.21","","<img src=""img/yellow-r.png"" border=""10"">","null","trial","32","","0.8,0.2","1:go_a","1",""
"null","","html-keyboard-response","104","456900","0.0-4.0-2.21","","<div style=""font-size:60px;"">+</div>","null","","","","","","",""
"587.2599999420345","","image-keyboard-response","105","457489","0.0-4.0-0.22","","img/yellow.png","32","trial","32","true","0.8,0.2","1:go_a","",""
"null","","html-keyboard-response","106","458492","0.0-4.0-1.22","","<img src=""img/yellow-r.png"" border=""10"">","null","trial","32","","0.8,0.2","1:go_a","1",""
"null","","html-keyboard-response","107","459493","0.0-4.0-2.22","","<div style=""font-size:60px;"">+</div>","null","","","","","","",""
"null","","image-keyboard-response","108","460996","0.0-4.0-0.23","","img/grey.png","null","trial","null","true","0.2,0.8","2:nogo_b","",""
"null","","html-keyboard-response","109","461999","0.0-4.0-1.23","","<img src=""img/grey-r.png"">","null","trial","null","","0.2,0.8","2:nogo_b","1",""
"null","","html-keyboard-response","110","463001","0.0-4.0-2.23","","<div style=""font-size:60px;"">+</div>","null","","","","","","",""
"null","","image-keyboard-response","111","464503","0.0-4.0-0.24","","img/grey.png","null","trial","null","true","0.2,0.8","2:nogo_b","",""
"null","","html-keyboard-response","112","465507","0.0-4.0-1.24","","<img src=""img/grey-r.png"">","null","trial","null","","0.2,0.8","2:nogo_b","1",""
"null","","html-keyboard-response","113","466508","0.0-4.0-2.24","","<div style=""font-size:60px;"">+</div>","null","","","","","","",""
"295.0849999906495","","image-keyboard-response","114","466805","0.0-4.0-0.25","","img/yellow.png","32","trial","32","true","0.8,0.2","1:go_a","",""
"null","","html-keyboard-response","115","467809","0.0-4.0-1.25","","<img src=""img/yellow-r.png"" border=""10"">","null","trial","32","","0.8,0.2","1:go_a","1",""
"null","","html-keyboard-response","116","468811","0.0-4.0-2.25","","<div style=""font-size:60px;"">+</div>","null","","","","","","",""
"null","","image-keyboard-response","117","470314","0.0-4.0-0.26","","img/grey.png","null","trial","null","true","0.2,0.8","2:nogo_b","",""
"null","","html-keyboard-response","118","471325","0.0-4.0-1.26","","<img src=""img/grey-r.png"">","null","trial","null","","0.2,0.8","2:nogo_b","1",""
"null","","html-keyboard-response","119","472327","0.0-4.0-2.26","","<div style=""font-size:60px;"">+</div>","null","","","","","","",""
"279.8099999781698","","image-keyboard-response","120","472610","0.0-4.0-0.27","","img/yellow.png","32","trial","32","true","0.8,0.2","1:go_a","",""
"null","","html-keyboard-response","121","473611","0.0-4.0-1.27","","<img src=""img/yellow-r.png"" border=""10"">","null","trial","32","","0.8,0.2","1:go_a","1",""
"null","","html-keyboard-response","122","474613","0.0-4.0-2.27","","<div style=""font-size:60px;"">+</div>","null","","","","","","",""
"null","","image-keyboard-response","123","476118","0.0-4.0-0.28","","img/grey.png","null","trial","null","true","0.2,0.8","2:nogo_b","",""
"null","","html-keyboard-response","124","477120","0.0-4.0-1.28","","<img src=""img/grey-n.png"">","null","trial","null","","0.2,0.8","2:nogo_b","0",""
"null","","html-keyboard-response","125","478122","0.0-4.0-2.28","","<div style=""font-size:60px;"">+</div>","null","","","","","","",""
"378.4600000362843","","image-keyboard-response","126","478502","0.0-4.0-0.29","","img/yellow.png","32","trial","32","true","0.8,0.2","1:go_a","",""
"null","","html-keyboard-response","127","479505","0.0-4.0-1.29","","<img src=""img/yellow-r.png"" border=""10"">","null","trial","32","","0.8,0.2","1:go_a","1",""
"null","","html-keyboard-response","128","480507","0.0-4.0-2.29","","<div style=""font-size:60px;"">+</div>","null","","","","","","",""
"null","","image-keyboard-response","129","482008","0.0-4.0-0.30","","img/grey.png","null","trial","null","true","0.2,0.8","2:nogo_b","",""
"null","","html-keyboard-response","130","483012","0.0-4.0-1.30","","<img src=""img/grey-r.png"">","null","trial","null","","0.2,0.8","2:nogo_b","1",""
"null","","html-keyboard-response","131","484015","0.0-4.0-2.30","","<div style=""font-size:60px;"">+</div>","null","","","","","","",""
"270.78000002074987","","image-keyboard-response","132","484288","0.0-4.0-0.31","","img/yellow.png","32","trial","32","true","0.8,0.2","1:go_a","",""
"null","","html-keyboard-response","133","485290","0.0-4.0-1.31","","<img src=""img/yellow-r.png"" border=""10"">","null","trial","32","","0.8,0.2","1:go_a","1",""
"null","","html-keyboard-response","134","486291","0.0-4.0-2.31","","<div style=""font-size:60px;"">+</div>","null","","","","","","",""
"null","","image-keyboard-response","135","487793","0.0-4.0-0.32","","img/grey.png","null","trial","null","true","0.2,0.8","2:nogo_b","",""
"null","","html-keyboard-response","136","488797","0.0-4.0-1.32","","<img src=""img/grey-r.png"">","null","trial","null","","0.2,0.8","2:nogo_b","1",""
"null","","html-keyboard-response","137","489799","0.0-4.0-2.32","","<div style=""font-size:60px;"">+</div>","null","","","","","","",""
"336.8750000372529","","image-keyboard-response","138","490138","0.0-4.0-0.33","","img/yellow.png","32","trial","32","true","0.8,0.2","1:go_a","",""
"null","","html-keyboard-response","139","491141","0.0-4.0-1.33","","<img src=""img/yellow-r.png"" border=""10"">","null","trial","32","","0.8,0.2","1:go_a","1",""
"null","","html-keyboard-response","140","492143","0.0-4.0-2.33","","<div style=""font-size:60px;"">+</div>","null","","","","","","",""
"480.210000067018","","image-keyboard-response","141","492625","0.0-4.0-0.34","","img/yellow.png","32","trial","32","true","0.8,0.2","1:go_a","",""
"null","","html-keyboard-response","142","493629","0.0-4.0-1.34","","<img src=""img/yellow-r.png"" border=""10"">","null","trial","32","","0.8,0.2","1:go_a","1",""
"null","","html-keyboard-response","143","494632","0.0-4.0-2.34","","<div style=""font-size:60px;"">+</div>","null","","","","","","",""
"null","","image-keyboard-response","144","496133","0.0-4.0-0.35","","img/grey.png","null","trial","null","true","0.2,0.8","2:nogo_b","",""
"null","","html-keyboard-response","145","497149","0.0-4.0-1.35","","<img src=""img/grey-n.png"">","null","trial","null","","0.2,0.8","2:nogo_b","0",""
"null","","html-keyboard-response","146","498151","0.0-4.0-2.35","","<div style=""font-size:60px;"">+</div>","null","","","","","","",""
"280.65999993123114","","image-keyboard-response","147","498432","0.0-4.0-0.36","","img/yellow.png","32","trial","32","true","0.8,0.2","1:go_a","",""
"null","","html-keyboard-response","148","499435","0.0-4.0-1.36","","<img src=""img/yellow-r.png"" border=""10"">","null","trial","32","","0.8,0.2","1:go_a","1",""
"null","","html-keyboard-response","149","500437","0.0-4.0-2.36","","<div style=""font-size:60px;"">+</div>","null","","","","","","",""
"null","","image-keyboard-response","150","501939","0.0-4.0-0.37","","img/grey.png","null","trial","null","true","0.2,0.8","2:nogo_b","",""
"null","","html-keyboard-response","151","502942","0.0-4.0-1.37","","<img src=""img/grey-r.png"">","null","trial","null","","0.2,0.8","2:nogo_b","1",""
"null","","html-keyboard-response","152","503943","0.0-4.0-2.37","","<div style=""font-size:60px;"">+</div>","null","","","","","","",""
"null","","image-keyboard-response","153","505445","0.0-4.0-0.38","","img/grey.png","null","trial","null","true","0.2,0.8","2:nogo_b","",""
"null","","html-keyboard-response","154","506448","0.0-4.0-1.38","","<img src=""img/grey-n.png"">","null","trial","null","","0.2,0.8","2:nogo_b","0",""
"null","","html-keyboard-response","155","507453","0.0-4.0-2.38","","<div style=""font-size:60px;"">+</div>","null","","","","","","",""
"392.7499999990687","","image-keyboard-response","156","507848","0.0-4.0-0.39","","img/yellow.png","32","trial","32","true","0.8,0.2","1:go_a","",""
"null","","html-keyboard-response","157","508850","0.0-4.0-1.39","","<img src=""img/yellow-r.png"" border=""10"">","null","trial","32","","0.8,0.2","1:go_a","1",""
"null","","html-keyboard-response","158","509852","0.0-4.0-2.39","","<div style=""font-size:60px;"">+</div>","null","","","","","","",""
"null","","image-keyboard-response","159","511354","0.0-4.0-0.40","","img/grey.png","null","trial","null","true","0.2,0.8","2:nogo_b","",""
"null","","html-keyboard-response","160","512357","0.0-4.0-1.40","","<img src=""img/grey-r.png"">","null","trial","null","","0.2,0.8","2:nogo_b","1",""
"null","","html-keyboard-response","161","513359","0.0-4.0-2.40","","<div style=""font-size:60px;"">+</div>","null","","","","","","",""
"574.8899999307469","","image-keyboard-response","162","513935","0.0-4.0-0.41","","img/yellow.png","32","trial","32","true","0.8,0.2","1:go_a","",""
"null","","html-keyboard-response","163","514938","0.0-4.0-1.41","","<img src=""img/yellow-r.png"" border=""10"">","null","trial","32","","0.8,0.2","1:go_a","1",""
"null","","html-keyboard-response","164","515950","0.0-4.0-2.41","","<div style=""font-size:60px;"">+</div>","null","","","","","","",""
"null","","image-keyboard-response","165","517451","0.0-4.0-0.42","","img/grey.png","null","trial","null","true","0.2,0.8","2:nogo_b","",""
"null","","html-keyboard-response","166","518454","0.0-4.0-1.42","","<img src=""img/grey-r.png"">","null","trial","null","","0.2,0.8","2:nogo_b","1",""
"null","","html-keyboard-response","167","519456","0.0-4.0-2.42","","<div style=""font-size:60px;"">+</div>","null","","","","","","",""
"580.2850000327453","","image-keyboard-response","168","520038","0.0-4.0-0.43","","img/yellow.png","32","trial","32","true","0.8,0.2","1:go_a","",""
"null","","html-keyboard-response","169","521041","0.0-4.0-1.43","","<img src=""img/yellow-n.png"" border=""10"">","null","trial","32","","0.8,0.2","1:go_a","0",""
"null","","html-keyboard-response","170","522042","0.0-4.0-2.43","","<div style=""font-size:60px;"">+</div>","null","","","","","","",""
"null","","image-keyboard-response","171","523545","0.0-4.0-0.44","","img/grey.png","null","trial","null","true","0.2,0.8","2:nogo_b","",""
"null","","html-keyboard-response","172","524548","0.0-4.0-1.44","","<img src=""img/grey-r.png"">","null","trial","null","","0.2,0.8","2:nogo_b","1",""
"null","","html-keyboard-response","173","525550","0.0-4.0-2.44","","<div style=""font-size:60px;"">+</div>","null","","","","","","",""
"420.064999954775","","image-keyboard-response","174","525972","0.0-4.0-0.45","","img/yellow.png","32","trial","32","true","0.8,0.2","1:go_a","",""
"null","","html-keyboard-response","175","526976","0.0-4.0-1.45","","<img src=""img/yellow-r.png"" border=""10"">","null","trial","32","","0.8,0.2","1:go_a","1",""
"null","","html-keyboard-response","176","527979","0.0-4.0-2.45","","<div style=""font-size:60px;"">+</div>","null","","","","","","",""
"null","","image-keyboard-response","177","529480","0.0-4.0-0.46","","img/grey.png","null","trial","null","true","0.2,0.8","2:nogo_b","",""
"null","","html-keyboard-response","178","530483","0.0-4.0-1.46","","<img src=""img/grey-r.png"">","null","trial","null","","0.2,0.8","2:nogo_b","1",""
"null","","html-keyboard-response","179","531486","0.0-4.0-2.46","","<div style=""font-size:60px;"">+</div>","null","","","","","","",""
"298.73000003863126","","image-keyboard-response","180","531786","0.0-4.0-0.47","","img/yellow.png","32","trial","32","true","0.8,0.2","1:go_a","",""
"null","","html-keyboard-response","181","532789","0.0-4.0-1.47","","<img src=""img/yellow-r.png"" border=""10"">","null","trial","32","","0.8,0.2","1:go_a","1",""
"null","","html-keyboard-response","182","533791","0.0-4.0-2.47","","<div style=""font-size:60px;"">+</div>","null","","","","","","",""
"520.7899999804795","","image-keyboard-response","183","534313","0.0-4.0-0.48","","img/yellow.png","32","trial","32","true","0.8,0.2","1:go_a","",""
"null","","html-keyboard-response","184","535315","0.0-4.0-1.48","","<img src=""img/yellow-r.png"" border=""10"">","null","trial","32","","0.8,0.2","1:go_a","1",""
"null","","html-keyboard-response","185","536316","0.0-4.0-2.48","","<div style=""font-size:60px;"">+</div>","null","","","","","","",""
"null","","image-keyboard-response","186","537818","0.0-4.0-0.49","","img/grey.png","null","trial","null","true","0.2,0.8","2:nogo_b","",""
"null","","html-keyboard-response","187","538824","0.0-4.0-1.49","","<img src=""img/grey-r.png"">","null","trial","null","","0.2,0.8","2:nogo_b","1",""
"null","","html-keyboard-response","188","539826","0.0-4.0-2.49","","<div style=""font-size:60px;"">+</div>","null","","","","","","",""
"831.4249999821186","","image-keyboard-response","189","540659","0.0-4.0-0.50","","img/grey.png","32","trial","null","false","0.2,0.8","2:nogo_b","",""
"null","","html-keyboard-response","190","541663","0.0-4.0-1.50","","<img src=""img/grey-n.png"" border=""10"">","null","trial","null","","0.2,0.8","2:nogo_b","0",""
"null","","html-keyboard-response","191","542665","0.0-4.0-2.50","","<div style=""font-size:60px;"">+</div>","null","","","","","","",""
"495.5600000685081","","image-keyboard-response","192","543162","0.0-4.0-0.51","","img/yellow.png","32","trial","32","true","0.8,0.2","1:go_a","",""
"null","","html-keyboard-response","193","544164","0.0-4.0-1.51","","<img src=""img/yellow-r.png"" border=""10"">","null","trial","32","","0.8,0.2","1:go_a","1",""
"null","","html-keyboard-response","194","545166","0.0-4.0-2.51","","<div style=""font-size:60px;"">+</div>","null","","","","","","",""
"null","","image-keyboard-response","195","546668","0.0-4.0-0.52","","img/grey.png","null","trial","null","true","0.2,0.8","2:nogo_b","",""
"null","","html-keyboard-response","196","547670","0.0-4.0-1.52","","<img src=""img/grey-n.png"">","null","trial","null","","0.2,0.8","2:nogo_b","0",""
"null","","html-keyboard-response","197","548671","0.0-4.0-2.52","","<div style=""font-size:60px;"">+</div>","null","","","","","","",""
"331.2800000421703","","image-keyboard-response","198","549004","0.0-4.0-0.53","","img/yellow.png","32","trial","32","true","0.8,0.2","1:go_a","",""
"null","","html-keyboard-response","199","550010","0.0-4.0-1.53","","<img src=""img/yellow-r.png"" border=""10"">","null","trial","32","","0.8,0.2","1:go_a","1",""
"null","","html-keyboard-response","200","551012","0.0-4.0-2.53","","<div style=""font-size:60px;"">+</div>","null","","","","","","",""
"520.189999951981","","image-keyboard-response","201","551533","0.0-4.0-0.54","","img/yellow.png","32","trial","32","true","0.8,0.2","1:go_a","",""
"null","","html-keyboard-response","202","552537","0.0-4.0-1.54","","<img src=""img/yellow-n.png"" border=""10"">","null","trial","32","","0.8,0.2","1:go_a","0",""
"null","","html-keyboard-response","203","553542","0.0-4.0-2.54","","<div style=""font-size:60px;"">+</div>","null","","","","","","",""
"null","","image-keyboard-response","204","555045","0.0-4.0-0.55","","img/grey.png","null","trial","null","true","0.2,0.8","2:nogo_b","",""
"null","","html-keyboard-response","205","556048","0.0-4.0-1.55","","<img src=""img/grey-r.png"">","null","trial","null","","0.2,0.8","2:nogo_b","1",""
"null","","html-keyboard-response","206","557050","0.0-4.0-2.55","","<div style=""font-size:60px;"">+</div>","null","","","","","","",""
"null","","image-keyboard-response","207","558553","0.0-4.0-0.56","","img/grey.png","null","trial","null","true","0.2,0.8","2:nogo_b","",""
"null","","html-keyboard-response","208","559556","0.0-4.0-1.56","","<img src=""img/grey-r.png"">","null","trial","null","","0.2,0.8","2:nogo_b","1",""
"null","","html-keyboard-response","209","560558","0.0-4.0-2.56","","<div style=""font-size:60px;"">+</div>","null","","","","","","",""
"326.85499999206513","","image-keyboard-response","210","560886","0.0-4.0-0.57","","img/yellow.png","32","trial","32","true","0.8,0.2","1:go_a","",""
"null","","html-keyboard-response","211","561889","0.0-4.0-1.57","","<img src=""img/yellow-r.png"" border=""10"">","null","trial","32","","0.8,0.2","1:go_a","1",""
"null","","html-keyboard-response","212","562891","0.0-4.0-2.57","","<div style=""font-size:60px;"">+</div>","null","","","","","","",""
"639.3950000638142","","image-keyboard-response","213","563531","0.0-4.0-0.58","","img/yellow.png","32","trial","32","true","0.8,0.2","1:go_a","",""
"null","","html-keyboard-response","214","564535","0.0-4.0-1.58","","<img src=""img/yellow-r.png"" border=""10"">","null","trial","32","","0.8,0.2","1:go_a","1",""
"null","","html-keyboard-response","215","565537","0.0-4.0-2.58","","<div style=""font-size:60px;"">+</div>","null","","","","","","",""
"null","","image-keyboard-response","216","567039","0.0-4.0-0.59","","img/grey.png","null","trial","null","true","0.2,0.8","2:nogo_b","",""
"null","","html-keyboard-response","217","568042","0.0-4.0-1.59","","<img src=""img/grey-n.png"">","null","trial","null","","0.2,0.8","2:nogo_b","0",""
"null","","html-keyboard-response","218","569044","0.0-4.0-2.59","","<div style=""font-size:60px;"">+</div>","null","","","","","","",""
"4415.834999992512","","instructions","219","573460","0.0-5.0","[{""page_index"":0,""viewing_time"":4415.614999947138}]","","","","","","","","",""
"925.0999999931082","","image-keyboard-response","220","574386","0.0-6.0-0.0","","img/red.png","32","trial","null","false","0.2,0.8","2:nogo_b","",""
"null","","html-keyboard-response","221","575388","0.0-6.0-1.0","","<img src=""img/red-n.png"" border=""10"">","null","trial","null","","0.2,0.8","2:nogo_b","0",""
"null","","html-keyboard-response","222","576390","0.0-6.0-2.0","","<div style=""font-size:60px;"">+</div>","null","","","","","","",""
"739.8400000529364","","image-keyboard-response","223","577131","0.0-6.0-0.1","","img/grey.png","32","trial","32","true","1,0","3:go_c","",""
"null","","html-keyboard-response","224","578132","0.0-6.0-1.1","","<img src=""img/grey-r.png"" border=""10"">","null","trial","32","","1,0","3:go_c","1",""
"null","","html-keyboard-response","225","579134","0.0-6.0-2.1","","<div style=""font-size:60px;"">+</div>","null","","","","","","",""
"922.9599999962375","","image-keyboard-response","226","580059","0.0-6.0-0.2","","img/orange.png","32","trial","32","true","0.8,0.2","1:go_a","",""
"null","","html-keyboard-response","227","581062","0.0-6.0-1.2","","<img src=""img/orange-r.png"" border=""10"">","null","trial","32","","0.8,0.2","1:go_a","1",""
"null","","html-keyboard-response","228","582064","0.0-6.0-2.2","","<div style=""font-size:60px;"">+</div>","null","","","","","","",""
"null","","image-keyboard-response","229","583566","0.0-6.0-0.3","","img/purple.png","null","trial","null","true","0,1","4:nogo_d","",""
"null","","html-keyboard-response","230","584574","0.0-6.0-1.3","","<img src=""img/purple-r.png"">","null","trial","null","","0,1","4:nogo_d","1",""
"null","","html-keyboard-response","231","585576","0.0-6.0-2.3","","<div style=""font-size:60px;"">+</div>","null","","","","","","",""
"676.8199999351054","","image-keyboard-response","232","586255","0.0-6.0-0.4","","img/orange.png","32","trial","32","true","0.8,0.2","1:go_a","",""
"null","","html-keyboard-response","233","587260","0.0-6.0-1.4","","<img src=""img/orange-r.png"" border=""10"">","null","trial","32","","0.8,0.2","1:go_a","1",""
"null","","html-keyboard-response","234","588263","0.0-6.0-2.4","","<div style=""font-size:60px;"">+</div>","null","","","","","","",""
"null","","image-keyboard-response","235","589765","0.0-6.0-0.5","","img/purple.png","null","trial","null","true","0,1","4:nogo_d","",""
"null","","html-keyboard-response","236","590768","0.0-6.0-1.5","","<img src=""img/purple-r.png"">","null","trial","null","","0,1","4:nogo_d","1",""
"null","","html-keyboard-response","237","591769","0.0-6.0-2.5","","<div style=""font-size:60px;"">+</div>","null","","","","","","",""
"1314.7399999434128","","image-keyboard-response","238","593085","0.0-6.0-0.6","","img/grey.png","32","trial","32","true","1,0","3:go_c","",""
"null","","html-keyboard-response","239","594089","0.0-6.0-1.6","","<img src=""img/grey-r.png"" border=""10"">","null","trial","32","","1,0","3:go_c","1",""
"null","","html-keyboard-response","240","595092","0.0-6.0-2.6","","<div style=""font-size:60px;"">+</div>","null","","","","","","",""
"null","","image-keyboard-response","241","596594","0.0-6.0-0.7","","img/red.png","null","trial","null","true","0.2,0.8","2:nogo_b","",""
"null","","html-keyboard-response","242","597598","0.0-6.0-1.7","","<img src=""img/red-r.png"">","null","trial","null","","0.2,0.8","2:nogo_b","1",""
"null","","html-keyboard-response","243","598599","0.0-6.0-2.7","","<div style=""font-size:60px;"">+</div>","null","","","","","","",""
"565.4500001110137","","image-keyboard-response","244","599166","0.0-6.0-0.8","","img/orange.png","32","trial","32","true","0.8,0.2","1:go_a","",""
"null","","html-keyboard-response","245","600168","0.0-6.0-1.8","","<img src=""img/orange-r.png"" border=""10"">","null","trial","32","","0.8,0.2","1:go_a","1",""
"null","","html-keyboard-response","246","601170","0.0-6.0-2.8","","<div style=""font-size:60px;"">+</div>","null","","","","","","",""
"615.4400000814348","","image-keyboard-response","247","601787","0.0-6.0-0.9","","img/grey.png","32","trial","32","true","1,0","3:go_c","",""
"null","","html-keyboard-response","248","602791","0.0-6.0-1.9","","<img src=""img/grey-r.png"" border=""10"">","null","trial","32","","1,0","3:go_c","1",""
"null","","html-keyboard-response","249","603794","0.0-6.0-2.9","","<div style=""font-size:60px;"">+</div>","null","","","","","","",""
"null","","image-keyboard-response","250","605298","0.0-6.0-0.10","","img/red.png","null","trial","null","true","0.2,0.8","2:nogo_b","",""
"null","","html-keyboard-response","251","606301","0.0-6.0-1.10","","<img src=""img/red-n.png"">","null","trial","null","","0.2,0.8","2:nogo_b","0",""
"null","","html-keyboard-response","252","607303","0.0-6.0-2.10","","<div style=""font-size:60px;"">+</div>","null","","","","","","",""
"null","","image-keyboard-response","253","608806","0.0-6.0-0.11","","img/purple.png","null","trial","null","true","0,1","4:nogo_d","",""
"null","","html-keyboard-response","254","609809","0.0-6.0-1.11","","<img src=""img/purple-r.png"">","null","trial","null","","0,1","4:nogo_d","1",""
"null","","html-keyboard-response","255","610811","0.0-6.0-2.11","","<div style=""font-size:60px;"">+</div>","null","","","","","","",""
"null","","image-keyboard-response","256","612313","0.0-6.0-0.12","","img/red.png","null","trial","null","true","0.2,0.8","2:nogo_b","",""
"null","","html-keyboard-response","257","613317","0.0-6.0-1.12","","<img src=""img/red-r.png"">","null","trial","null","","0.2,0.8","2:nogo_b","1",""
"null","","html-keyboard-response","258","614318","0.0-6.0-2.12","","<div style=""font-size:60px;"">+</div>","null","","","","","","",""
"685.2250000229105","","image-keyboard-response","259","615004","0.0-6.0-0.13","","img/purple.png","32","trial","null","false","0,1","4:nogo_d","",""
"null","","html-keyboard-response","260","616007","0.0-6.0-1.13","","<img src=""img/purple-n.png"" border=""10"">","null","trial","null","","0,1","4:nogo_d","0",""
"null","","html-keyboard-response","261","617010","0.0-6.0-2.13","","<div style=""font-size:60px;"">+</div>","null","","","","","","",""
"516.1300000036135","","image-keyboard-response","262","617527","0.0-6.0-0.14","","img/grey.png","32","trial","32","true","1,0","3:go_c","",""
"null","","html-keyboard-response","263","618531","0.0-6.0-1.14","","<img src=""img/grey-r.png"" border=""10"">","null","trial","32","","1,0","3:go_c","1",""
"null","","html-keyboard-response","264","619533","0.0-6.0-2.14","","<div style=""font-size:60px;"">+</div>","null","","","","","","",""
"425.8450000779703","","image-keyboard-response","265","619959","0.0-6.0-0.15","","img/orange.png","32","trial","32","true","0.8,0.2","1:go_a","",""
"null","","html-keyboard-response","266","620963","0.0-6.0-1.15","","<img src=""img/orange-n.png"" border=""10"">","null","trial","32","","0.8,0.2","1:go_a","0",""
"null","","html-keyboard-response","267","621964","0.0-6.0-2.15","","<div style=""font-size:60px;"">+</div>","null","","","","","","",""
"789.5149999530986","","image-keyboard-response","268","622755","0.0-6.0-0.16","","img/grey.png","32","trial","32","true","1,0","3:go_c","",""
"null","","html-keyboard-response","269","623773","0.0-6.0-1.16","","<img src=""img/grey-r.png"" border=""10"">","null","trial","32","","1,0","3:go_c","1",""
"null","","html-keyboard-response","270","624775","0.0-6.0-2.16","","<div style=""font-size:60px;"">+</div>","null","","","","","","",""
"null","","image-keyboard-response","271","626278","0.0-6.0-0.17","","img/purple.png","null","trial","null","true","0,1","4:nogo_d","",""
"null","","html-keyboard-response","272","627280","0.0-6.0-1.17","","<img src=""img/purple-r.png"">","null","trial","null","","0,1","4:nogo_d","1",""
"null","","html-keyboard-response","273","628282","0.0-6.0-2.17","","<div style=""font-size:60px;"">+</div>","null","","","","","","",""
"null","","image-keyboard-response","274","629783","0.0-6.0-0.18","","img/red.png","null","trial","null","true","0.2,0.8","2:nogo_b","",""
"null","","html-keyboard-response","275","630785","0.0-6.0-1.18","","<img src=""img/red-n.png"">","null","trial","null","","0.2,0.8","2:nogo_b","0",""
"null","","html-keyboard-response","276","631787","0.0-6.0-2.18","","<div style=""font-size:60px;"">+</div>","null","","","","","","",""
"435.7249999884516","","image-keyboard-response","277","632224","0.0-6.0-0.19","","img/orange.png","32","trial","32","true","0.8,0.2","1:go_a","",""
"null","","html-keyboard-response","278","633227","0.0-6.0-1.19","","<img src=""img/orange-r.png"" border=""10"">","null","trial","32","","0.8,0.2","1:go_a","1",""
"null","","html-keyboard-response","279","634228","0.0-6.0-2.19","","<div style=""font-size:60px;"">+</div>","null","","","","","","",""
"null","","image-keyboard-response","280","635731","0.0-6.0-0.20","","img/red.png","null","trial","null","true","0.2,0.8","2:nogo_b","",""
"null","","html-keyboard-response","281","636735","0.0-6.0-1.20","","<img src=""img/red-r.png"">","null","trial","null","","0.2,0.8","2:nogo_b","1",""
"null","","html-keyboard-response","282","637737","0.0-6.0-2.20","","<div style=""font-size:60px;"">+</div>","null","","","","","","",""
"421.04000004474074","","image-keyboard-response","283","638159","0.0-6.0-0.21","","img/orange.png","32","trial","32","true","0.8,0.2","1:go_a","",""
"null","","html-keyboard-response","284","639162","0.0-6.0-1.21","","<img src=""img/orange-r.png"" border=""10"">","null","trial","32","","0.8,0.2","1:go_a","1",""
"null","","html-keyboard-response","285","640164","0.0-6.0-2.21","","<div style=""font-size:60px;"">+</div>","null","","","","","","",""
"null","","image-keyboard-response","286","641666","0.0-6.0-0.22","","img/purple.png","null","trial","null","true","0,1","4:nogo_d","",""
"null","","html-keyboard-response","287","642669","0.0-6.0-1.22","","<img src=""img/purple-r.png"">","null","trial","null","","0,1","4:nogo_d","1",""
"null","","html-keyboard-response","288","643670","0.0-6.0-2.22","","<div style=""font-size:60px;"">+</div>","null","","","","","","",""
"483.0350000411272","","image-keyboard-response","289","644154","0.0-6.0-0.23","","img/grey.png","32","trial","32","true","1,0","3:go_c","",""
"null","","html-keyboard-response","290","645157","0.0-6.0-1.23","","<img src=""img/grey-r.png"" border=""10"">","null","trial","32","","1,0","3:go_c","1",""
"null","","html-keyboard-response","291","646160","0.0-6.0-2.23","","<div style=""font-size:60px;"">+</div>","null","","","","","","",""
"null","","image-keyboard-response","292","647663","0.0-6.0-0.24","","img/red.png","null","trial","null","true","0.2,0.8","2:nogo_b","",""
"null","","html-keyboard-response","293","648665","0.0-6.0-1.24","","<img src=""img/red-r.png"">","null","trial","null","","0.2,0.8","2:nogo_b","1",""
"null","","html-keyboard-response","294","649667","0.0-6.0-2.24","","<div style=""font-size:60px;"">+</div>","null","","","","","","",""
"421.99499998241663","","image-keyboard-response","295","650091","0.0-6.0-0.25","","img/grey.png","32","trial","32","true","1,0","3:go_c","",""
"null","","html-keyboard-response","296","651094","0.0-6.0-1.25","","<img src=""img/grey-r.png"" border=""10"">","null","trial","32","","1,0","3:go_c","1",""
"null","","html-keyboard-response","297","652097","0.0-6.0-2.25","","<div style=""font-size:60px;"">+</div>","null","","","","","","",""
"560.5850000865757","","image-keyboard-response","298","652659","0.0-6.0-0.26","","img/orange.png","32","trial","32","true","0.8,0.2","1:go_a","",""
"null","","html-keyboard-response","299","653663","0.0-6.0-1.26","","<img src=""img/orange-r.png"" border=""10"">","null","trial","32","","0.8,0.2","1:go_a","1",""
"null","","html-keyboard-response","300","654665","0.0-6.0-2.26","","<div style=""font-size:60px;"">+</div>","null","","","","","","",""
"null","","image-keyboard-response","301","656167","0.0-6.0-0.27","","img/purple.png","null","trial","null","true","0,1","4:nogo_d","",""
"null","","html-keyboard-response","302","657168","0.0-6.0-1.27","","<img src=""img/purple-r.png"">","null","trial","null","","0,1","4:nogo_d","1",""
"null","","html-keyboard-response","303","658170","0.0-6.0-2.27","","<div style=""font-size:60px;"">+</div>","null","","","","","","",""
"null","","image-keyboard-response","304","659672","0.0-6.0-0.28","","img/purple.png","null","trial","null","true","0,1","4:nogo_d","",""
"null","","html-keyboard-response","305","660674","0.0-6.0-1.28","","<img src=""img/purple-r.png"">","null","trial","null","","0,1","4:nogo_d","1",""
"null","","html-keyboard-response","306","661677","0.0-6.0-2.28","","<div style=""font-size:60px;"">+</div>","null","","","","","","",""
"394.8200000450015","","image-keyboard-response","307","662074","0.0-6.0-0.29","","img/orange.png","32","trial","32","true","0.8,0.2","1:go_a","",""
"null","","html-keyboard-response","308","663076","0.0-6.0-1.29","","<img src=""img/orange-r.png"" border=""10"">","null","trial","32","","0.8,0.2","1:go_a","1",""
"null","","html-keyboard-response","309","664079","0.0-6.0-2.29","","<div style=""font-size:60px;"">+</div>","null","","","","","","",""
"1145.2200000640005","","image-keyboard-response","310","665226","0.0-6.0-0.30","","img/grey.png","32","trial","32","true","1,0","3:go_c","",""
"null","","html-keyboard-response","311","666229","0.0-6.0-1.30","","<img src=""img/grey-r.png"" border=""10"">","null","trial","32","","1,0","3:go_c","1",""
"null","","html-keyboard-response","312","667231","0.0-6.0-2.30","","<div style=""font-size:60px;"">+</div>","null","","","","","","",""
"null","","image-keyboard-response","313","668733","0.0-6.0-0.31","","img/red.png","null","trial","null","true","0.2,0.8","2:nogo_b","",""
"null","","html-keyboard-response","314","669736","0.0-6.0-1.31","","<img src=""img/red-r.png"">","null","trial","null","","0.2,0.8","2:nogo_b","1",""
"null","","html-keyboard-response","315","670738","0.0-6.0-2.31","","<div style=""font-size:60px;"">+</div>","null","","","","","","",""
"404.9349999986589","","image-keyboard-response","316","671144","0.0-6.0-0.32","","img/orange.png","32","trial","32","true","0.8,0.2","1:go_a","",""
"null","","html-keyboard-response","317","672147","0.0-6.0-1.32","","<img src=""img/orange-r.png"" border=""10"">","null","trial","32","","0.8,0.2","1:go_a","1",""
"null","","html-keyboard-response","318","673152","0.0-6.0-2.32","","<div style=""font-size:60px;"">+</div>","null","","","","","","",""
"null","","image-keyboard-response","319","674654","0.0-6.0-0.33","","img/purple.png","null","trial","null","true","0,1","4:nogo_d","",""
"null","","html-keyboard-response","320","675656","0.0-6.0-1.33","","<img src=""img/purple-r.png"">","null","trial","null","","0,1","4:nogo_d","1",""
"null","","html-keyboard-response","321","676673","0.0-6.0-2.33","","<div style=""font-size:60px;"">+</div>","null","","","","","","",""
"507.70000007469207","","image-keyboard-response","322","677182","0.0-6.0-0.34","","img/grey.png","32","trial","32","true","1,0","3:go_c","",""
"null","","html-keyboard-response","323","678186","0.0-6.0-1.34","","<img src=""img/grey-r.png"" border=""10"">","null","trial","32","","1,0","3:go_c","1",""
"null","","html-keyboard-response","324","679188","0.0-6.0-2.34","","<div style=""font-size:60px;"">+</div>","null","","","","","","",""
"null","","image-keyboard-response","325","680690","0.0-6.0-0.35","","img/red.png","null","trial","null","true","0.2,0.8","2:nogo_b","",""
"null","","html-keyboard-response","326","681694","0.0-6.0-1.35","","<img src=""img/red-r.png"">","null","trial","null","","0.2,0.8","2:nogo_b","1",""
"null","","html-keyboard-response","327","682696","0.0-6.0-2.35","","<div style=""font-size:60px;"">+</div>","null","","","","","","",""
"null","","image-keyboard-response","328","684198","0.0-6.0-0.36","","img/purple.png","null","trial","null","true","0,1","4:nogo_d","",""
"null","","html-keyboard-response","329","685201","0.0-6.0-1.36","","<img src=""img/purple-r.png"">","null","trial","null","","0,1","4:nogo_d","1",""
"null","","html-keyboard-response","330","686204","0.0-6.0-2.36","","<div style=""font-size:60px;"">+</div>","null","","","","","","",""
"570.8599999779835","","image-keyboard-response","331","686777","0.0-6.0-0.37","","img/grey.png","32","trial","32","true","1,0","3:go_c","",""
"null","","html-keyboard-response","332","687779","0.0-6.0-1.37","","<img src=""img/grey-r.png"" border=""10"">","null","trial","32","","1,0","3:go_c","1",""
"null","","html-keyboard-response","333","688781","0.0-6.0-2.37","","<div style=""font-size:60px;"">+</div>","null","","","","","","",""
"null","","image-keyboard-response","334","690284","0.0-6.0-0.38","","img/red.png","null","trial","null","true","0.2,0.8","2:nogo_b","",""
"null","","html-keyboard-response","335","691287","0.0-6.0-1.38","","<img src=""img/red-r.png"">","null","trial","null","","0.2,0.8","2:nogo_b","1",""
"null","","html-keyboard-response","336","692290","0.0-6.0-2.38","","<div style=""font-size:60px;"">+</div>","null","","","","","","",""
"385.5599999660626","","image-keyboard-response","337","692677","0.0-6.0-0.39","","img/orange.png","32","trial","32","true","0.8,0.2","1:go_a","",""
"null","","html-keyboard-response","338","693680","0.0-6.0-1.39","","<img src=""img/orange-r.png"" border=""10"">","null","trial","32","","0.8,0.2","1:go_a","1",""
"null","","html-keyboard-response","339","694682","0.0-6.0-2.39","","<div style=""font-size:60px;"">+</div>","null","","","","","","",""
"589.6799999754876","","image-keyboard-response","340","695273","0.0-6.0-0.40","","img/grey.png","32","trial","32","true","1,0","3:go_c","",""
"null","","html-keyboard-response","341","696277","0.0-6.0-1.40","","<img src=""img/grey-r.png"" border=""10"">","null","trial","32","","1,0","3:go_c","1",""
"null","","html-keyboard-response","342","697286","0.0-6.0-2.40","","<div style=""font-size:60px;"">+</div>","null","","","","","","",""
"510.0000000093132","","image-keyboard-response","343","697798","0.0-6.0-0.41","","img/orange.png","32","trial","32","true","0.8,0.2","1:go_a","",""
"null","","html-keyboard-response","344","698801","0.0-6.0-1.41","","<img src=""img/orange-n.png"" border=""10"">","null","trial","32","","0.8,0.2","1:go_a","0",""
"null","","html-keyboard-response","345","699804","0.0-6.0-2.41","","<div style=""font-size:60px;"">+</div>","null","","","","","","",""
"null","","image-keyboard-response","346","701311","0.0-6.0-0.42","","img/red.png","null","trial","null","true","0.2,0.8","2:nogo_b","",""
"null","","html-keyboard-response","347","702314","0.0-6.0-1.42","","<img src=""img/red-r.png"">","null","trial","null","","0.2,0.8","2:nogo_b","1",""
"null","","html-keyboard-response","348","703316","0.0-6.0-2.42","","<div style=""font-size:60px;"">+</div>","null","","","","","","",""
"null","","image-keyboard-response","349","704818","0.0-6.0-0.43","","img/purple.png","null","trial","null","true","0,1","4:nogo_d","",""
"null","","html-keyboard-response","350","705821","0.0-6.0-1.43","","<img src=""img/purple-r.png"">","null","trial","null","","0,1","4:nogo_d","1",""
"null","","html-keyboard-response","351","706823","0.0-6.0-2.43","","<div style=""font-size:60px;"">+</div>","null","","","","","","",""
"null","","image-keyboard-response","352","708325","0.0-6.0-0.44","","img/red.png","null","trial","null","true","0.2,0.8","2:nogo_b","",""
"null","","html-keyboard-response","353","709328","0.0-6.0-1.44","","<img src=""img/red-r.png"">","null","trial","null","","0.2,0.8","2:nogo_b","1",""
"null","","html-keyboard-response","354","710329","0.0-6.0-2.44","","<div style=""font-size:60px;"">+</div>","null","","","","","","",""
"null","","image-keyboard-response","355","711831","0.0-6.0-0.45","","img/purple.png","null","trial","null","true","0,1","4:nogo_d","",""
"null","","html-keyboard-response","356","712834","0.0-6.0-1.45","","<img src=""img/purple-r.png"">","null","trial","null","","0,1","4:nogo_d","1",""
"null","","html-keyboard-response","357","713837","0.0-6.0-2.45","","<div style=""font-size:60px;"">+</div>","null","","","","","","",""
"477.4650000035763","","image-keyboard-response","358","714317","0.0-6.0-0.46","","img/grey.png","32","trial","32","true","1,0","3:go_c","",""
"null","","html-keyboard-response","359","715319","0.0-6.0-1.46","","<img src=""img/grey-r.png"" border=""10"">","null","trial","32","","1,0","3:go_c","1",""
"null","","html-keyboard-response","360","716322","0.0-6.0-2.46","","<div style=""font-size:60px;"">+</div>","null","","","","","","",""
"543.5050000669435","","image-keyboard-response","361","716867","0.0-6.0-0.47","","img/orange.png","32","trial","32","true","0.8,0.2","1:go_a","",""
"null","","html-keyboard-response","362","717871","0.0-6.0-1.47","","<img src=""img/orange-r.png"" border=""10"">","null","trial","32","","0.8,0.2","1:go_a","1",""
"null","","html-keyboard-response","363","718872","0.0-6.0-2.47","","<div style=""font-size:60px;"">+</div>","null","","","","","","",""
"null","","image-keyboard-response","364","720374","0.0-6.0-0.48","","img/purple.png","null","trial","null","true","0,1","4:nogo_d","",""
"null","","html-keyboard-response","365","721378","0.0-6.0-1.48","","<img src=""img/purple-r.png"">","null","trial","null","","0,1","4:nogo_d","1",""
"null","","html-keyboard-response","366","722380","0.0-6.0-2.48","","<div style=""font-size:60px;"">+</div>","null","","","","","","",""
"510.60500007588416","","image-keyboard-response","367","722892","0.0-6.0-0.49","","img/grey.png","32","trial","32","true","1,0","3:go_c","",""
"null","","html-keyboard-response","368","723895","0.0-6.0-1.49","","<img src=""img/grey-r.png"" border=""10"">","null","trial","32","","1,0","3:go_c","1",""
"null","","html-keyboard-response","369","724897","0.0-6.0-2.49","","<div style=""font-size:60px;"">+</div>","null","","","","","","",""
"null","","image-keyboard-response","370","726400","0.0-6.0-0.50","","img/red.png","null","trial","null","true","0.2,0.8","2:nogo_b","",""
"null","","html-keyboard-response","371","727404","0.0-6.0-1.50","","<img src=""img/red-r.png"">","null","trial","null","","0.2,0.8","2:nogo_b","1",""
"null","","html-keyboard-response","372","728406","0.0-6.0-2.50","","<div style=""font-size:60px;"">+</div>","null","","","","","","",""
"454.4800000730902","","image-keyboard-response","373","728863","0.0-6.0-0.51","","img/orange.png","32","trial","32","true","0.8,0.2","1:go_a","",""
"null","","html-keyboard-response","374","729866","0.0-6.0-1.51","","<img src=""img/orange-r.png"" border=""10"">","null","trial","32","","0.8,0.2","1:go_a","1",""
"null","","html-keyboard-response","375","730867","0.0-6.0-2.51","","<div style=""font-size:60px;"">+</div>","null","","","","","","",""
"624.4200000073761","","image-keyboard-response","376","731493","0.0-6.0-0.52","","img/orange.png","32","trial","32","true","0.8,0.2","1:go_a","",""
"null","","html-keyboard-response","377","732497","0.0-6.0-1.52","","<img src=""img/orange-n.png"" border=""10"">","null","trial","32","","0.8,0.2","1:go_a","0",""
"null","","html-keyboard-response","378","733499","0.0-6.0-2.52","","<div style=""font-size:60px;"">+</div>","null","","","","","","",""
"546.9150000717491","","image-keyboard-response","379","734047","0.0-6.0-0.53","","img/grey.png","32","trial","32","true","1,0","3:go_c","",""
"null","","html-keyboard-response","380","735051","0.0-6.0-1.53","","<img src=""img/grey-r.png"" border=""10"">","null","trial","32","","1,0","3:go_c","1",""
"null","","html-keyboard-response","381","736053","0.0-6.0-2.53","","<div style=""font-size:60px;"">+</div>","null","","","","","","",""
"null","","image-keyboard-response","382","737556","0.0-6.0-0.54","","img/red.png","null","trial","null","true","0.2,0.8","2:nogo_b","",""
"null","","html-keyboard-response","383","738559","0.0-6.0-1.54","","<img src=""img/red-r.png"">","null","trial","null","","0.2,0.8","2:nogo_b","1",""
"null","","html-keyboard-response","384","739562","0.0-6.0-2.54","","<div style=""font-size:60px;"">+</div>","null","","","","","","",""
"null","","image-keyboard-response","385","741066","0.0-6.0-0.55","","img/purple.png","null","trial","null","true","0,1","4:nogo_d","",""
"null","","html-keyboard-response","386","742069","0.0-6.0-1.55","","<img src=""img/purple-r.png"">","null","trial","null","","0,1","4:nogo_d","1",""
"null","","html-keyboard-response","387","743071","0.0-6.0-2.55","","<div style=""font-size:60px;"">+</div>","null","","","","","","",""
"null","","image-keyboard-response","388","744575","0.0-6.0-0.56","","img/red.png","null","trial","null","true","0.2,0.8","2:nogo_b","",""
"null","","html-keyboard-response","389","745580","0.0-6.0-1.56","","<img src=""img/red-r.png"">","null","trial","null","","0.2,0.8","2:nogo_b","1",""
"null","","html-keyboard-response","390","746581","0.0-6.0-2.56","","<div style=""font-size:60px;"">+</div>","null","","","","","","",""
"400.8749999338761","","image-keyboard-response","391","746985","0.0-6.0-0.57","","img/orange.png","32","trial","32","true","0.8,0.2","1:go_a","",""
"null","","html-keyboard-response","392","747989","0.0-6.0-1.57","","<img src=""img/orange-n.png"" border=""10"">","null","trial","32","","0.8,0.2","1:go_a","0",""
"null","","html-keyboard-response","393","748991","0.0-6.0-2.57","","<div style=""font-size:60px;"">+</div>","null","","","","","","",""
"480.86999997030944","","image-keyboard-response","394","749473","0.0-6.0-0.58","","img/grey.png","32","trial","32","true","1,0","3:go_c","",""
"null","","html-keyboard-response","395","750477","0.0-6.0-1.58","","<img src=""img/grey-r.png"" border=""10"">","null","trial","32","","1,0","3:go_c","1",""
"null","","html-keyboard-response","396","751483","0.0-6.0-2.58","","<div style=""font-size:60px;"">+</div>","null","","","","","","",""
"null","","image-keyboard-response","397","752999","0.0-6.0-0.59","","img/purple.png","null","trial","null","true","0,1","4:nogo_d","",""
"null","","html-keyboard-response","398","754004","0.0-6.0-1.59","","<img src=""img/purple-r.png"">","null","trial","null","","0,1","4:nogo_d","1",""
"null","","html-keyboard-response","399","755005","0.0-6.0-2.59","","<div style=""font-size:60px;"">+</div>","null","","","","","","",""
"null","","image-keyboard-response","400","756507","0.0-6.0-0.60","","img/red.png","null","trial","null","true","0.2,0.8","2:nogo_b","",""
"null","","html-keyboard-response","401","757510","0.0-6.0-1.60","","<img src=""img/red-n.png"">","null","trial","null","","0.2,0.8","2:nogo_b","0",""
"null","","html-keyboard-response","402","758513","0.0-6.0-2.60","","<div style=""font-size:60px;"">+</div>","null","","","","","","",""
"null","","image-keyboard-response","403","760015","0.0-6.0-0.61","","img/purple.png","null","trial","null","true","0,1","4:nogo_d","",""
"null","","html-keyboard-response","404","761019","0.0-6.0-1.61","","<img src=""img/purple-r.png"">","null","trial","null","","0,1","4:nogo_d","1",""
"null","","html-keyboard-response","405","762022","0.0-6.0-2.61","","<div style=""font-size:60px;"">+</div>","null","","","","","","",""
"449.00000002235174","","image-keyboard-response","406","762472","0.0-6.0-0.62","","img/grey.png","32","trial","32","true","1,0","3:go_c","",""
"null","","html-keyboard-response","407","763476","0.0-6.0-1.62","","<img src=""img/grey-r.png"" border=""10"">","null","trial","32","","1,0","3:go_c","1",""
"null","","html-keyboard-response","408","764478","0.0-6.0-2.62","","<div style=""font-size:60px;"">+</div>","null","","","","","","",""
"583.3600000478327","","image-keyboard-response","409","765063","0.0-6.0-0.63","","img/orange.png","32","trial","32","true","0.8,0.2","1:go_a","",""
"null","","html-keyboard-response","410","766066","0.0-6.0-1.63","","<img src=""img/orange-r.png"" border=""10"">","null","trial","32","","0.8,0.2","1:go_a","1",""
"null","","html-keyboard-response","411","767068","0.0-6.0-2.63","","<div style=""font-size:60px;"">+</div>","null","","","","","","",""
"null","","image-keyboard-response","412","768571","0.0-6.0-0.64","","img/red.png","null","trial","null","true","0.2,0.8","2:nogo_b","",""
"null","","html-keyboard-response","413","769574","0.0-6.0-1.64","","<img src=""img/red-r.png"">","null","trial","null","","0.2,0.8","2:nogo_b","1",""
"null","","html-keyboard-response","414","770576","0.0-6.0-2.64","","<div style=""font-size:60px;"">+</div>","null","","","","","","",""
"544.4900000002235","","image-keyboard-response","415","771122","0.0-6.0-0.65","","img/grey.png","32","trial","32","true","1,0","3:go_c","",""
"null","","html-keyboard-response","416","772124","0.0-6.0-1.65","","<img src=""img/grey-r.png"" border=""10"">","null","trial","32","","1,0","3:go_c","1",""
"null","","html-keyboard-response","417","773126","0.0-6.0-2.65","","<div style=""font-size:60px;"">+</div>","null","","","","","","",""
"null","","image-keyboard-response","418","774629","0.0-6.0-0.66","","img/purple.png","null","trial","null","true","0,1","4:nogo_d","",""
"null","","html-keyboard-response","419","775631","0.0-6.0-1.66","","<img src=""img/purple-r.png"">","null","trial","null","","0,1","4:nogo_d","1",""
"null","","html-keyboard-response","420","776634","0.0-6.0-2.66","","<div style=""font-size:60px;"">+</div>","null","","","","","","",""
"461.464999942109","","image-keyboard-response","421","777098","0.0-6.0-0.67","","img/orange.png","32","trial","32","true","0.8,0.2","1:go_a","",""
"null","","html-keyboard-response","422","778102","0.0-6.0-1.67","","<img src=""img/orange-r.png"" border=""10"">","null","trial","32","","0.8,0.2","1:go_a","1",""
"null","","html-keyboard-response","423","779103","0.0-6.0-2.67","","<div style=""font-size:60px;"">+</div>","null","","","","","","",""
"null","","image-keyboard-response","424","780604","0.0-6.0-0.68","","img/purple.png","null","trial","null","true","0,1","4:nogo_d","",""
"null","","html-keyboard-response","425","781608","0.0-6.0-1.68","","<img src=""img/purple-r.png"">","null","trial","null","","0,1","4:nogo_d","1",""
"null","","html-keyboard-response","426","782614","0.0-6.0-2.68","","<div style=""font-size:60px;"">+</div>","null","","","","","","",""
"440.279999980703","","image-keyboard-response","427","783056","0.0-6.0-0.69","","img/orange.png","32","trial","32","true","0.8,0.2","1:go_a","",""
"null","","html-keyboard-response","428","784059","0.0-6.0-1.69","","<img src=""img/orange-r.png"" border=""10"">","null","trial","32","","0.8,0.2","1:go_a","1",""
"null","","html-keyboard-response","429","785061","0.0-6.0-2.69","","<div style=""font-size:60px;"">+</div>","null","","","","","","",""
"null","","image-keyboard-response","430","786563","0.0-6.0-0.70","","img/red.png","null","trial","null","true","0.2,0.8","2:nogo_b","",""
"null","","html-keyboard-response","431","787567","0.0-6.0-1.70","","<img src=""img/red-r.png"">","null","trial","null","","0.2,0.8","2:nogo_b","1",""
"null","","html-keyboard-response","432","788569","0.0-6.0-2.70","","<div style=""font-size:60px;"">+</div>","null","","","","","","",""
"360.7499999925494","","image-keyboard-response","433","788932","0.0-6.0-0.71","","img/grey.png","32","trial","32","true","1,0","3:go_c","",""
"null","","html-keyboard-response","434","789935","0.0-6.0-1.71","","<img src=""img/grey-r.png"" border=""10"">","null","trial","32","","1,0","3:go_c","1",""
"null","","html-keyboard-response","435","790938","0.0-6.0-2.71","","<div style=""font-size:60px;"">+</div>","null","","","","","","",""
"null","","image-keyboard-response","436","792439","0.0-6.0-0.72","","img/purple.png","null","trial","null","true","0,1","4:nogo_d","",""
"null","","html-keyboard-response","437","793441","0.0-6.0-1.72","","<img src=""img/purple-r.png"">","null","trial","null","","0,1","4:nogo_d","1",""
"null","","html-keyboard-response","438","794442","0.0-6.0-2.72","","<div style=""font-size:60px;"">+</div>","null","","","","","","",""
"406.8949999054894","","image-keyboard-response","439","794850","0.0-6.0-0.73","","img/grey.png","32","trial","32","true","1,0","3:go_c","",""
"null","","html-keyboard-response","440","795855","0.0-6.0-1.73","","<img src=""img/grey-r.png"" border=""10"">","null","trial","32","","1,0","3:go_c","1",""
"null","","html-keyboard-response","441","796857","0.0-6.0-2.73","","<div style=""font-size:60px;"">+</div>","null","","","","","","",""
"null","","image-keyboard-response","442","798359","0.0-6.0-0.74","","img/red.png","null","trial","null","true","0.2,0.8","2:nogo_b","",""
"null","","html-keyboard-response","443","799361","0.0-6.0-1.74","","<img src=""img/red-r.png"">","null","trial","null","","0.2,0.8","2:nogo_b","1",""
"null","","html-keyboard-response","444","800363","0.0-6.0-2.74","","<div style=""font-size:60px;"">+</div>","null","","","","","","",""
"376.7999999690801","","image-keyboard-response","445","800741","0.0-6.0-0.75","","img/orange.png","32","trial","32","true","0.8,0.2","1:go_a","",""
"null","","html-keyboard-response","446","801746","0.0-6.0-1.75","","<img src=""img/orange-r.png"" border=""10"">","null","trial","32","","0.8,0.2","1:go_a","1",""
"null","","html-keyboard-response","447","802749","0.0-6.0-2.75","","<div style=""font-size:60px;"">+</div>","null","","","","","","",""
"1304.9599999794737","","image-keyboard-response","448","804056","0.0-6.0-0.76","","img/orange.png","32","trial","32","true","0.8,0.2","1:go_a","",""
"null","","html-keyboard-response","449","805058","0.0-6.0-1.76","","<img src=""img/orange-r.png"" border=""10"">","null","trial","32","","0.8,0.2","1:go_a","1",""
"null","","html-keyboard-response","450","806060","0.0-6.0-2.76","","<div style=""font-size:60px;"">+</div>","null","","","","","","",""
"390.8250000094995","","image-keyboard-response","451","806451","0.0-6.0-0.77","","img/grey.png","32","trial","32","true","1,0","3:go_c","",""
"null","","html-keyboard-response","452","807455","0.0-6.0-1.77","","<img src=""img/grey-r.png"" border=""10"">","null","trial","32","","1,0","3:go_c","1",""
"null","","html-keyboard-response","453","808458","0.0-6.0-2.77","","<div style=""font-size:60px;"">+</div>","null","","","","","","",""
"null","","image-keyboard-response","454","809962","0.0-6.0-0.78","","img/purple.png","null","trial","null","true","0,1","4:nogo_d","",""
"null","","html-keyboard-response","455","810964","0.0-6.0-1.78","","<img src=""img/purple-r.png"">","null","trial","null","","0,1","4:nogo_d","1",""
"null","","html-keyboard-response","456","811968","0.0-6.0-2.78","","<div style=""font-size:60px;"">+</div>","null","","","","","","",""
"344.55000003799796","","image-keyboard-response","457","812314","0.0-6.0-0.79","","img/red.png","32","trial","null","false","0.2,0.8","2:nogo_b","",""
"null","","html-keyboard-response","458","813319","0.0-6.0-1.79","","<img src=""img/red-r.png"" border=""10"">","null","trial","null","","0.2,0.8","2:nogo_b","1",""
"null","","html-keyboard-response","459","814322","0.0-6.0-2.79","","<div style=""font-size:60px;"">+</div>","null","","","","","","",""
"null","","image-keyboard-response","460","815823","0.0-6.0-0.80","","img/purple.png","null","trial","null","true","0,1","4:nogo_d","",""
"null","","html-keyboard-response","461","816828","0.0-6.0-1.80","","<img src=""img/purple-r.png"">","null","trial","null","","0,1","4:nogo_d","1",""
"null","","html-keyboard-response","462","817831","0.0-6.0-2.80","","<div style=""font-size:60px;"">+</div>","null","","","","","","",""
"null","","image-keyboard-response","463","819333","0.0-6.0-0.81","","img/red.png","null","trial","null","true","0.2,0.8","2:nogo_b","",""
"null","","html-keyboard-response","464","820338","0.0-6.0-1.81","","<img src=""img/red-r.png"">","null","trial","null","","0.2,0.8","2:nogo_b","1",""
"null","","html-keyboard-response","465","821340","0.0-6.0-2.81","","<div style=""font-size:60px;"">+</div>","null","","","","","","",""
"394.9449999490753","","image-keyboard-response","466","821736","0.0-6.0-0.82","","img/orange.png","32","trial","32","true","0.8,0.2","1:go_a","",""
"null","","html-keyboard-response","467","822739","0.0-6.0-1.82","","<img src=""img/orange-r.png"" border=""10"">","null","trial","32","","0.8,0.2","1:go_a","1",""
"null","","html-keyboard-response","468","823742","0.0-6.0-2.82","","<div style=""font-size:60px;"">+</div>","null","","","","","","",""
"420.4750000499189","","image-keyboard-response","469","824164","0.0-6.0-0.83","","img/grey.png","32","trial","32","true","1,0","3:go_c","",""
"null","","html-keyboard-response","470","825167","0.0-6.0-1.83","","<img src=""img/grey-r.png"" border=""10"">","null","trial","32","","1,0","3:go_c","1",""
"null","","html-keyboard-response","471","826170","0.0-6.0-2.83","","<div style=""font-size:60px;"">+</div>","null","","","","","","",""
"383.49499995820224","","image-keyboard-response","472","826555","0.0-6.0-0.84","","img/grey.png","32","trial","32","true","1,0","3:go_c","",""
"null","","html-keyboard-response","473","827558","0.0-6.0-1.84","","<img src=""img/grey-r.png"" border=""10"">","null","trial","32","","1,0","3:go_c","1",""
"null","","html-keyboard-response","474","828559","0.0-6.0-2.84","","<div style=""font-size:60px;"">+</div>","null","","","","","","",""
"391.01499994285405","","image-keyboard-response","475","828952","0.0-6.0-0.85","","img/orange.png","32","trial","32","true","0.8,0.2","1:go_a","",""
"null","","html-keyboard-response","476","829955","0.0-6.0-1.85","","<img src=""img/orange-n.png"" border=""10"">","null","trial","32","","0.8,0.2","1:go_a","0",""
"null","","html-keyboard-response","477","830958","0.0-6.0-2.85","","<div style=""font-size:60px;"">+</div>","null","","","","","","",""
"null","","image-keyboard-response","478","832460","0.0-6.0-0.86","","img/purple.png","null","trial","null","true","0,1","4:nogo_d","",""
"null","","html-keyboard-response","479","833463","0.0-6.0-1.86","","<img src=""img/purple-r.png"">","null","trial","null","","0,1","4:nogo_d","1",""
"null","","html-keyboard-response","480","834466","0.0-6.0-2.86","","<div style=""font-size:60px;"">+</div>","null","","","","","","",""
"null","","image-keyboard-response","481","835969","0.0-6.0-0.87","","img/red.png","null","trial","null","true","0.2,0.8","2:nogo_b","",""
"null","","html-keyboard-response","482","836973","0.0-6.0-1.87","","<img src=""img/red-r.png"">","null","trial","null","","0.2,0.8","2:nogo_b","1",""
"null","","html-keyboard-response","483","837977","0.0-6.0-2.87","","<div style=""font-size:60px;"">+</div>","null","","","","","","",""
"null","","image-keyboard-response","484","839479","0.0-6.0-0.88","","img/red.png","null","trial","null","true","0.2,0.8","2:nogo_b","",""
"null","","html-keyboard-response","485","840483","0.0-6.0-1.88","","<img src=""img/red-r.png"">","null","trial","null","","0.2,0.8","2:nogo_b","1",""
"null","","html-keyboard-response","486","841490","0.0-6.0-2.88","","<div style=""font-size:60px;"">+</div>","null","","","","","","",""
"null","","image-keyboard-response","487","842991","0.0-6.0-0.89","","img/purple.png","null","trial","null","true","0,1","4:nogo_d","",""
"null","","html-keyboard-response","488","843994","0.0-6.0-1.89","","<img src=""img/purple-r.png"">","null","trial","null","","0,1","4:nogo_d","1",""
"null","","html-keyboard-response","489","844997","0.0-6.0-2.89","","<div style=""font-size:60px;"">+</div>","null","","","","","","",""
"403.9799999445677","","image-keyboard-response","490","845402","0.0-6.0-0.90","","img/grey.png","32","trial","32","true","1,0","3:go_c","",""
"null","","html-keyboard-response","491","846406","0.0-6.0-1.90","","<img src=""img/grey-r.png"" border=""10"">","null","trial","32","","1,0","3:go_c","1",""
"null","","html-keyboard-response","492","847411","0.0-6.0-2.90","","<div style=""font-size:60px;"">+</div>","null","","","","","","",""
"451.0749999899417","","image-keyboard-response","493","847864","0.0-6.0-0.91","","img/orange.png","32","trial","32","true","0.8,0.2","1:go_a","",""
"null","","html-keyboard-response","494","848867","0.0-6.0-1.91","","<img src=""img/orange-r.png"" border=""10"">","null","trial","32","","0.8,0.2","1:go_a","1",""
"null","","html-keyboard-response","495","849890","0.0-6.0-2.91","","<div style=""font-size:60px;"">+</div>","null","","","","","","",""
"null","","image-keyboard-response","496","851392","0.0-6.0-0.92","","img/purple.png","null","trial","null","true","0,1","4:nogo_d","",""
"null","","html-keyboard-response","497","852396","0.0-6.0-1.92","","<img src=""img/purple-r.png"">","null","trial","null","","0,1","4:nogo_d","1",""
"null","","html-keyboard-response","498","853398","0.0-6.0-2.92","","<div style=""font-size:60px;"">+</div>","null","","","","","","",""
"null","","image-keyboard-response","499","854900","0.0-6.0-0.93","","img/red.png","null","trial","null","true","0.2,0.8","2:nogo_b","",""
"null","","html-keyboard-response","500","855901","0.0-6.0-1.93","","<img src=""img/red-r.png"">","null","trial","null","","0.2,0.8","2:nogo_b","1",""
"null","","html-keyboard-response","501","856904","0.0-6.0-2.93","","<div style=""font-size:60px;"">+</div>","null","","","","","","",""
"459.6899999305606","","image-keyboard-response","502","857366","0.0-6.0-0.94","","img/grey.png","32","trial","32","true","1,0","3:go_c","",""
"null","","html-keyboard-response","503","858368","0.0-6.0-1.94","","<img src=""img/grey-r.png"" border=""10"">","null","trial","32","","1,0","3:go_c","1",""
"null","","html-keyboard-response","504","859371","0.0-6.0-2.94","","<div style=""font-size:60px;"">+</div>","null","","","","","","",""
"435.5649999342859","","image-keyboard-response","505","859808","0.0-6.0-0.95","","img/orange.png","32","trial","32","true","0.8,0.2","1:go_a","",""
"null","","html-keyboard-response","506","860811","0.0-6.0-1.95","","<img src=""img/orange-n.png"" border=""10"">","null","trial","32","","0.8,0.2","1:go_a","0",""
"null","","html-keyboard-response","507","861813","0.0-6.0-2.95","","<div style=""font-size:60px;"">+</div>","null","","","","","","",""
"null","","image-keyboard-response","508","863314","0.0-6.0-0.96","","img/purple.png","null","trial","null","true","0,1","4:nogo_d","",""
"null","","html-keyboard-response","509","864320","0.0-6.0-1.96","","<img src=""img/purple-r.png"">","null","trial","null","","0,1","4:nogo_d","1",""
"null","","html-keyboard-response","510","865322","0.0-6.0-2.96","","<div style=""font-size:60px;"">+</div>","null","","","","","","",""
"501.8599999602884","","image-keyboard-response","511","865826","0.0-6.0-0.97","","img/grey.png","32","trial","32","true","1,0","3:go_c","",""
"null","","html-keyboard-response","512","866831","0.0-6.0-1.97","","<img src=""img/grey-r.png"" border=""10"">","null","trial","32","","1,0","3:go_c","1",""
"null","","html-keyboard-response","513","867834","0.0-6.0-2.97","","<div style=""font-size:60px;"">+</div>","null","","","","","","",""
"null","","image-keyboard-response","514","869335","0.0-6.0-0.98","","img/red.png","null","trial","null","true","0.2,0.8","2:nogo_b","",""
"null","","html-keyboard-response","515","870339","0.0-6.0-1.98","","<img src=""img/red-r.png"">","null","trial","null","","0.2,0.8","2:nogo_b","1",""
"null","","html-keyboard-response","516","871340","0.0-6.0-2.98","","<div style=""font-size:60px;"">+</div>","null","","","","","","",""
"516.0299999406561","","image-keyboard-response","517","871857","0.0-6.0-0.99","","img/orange.png","32","trial","32","true","0.8,0.2","1:go_a","",""
"null","","html-keyboard-response","518","872860","0.0-6.0-1.99","","<img src=""img/orange-n.png"" border=""10"">","null","trial","32","","0.8,0.2","1:go_a","0",""
"null","","html-keyboard-response","519","873863","0.0-6.0-2.99","","<div style=""font-size:60px;"">+</div>","null","","","","","","",""
"null","","image-keyboard-response","520","875366","0.0-6.0-0.100","","img/red.png","null","trial","null","true","0.2,0.8","2:nogo_b","",""
"null","","html-keyboard-response","521","876368","0.0-6.0-1.100","","<img src=""img/red-r.png"">","null","trial","null","","0.2,0.8","2:nogo_b","1",""
"null","","html-keyboard-response","522","877370","0.0-6.0-2.100","","<div style=""font-size:60px;"">+</div>","null","","","","","","",""
"477.6350000174716","","image-keyboard-response","523","877849","0.0-6.0-0.101","","img/purple.png","32","trial","null","false","0,1","4:nogo_d","",""
"null","","html-keyboard-response","524","878851","0.0-6.0-1.101","","<img src=""img/purple-n.png"" border=""10"">","null","trial","null","","0,1","4:nogo_d","0",""
"null","","html-keyboard-response","525","879854","0.0-6.0-2.101","","<div style=""font-size:60px;"">+</div>","null","","","","","","",""
"525.5450000986457","","image-keyboard-response","526","880381","0.0-6.0-0.102","","img/orange.png","32","trial","32","true","0.8,0.2","1:go_a","",""
"null","","html-keyboard-response","527","881383","0.0-6.0-1.102","","<img src=""img/orange-r.png"" border=""10"">","null","trial","32","","0.8,0.2","1:go_a","1",""
"null","","html-keyboard-response","528","882385","0.0-6.0-2.102","","<div style=""font-size:60px;"">+</div>","null","","","","","","",""
"688.4800000116229","","image-keyboard-response","529","883075","0.0-6.0-0.103","","img/grey.png","32","trial","32","true","1,0","3:go_c","",""
"null","","html-keyboard-response","530","884077","0.0-6.0-1.103","","<img src=""img/grey-r.png"" border=""10"">","null","trial","32","","1,0","3:go_c","1",""
"null","","html-keyboard-response","531","885079","0.0-6.0-2.103","","<div style=""font-size:60px;"">+</div>","null","","","","","","",""
"null","","image-keyboard-response","532","886582","0.0-6.0-0.104","","img/purple.png","null","trial","null","true","0,1","4:nogo_d","",""
"null","","html-keyboard-response","533","887585","0.0-6.0-1.104","","<img src=""img/purple-r.png"">","null","trial","null","","0,1","4:nogo_d","1",""
"null","","html-keyboard-response","534","888588","0.0-6.0-2.104","","<div style=""font-size:60px;"">+</div>","null","","","","","","",""
"570.865000016056","","image-keyboard-response","535","889161","0.0-6.0-0.105","","img/grey.png","32","trial","32","true","1,0","3:go_c","",""
"null","","html-keyboard-response","536","890165","0.0-6.0-1.105","","<img src=""img/grey-r.png"" border=""10"">","null","trial","32","","1,0","3:go_c","1",""
"null","","html-keyboard-response","537","891167","0.0-6.0-2.105","","<div style=""font-size:60px;"">+</div>","null","","","","","","",""
"null","","image-keyboard-response","538","892669","0.0-6.0-0.106","","img/red.png","null","trial","null","true","0.2,0.8","2:nogo_b","",""
"null","","html-keyboard-response","539","893672","0.0-6.0-1.106","","<img src=""img/red-r.png"">","null","trial","null","","0.2,0.8","2:nogo_b","1",""
"null","","html-keyboard-response","540","894674","0.0-6.0-2.106","","<div style=""font-size:60px;"">+</div>","null","","","","","","",""
"370.1949999667704","","image-keyboard-response","541","895046","0.0-6.0-0.107","","img/orange.png","32","trial","32","true","0.8,0.2","1:go_a","",""
"null","","html-keyboard-response","542","896047","0.0-6.0-1.107","","<img src=""img/orange-r.png"" border=""10"">","null","trial","32","","0.8,0.2","1:go_a","1",""
"null","","html-keyboard-response","543","897049","0.0-6.0-2.107","","<div style=""font-size:60px;"">+</div>","null","","","","","","",""
"null","","image-keyboard-response","544","898551","0.0-6.0-0.108","","img/red.png","null","trial","null","true","0.2,0.8","2:nogo_b","",""
"null","","html-keyboard-response","545","899554","0.0-6.0-1.108","","<img src=""img/red-n.png"">","null","trial","null","","0.2,0.8","2:nogo_b","0",""
"null","","html-keyboard-response","546","900555","0.0-6.0-2.108","","<div style=""font-size:60px;"">+</div>","null","","","","","","",""
"464.33499990962446","","image-keyboard-response","547","901021","0.0-6.0-0.109","","img/orange.png","32","trial","32","true","0.8,0.2","1:go_a","",""
"null","","html-keyboard-response","548","902023","0.0-6.0-1.109","","<img src=""img/orange-r.png"" border=""10"">","null","trial","32","","0.8,0.2","1:go_a","1",""
"null","","html-keyboard-response","549","903025","0.0-6.0-2.109","","<div style=""font-size:60px;"">+</div>","null","","","","","","",""
"null","","image-keyboard-response","550","904528","0.0-6.0-0.110","","img/purple.png","null","trial","null","true","0,1","4:nogo_d","",""
"null","","html-keyboard-response","551","905531","0.0-6.0-1.110","","<img src=""img/purple-r.png"">","null","trial","null","","0,1","4:nogo_d","1",""
"null","","html-keyboard-response","552","906533","0.0-6.0-2.110","","<div style=""font-size:60px;"">+</div>","null","","","","","","",""
"634.7700000042096","","image-keyboard-response","553","907170","0.0-6.0-0.111","","img/grey.png","32","trial","32","true","1,0","3:go_c","",""
"null","","html-keyboard-response","554","908174","0.0-6.0-1.111","","<img src=""img/grey-r.png"" border=""10"">","null","trial","32","","1,0","3:go_c","1",""
"null","","html-keyboard-response","555","909175","0.0-6.0-2.111","","<div style=""font-size:60px;"">+</div>","null","","","","","","",""
"810.4649999877438","","image-keyboard-response","556","909987","0.0-6.0-0.112","","img/grey.png","32","trial","32","true","1,0","3:go_c","",""
"null","","html-keyboard-response","557","910990","0.0-6.0-1.112","","<img src=""img/grey-r.png"" border=""10"">","null","trial","32","","1,0","3:go_c","1",""
"null","","html-keyboard-response","558","911993","0.0-6.0-2.112","","<div style=""font-size:60px;"">+</div>","null","","","","","","",""
"681.5600000554696","","image-keyboard-response","559","912676","0.0-6.0-0.113","","img/orange.png","32","trial","32","true","0.8,0.2","1:go_a","",""
"null","","html-keyboard-response","560","913691","0.0-6.0-1.113","","<img src=""img/orange-r.png"" border=""10"">","null","trial","32","","0.8,0.2","1:go_a","1",""
"null","","html-keyboard-response","561","914692","0.0-6.0-2.113","","<div style=""font-size:60px;"">+</div>","null","","","","","","",""
"null","","image-keyboard-response","562","916193","0.0-6.0-0.114","","img/purple.png","null","trial","null","true","0,1","4:nogo_d","",""
"null","","html-keyboard-response","563","917198","0.0-6.0-1.114","","<img src=""img/purple-r.png"">","null","trial","null","","0,1","4:nogo_d","1",""
"null","","html-keyboard-response","564","918199","0.0-6.0-2.114","","<div style=""font-size:60px;"">+</div>","null","","","","","","",""
"null","","image-keyboard-response","565","919700","0.0-6.0-0.115","","img/red.png","null","trial","null","true","0.2,0.8","2:nogo_b","",""
"null","","html-keyboard-response","566","920703","0.0-6.0-1.115","","<img src=""img/red-n.png"">","null","trial","null","","0.2,0.8","2:nogo_b","0",""
"null","","html-keyboard-response","567","921706","0.0-6.0-2.115","","<div style=""font-size:60px;"">+</div>","null","","","","","","",""
"387.5600000610575","","image-keyboard-response","568","922095","0.0-6.0-0.116","","img/orange.png","32","trial","32","true","0.8,0.2","1:go_a","",""
"null","","html-keyboard-response","569","923097","0.0-6.0-1.116","","<img src=""img/orange-r.png"" border=""10"">","null","trial","32","","0.8,0.2","1:go_a","1",""
"null","","html-keyboard-response","570","924099","0.0-6.0-2.116","","<div style=""font-size:60px;"">+</div>","null","","","","","","",""
"461.5800000028685","","image-keyboard-response","571","924562","0.0-6.0-0.117","","img/grey.png","32","trial","32","true","1,0","3:go_c","",""
"null","","html-keyboard-response","572","925564","0.0-6.0-1.117","","<img src=""img/grey-r.png"" border=""10"">","null","trial","32","","1,0","3:go_c","1",""
"null","","html-keyboard-response","573","926567","0.0-6.0-2.117","","<div style=""font-size:60px;"">+</div>","null","","","","","","",""
"null","","image-keyboard-response","574","928086","0.0-6.0-0.118","","img/red.png","null","trial","null","true","0.2,0.8","2:nogo_b","",""
"null","","html-keyboard-response","575","929097","0.0-6.0-1.118","","<img src=""img/red-r.png"">","null","trial","null","","0.2,0.8","2:nogo_b","1",""
"null","","html-keyboard-response","576","930100","0.0-6.0-2.118","","<div style=""font-size:60px;"">+</div>","null","","","","","","",""
"null","","image-keyboard-response","577","931602","0.0-6.0-0.119","","img/purple.png","null","trial","null","true","0,1","4:nogo_d","",""
"null","","html-keyboard-response","578","932607","0.0-6.0-1.119","","<img src=""img/purple-r.png"">","null","trial","null","","0,1","4:nogo_d","1",""
"null","","html-keyboard-response","579","933609","0.0-6.0-2.119","","<div style=""font-size:60px;"">+</div>","null","","","","","","",""
"80824.15000000037","","instructions","580","1014434","0.0-7.0","[{""page_index"":0,""viewing_time"":80823.8700000802}]","","","","","","","","",""
"1414.5699999062344","","image-keyboard-response","581","1015850","0.0-8.0-0.0","","img/grey.png","32","trial","null","false","0.4,0.6","2:nogo_b","",""
"null","","html-keyboard-response","582","1016855","0.0-8.0-1.0","","<img src=""img/grey-r.png"" border=""10"">","null","trial","null","","0.4,0.6","2:nogo_b","1",""
"null","","html-keyboard-response","583","1017858","0.0-8.0-2.0","","<div style=""font-size:60px;"">+</div>","null","","","","","","",""
"null","","image-keyboard-response","584","1019360","0.0-8.0-0.1","","img/purple.png","null","trial","null","true","0.4,0.6","4:nogo_d","",""
"null","","html-keyboard-response","585","1020368","0.0-8.0-1.1","","<img src=""img/purple-n.png"">","null","trial","null","","0.4,0.6","4:nogo_d","0",""
"null","","html-keyboard-response","586","1021370","0.0-8.0-2.1","","<div style=""font-size:60px;"">+</div>","null","","","","","","",""
"null","","image-keyboard-response","587","1022872","0.0-8.0-0.2","","img/yellow.png","null","trial","32","false","0.6,0.4","3:go_c","",""
"null","","html-keyboard-response","588","1023874","0.0-8.0-1.2","","<img src=""img/yellow-r.png"">","null","trial","32","","0.6,0.4","3:go_c","1",""
"null","","html-keyboard-response","589","1024877","0.0-8.0-2.2","","<div style=""font-size:60px;"">+</div>","null","","","","","","",""
"null","","image-keyboard-response","590","1026380","0.0-8.0-0.3","","img/green.png","null","trial","32","false","0.6,0.4","1:go_a","",""
"null","","html-keyboard-response","591","1027384","0.0-8.0-1.3","","<img src=""img/green-r.png"">","null","trial","32","","0.6,0.4","1:go_a","1",""
"null","","html-keyboard-response","592","1028386","0.0-8.0-2.3","","<div style=""font-size:60px;"">+</div>","null","","","","","","",""
"388.4249998955056","","image-keyboard-response","593","1028776","0.0-8.0-0.4","","img/grey.png","32","trial","null","false","0.4,0.6","2:nogo_b","",""
"null","","html-keyboard-response","594","1029779","0.0-8.0-1.4","","<img src=""img/grey-n.png"" border=""10"">","null","trial","null","","0.4,0.6","2:nogo_b","0",""
"null","","html-keyboard-response","595","1030781","0.0-8.0-2.4","","<div style=""font-size:60px;"">+</div>","null","","","","","","",""
"null","","image-keyboard-response","596","1032283","0.0-8.0-0.5","","img/yellow.png","null","trial","32","false","0.6,0.4","3:go_c","",""
"null","","html-keyboard-response","597","1033285","0.0-8.0-1.5","","<img src=""img/yellow-r.png"">","null","trial","32","","0.6,0.4","3:go_c","1",""
"null","","html-keyboard-response","598","1034287","0.0-8.0-2.5","","<div style=""font-size:60px;"">+</div>","null","","","","","","",""
"859.6299999626353","","image-keyboard-response","599","1035147","0.0-8.0-0.6","","img/purple.png","32","trial","null","false","0.4,0.6","4:nogo_d","",""
"null","","html-keyboard-response","600","1036150","0.0-8.0-1.6","","<img src=""img/purple-n.png"" border=""10"">","null","trial","null","","0.4,0.6","4:nogo_d","0",""
"null","","html-keyboard-response","601","1037152","0.0-8.0-2.6","","<div style=""font-size:60px;"">+</div>","null","","","","","","",""
"null","","image-keyboard-response","602","1038667","0.0-8.0-0.7","","img/green.png","null","trial","32","false","0.6,0.4","1:go_a","",""
"null","","html-keyboard-response","603","1039671","0.0-8.0-1.7","","<img src=""img/green-r.png"">","null","trial","32","","0.6,0.4","1:go_a","1",""
"null","","html-keyboard-response","604","1040681","0.0-8.0-2.7","","<div style=""font-size:60px;"">+</div>","null","","","","","","",""
"1230.7099999161437","","image-keyboard-response","605","1041914","0.0-8.0-0.8","","img/purple.png","32","trial","null","false","0.4,0.6","4:nogo_d","",""
"null","","html-keyboard-response","606","1042918","0.0-8.0-1.8","","<img src=""img/purple-r.png"" border=""10"">","null","trial","null","","0.4,0.6","4:nogo_d","1",""
"null","","html-keyboard-response","607","1043920","0.0-8.0-2.8","","<div style=""font-size:60px;"">+</div>","null","","","","","","",""
"null","","image-keyboard-response","608","1045423","0.0-8.0-0.9","","img/yellow.png","null","trial","32","false","0.6,0.4","3:go_c","",""
"null","","html-keyboard-response","609","1046427","0.0-8.0-1.9","","<img src=""img/yellow-r.png"">","null","trial","32","","0.6,0.4","3:go_c","1",""
"null","","html-keyboard-response","610","1047429","0.0-8.0-2.9","","<div style=""font-size:60px;"">+</div>","null","","","","","","",""
"null","","image-keyboard-response","611","1048932","0.0-8.0-0.10","","img/green.png","null","trial","32","false","0.6,0.4","1:go_a","",""
"null","","html-keyboard-response","612","1049942","0.0-8.0-1.10","","<img src=""img/green-n.png"">","null","trial","32","","0.6,0.4","1:go_a","0",""
"null","","html-keyboard-response","613","1050944","0.0-8.0-2.10","","<div style=""font-size:60px;"">+</div>","null","","","","","","",""
"435.2400000207126","","image-keyboard-response","614","1051381","0.0-8.0-0.11","","img/grey.png","32","trial","null","false","0.4,0.6","2:nogo_b","",""
"null","","html-keyboard-response","615","1052385","0.0-8.0-1.11","","<img src=""img/grey-n.png"" border=""10"">","null","trial","null","","0.4,0.6","2:nogo_b","0",""
"null","","html-keyboard-response","616","1053386","0.0-8.0-2.11","","<div style=""font-size:60px;"">+</div>","null","","","","","","",""
"null","","image-keyboard-response","617","1054888","0.0-8.0-0.12","","img/purple.png","null","trial","null","true","0.4,0.6","4:nogo_d","",""
"null","","html-keyboard-response","618","1055891","0.0-8.0-1.12","","<img src=""img/purple-n.png"">","null","trial","null","","0.4,0.6","4:nogo_d","0",""
"null","","html-keyboard-response","619","1056894","0.0-8.0-2.12","","<div style=""font-size:60px;"">+</div>","null","","","","","","",""
"null","","image-keyboard-response","620","1058397","0.0-8.0-0.13","","img/yellow.png","null","trial","32","false","0.6,0.4","3:go_c","",""
"null","","html-keyboard-response","621","1059400","0.0-8.0-1.13","","<img src=""img/yellow-n.png"">","null","trial","32","","0.6,0.4","3:go_c","0",""
"null","","html-keyboard-response","622","1060401","0.0-8.0-2.13","","<div style=""font-size:60px;"">+</div>","null","","","","","","",""
"495.21500000264496","","image-keyboard-response","623","1060897","0.0-8.0-0.14","","img/grey.png","32","trial","null","false","0.4,0.6","2:nogo_b","",""
"null","","html-keyboard-response","624","1061902","0.0-8.0-1.14","","<img src=""img/grey-r.png"" border=""10"">","null","trial","null","","0.4,0.6","2:nogo_b","1",""
"null","","html-keyboard-response","625","1062903","0.0-8.0-2.14","","<div style=""font-size:60px;"">+</div>","null","","","","","","",""
"null","","image-keyboard-response","626","1064405","0.0-8.0-0.15","","img/green.png","null","trial","32","false","0.6,0.4","1:go_a","",""
"null","","html-keyboard-response","627","1065416","0.0-8.0-1.15","","<img src=""img/green-n.png"">","null","trial","32","","0.6,0.4","1:go_a","0",""
"null","","html-keyboard-response","628","1066418","0.0-8.0-2.15","","<div style=""font-size:60px;"">+</div>","null","","","","","","",""
"null","","image-keyboard-response","629","1067920","0.0-8.0-0.16","","img/yellow.png","null","trial","32","false","0.6,0.4","3:go_c","",""
"null","","html-keyboard-response","630","1068923","0.0-8.0-1.16","","<img src=""img/yellow-n.png"">","null","trial","32","","0.6,0.4","3:go_c","0",""
"null","","html-keyboard-response","631","1069925","0.0-8.0-2.16","","<div style=""font-size:60px;"">+</div>","null","","","","","","",""
"417.92500007431954","","image-keyboard-response","632","1070345","0.0-8.0-0.17","","img/purple.png","32","trial","null","false","0.4,0.6","4:nogo_d","",""
"null","","html-keyboard-response","633","1071347","0.0-8.0-1.17","","<img src=""img/purple-r.png"" border=""10"">","null","trial","null","","0.4,0.6","4:nogo_d","1",""
"null","","html-keyboard-response","634","1072350","0.0-8.0-2.17","","<div style=""font-size:60px;"">+</div>","null","","","","","","",""
"579.02499998454","","image-keyboard-response","635","1072930","0.0-8.0-0.18","","img/grey.png","32","trial","null","false","0.4,0.6","2:nogo_b","",""
"null","","html-keyboard-response","636","1073935","0.0-8.0-1.18","","<img src=""img/grey-n.png"" border=""10"">","null","trial","null","","0.4,0.6","2:nogo_b","0",""
"null","","html-keyboard-response","637","1074937","0.0-8.0-2.18","","<div style=""font-size:60px;"">+</div>","null","","","","","","",""
"null","","image-keyboard-response","638","1076439","0.0-8.0-0.19","","img/green.png","null","trial","32","false","0.6,0.4","1:go_a","",""
"null","","html-keyboard-response","639","1077442","0.0-8.0-1.19","","<img src=""img/green-n.png"">","null","trial","32","","0.6,0.4","1:go_a","0",""
"null","","html-keyboard-response","640","1078444","0.0-8.0-2.19","","<div style=""font-size:60px;"">+</div>","null","","","","","","",""
"647.2800000337884","","image-keyboard-response","641","1079093","0.0-8.0-0.20","","img/grey.png","32","trial","null","false","0.4,0.6","2:nogo_b","",""
"null","","html-keyboard-response","642","1080097","0.0-8.0-1.20","","<img src=""img/grey-n.png"" border=""10"">","null","trial","null","","0.4,0.6","2:nogo_b","0",""
"null","","html-keyboard-response","643","1081099","0.0-8.0-2.20","","<div style=""font-size:60px;"">+</div>","null","","","","","","",""
"null","","image-keyboard-response","644","1082601","0.0-8.0-0.21","","img/green.png","null","trial","32","false","0.6,0.4","1:go_a","",""
"null","","html-keyboard-response","645","1083605","0.0-8.0-1.21","","<img src=""img/green-n.png"">","null","trial","32","","0.6,0.4","1:go_a","0",""
"null","","html-keyboard-response","646","1084607","0.0-8.0-2.21","","<div style=""font-size:60px;"">+</div>","null","","","","","","",""
"765.7500000204891","","image-keyboard-response","647","1085375","0.0-8.0-0.22","","img/purple.png","32","trial","null","false","0.4,0.6","4:nogo_d","",""
"null","","html-keyboard-response","648","1086377","0.0-8.0-1.22","","<img src=""img/purple-n.png"" border=""10"">","null","trial","null","","0.4,0.6","4:nogo_d","0",""
"null","","html-keyboard-response","649","1087394","0.0-8.0-2.22","","<div style=""font-size:60px;"">+</div>","null","","","","","","",""
"null","","image-keyboard-response","650","1088898","0.0-8.0-0.23","","img/yellow.png","null","trial","32","false","0.6,0.4","3:go_c","",""
"null","","html-keyboard-response","651","1089903","0.0-8.0-1.23","","<img src=""img/yellow-n.png"">","null","trial","32","","0.6,0.4","3:go_c","0",""
"null","","html-keyboard-response","652","1090904","0.0-8.0-2.23","","<div style=""font-size:60px;"">+</div>","null","","","","","","",""
"null","","image-keyboard-response","653","1092406","0.0-8.0-0.24","","img/purple.png","null","trial","null","true","0.4,0.6","4:nogo_d","",""
"null","","html-keyboard-response","654","1093410","0.0-8.0-1.24","","<img src=""img/purple-r.png"">","null","trial","null","","0.4,0.6","4:nogo_d","1",""
"null","","html-keyboard-response","655","1094413","0.0-8.0-2.24","","<div style=""font-size:60px;"">+</div>","null","","","","","","",""
"null","","image-keyboard-response","656","1095916","0.0-8.0-0.25","","img/grey.png","null","trial","null","true","0.4,0.6","2:nogo_b","",""
"null","","html-keyboard-response","657","1096919","0.0-8.0-1.25","","<img src=""img/grey-r.png"">","null","trial","null","","0.4,0.6","2:nogo_b","1",""
"null","","html-keyboard-response","658","1097922","0.0-8.0-2.25","","<div style=""font-size:60px;"">+</div>","null","","","","","","",""
"344.3800000241026","","image-keyboard-response","659","1098268","0.0-8.0-0.26","","img/green.png","32","trial","32","true","0.6,0.4","1:go_a","",""
"null","","html-keyboard-response","660","1099273","0.0-8.0-1.26","","<img src=""img/green-r.png"" border=""10"">","null","trial","32","","0.6,0.4","1:go_a","1",""
"null","","html-keyboard-response","661","1100274","0.0-8.0-2.26","","<div style=""font-size:60px;"">+</div>","null","","","","","","",""
"370.1700000092387","","image-keyboard-response","662","1100645","0.0-8.0-0.27","","img/yellow.png","32","trial","32","true","0.6,0.4","3:go_c","",""
"null","","html-keyboard-response","663","1101661","0.0-8.0-1.27","","<img src=""img/yellow-r.png"" border=""10"">","null","trial","32","","0.6,0.4","3:go_c","1",""
"null","","html-keyboard-response","664","1102663","0.0-8.0-2.27","","<div style=""font-size:60px;"">+</div>","null","","","","","","",""
"null","","image-keyboard-response","665","1104165","0.0-8.0-0.28","","img/purple.png","null","trial","null","true","0.4,0.6","4:nogo_d","",""
"null","","html-keyboard-response","666","1105168","0.0-8.0-1.28","","<img src=""img/purple-r.png"">","null","trial","null","","0.4,0.6","4:nogo_d","1",""
"null","","html-keyboard-response","667","1106170","0.0-8.0-2.28","","<div style=""font-size:60px;"">+</div>","null","","","","","","",""
"417.86000004503876","","image-keyboard-response","668","1106589","0.0-8.0-0.29","","img/green.png","32","trial","32","true","0.6,0.4","1:go_a","",""
"null","","html-keyboard-response","669","1107592","0.0-8.0-1.29","","<img src=""img/green-n.png"" border=""10"">","null","trial","32","","0.6,0.4","1:go_a","0",""
"null","","html-keyboard-response","670","1108594","0.0-8.0-2.29","","<div style=""font-size:60px;"">+</div>","null","","","","","","",""
"598.9749999716878","","image-keyboard-response","671","1109195","0.0-8.0-0.30","","img/yellow.png","32","trial","32","true","0.6,0.4","3:go_c","",""
"null","","html-keyboard-response","672","1110198","0.0-8.0-1.30","","<img src=""img/yellow-r.png"" border=""10"">","null","trial","32","","0.6,0.4","3:go_c","1",""
"null","","html-keyboard-response","673","1111200","0.0-8.0-2.30","","<div style=""font-size:60px;"">+</div>","null","","","","","","",""
"1013.0849999841303","","image-keyboard-response","674","1112215","0.0-8.0-0.31","","img/grey.png","32","trial","null","false","0.4,0.6","2:nogo_b","",""
"null","","html-keyboard-response","675","1113220","0.0-8.0-1.31","","<img src=""img/grey-n.png"" border=""10"">","null","trial","null","","0.4,0.6","2:nogo_b","0",""
"null","","html-keyboard-response","676","1114223","0.0-8.0-2.31","","<div style=""font-size:60px;"">+</div>","null","","","","","","",""
"null","","image-keyboard-response","677","1115725","0.0-8.0-0.32","","img/grey.png","null","trial","null","true","0.4,0.6","2:nogo_b","",""
"null","","html-keyboard-response","678","1116729","0.0-8.0-1.32","","<img src=""img/grey-r.png"">","null","trial","null","","0.4,0.6","2:nogo_b","1",""
"null","","html-keyboard-response","679","1117732","0.0-8.0-2.32","","<div style=""font-size:60px;"">+</div>","null","","","","","","",""
"412.8150000469759","","image-keyboard-response","680","1118146","0.0-8.0-0.33","","img/purple.png","32","trial","null","false","0.4,0.6","4:nogo_d","",""
"null","","html-keyboard-response","681","1119149","0.0-8.0-1.33","","<img src=""img/purple-n.png"" border=""10"">","null","trial","null","","0.4,0.6","4:nogo_d","0",""
"null","","html-keyboard-response","682","1120151","0.0-8.0-2.33","","<div style=""font-size:60px;"">+</div>","null","","","","","","",""
"null","","image-keyboard-response","683","1121654","0.0-8.0-0.34","","img/yellow.png","null","trial","32","false","0.6,0.4","3:go_c","",""
