"rt","url","trial_type","trial_index","time_elapsed","internal_node_id","view_history","stimulus","key_press","test_part","correct_response","correct","use_rew","which_stim","reward","responses"
"2851.980000000367","consent.html","external-html","0","2975","0.0-0.0","","","","","","","","","",""
"82694.84999999986","","instructions","1","85671","0.0-1.0","[{""page_index"":0,""viewing_time"":2073.8499999997657},{""page_index"":1,""viewing_time"":71045.56000000049},{""page_index"":2,""viewing_time"":1658.0450000001292},{""page_index"":3,""viewing_time"":1599.884999999631},{""page_index"":4,""viewing_time"":2762.9900000001653},{""page_index"":5,""viewing_time"":1873.489999999947},{""page_index"":6,""viewing_time"":1679.935000000114}]","","","","","","","","",""
"1131.7250000001804","","image-keyboard-response","2","86805","0.0-2.0-0.0","","img/test2.PNG","32","practice","null","false","","","",""
"null","","html-keyboard-response","3","87808","0.0-2.0-1.0","","<img src=""img/test2-neutral.PNG"" border=""10px; grey"">","null","","","","","","",""
"null","","html-keyboard-response","4","88809","0.0-2.0-2.0","","<div style=""font-size:60px;"">+</div>","null","","","","","","",""
"401.4500000003027","","image-keyboard-response","5","89212","0.0-2.0-0.1","","img/test1.PNG","32","practice","32","true","","","",""
"null","","html-keyboard-response","6","90213","0.0-2.0-1.1","","<img src=""img/test1-reward.PNG"" border=""10px; grey"">","null","","","","","","",""
"null","","html-keyboard-response","7","91215","0.0-2.0-2.1","","<div style=""font-size:60px;"">+</div>","null","","","","","","",""
"null","","image-keyboard-response","8","92716","0.0-2.0-0.2","","img/test3.PNG","null","practice","null","true","","","",""
"null","","html-keyboard-response","9","93718","0.0-2.0-1.2","","<img src=""img/test3-reward.PNG"">","null","","","","","","",""
"null","","html-keyboard-response","10","94720","0.0-2.0-2.2","","<div style=""font-size:60px;"">+</div>","null","","","","","","",""
"null","","image-keyboard-response","11","96223","0.0-2.0-0.3","","img/test2.PNG","null","practice","null","true","","","",""
"null","","html-keyboard-response","12","97224","0.0-2.0-1.3","","<img src=""img/test2-reward.PNG"">","null","","","","","","",""
"null","","html-keyboard-response","13","98225","0.0-2.0-2.3","","<div style=""font-size:60px;"">+</div>","null","","","","","","",""
"null","","image-keyboard-response","14","99727","0.0-2.0-0.4","","img/test3.PNG","null","practice","null","true","","","",""
"null","","html-keyboard-response","15","100728","0.0-2.0-1.4","","<img src=""img/test3-reward.PNG"">","null","","","","","","",""
"null","","html-keyboard-response","16","101729","0.0-2.0-2.4","","<div style=""font-size:60px;"">+</div>","null","","","","","","",""
"442.31500000023516","","image-keyboard-response","17","102173","0.0-2.0-0.5","","img/test1.PNG","32","practice","32","true","","","",""
"null","","html-keyboard-response","18","103175","0.0-2.0-1.5","","<img src=""img/test1-reward.PNG"" border=""10px; grey"">","null","","","","","","",""
"null","","html-keyboard-response","19","104177","0.0-2.0-2.5","","<div style=""font-size:60px;"">+</div>","null","","","","","","",""
"null","","image-keyboard-response","20","105678","0.0-2.0-0.6","","img/test2.PNG","null","practice","null","true","","","",""
"null","","html-keyboard-response","21","106679","0.0-2.0-1.6","","<img src=""img/test2-reward.PNG"">","null","","","","","","",""
"null","","html-keyboard-response","22","107680","0.0-2.0-2.6","","<div style=""font-size:60px;"">+</div>","null","","","","","","",""
"322.2649999997957","","image-keyboard-response","23","108004","0.0-2.0-0.7","","img/test1.PNG","32","practice","32","true","","","",""
"null","","html-keyboard-response","24","109006","0.0-2.0-1.7","","<img src=""img/test1-reward.PNG"" border=""10px; grey"">","null","","","","","","",""
"null","","html-keyboard-response","25","110007","0.0-2.0-2.7","","<div style=""font-size:60px;"">+</div>","null","","","","","","",""
"null","","image-keyboard-response","26","111509","0.0-2.0-0.8","","img/test3.PNG","null","practice","null","true","","","",""
"null","","html-keyboard-response","27","112511","0.0-2.0-1.8","","<img src=""img/test3-reward.PNG"">","null","","","","","","",""
"null","","html-keyboard-response","28","113511","0.0-2.0-2.8","","<div style=""font-size:60px;"">+</div>","null","","","","","","",""
"562.8150000002352","","image-keyboard-response","29","114076","0.0-2.0-0.9","","img/test1.PNG","32","practice","32","true","","","",""
"null","","html-keyboard-response","30","115077","0.0-2.0-1.9","","<img src=""img/test1-reward.PNG"" border=""10px; grey"">","null","","","","","","",""
"null","","html-keyboard-response","31","116078","0.0-2.0-2.9","","<div style=""font-size:60px;"">+</div>","null","","","","","","",""
"null","","image-keyboard-response","32","117580","0.0-2.0-0.10","","img/test2.PNG","null","practice","null","true","","","",""
"null","","html-keyboard-response","33","118581","0.0-2.0-1.10","","<img src=""img/test2-reward.PNG"">","null","","","","","","",""
"null","","html-keyboard-response","34","119582","0.0-2.0-2.10","","<div style=""font-size:60px;"">+</div>","null","","","","","","",""
"null","","image-keyboard-response","35","121084","0.0-2.0-0.11","","img/test3.PNG","null","practice","null","true","","","",""
"null","","html-keyboard-response","36","122085","0.0-2.0-1.11","","<img src=""img/test3-reward.PNG"">","null","","","","","","",""
"null","","html-keyboard-response","37","123086","0.0-2.0-2.11","","<div style=""font-size:60px;"">+</div>","null","","","","","","",""
"2594.0299999993003","","instructions","38","125681","0.0-3.0","[{""page_index"":0,""viewing_time"":2593.709999999206}]","","","","","","","","",""
"1045.7900000001246","","image-keyboard-response","39","126729","0.0-4.0-0.0","","img/grey.png","32","trial","32","true","0.8,0.2","1:go_a","",""
"null","","html-keyboard-response","40","127731","0.0-4.0-1.0","","<img src=""img/grey-r.png"" border=""10"">","null","trial","32","","0.8,0.2","1:go_a","1",""
"null","","html-keyboard-response","41","128732","0.0-4.0-2.0","","<div style=""font-size:60px;"">+</div>","null","","","","","","",""
"782.8949999993638","","image-keyboard-response","42","129516","0.0-4.0-0.1","","img/purple.png","32","trial","null","false","0.2,0.8","2:nogo_b","",""
"null","","html-keyboard-response","43","130518","0.0-4.0-1.1","","<img src=""img/purple-r.png"" border=""10"">","null","trial","null","","0.2,0.8","2:nogo_b","1",""
"null","","html-keyboard-response","44","131519","0.0-4.0-2.1","","<div style=""font-size:60px;"">+</div>","null","","","","","","",""
"604.1700000005076","","image-keyboard-response","45","132125","0.0-4.0-0.2","","img/grey.png","32","trial","32","true","0.8,0.2","1:go_a","",""
"null","","html-keyboard-response","46","133127","0.0-4.0-1.2","","<img src=""img/grey-n.png"" border=""10"">","null","trial","32","","0.8,0.2","1:go_a","0",""
"null","","html-keyboard-response","47","134128","0.0-4.0-2.2","","<div style=""font-size:60px;"">+</div>","null","","","","","","",""
"520.840000000142","","image-keyboard-response","48","134651","0.0-4.0-0.3","","img/purple.png","32","trial","null","false","0.2,0.8","2:nogo_b","",""
"null","","html-keyboard-response","49","135653","0.0-4.0-1.3","","<img src=""img/purple-n.png"" border=""10"">","null","trial","null","","0.2,0.8","2:nogo_b","0",""
"null","","html-keyboard-response","50","136654","0.0-4.0-2.3","","<div style=""font-size:60px;"">+</div>","null","","","","","","",""
"474.7450000004319","","image-keyboard-response","51","137130","0.0-4.0-0.4","","img/grey.png","32","trial","32","true","0.8,0.2","1:go_a","",""
"null","","html-keyboard-response","52","138132","0.0-4.0-1.4","","<img src=""img/grey-r.png"" border=""10"">","null","trial","32","","0.8,0.2","1:go_a","1",""
"null","","html-keyboard-response","53","139134","0.0-4.0-2.4","","<div style=""font-size:60px;"">+</div>","null","","","","","","",""
"485.66500000015367","","image-keyboard-response","54","139621","0.0-4.0-0.5","","img/purple.png","32","trial","null","false","0.2,0.8","2:nogo_b","",""
"null","","html-keyboard-response","55","140622","0.0-4.0-1.5","","<img src=""img/purple-n.png"" border=""10"">","null","trial","null","","0.2,0.8","2:nogo_b","0",""
"null","","html-keyboard-response","56","141624","0.0-4.0-2.5","","<div style=""font-size:60px;"">+</div>","null","","","","","","",""
"509.1199999997043","","image-keyboard-response","57","142134","0.0-4.0-0.6","","img/grey.png","32","trial","32","true","0.8,0.2","1:go_a","",""
"null","","html-keyboard-response","58","143137","0.0-4.0-1.6","","<img src=""img/grey-n.png"" border=""10"">","null","trial","32","","0.8,0.2","1:go_a","0",""
"null","","html-keyboard-response","59","144139","0.0-4.0-2.6","","<div style=""font-size:60px;"">+</div>","null","","","","","","",""
"null","","image-keyboard-response","60","145641","0.0-4.0-0.7","","img/purple.png","null","trial","null","true","0.2,0.8","2:nogo_b","",""
"null","","html-keyboard-response","61","146643","0.0-4.0-1.7","","<img src=""img/purple-r.png"">","null","trial","null","","0.2,0.8","2:nogo_b","1",""
"null","","html-keyboard-response","62","147644","0.0-4.0-2.7","","<div style=""font-size:60px;"">+</div>","null","","","","","","",""
"582.1900000000896","","image-keyboard-response","63","148227","0.0-4.0-0.8","","img/grey.png","32","trial","32","true","0.8,0.2","1:go_a","",""
"null","","html-keyboard-response","64","149230","0.0-4.0-1.8","","<img src=""img/grey-r.png"" border=""10"">","null","trial","32","","0.8,0.2","1:go_a","1",""
"null","","html-keyboard-response","65","150231","0.0-4.0-2.8","","<div style=""font-size:60px;"">+</div>","null","","","","","","",""
"1022.6400000001595","","image-keyboard-response","66","151255","0.0-4.0-0.9","","img/purple.png","32","trial","null","false","0.2,0.8","2:nogo_b","",""
"null","","html-keyboard-response","67","152258","0.0-4.0-1.9","","<img src=""img/purple-n.png"" border=""10"">","null","trial","null","","0.2,0.8","2:nogo_b","0",""
"null","","html-keyboard-response","68","153259","0.0-4.0-2.9","","<div style=""font-size:60px;"">+</div>","null","","","","","","",""
"859.7200000003795","","image-keyboard-response","69","154120","0.0-4.0-0.10","","img/grey.png","32","trial","32","true","0.8,0.2","1:go_a","",""
"null","","html-keyboard-response","70","155125","0.0-4.0-1.10","","<img src=""img/grey-r.png"" border=""10"">","null","trial","32","","0.8,0.2","1:go_a","1",""
"null","","html-keyboard-response","71","156126","0.0-4.0-2.10","","<div style=""font-size:60px;"">+</div>","null","","","","","","",""
"null","","image-keyboard-response","72","157627","0.0-4.0-0.11","","img/purple.png","null","trial","null","true","0.2,0.8","2:nogo_b","",""
"null","","html-keyboard-response","73","158629","0.0-4.0-1.11","","<img src=""img/purple-n.png"">","null","trial","null","","0.2,0.8","2:nogo_b","0",""
"null","","html-keyboard-response","74","159630","0.0-4.0-2.11","","<div style=""font-size:60px;"">+</div>","null","","","","","","",""
"1203.2300000000687","","image-keyboard-response","75","160835","0.0-4.0-0.12","","img/purple.png","32","trial","null","false","0.2,0.8","2:nogo_b","",""
"null","","html-keyboard-response","76","161837","0.0-4.0-1.12","","<img src=""img/purple-n.png"" border=""10"">","null","trial","null","","0.2,0.8","2:nogo_b","0",""
"null","","html-keyboard-response","77","162838","0.0-4.0-2.12","","<div style=""font-size:60px;"">+</div>","null","","","","","","",""
"null","","image-keyboard-response","78","164339","0.0-4.0-0.13","","img/grey.png","null","trial","32","false","0.8,0.2","1:go_a","",""
"null","","html-keyboard-response","79","165343","0.0-4.0-1.13","","<img src=""img/grey-n.png"">","null","trial","32","","0.8,0.2","1:go_a","0",""
"null","","html-keyboard-response","80","166344","0.0-4.0-2.13","","<div style=""font-size:60px;"">+</div>","null","","","","","","",""
"472.60000000006403","","image-keyboard-response","81","166818","0.0-4.0-0.14","","img/grey.png","32","trial","32","true","0.8,0.2","1:go_a","",""
"null","","html-keyboard-response","82","167820","0.0-4.0-1.14","","<img src=""img/grey-r.png"" border=""10"">","null","trial","32","","0.8,0.2","1:go_a","1",""
"null","","html-keyboard-response","83","168821","0.0-4.0-2.14","","<div style=""font-size:60px;"">+</div>","null","","","","","","",""
"null","","image-keyboard-response","84","170323","0.0-4.0-0.15","","img/purple.png","null","trial","null","true","0.2,0.8","2:nogo_b","",""
"null","","html-keyboard-response","85","171326","0.0-4.0-1.15","","<img src=""img/purple-r.png"">","null","trial","null","","0.2,0.8","2:nogo_b","1",""
"null","","html-keyboard-response","86","172327","0.0-4.0-2.15","","<div style=""font-size:60px;"">+</div>","null","","","","","","",""
"null","","image-keyboard-response","87","173828","0.0-4.0-0.16","","img/grey.png","null","trial","32","false","0.8,0.2","1:go_a","",""
"null","","html-keyboard-response","88","174830","0.0-4.0-1.16","","<img src=""img/grey-n.png"">","null","trial","32","","0.8,0.2","1:go_a","0",""
"null","","html-keyboard-response","89","175831","0.0-4.0-2.16","","<div style=""font-size:60px;"">+</div>","null","","","","","","",""
"null","","image-keyboard-response","90","177333","0.0-4.0-0.17","","img/purple.png","null","trial","null","true","0.2,0.8","2:nogo_b","",""
"null","","html-keyboard-response","91","178335","0.0-4.0-1.17","","<img src=""img/purple-r.png"">","null","trial","null","","0.2,0.8","2:nogo_b","1",""
"null","","html-keyboard-response","92","179338","0.0-4.0-2.17","","<div style=""font-size:60px;"">+</div>","null","","","","","","",""
"null","","image-keyboard-response","93","180839","0.0-4.0-0.18","","img/purple.png","null","trial","null","true","0.2,0.8","2:nogo_b","",""
"null","","html-keyboard-response","94","181841","0.0-4.0-1.18","","<img src=""img/purple-r.png"">","null","trial","null","","0.2,0.8","2:nogo_b","1",""
"null","","html-keyboard-response","95","182842","0.0-4.0-2.18","","<div style=""font-size:60px;"">+</div>","null","","","","","","",""
"407.4499999996915","","image-keyboard-response","96","183250","0.0-4.0-0.19","","img/grey.png","32","trial","32","true","0.8,0.2","1:go_a","",""
"null","","html-keyboard-response","97","184252","0.0-4.0-1.19","","<img src=""img/grey-n.png"" border=""10"">","null","trial","32","","0.8,0.2","1:go_a","0",""
"null","","html-keyboard-response","98","185253","0.0-4.0-2.19","","<div style=""font-size:60px;"">+</div>","null","","","","","","",""
"null","","image-keyboard-response","99","186755","0.0-4.0-0.20","","img/purple.png","null","trial","null","true","0.2,0.8","2:nogo_b","",""
"null","","html-keyboard-response","100","187757","0.0-4.0-1.20","","<img src=""img/purple-n.png"">","null","trial","null","","0.2,0.8","2:nogo_b","0",""
"null","","html-keyboard-response","101","188758","0.0-4.0-2.20","","<div style=""font-size:60px;"">+</div>","null","","","","","","",""
"null","","image-keyboard-response","102","190260","0.0-4.0-0.21","","img/grey.png","null","trial","32","false","0.8,0.2","1:go_a","",""
"null","","html-keyboard-response","103","191261","0.0-4.0-1.21","","<img src=""img/grey-n.png"">","null","trial","32","","0.8,0.2","1:go_a","0",""
"null","","html-keyboard-response","104","192262","0.0-4.0-2.21","","<div style=""font-size:60px;"">+</div>","null","","","","","","",""
"null","","image-keyboard-response","105","193764","0.0-4.0-0.22","","img/purple.png","null","trial","null","true","0.2,0.8","2:nogo_b","",""
"null","","html-keyboard-response","106","194766","0.0-4.0-1.22","","<img src=""img/purple-r.png"">","null","trial","null","","0.2,0.8","2:nogo_b","1",""
"null","","html-keyboard-response","107","195767","0.0-4.0-2.22","","<div style=""font-size:60px;"">+</div>","null","","","","","","",""
"534.3949999996694","","image-keyboard-response","108","196303","0.0-4.0-0.23","","img/grey.png","32","trial","32","true","0.8,0.2","1:go_a","",""
"null","","html-keyboard-response","109","197304","0.0-4.0-1.23","","<img src=""img/grey-r.png"" border=""10"">","null","trial","32","","0.8,0.2","1:go_a","1",""
"null","","html-keyboard-response","110","198305","0.0-4.0-2.23","","<div style=""font-size:60px;"">+</div>","null","","","","","","",""
"null","","image-keyboard-response","111","199807","0.0-4.0-0.24","","img/purple.png","null","trial","null","true","0.2,0.8","2:nogo_b","",""
"null","","html-keyboard-response","112","200810","0.0-4.0-1.24","","<img src=""img/purple-n.png"">","null","trial","null","","0.2,0.8","2:nogo_b","0",""
"null","","html-keyboard-response","113","201811","0.0-4.0-2.24","","<div style=""font-size:60px;"">+</div>","null","","","","","","",""
"885.6599999999162","","image-keyboard-response","114","202698","0.0-4.0-0.25","","img/grey.png","32","trial","32","true","0.8,0.2","1:go_a","",""
"null","","html-keyboard-response","115","203700","0.0-4.0-1.25","","<img src=""img/grey-n.png"" border=""10"">","null","trial","32","","0.8,0.2","1:go_a","0",""
"null","","html-keyboard-response","116","204701","0.0-4.0-2.25","","<div style=""font-size:60px;"">+</div>","null","","","","","","",""
"549.7249999998312","","image-keyboard-response","117","205252","0.0-4.0-0.26","","img/grey.png","32","trial","32","true","0.8,0.2","1:go_a","",""
"null","","html-keyboard-response","118","206254","0.0-4.0-1.26","","<img src=""img/grey-r.png"" border=""10"">","null","trial","32","","0.8,0.2","1:go_a","1",""
"null","","html-keyboard-response","119","207255","0.0-4.0-2.26","","<div style=""font-size:60px;"">+</div>","null","","","","","","",""
"null","","image-keyboard-response","120","208757","0.0-4.0-0.27","","img/purple.png","null","trial","null","true","0.2,0.8","2:nogo_b","",""
"null","","html-keyboard-response","121","209759","0.0-4.0-1.27","","<img src=""img/purple-r.png"">","null","trial","null","","0.2,0.8","2:nogo_b","1",""
"null","","html-keyboard-response","122","210760","0.0-4.0-2.27","","<div style=""font-size:60px;"">+</div>","null","","","","","","",""
"342.0649999997986","","image-keyboard-response","123","211103","0.0-4.0-0.28","","img/grey.png","32","trial","32","true","0.8,0.2","1:go_a","",""
"null","","html-keyboard-response","124","212105","0.0-4.0-1.28","","<img src=""img/grey-r.png"" border=""10"">","null","trial","32","","0.8,0.2","1:go_a","1",""
"null","","html-keyboard-response","125","213107","0.0-4.0-2.28","","<div style=""font-size:60px;"">+</div>","null","","","","","","",""
"null","","image-keyboard-response","126","214608","0.0-4.0-0.29","","img/purple.png","null","trial","null","true","0.2,0.8","2:nogo_b","",""
"null","","html-keyboard-response","127","215610","0.0-4.0-1.29","","<img src=""img/purple-r.png"">","null","trial","null","","0.2,0.8","2:nogo_b","1",""
"null","","html-keyboard-response","128","216611","0.0-4.0-2.29","","<div style=""font-size:60px;"">+</div>","null","","","","","","",""
"null","","image-keyboard-response","129","218112","0.0-4.0-0.30","","img/purple.png","null","trial","null","true","0.2,0.8","2:nogo_b","",""
"null","","html-keyboard-response","130","219114","0.0-4.0-1.30","","<img src=""img/purple-r.png"">","null","trial","null","","0.2,0.8","2:nogo_b","1",""
"null","","html-keyboard-response","131","220115","0.0-4.0-2.30","","<div style=""font-size:60px;"">+</div>","null","","","","","","",""
"314.8650000002817","","image-keyboard-response","132","220432","0.0-4.0-0.31","","img/grey.png","32","trial","32","true","0.8,0.2","1:go_a","",""
"null","","html-keyboard-response","133","221434","0.0-4.0-1.31","","<img src=""img/grey-r.png"" border=""10"">","null","trial","32","","0.8,0.2","1:go_a","1",""
"null","","html-keyboard-response","134","222435","0.0-4.0-2.31","","<div style=""font-size:60px;"">+</div>","null","","","","","","",""
"null","","image-keyboard-response","135","223937","0.0-4.0-0.32","","img/purple.png","null","trial","null","true","0.2,0.8","2:nogo_b","",""
"null","","html-keyboard-response","136","224939","0.0-4.0-1.32","","<img src=""img/purple-r.png"">","null","trial","null","","0.2,0.8","2:nogo_b","1",""
"null","","html-keyboard-response","137","225940","0.0-4.0-2.32","","<div style=""font-size:60px;"">+</div>","null","","","","","","",""
"724.8550000003888","","image-keyboard-response","138","226666","0.0-4.0-0.33","","img/grey.png","32","trial","32","true","0.8,0.2","1:go_a","",""
"null","","html-keyboard-response","139","227668","0.0-4.0-1.33","","<img src=""img/grey-r.png"" border=""10"">","null","trial","32","","0.8,0.2","1:go_a","1",""
"null","","html-keyboard-response","140","228669","0.0-4.0-2.33","","<div style=""font-size:60px;"">+</div>","null","","","","","","",""
"809.2099999994389","","image-keyboard-response","141","229480","0.0-4.0-0.34","","img/grey.png","32","trial","32","true","0.8,0.2","1:go_a","",""
"null","","html-keyboard-response","142","230482","0.0-4.0-1.34","","<img src=""img/grey-r.png"" border=""10"">","null","trial","32","","0.8,0.2","1:go_a","1",""
"null","","html-keyboard-response","143","231484","0.0-4.0-2.34","","<div style=""font-size:60px;"">+</div>","null","","","","","","",""
"null","","image-keyboard-response","144","232985","0.0-4.0-0.35","","img/purple.png","null","trial","null","true","0.2,0.8","2:nogo_b","",""
"null","","html-keyboard-response","145","233986","0.0-4.0-1.35","","<img src=""img/purple-r.png"">","null","trial","null","","0.2,0.8","2:nogo_b","1",""
"null","","html-keyboard-response","146","234988","0.0-4.0-2.35","","<div style=""font-size:60px;"">+</div>","null","","","","","","",""
"null","","image-keyboard-response","147","236489","0.0-4.0-0.36","","img/purple.png","null","trial","null","true","0.2,0.8","2:nogo_b","",""
"null","","html-keyboard-response","148","237491","0.0-4.0-1.36","","<img src=""img/purple-r.png"">","null","trial","null","","0.2,0.8","2:nogo_b","1",""
"null","","html-keyboard-response","149","238492","0.0-4.0-2.36","","<div style=""font-size:60px;"">+</div>","null","","","","","","",""
"361.6300000003248","","image-keyboard-response","150","238855","0.0-4.0-0.37","","img/grey.png","32","trial","32","true","0.8,0.2","1:go_a","",""
"null","","html-keyboard-response","151","239857","0.0-4.0-1.37","","<img src=""img/grey-r.png"" border=""10"">","null","trial","32","","0.8,0.2","1:go_a","1",""
"null","","html-keyboard-response","152","240858","0.0-4.0-2.37","","<div style=""font-size:60px;"">+</div>","null","","","","","","",""
"521.3850000000093","","image-keyboard-response","153","241381","0.0-4.0-0.38","","img/grey.png","32","trial","32","true","0.8,0.2","1:go_a","",""
"null","","html-keyboard-response","154","242382","0.0-4.0-1.38","","<img src=""img/grey-r.png"" border=""10"">","null","trial","32","","0.8,0.2","1:go_a","1",""
"null","","html-keyboard-response","155","243383","0.0-4.0-2.38","","<div style=""font-size:60px;"">+</div>","null","","","","","","",""
"null","","image-keyboard-response","156","244885","0.0-4.0-0.39","","img/purple.png","null","trial","null","true","0.2,0.8","2:nogo_b","",""
"null","","html-keyboard-response","157","245886","0.0-4.0-1.39","","<img src=""img/purple-r.png"">","null","trial","null","","0.2,0.8","2:nogo_b","1",""
"null","","html-keyboard-response","158","246887","0.0-4.0-2.39","","<div style=""font-size:60px;"">+</div>","null","","","","","","",""
"442.130000000383","","image-keyboard-response","159","247331","0.0-4.0-0.40","","img/grey.png","32","trial","32","true","0.8,0.2","1:go_a","",""
"null","","html-keyboard-response","160","248333","0.0-4.0-1.40","","<img src=""img/grey-r.png"" border=""10"">","null","trial","32","","0.8,0.2","1:go_a","1",""
"null","","html-keyboard-response","161","249334","0.0-4.0-2.40","","<div style=""font-size:60px;"">+</div>","null","","","","","","",""
"null","","image-keyboard-response","162","250836","0.0-4.0-0.41","","img/purple.png","null","trial","null","true","0.2,0.8","2:nogo_b","",""
"null","","html-keyboard-response","163","251838","0.0-4.0-1.41","","<img src=""img/purple-r.png"">","null","trial","null","","0.2,0.8","2:nogo_b","1",""
"null","","html-keyboard-response","164","252839","0.0-4.0-2.41","","<div style=""font-size:60px;"">+</div>","null","","","","","","",""
"null","","image-keyboard-response","165","254341","0.0-4.0-0.42","","img/purple.png","null","trial","null","true","0.2,0.8","2:nogo_b","",""
"null","","html-keyboard-response","166","255343","0.0-4.0-1.42","","<img src=""img/purple-r.png"">","null","trial","null","","0.2,0.8","2:nogo_b","1",""
"null","","html-keyboard-response","167","256344","0.0-4.0-2.42","","<div style=""font-size:60px;"">+</div>","null","","","","","","",""
"450.64999999979045","","image-keyboard-response","168","256795","0.0-4.0-0.43","","img/grey.png","32","trial","32","true","0.8,0.2","1:go_a","",""
"null","","html-keyboard-response","169","257797","0.0-4.0-1.43","","<img src=""img/grey-r.png"" border=""10"">","null","trial","32","","0.8,0.2","1:go_a","1",""
"null","","html-keyboard-response","170","258799","0.0-4.0-2.43","","<div style=""font-size:60px;"">+</div>","null","","","","","","",""
"null","","image-keyboard-response","171","260300","0.0-4.0-0.44","","img/purple.png","null","trial","null","true","0.2,0.8","2:nogo_b","",""
"null","","html-keyboard-response","172","261302","0.0-4.0-1.44","","<img src=""img/purple-r.png"">","null","trial","null","","0.2,0.8","2:nogo_b","1",""
"null","","html-keyboard-response","173","262303","0.0-4.0-2.44","","<div style=""font-size:60px;"">+</div>","null","","","","","","",""
"733.9300000003423","","image-keyboard-response","174","263038","0.0-4.0-0.45","","img/grey.png","32","trial","32","true","0.8,0.2","1:go_a","",""
"null","","html-keyboard-response","175","264040","0.0-4.0-1.45","","<img src=""img/grey-r.png"" border=""10"">","null","trial","32","","0.8,0.2","1:go_a","1",""
"null","","html-keyboard-response","176","265041","0.0-4.0-2.45","","<div style=""font-size:60px;"">+</div>","null","","","","","","",""
"null","","image-keyboard-response","177","266542","0.0-4.0-0.46","","img/purple.png","null","trial","null","true","0.2,0.8","2:nogo_b","",""
"null","","html-keyboard-response","178","267545","0.0-4.0-1.46","","<img src=""img/purple-r.png"">","null","trial","null","","0.2,0.8","2:nogo_b","1",""
"null","","html-keyboard-response","179","268546","0.0-4.0-2.46","","<div style=""font-size:60px;"">+</div>","null","","","","","","",""
"624.1400000007707","","image-keyboard-response","180","269171","0.0-4.0-0.47","","img/grey.png","32","trial","32","true","0.8,0.2","1:go_a","",""
"null","","html-keyboard-response","181","270173","0.0-4.0-1.47","","<img src=""img/grey-r.png"" border=""10"">","null","trial","32","","0.8,0.2","1:go_a","1",""
"null","","html-keyboard-response","182","271174","0.0-4.0-2.47","","<div style=""font-size:60px;"">+</div>","null","","","","","","",""
"475.21499999944353","","image-keyboard-response","183","271650","0.0-4.0-0.48","","img/grey.png","32","trial","32","true","0.8,0.2","1:go_a","",""
"null","","html-keyboard-response","184","272652","0.0-4.0-1.48","","<img src=""img/grey-r.png"" border=""10"">","null","trial","32","","0.8,0.2","1:go_a","1",""
"null","","html-keyboard-response","185","273653","0.0-4.0-2.48","","<div style=""font-size:60px;"">+</div>","null","","","","","","",""
"null","","image-keyboard-response","186","275155","0.0-4.0-0.49","","img/purple.png","null","trial","null","true","0.2,0.8","2:nogo_b","",""
"null","","html-keyboard-response","187","276157","0.0-4.0-1.49","","<img src=""img/purple-r.png"">","null","trial","null","","0.2,0.8","2:nogo_b","1",""
"null","","html-keyboard-response","188","277158","0.0-4.0-2.49","","<div style=""font-size:60px;"">+</div>","null","","","","","","",""
"null","","image-keyboard-response","189","278660","0.0-4.0-0.50","","img/purple.png","null","trial","null","true","0.2,0.8","2:nogo_b","",""
"null","","html-keyboard-response","190","279662","0.0-4.0-1.50","","<img src=""img/purple-r.png"">","null","trial","null","","0.2,0.8","2:nogo_b","1",""
"null","","html-keyboard-response","191","280663","0.0-4.0-2.50","","<div style=""font-size:60px;"">+</div>","null","","","","","","",""
"523.0000000001164","","image-keyboard-response","192","281187","0.0-4.0-0.51","","img/grey.png","32","trial","32","true","0.8,0.2","1:go_a","",""
"null","","html-keyboard-response","193","282189","0.0-4.0-1.51","","<img src=""img/grey-r.png"" border=""10"">","null","trial","32","","0.8,0.2","1:go_a","1",""
"null","","html-keyboard-response","194","283190","0.0-4.0-2.51","","<div style=""font-size:60px;"">+</div>","null","","","","","","",""
"null","","image-keyboard-response","195","284691","0.0-4.0-0.52","","img/purple.png","null","trial","null","true","0.2,0.8","2:nogo_b","",""
"null","","html-keyboard-response","196","285693","0.0-4.0-1.52","","<img src=""img/purple-r.png"">","null","trial","null","","0.2,0.8","2:nogo_b","1",""
"null","","html-keyboard-response","197","286694","0.0-4.0-2.52","","<div style=""font-size:60px;"">+</div>","null","","","","","","",""
"757.7300000002724","","image-keyboard-response","198","287453","0.0-4.0-0.53","","img/grey.png","32","trial","32","true","0.8,0.2","1:go_a","",""
"null","","html-keyboard-response","199","288455","0.0-4.0-1.53","","<img src=""img/grey-r.png"" border=""10"">","null","trial","32","","0.8,0.2","1:go_a","1",""
"null","","html-keyboard-response","200","289456","0.0-4.0-2.53","","<div style=""font-size:60px;"">+</div>","null","","","","","","",""
"null","","image-keyboard-response","201","290957","0.0-4.0-0.54","","img/purple.png","null","trial","null","true","0.2,0.8","2:nogo_b","",""
"null","","html-keyboard-response","202","291959","0.0-4.0-1.54","","<img src=""img/purple-r.png"">","null","trial","null","","0.2,0.8","2:nogo_b","1",""
"null","","html-keyboard-response","203","292960","0.0-4.0-2.54","","<div style=""font-size:60px;"">+</div>","null","","","","","","",""
"409.22500000032596","","image-keyboard-response","204","293371","0.0-4.0-0.55","","img/grey.png","32","trial","32","true","0.8,0.2","1:go_a","",""
"null","","html-keyboard-response","205","294373","0.0-4.0-1.55","","<img src=""img/grey-r.png"" border=""10"">","null","trial","32","","0.8,0.2","1:go_a","1",""
"null","","html-keyboard-response","206","295375","0.0-4.0-2.55","","<div style=""font-size:60px;"">+</div>","null","","","","","","",""
"405.25999999954365","","image-keyboard-response","207","295781","0.0-4.0-0.56","","img/grey.png","32","trial","32","true","0.8,0.2","1:go_a","",""
"null","","html-keyboard-response","208","296783","0.0-4.0-1.56","","<img src=""img/grey-r.png"" border=""10"">","null","trial","32","","0.8,0.2","1:go_a","1",""
"null","","html-keyboard-response","209","297785","0.0-4.0-2.56","","<div style=""font-size:60px;"">+</div>","null","","","","","","",""
"null","","image-keyboard-response","210","299286","0.0-4.0-0.57","","img/purple.png","null","trial","null","true","0.2,0.8","2:nogo_b","",""
"null","","html-keyboard-response","211","300288","0.0-4.0-1.57","","<img src=""img/purple-r.png"">","null","trial","null","","0.2,0.8","2:nogo_b","1",""
"null","","html-keyboard-response","212","301289","0.0-4.0-2.57","","<div style=""font-size:60px;"">+</div>","null","","","","","","",""
"null","","image-keyboard-response","213","302791","0.0-4.0-0.58","","img/purple.png","null","trial","null","true","0.2,0.8","2:nogo_b","",""
"null","","html-keyboard-response","214","303793","0.0-4.0-1.58","","<img src=""img/purple-r.png"">","null","trial","null","","0.2,0.8","2:nogo_b","1",""
"null","","html-keyboard-response","215","304794","0.0-4.0-2.58","","<div style=""font-size:60px;"">+</div>","null","","","","","","",""
"453.2449999997043","","image-keyboard-response","216","305249","0.0-4.0-0.59","","img/grey.png","32","trial","32","true","0.8,0.2","1:go_a","",""
"null","","html-keyboard-response","217","306251","0.0-4.0-1.59","","<img src=""img/grey-r.png"" border=""10"">","null","trial","32","","0.8,0.2","1:go_a","1",""
"null","","html-keyboard-response","218","307252","0.0-4.0-2.59","","<div style=""font-size:60px;"">+</div>","null","","","","","","",""
"1931.315000000759","","instructions","219","309184","0.0-5.0","[{""page_index"":0,""viewing_time"":1929.395000000135}]","","","","","","","","",""
"817.0950000003795","","image-keyboard-response","220","310003","0.0-6.0-0.0","","img/red.png","32","trial","null","false","0.2,0.8","2:nogo_b","",""
"null","","html-keyboard-response","221","311005","0.0-6.0-1.0","","<img src=""img/red-n.png"" border=""10"">","null","trial","null","","0.2,0.8","2:nogo_b","0",""
"null","","html-keyboard-response","222","312006","0.0-6.0-2.0","","<div style=""font-size:60px;"">+</div>","null","","","","","","",""
"289.61000000074273","","image-keyboard-response","223","312297","0.0-6.0-0.1","","img/pink.png","32","trial","null","false","0.2,0.8","4:nogo_d","",""
"null","","html-keyboard-response","224","313299","0.0-6.0-1.1","","<img src=""img/pink-n.png"" border=""10"">","null","trial","null","","0.2,0.8","4:nogo_d","0",""
"null","","html-keyboard-response","225","314300","0.0-6.0-2.1","","<div style=""font-size:60px;"">+</div>","null","","","","","","",""
"337.7300000002142","","image-keyboard-response","226","314639","0.0-6.0-0.2","","img/green.png","32","trial","32","true","0.8,0.2","3:go_c","",""
"null","","html-keyboard-response","227","315641","0.0-6.0-1.2","","<img src=""img/green-n.png"" border=""10"">","null","trial","32","","0.8,0.2","3:go_c","0",""
"null","","html-keyboard-response","228","316642","0.0-6.0-2.2","","<div style=""font-size:60px;"">+</div>","null","","","","","","",""
"648.6450000001932","","image-keyboard-response","229","317292","0.0-6.0-0.3","","img/grey.png","32","trial","32","true","0.8,0.2","1:go_a","",""
"null","","html-keyboard-response","230","318294","0.0-6.0-1.3","","<img src=""img/grey-r.png"" border=""10"">","null","trial","32","","0.8,0.2","1:go_a","1",""
"null","","html-keyboard-response","231","319295","0.0-6.0-2.3","","<div style=""font-size:60px;"">+</div>","null","","","","","","",""
"null","","image-keyboard-response","232","320796","0.0-6.0-0.4","","img/pink.png","null","trial","null","true","0.2,0.8","4:nogo_d","",""
"null","","html-keyboard-response","233","321798","0.0-6.0-1.4","","<img src=""img/pink-n.png"">","null","trial","null","","0.2,0.8","4:nogo_d","0",""
"null","","html-keyboard-response","234","322799","0.0-6.0-2.4","","<div style=""font-size:60px;"">+</div>","null","","","","","","",""
"null","","image-keyboard-response","235","324301","0.0-6.0-0.5","","img/green.png","null","trial","32","false","0.8,0.2","3:go_c","",""
"null","","html-keyboard-response","236","325303","0.0-6.0-1.5","","<img src=""img/green-n.png"">","null","trial","32","","0.8,0.2","3:go_c","0",""
"null","","html-keyboard-response","237","326304","0.0-6.0-2.5","","<div style=""font-size:60px;"">+</div>","null","","","","","","",""
"null","","image-keyboard-response","238","327805","0.0-6.0-0.6","","img/red.png","null","trial","null","true","0.2,0.8","2:nogo_b","",""
"null","","html-keyboard-response","239","328808","0.0-6.0-1.6","","<img src=""img/red-n.png"">","null","trial","null","","0.2,0.8","2:nogo_b","0",""
"null","","html-keyboard-response","240","329809","0.0-6.0-2.6","","<div style=""font-size:60px;"">+</div>","null","","","","","","",""
"556.0050000003539","","image-keyboard-response","241","330366","0.0-6.0-0.7","","img/grey.png","32","trial","32","true","0.8,0.2","1:go_a","",""
"null","","html-keyboard-response","242","331368","0.0-6.0-1.7","","<img src=""img/grey-r.png"" border=""10"">","null","trial","32","","0.8,0.2","1:go_a","1",""
"null","","html-keyboard-response","243","332369","0.0-6.0-2.7","","<div style=""font-size:60px;"">+</div>","null","","","","","","",""
"397.9049999997951","","image-keyboard-response","244","332768","0.0-6.0-0.8","","img/red.png","32","trial","null","false","0.2,0.8","2:nogo_b","",""
"null","","html-keyboard-response","245","333770","0.0-6.0-1.8","","<img src=""img/red-n.png"" border=""10"">","null","trial","null","","0.2,0.8","2:nogo_b","0",""
"null","","html-keyboard-response","246","334771","0.0-6.0-2.8","","<div style=""font-size:60px;"">+</div>","null","","","","","","",""
"404.55500000010943","","image-keyboard-response","247","335177","0.0-6.0-0.9","","img/grey.png","32","trial","32","true","0.8,0.2","1:go_a","",""
"null","","html-keyboard-response","248","336179","0.0-6.0-1.9","","<img src=""img/grey-r.png"" border=""10"">","null","trial","32","","0.8,0.2","1:go_a","1",""
"null","","html-keyboard-response","249","337180","0.0-6.0-2.9","","<div style=""font-size:60px;"">+</div>","null","","","","","","",""
"369.5049999996554","","image-keyboard-response","250","337551","0.0-6.0-0.10","","img/pink.png","32","trial","null","false","0.2,0.8","4:nogo_d","",""
"null","","html-keyboard-response","251","338553","0.0-6.0-1.10","","<img src=""img/pink-n.png"" border=""10"">","null","trial","null","","0.2,0.8","4:nogo_d","0",""
"null","","html-keyboard-response","252","339554","0.0-6.0-2.10","","<div style=""font-size:60px;"">+</div>","null","","","","","","",""
"null","","image-keyboard-response","253","341055","0.0-6.0-0.11","","img/green.png","null","trial","32","false","0.8,0.2","3:go_c","",""
"null","","html-keyboard-response","254","342057","0.0-6.0-1.11","","<img src=""img/green-n.png"">","null","trial","32","","0.8,0.2","3:go_c","0",""
"null","","html-keyboard-response","255","343058","0.0-6.0-2.11","","<div style=""font-size:60px;"">+</div>","null","","","","","","",""
"626.4150000006193","","image-keyboard-response","256","343686","0.0-6.0-0.12","","img/green.png","32","trial","32","true","0.8,0.2","3:go_c","",""
"null","","html-keyboard-response","257","344687","0.0-6.0-1.12","","<img src=""img/green-r.png"" border=""10"">","null","trial","32","","0.8,0.2","3:go_c","1",""
"null","","html-keyboard-response","258","345688","0.0-6.0-2.12","","<div style=""font-size:60px;"">+</div>","null","","","","","","",""
"461.01499999989755","","image-keyboard-response","259","346151","0.0-6.0-0.13","","img/red.png","32","trial","null","false","0.2,0.8","2:nogo_b","",""
"null","","html-keyboard-response","260","347152","0.0-6.0-1.13","","<img src=""img/red-n.png"" border=""10"">","null","trial","null","","0.2,0.8","2:nogo_b","0",""
"null","","html-keyboard-response","261","348153","0.0-6.0-2.13","","<div style=""font-size:60px;"">+</div>","null","","","","","","",""
"354.11999999999534","","image-keyboard-response","262","348509","0.0-6.0-0.14","","img/pink.png","32","trial","null","false","0.2,0.8","4:nogo_d","",""
"null","","html-keyboard-response","263","349511","0.0-6.0-1.14","","<img src=""img/pink-r.png"" border=""10"">","null","trial","null","","0.2,0.8","4:nogo_d","1",""
"null","","html-keyboard-response","264","350512","0.0-6.0-2.14","","<div style=""font-size:60px;"">+</div>","null","","","","","","",""
"661.0099999997765","","image-keyboard-response","265","351174","0.0-6.0-0.15","","img/grey.png","32","trial","32","true","0.8,0.2","1:go_a","",""
"null","","html-keyboard-response","266","352177","0.0-6.0-1.15","","<img src=""img/grey-r.png"" border=""10"">","null","trial","32","","0.8,0.2","1:go_a","1",""
"null","","html-keyboard-response","267","353178","0.0-6.0-2.15","","<div style=""font-size:60px;"">+</div>","null","","","","","","",""
"505.6900000000023","","image-keyboard-response","268","353685","0.0-6.0-0.16","","img/grey.png","32","trial","32","true","0.8,0.2","1:go_a","",""
"null","","html-keyboard-response","269","354687","0.0-6.0-1.16","","<img src=""img/grey-r.png"" border=""10"">","null","trial","32","","0.8,0.2","1:go_a","1",""
"null","","html-keyboard-response","270","355688","0.0-6.0-2.16","","<div style=""font-size:60px;"">+</div>","null","","","","","","",""
"559.8950000003097","","image-keyboard-response","271","356249","0.0-6.0-0.17","","img/red.png","32","trial","null","false","0.2,0.8","2:nogo_b","",""
"null","","html-keyboard-response","272","357251","0.0-6.0-1.17","","<img src=""img/red-n.png"" border=""10"">","null","trial","null","","0.2,0.8","2:nogo_b","0",""
"null","","html-keyboard-response","273","358253","0.0-6.0-2.17","","<div style=""font-size:60px;"">+</div>","null","","","","","","",""
"null","","image-keyboard-response","274","359754","0.0-6.0-0.18","","img/pink.png","null","trial","null","true","0.2,0.8","4:nogo_d","",""
"null","","html-keyboard-response","275","360756","0.0-6.0-1.18","","<img src=""img/pink-r.png"">","null","trial","null","","0.2,0.8","4:nogo_d","1",""
"null","","html-keyboard-response","276","361757","0.0-6.0-2.18","","<div style=""font-size:60px;"">+</div>","null","","","","","","",""
"497.64499999943655","","image-keyboard-response","277","362256","0.0-6.0-0.19","","img/green.png","32","trial","32","true","0.8,0.2","3:go_c","",""
"null","","html-keyboard-response","278","363258","0.0-6.0-1.19","","<img src=""img/green-n.png"" border=""10"">","null","trial","32","","0.8,0.2","3:go_c","0",""
"null","","html-keyboard-response","279","364259","0.0-6.0-2.19","","<div style=""font-size:60px;"">+</div>","null","","","","","","",""
"null","","image-keyboard-response","280","365761","0.0-6.0-0.20","","img/green.png","null","trial","32","false","0.8,0.2","3:go_c","",""
"null","","html-keyboard-response","281","366762","0.0-6.0-1.20","","<img src=""img/green-n.png"">","null","trial","32","","0.8,0.2","3:go_c","0",""
"null","","html-keyboard-response","282","367764","0.0-6.0-2.20","","<div style=""font-size:60px;"">+</div>","null","","","","","","",""
"null","","image-keyboard-response","283","369265","0.0-6.0-0.21","","img/pink.png","null","trial","null","true","0.2,0.8","4:nogo_d","",""
"null","","html-keyboard-response","284","370267","0.0-6.0-1.21","","<img src=""img/pink-r.png"">","null","trial","null","","0.2,0.8","4:nogo_d","1",""
"null","","html-keyboard-response","285","371269","0.0-6.0-2.21","","<div style=""font-size:60px;"">+</div>","null","","","","","","",""
"670.2700000005425","","image-keyboard-response","286","371940","0.0-6.0-0.22","","img/red.png","32","trial","null","false","0.2,0.8","2:nogo_b","",""
"null","","html-keyboard-response","287","372942","0.0-6.0-1.22","","<img src=""img/red-n.png"" border=""10"">","null","trial","null","","0.2,0.8","2:nogo_b","0",""
"null","","html-keyboard-response","288","373943","0.0-6.0-2.22","","<div style=""font-size:60px;"">+</div>","null","","","","","","",""
"610.3949999997276","","image-keyboard-response","289","374555","0.0-6.0-0.23","","img/grey.png","32","trial","32","true","0.8,0.2","1:go_a","",""
"null","","html-keyboard-response","290","375557","0.0-6.0-1.23","","<img src=""img/grey-r.png"" border=""10"">","null","trial","32","","0.8,0.2","1:go_a","1",""
"null","","html-keyboard-response","291","376557","0.0-6.0-2.23","","<div style=""font-size:60px;"">+</div>","null","","","","","","",""
"null","","image-keyboard-response","292","378059","0.0-6.0-0.24","","img/red.png","null","trial","null","true","0.2,0.8","2:nogo_b","",""
"null","","html-keyboard-response","293","379061","0.0-6.0-1.24","","<img src=""img/red-r.png"">","null","trial","null","","0.2,0.8","2:nogo_b","1",""
"null","","html-keyboard-response","294","380062","0.0-6.0-2.24","","<div style=""font-size:60px;"">+</div>","null","","","","","","",""
"594.194999999716","","image-keyboard-response","295","380658","0.0-6.0-0.25","","img/grey.png","32","trial","32","true","0.8,0.2","1:go_a","",""
"null","","html-keyboard-response","296","381660","0.0-6.0-1.25","","<img src=""img/grey-r.png"" border=""10"">","null","trial","32","","0.8,0.2","1:go_a","1",""
"null","","html-keyboard-response","297","382661","0.0-6.0-2.25","","<div style=""font-size:60px;"">+</div>","null","","","","","","",""
"null","","image-keyboard-response","298","384162","0.0-6.0-0.26","","img/pink.png","null","trial","null","true","0.2,0.8","4:nogo_d","",""
"null","","html-keyboard-response","299","385165","0.0-6.0-1.26","","<img src=""img/pink-r.png"">","null","trial","null","","0.2,0.8","4:nogo_d","1",""
"null","","html-keyboard-response","300","386166","0.0-6.0-2.26","","<div style=""font-size:60px;"">+</div>","null","","","","","","",""
"null","","image-keyboard-response","301","387668","0.0-6.0-0.27","","img/green.png","null","trial","32","false","0.8,0.2","3:go_c","",""
"null","","html-keyboard-response","302","388670","0.0-6.0-1.27","","<img src=""img/green-n.png"">","null","trial","32","","0.8,0.2","3:go_c","0",""
"null","","html-keyboard-response","303","389671","0.0-6.0-2.27","","<div style=""font-size:60px;"">+</div>","null","","","","","","",""
"null","","image-keyboard-response","304","391172","0.0-6.0-0.28","","img/red.png","null","trial","null","true","0.2,0.8","2:nogo_b","",""
"null","","html-keyboard-response","305","392174","0.0-6.0-1.28","","<img src=""img/red-r.png"">","null","trial","null","","0.2,0.8","2:nogo_b","1",""
"null","","html-keyboard-response","306","393175","0.0-6.0-2.28","","<div style=""font-size:60px;"">+</div>","null","","","","","","",""
"429.4299999992363","","image-keyboard-response","307","393606","0.0-6.0-0.29","","img/green.png","32","trial","32","true","0.8,0.2","3:go_c","",""
"null","","html-keyboard-response","308","394608","0.0-6.0-1.29","","<img src=""img/green-n.png"" border=""10"">","null","trial","32","","0.8,0.2","3:go_c","0",""
"null","","html-keyboard-response","309","395609","0.0-6.0-2.29","","<div style=""font-size:60px;"">+</div>","null","","","","","","",""
"435.3899999996647","","image-keyboard-response","310","396045","0.0-6.0-0.30","","img/grey.png","32","trial","32","true","0.8,0.2","1:go_a","",""
"null","","html-keyboard-response","311","397048","0.0-6.0-1.30","","<img src=""img/grey-r.png"" border=""10"">","null","trial","32","","0.8,0.2","1:go_a","1",""
"null","","html-keyboard-response","312","398049","0.0-6.0-2.30","","<div style=""font-size:60px;"">+</div>","null","","","","","","",""
"null","","image-keyboard-response","313","399550","0.0-6.0-0.31","","img/pink.png","null","trial","null","true","0.2,0.8","4:nogo_d","",""
"null","","html-keyboard-response","314","400552","0.0-6.0-1.31","","<img src=""img/pink-r.png"">","null","trial","null","","0.2,0.8","4:nogo_d","1",""
"null","","html-keyboard-response","315","401553","0.0-6.0-2.31","","<div style=""font-size:60px;"">+</div>","null","","","","","","",""
"null","","image-keyboard-response","316","403055","0.0-6.0-0.32","","img/red.png","null","trial","null","true","0.2,0.8","2:nogo_b","",""
"null","","html-keyboard-response","317","404058","0.0-6.0-1.32","","<img src=""img/red-n.png"">","null","trial","null","","0.2,0.8","2:nogo_b","0",""
"null","","html-keyboard-response","318","405059","0.0-6.0-2.32","","<div style=""font-size:60px;"">+</div>","null","","","","","","",""
"null","","image-keyboard-response","319","406560","0.0-6.0-0.33","","img/pink.png","null","trial","null","true","0.2,0.8","4:nogo_d","",""
"null","","html-keyboard-response","320","407562","0.0-6.0-1.33","","<img src=""img/pink-r.png"">","null","trial","null","","0.2,0.8","4:nogo_d","1",""
"null","","html-keyboard-response","321","408563","0.0-6.0-2.33","","<div style=""font-size:60px;"">+</div>","null","","","","","","",""
"707.5299999996787","","image-keyboard-response","322","409272","0.0-6.0-0.34","","img/grey.png","32","trial","32","true","0.8,0.2","1:go_a","",""
"null","","html-keyboard-response","323","410274","0.0-6.0-1.34","","<img src=""img/grey-r.png"" border=""10"">","null","trial","32","","0.8,0.2","1:go_a","1",""
"null","","html-keyboard-response","324","411275","0.0-6.0-2.34","","<div style=""font-size:60px;"">+</div>","null","","","","","","",""
"346.03499999956694","","image-keyboard-response","325","411622","0.0-6.0-0.35","","img/green.png","32","trial","32","true","0.8,0.2","3:go_c","",""
"null","","html-keyboard-response","326","412624","0.0-6.0-1.35","","<img src=""img/green-r.png"" border=""10"">","null","trial","32","","0.8,0.2","3:go_c","1",""
"null","","html-keyboard-response","327","413626","0.0-6.0-2.35","","<div style=""font-size:60px;"">+</div>","null","","","","","","",""
"382.73500000016065","","image-keyboard-response","328","414009","0.0-6.0-0.36","","img/green.png","32","trial","32","true","0.8,0.2","3:go_c","",""
"null","","html-keyboard-response","329","415012","0.0-6.0-1.36","","<img src=""img/green-r.png"" border=""10"">","null","trial","32","","0.8,0.2","3:go_c","1",""
"null","","html-keyboard-response","330","416013","0.0-6.0-2.36","","<div style=""font-size:60px;"">+</div>","null","","","","","","",""
"null","","image-keyboard-response","331","417514","0.0-6.0-0.37","","img/pink.png","null","trial","null","true","0.2,0.8","4:nogo_d","",""
"null","","html-keyboard-response","332","418516","0.0-6.0-1.37","","<img src=""img/pink-r.png"">","null","trial","null","","0.2,0.8","4:nogo_d","1",""
"null","","html-keyboard-response","333","419517","0.0-6.0-2.37","","<div style=""font-size:60px;"">+</div>","null","","","","","","",""
"null","","image-keyboard-response","334","421019","0.0-6.0-0.38","","img/red.png","null","trial","null","true","0.2,0.8","2:nogo_b","",""
"null","","html-keyboard-response","335","422023","0.0-6.0-1.38","","<img src=""img/red-r.png"">","null","trial","null","","0.2,0.8","2:nogo_b","1",""
"null","","html-keyboard-response","336","423025","0.0-6.0-2.38","","<div style=""font-size:60px;"">+</div>","null","","","","","","",""
"382.7399999999907","","image-keyboard-response","337","423409","0.0-6.0-0.39","","img/grey.png","32","trial","32","true","0.8,0.2","1:go_a","",""
"null","","html-keyboard-response","338","424412","0.0-6.0-1.39","","<img src=""img/grey-r.png"" border=""10"">","null","trial","32","","0.8,0.2","1:go_a","1",""
"null","","html-keyboard-response","339","425413","0.0-6.0-2.39","","<div style=""font-size:60px;"">+</div>","null","","","","","","",""
"null","","image-keyboard-response","340","426914","0.0-6.0-0.40","","img/red.png","null","trial","null","true","0.2,0.8","2:nogo_b","",""
"null","","html-keyboard-response","341","427916","0.0-6.0-1.40","","<img src=""img/red-r.png"">","null","trial","null","","0.2,0.8","2:nogo_b","1",""
"null","","html-keyboard-response","342","428917","0.0-6.0-2.40","","<div style=""font-size:60px;"">+</div>","null","","","","","","",""
"797.4850000000442","","image-keyboard-response","343","429715","0.0-6.0-0.41","","img/green.png","32","trial","32","true","0.8,0.2","3:go_c","",""
"null","","html-keyboard-response","344","430718","0.0-6.0-1.41","","<img src=""img/green-r.png"" border=""10"">","null","trial","32","","0.8,0.2","3:go_c","1",""
"null","","html-keyboard-response","345","431718","0.0-6.0-2.41","","<div style=""font-size:60px;"">+</div>","null","","","","","","",""
"628.7549999997136","","image-keyboard-response","346","432348","0.0-6.0-0.42","","img/grey.png","32","trial","32","true","0.8,0.2","1:go_a","",""
"null","","html-keyboard-response","347","433350","0.0-6.0-1.42","","<img src=""img/grey-r.png"" border=""10"">","null","trial","32","","0.8,0.2","1:go_a","1",""
"null","","html-keyboard-response","348","434351","0.0-6.0-2.42","","<div style=""font-size:60px;"">+</div>","null","","","","","","",""
"null","","image-keyboard-response","349","435852","0.0-6.0-0.43","","img/pink.png","null","trial","null","true","0.2,0.8","4:nogo_d","",""
"null","","html-keyboard-response","350","436854","0.0-6.0-1.43","","<img src=""img/pink-r.png"">","null","trial","null","","0.2,0.8","4:nogo_d","1",""
"null","","html-keyboard-response","351","437855","0.0-6.0-2.43","","<div style=""font-size:60px;"">+</div>","null","","","","","","",""
"null","","image-keyboard-response","352","439357","0.0-6.0-0.44","","img/pink.png","null","trial","null","true","0.2,0.8","4:nogo_d","",""
"null","","html-keyboard-response","353","440359","0.0-6.0-1.44","","<img src=""img/pink-n.png"">","null","trial","null","","0.2,0.8","4:nogo_d","0",""
"null","","html-keyboard-response","354","441360","0.0-6.0-2.44","","<div style=""font-size:60px;"">+</div>","null","","","","","","",""
"790.2550000007614","","image-keyboard-response","355","442151","0.0-6.0-0.45","","img/green.png","32","trial","32","true","0.8,0.2","3:go_c","",""
"null","","html-keyboard-response","356","443153","0.0-6.0-1.45","","<img src=""img/green-r.png"" border=""10"">","null","trial","32","","0.8,0.2","3:go_c","1",""
"null","","html-keyboard-response","357","444154","0.0-6.0-2.45","","<div style=""font-size:60px;"">+</div>","null","","","","","","",""
"null","","image-keyboard-response","358","445656","0.0-6.0-0.46","","img/red.png","null","trial","null","true","0.2,0.8","2:nogo_b","",""
"null","","html-keyboard-response","359","446657","0.0-6.0-1.46","","<img src=""img/red-r.png"">","null","trial","null","","0.2,0.8","2:nogo_b","1",""
"null","","html-keyboard-response","360","447658","0.0-6.0-2.46","","<div style=""font-size:60px;"">+</div>","null","","","","","","",""
"423.4399999995949","","image-keyboard-response","361","448083","0.0-6.0-0.47","","img/grey.png","32","trial","32","true","0.8,0.2","1:go_a","",""
"null","","html-keyboard-response","362","449085","0.0-6.0-1.47","","<img src=""img/grey-r.png"" border=""10"">","null","trial","32","","0.8,0.2","1:go_a","1",""
"null","","html-keyboard-response","363","450086","0.0-6.0-2.47","","<div style=""font-size:60px;"">+</div>","null","","","","","","",""
"578.7600000003586","","image-keyboard-response","364","450666","0.0-6.0-0.48","","img/green.png","32","trial","32","true","0.8,0.2","3:go_c","",""
"null","","html-keyboard-response","365","451668","0.0-6.0-1.48","","<img src=""img/green-r.png"" border=""10"">","null","trial","32","","0.8,0.2","3:go_c","1",""
"null","","html-keyboard-response","366","452669","0.0-6.0-2.48","","<div style=""font-size:60px;"">+</div>","null","","","","","","",""
"752.2349999999278","","image-keyboard-response","367","453423","0.0-6.0-0.49","","img/grey.png","32","trial","32","true","0.8,0.2","1:go_a","",""
"null","","html-keyboard-response","368","454425","0.0-6.0-1.49","","<img src=""img/grey-r.png"" border=""10"">","null","trial","32","","0.8,0.2","1:go_a","1",""
"null","","html-keyboard-response","369","455426","0.0-6.0-2.49","","<div style=""font-size:60px;"">+</div>","null","","","","","","",""
"null","","image-keyboard-response","370","456928","0.0-6.0-0.50","","img/pink.png","null","trial","null","true","0.2,0.8","4:nogo_d","",""
"null","","html-keyboard-response","371","457929","0.0-6.0-1.50","","<img src=""img/pink-r.png"">","null","trial","null","","0.2,0.8","4:nogo_d","1",""
"null","","html-keyboard-response","372","458930","0.0-6.0-2.50","","<div style=""font-size:60px;"">+</div>","null","","","","","","",""
"null","","image-keyboard-response","373","460432","0.0-6.0-0.51","","img/red.png","null","trial","null","true","0.2,0.8","2:nogo_b","",""
"null","","html-keyboard-response","374","461434","0.0-6.0-1.51","","<img src=""img/red-r.png"">","null","trial","null","","0.2,0.8","2:nogo_b","1",""
"null","","html-keyboard-response","375","462435","0.0-6.0-2.51","","<div style=""font-size:60px;"">+</div>","null","","","","","","",""
"535.5349999999744","","image-keyboard-response","376","462974","0.0-6.0-0.52","","img/green.png","32","trial","32","true","0.8,0.2","3:go_c","",""
"null","","html-keyboard-response","377","463976","0.0-6.0-1.52","","<img src=""img/green-r.png"" border=""10"">","null","trial","32","","0.8,0.2","3:go_c","1",""
"null","","html-keyboard-response","378","464977","0.0-6.0-2.52","","<div style=""font-size:60px;"">+</div>","null","","","","","","",""
"null","","image-keyboard-response","379","466479","0.0-6.0-0.53","","img/red.png","null","trial","null","true","0.2,0.8","2:nogo_b","",""
"null","","html-keyboard-response","380","467481","0.0-6.0-1.53","","<img src=""img/red-r.png"">","null","trial","null","","0.2,0.8","2:nogo_b","1",""
"null","","html-keyboard-response","381","468482","0.0-6.0-2.53","","<div style=""font-size:60px;"">+</div>","null","","","","","","",""
"null","","image-keyboard-response","382","469984","0.0-6.0-0.54","","img/pink.png","null","trial","null","true","0.2,0.8","4:nogo_d","",""
"null","","html-keyboard-response","383","470985","0.0-6.0-1.54","","<img src=""img/pink-r.png"">","null","trial","null","","0.2,0.8","4:nogo_d","1",""
"null","","html-keyboard-response","384","471987","0.0-6.0-2.54","","<div style=""font-size:60px;"">+</div>","null","","","","","","",""
"511.79499999945983","","image-keyboard-response","385","472499","0.0-6.0-0.55","","img/grey.png","32","trial","32","true","0.8,0.2","1:go_a","",""
"null","","html-keyboard-response","386","473501","0.0-6.0-1.55","","<img src=""img/grey-r.png"" border=""10"">","null","trial","32","","0.8,0.2","1:go_a","1",""
"null","","html-keyboard-response","387","474503","0.0-6.0-2.55","","<div style=""font-size:60px;"">+</div>","null","","","","","","",""
"627.7249999993364","","image-keyboard-response","388","475132","0.0-6.0-0.56","","img/grey.png","32","trial","32","true","0.8,0.2","1:go_a","",""
"null","","html-keyboard-response","389","476134","0.0-6.0-1.56","","<img src=""img/grey-r.png"" border=""10"">","null","trial","32","","0.8,0.2","1:go_a","1",""
"null","","html-keyboard-response","390","477136","0.0-6.0-2.56","","<div style=""font-size:60px;"">+</div>","null","","","","","","",""
"null","","image-keyboard-response","391","478638","0.0-6.0-0.57","","img/red.png","null","trial","null","true","0.2,0.8","2:nogo_b","",""
"null","","html-keyboard-response","392","479639","0.0-6.0-1.57","","<img src=""img/red-n.png"">","null","trial","null","","0.2,0.8","2:nogo_b","0",""
"null","","html-keyboard-response","393","480641","0.0-6.0-2.57","","<div style=""font-size:60px;"">+</div>","null","","","","","","",""
"null","","image-keyboard-response","394","482142","0.0-6.0-0.58","","img/pink.png","null","trial","null","true","0.2,0.8","4:nogo_d","",""
"null","","html-keyboard-response","395","483144","0.0-6.0-1.58","","<img src=""img/pink-r.png"">","null","trial","null","","0.2,0.8","4:nogo_d","1",""
"null","","html-keyboard-response","396","484145","0.0-6.0-2.58","","<div style=""font-size:60px;"">+</div>","null","","","","","","",""
"402.63499999948544","","image-keyboard-response","397","484549","0.0-6.0-0.59","","img/green.png","32","trial","32","true","0.8,0.2","3:go_c","",""
"null","","html-keyboard-response","398","485551","0.0-6.0-1.59","","<img src=""img/green-r.png"" border=""10"">","null","trial","32","","0.8,0.2","3:go_c","1",""
"null","","html-keyboard-response","399","486552","0.0-6.0-2.59","","<div style=""font-size:60px;"">+</div>","null","","","","","","",""
"null","","image-keyboard-response","400","488054","0.0-6.0-0.60","","img/pink.png","null","trial","null","true","0.2,0.8","4:nogo_d","",""
"null","","html-keyboard-response","401","489056","0.0-6.0-1.60","","<img src=""img/pink-n.png"">","null","trial","null","","0.2,0.8","4:nogo_d","0",""
"null","","html-keyboard-response","402","490057","0.0-6.0-2.60","","<div style=""font-size:60px;"">+</div>","null","","","","","","",""
"null","","image-keyboard-response","403","491559","0.0-6.0-0.61","","img/red.png","null","trial","null","true","0.2,0.8","2:nogo_b","",""
"null","","html-keyboard-response","404","492560","0.0-6.0-1.61","","<img src=""img/red-r.png"">","null","trial","null","","0.2,0.8","2:nogo_b","1",""
"null","","html-keyboard-response","405","493561","0.0-6.0-2.61","","<div style=""font-size:60px;"">+</div>","null","","","","","","",""
"325.6300000002957","","image-keyboard-response","406","493888","0.0-6.0-0.62","","img/green.png","32","trial","32","true","0.8,0.2","3:go_c","",""
"null","","html-keyboard-response","407","494890","0.0-6.0-1.62","","<img src=""img/green-r.png"" border=""10"">","null","trial","32","","0.8,0.2","3:go_c","1",""
"null","","html-keyboard-response","408","495891","0.0-6.0-2.62","","<div style=""font-size:60px;"">+</div>","null","","","","","","",""
"460.39500000007683","","image-keyboard-response","409","496353","0.0-6.0-0.63","","img/grey.png","32","trial","32","true","0.8,0.2","1:go_a","",""
"null","","html-keyboard-response","410","497354","0.0-6.0-1.63","","<img src=""img/grey-n.png"" border=""10"">","null","trial","32","","0.8,0.2","1:go_a","0",""
"null","","html-keyboard-response","411","498356","0.0-6.0-2.63","","<div style=""font-size:60px;"">+</div>","null","","","","","","",""
"540.4899999994086","","image-keyboard-response","412","498897","0.0-6.0-0.64","","img/grey.png","32","trial","32","true","0.8,0.2","1:go_a","",""
"null","","html-keyboard-response","413","499899","0.0-6.0-1.64","","<img src=""img/grey-r.png"" border=""10"">","null","trial","32","","0.8,0.2","1:go_a","1",""
"null","","html-keyboard-response","414","500900","0.0-6.0-2.64","","<div style=""font-size:60px;"">+</div>","null","","","","","","",""
"null","","image-keyboard-response","415","502401","0.0-6.0-0.65","","img/red.png","null","trial","null","true","0.2,0.8","2:nogo_b","",""
"null","","html-keyboard-response","416","503404","0.0-6.0-1.65","","<img src=""img/red-r.png"">","null","trial","null","","0.2,0.8","2:nogo_b","1",""
"null","","html-keyboard-response","417","504405","0.0-6.0-2.65","","<div style=""font-size:60px;"">+</div>","null","","","","","","",""
"null","","image-keyboard-response","418","505907","0.0-6.0-0.66","","img/pink.png","null","trial","null","true","0.2,0.8","4:nogo_d","",""
"null","","html-keyboard-response","419","506908","0.0-6.0-1.66","","<img src=""img/pink-r.png"">","null","trial","null","","0.2,0.8","4:nogo_d","1",""
"null","","html-keyboard-response","420","507910","0.0-6.0-2.66","","<div style=""font-size:60px;"">+</div>","null","","","","","","",""
"549.5049999999464","","image-keyboard-response","421","508460","0.0-6.0-0.67","","img/green.png","32","trial","32","true","0.8,0.2","3:go_c","",""
"null","","html-keyboard-response","422","509462","0.0-6.0-1.67","","<img src=""img/green-r.png"" border=""10"">","null","trial","32","","0.8,0.2","3:go_c","1",""
"null","","html-keyboard-response","423","510463","0.0-6.0-2.67","","<div style=""font-size:60px;"">+</div>","null","","","","","","",""
"null","","image-keyboard-response","424","511965","0.0-6.0-0.68","","img/pink.png","null","trial","null","true","0.2,0.8","4:nogo_d","",""
"null","","html-keyboard-response","425","512966","0.0-6.0-1.68","","<img src=""img/pink-r.png"">","null","trial","null","","0.2,0.8","4:nogo_d","1",""
"null","","html-keyboard-response","426","513968","0.0-6.0-2.68","","<div style=""font-size:60px;"">+</div>","null","","","","","","",""
"348.8299999999581","","image-keyboard-response","427","514318","0.0-6.0-0.69","","img/green.png","32","trial","32","true","0.8,0.2","3:go_c","",""
"null","","html-keyboard-response","428","515320","0.0-6.0-1.69","","<img src=""img/green-r.png"" border=""10"">","null","trial","32","","0.8,0.2","3:go_c","1",""
"null","","html-keyboard-response","429","516321","0.0-6.0-2.69","","<div style=""font-size:60px;"">+</div>","null","","","","","","",""
"447.8300000000745","","image-keyboard-response","430","516771","0.0-6.0-0.70","","img/grey.png","32","trial","32","true","0.8,0.2","1:go_a","",""
"null","","html-keyboard-response","431","517773","0.0-6.0-1.70","","<img src=""img/grey-n.png"" border=""10"">","null","trial","32","","0.8,0.2","1:go_a","0",""
"null","","html-keyboard-response","432","518774","0.0-6.0-2.70","","<div style=""font-size:60px;"">+</div>","null","","","","","","",""
"null","","image-keyboard-response","433","520276","0.0-6.0-0.71","","img/red.png","null","trial","null","true","0.2,0.8","2:nogo_b","",""
"null","","html-keyboard-response","434","521277","0.0-6.0-1.71","","<img src=""img/red-n.png"">","null","trial","null","","0.2,0.8","2:nogo_b","0",""
"null","","html-keyboard-response","435","522278","0.0-6.0-2.71","","<div style=""font-size:60px;"">+</div>","null","","","","","","",""
"null","","image-keyboard-response","436","523780","0.0-6.0-0.72","","img/red.png","null","trial","null","true","0.2,0.8","2:nogo_b","",""
"null","","html-keyboard-response","437","524781","0.0-6.0-1.72","","<img src=""img/red-n.png"">","null","trial","null","","0.2,0.8","2:nogo_b","0",""
"null","","html-keyboard-response","438","525783","0.0-6.0-2.72","","<div style=""font-size:60px;"">+</div>","null","","","","","","",""
"null","","image-keyboard-response","439","527284","0.0-6.0-0.73","","img/pink.png","null","trial","null","true","0.2,0.8","4:nogo_d","",""
"null","","html-keyboard-response","440","528286","0.0-6.0-1.73","","<img src=""img/pink-n.png"">","null","trial","null","","0.2,0.8","4:nogo_d","0",""
"null","","html-keyboard-response","441","529288","0.0-6.0-2.73","","<div style=""font-size:60px;"">+</div>","null","","","","","","",""
"409.2549999996554","","image-keyboard-response","442","529698","0.0-6.0-0.74","","img/green.png","32","trial","32","true","0.8,0.2","3:go_c","",""
"null","","html-keyboard-response","443","530700","0.0-6.0-1.74","","<img src=""img/green-r.png"" border=""10"">","null","trial","32","","0.8,0.2","3:go_c","1",""
"null","","html-keyboard-response","444","531702","0.0-6.0-2.74","","<div style=""font-size:60px;"">+</div>","null","","","","","","",""
"461.32000000041444","","image-keyboard-response","445","532164","0.0-6.0-0.75","","img/grey.png","32","trial","32","true","0.8,0.2","1:go_a","",""
"null","","html-keyboard-response","446","533166","0.0-6.0-1.75","","<img src=""img/grey-n.png"" border=""10"">","null","trial","32","","0.8,0.2","1:go_a","0",""
"null","","html-keyboard-response","447","534167","0.0-6.0-2.75","","<div style=""font-size:60px;"">+</div>","null","","","","","","",""
"null","","image-keyboard-response","448","535669","0.0-6.0-0.76","","img/red.png","null","trial","null","true","0.2,0.8","2:nogo_b","",""
"null","","html-keyboard-response","449","536671","0.0-6.0-1.76","","<img src=""img/red-r.png"">","null","trial","null","","0.2,0.8","2:nogo_b","1",""
"null","","html-keyboard-response","450","537672","0.0-6.0-2.76","","<div style=""font-size:60px;"">+</div>","null","","","","","","",""
"464.6649999994552","","image-keyboard-response","451","538138","0.0-6.0-0.77","","img/grey.png","32","trial","32","true","0.8,0.2","1:go_a","",""
"null","","html-keyboard-response","452","539139","0.0-6.0-1.77","","<img src=""img/grey-n.png"" border=""10"">","null","trial","32","","0.8,0.2","1:go_a","0",""
"null","","html-keyboard-response","453","540140","0.0-6.0-2.77","","<div style=""font-size:60px;"">+</div>","null","","","","","","",""
"null","","image-keyboard-response","454","541642","0.0-6.0-0.78","","img/pink.png","null","trial","null","true","0.2,0.8","4:nogo_d","",""
"null","","html-keyboard-response","455","542643","0.0-6.0-1.78","","<img src=""img/pink-r.png"">","null","trial","null","","0.2,0.8","4:nogo_d","1",""
"null","","html-keyboard-response","456","543644","0.0-6.0-2.78","","<div style=""font-size:60px;"">+</div>","null","","","","","","",""
"444.24999999953434","","image-keyboard-response","457","544090","0.0-6.0-0.79","","img/green.png","32","trial","32","true","0.8,0.2","3:go_c","",""
"null","","html-keyboard-response","458","545092","0.0-6.0-1.79","","<img src=""img/green-r.png"" border=""10"">","null","trial","32","","0.8,0.2","3:go_c","1",""
"null","","html-keyboard-response","459","546093","0.0-6.0-2.79","","<div style=""font-size:60px;"">+</div>","null","","","","","","",""
"549.1650000003865","","image-keyboard-response","460","546644","0.0-6.0-0.80","","img/grey.png","32","trial","32","true","0.8,0.2","1:go_a","",""
"null","","html-keyboard-response","461","547646","0.0-6.0-1.80","","<img src=""img/grey-r.png"" border=""10"">","null","trial","32","","0.8,0.2","1:go_a","1",""
"null","","html-keyboard-response","462","548647","0.0-6.0-2.80","","<div style=""font-size:60px;"">+</div>","null","","","","","","",""
"630.9449999999488","","image-keyboard-response","463","549279","0.0-6.0-0.81","","img/green.png","32","trial","32","true","0.8,0.2","3:go_c","",""
"null","","html-keyboard-response","464","550282","0.0-6.0-1.81","","<img src=""img/green-n.png"" border=""10"">","null","trial","32","","0.8,0.2","3:go_c","0",""
"null","","html-keyboard-response","465","551283","0.0-6.0-2.81","","<div style=""font-size:60px;"">+</div>","null","","","","","","",""
"null","","image-keyboard-response","466","552785","0.0-6.0-0.82","","img/red.png","null","trial","null","true","0.2,0.8","2:nogo_b","",""
"null","","html-keyboard-response","467","553787","0.0-6.0-1.82","","<img src=""img/red-n.png"">","null","trial","null","","0.2,0.8","2:nogo_b","0",""
"null","","html-keyboard-response","468","554788","0.0-6.0-2.82","","<div style=""font-size:60px;"">+</div>","null","","","","","","",""
"null","","image-keyboard-response","469","556290","0.0-6.0-0.83","","img/pink.png","null","trial","null","true","0.2,0.8","4:nogo_d","",""
"null","","html-keyboard-response","470","557292","0.0-6.0-1.83","","<img src=""img/pink-n.png"">","null","trial","null","","0.2,0.8","4:nogo_d","0",""
"null","","html-keyboard-response","471","558294","0.0-6.0-2.83","","<div style=""font-size:60px;"">+</div>","null","","","","","","",""
"null","","image-keyboard-response","472","559795","0.0-6.0-0.84","","img/pink.png","null","trial","null","true","0.2,0.8","4:nogo_d","",""
"null","","html-keyboard-response","473","560797","0.0-6.0-1.84","","<img src=""img/pink-n.png"">","null","trial","null","","0.2,0.8","4:nogo_d","0",""
"null","","html-keyboard-response","474","561798","0.0-6.0-2.84","","<div style=""font-size:60px;"">+</div>","null","","","","","","",""
"null","","image-keyboard-response","475","563300","0.0-6.0-0.85","","img/red.png","null","trial","null","true","0.2,0.8","2:nogo_b","",""
"null","","html-keyboard-response","476","564302","0.0-6.0-1.85","","<img src=""img/red-n.png"">","null","trial","null","","0.2,0.8","2:nogo_b","0",""
"null","","html-keyboard-response","477","565303","0.0-6.0-2.85","","<div style=""font-size:60px;"">+</div>","null","","","","","","",""
"508.01999999932013","","image-keyboard-response","478","565812","0.0-6.0-0.86","","img/grey.png","32","trial","32","true","0.8,0.2","1:go_a","",""
"null","","html-keyboard-response","479","566814","0.0-6.0-1.86","","<img src=""img/grey-r.png"" border=""10"">","null","trial","32","","0.8,0.2","1:go_a","1",""
"null","","html-keyboard-response","480","567815","0.0-6.0-2.86","","<div style=""font-size:60px;"">+</div>","null","","","","","","",""
"581.7750000006054","","image-keyboard-response","481","568399","0.0-6.0-0.87","","img/green.png","32","trial","32","true","0.8,0.2","3:go_c","",""
"null","","html-keyboard-response","482","569401","0.0-6.0-1.87","","<img src=""img/green-r.png"" border=""10"">","null","trial","32","","0.8,0.2","3:go_c","1",""
"null","","html-keyboard-response","483","570402","0.0-6.0-2.87","","<div style=""font-size:60px;"">+</div>","null","","","","","","",""
"577.9300000004005","","image-keyboard-response","484","570981","0.0-6.0-0.88","","img/grey.png","32","trial","32","true","0.8,0.2","1:go_a","",""
"null","","html-keyboard-response","485","571982","0.0-6.0-1.88","","<img src=""img/grey-r.png"" border=""10"">","null","trial","32","","0.8,0.2","1:go_a","1",""
"null","","html-keyboard-response","486","572983","0.0-6.0-2.88","","<div style=""font-size:60px;"">+</div>","null","","","","","","",""
"null","","image-keyboard-response","487","574485","0.0-6.0-0.89","","img/red.png","null","trial","null","true","0.2,0.8","2:nogo_b","",""
"null","","html-keyboard-response","488","575487","0.0-6.0-1.89","","<img src=""img/red-n.png"">","null","trial","null","","0.2,0.8","2:nogo_b","0",""
"null","","html-keyboard-response","489","576488","0.0-6.0-2.89","","<div style=""font-size:60px;"">+</div>","null","","","","","","",""
"361.7149999999674","","image-keyboard-response","490","576851","0.0-6.0-0.90","","img/green.png","32","trial","32","true","0.8,0.2","3:go_c","",""
"null","","html-keyboard-response","491","577853","0.0-6.0-1.90","","<img src=""img/green-r.png"" border=""10"">","null","trial","32","","0.8,0.2","3:go_c","1",""
"null","","html-keyboard-response","492","578854","0.0-6.0-2.90","","<div style=""font-size:60px;"">+</div>","null","","","","","","",""
"null","","image-keyboard-response","493","580355","0.0-6.0-0.91","","img/pink.png","null","trial","null","true","0.2,0.8","4:nogo_d","",""
"null","","html-keyboard-response","494","581357","0.0-6.0-1.91","","<img src=""img/pink-r.png"">","null","trial","null","","0.2,0.8","4:nogo_d","1",""
"null","","html-keyboard-response","495","582358","0.0-6.0-2.91","","<div style=""font-size:60px;"">+</div>","null","","","","","","",""
"745.1949999994831","","image-keyboard-response","496","583105","0.0-6.0-0.92","","img/grey.png","32","trial","32","true","0.8,0.2","1:go_a","",""
"null","","html-keyboard-response","497","584107","0.0-6.0-1.92","","<img src=""img/grey-r.png"" border=""10"">","null","trial","32","","0.8,0.2","1:go_a","1",""
"null","","html-keyboard-response","498","585109","0.0-6.0-2.92","","<div style=""font-size:60px;"">+</div>","null","","","","","","",""
"null","","image-keyboard-response","499","586610","0.0-6.0-0.93","","img/pink.png","null","trial","null","true","0.2,0.8","4:nogo_d","",""
"null","","html-keyboard-response","500","587612","0.0-6.0-1.93","","<img src=""img/pink-r.png"">","null","trial","null","","0.2,0.8","4:nogo_d","1",""
"null","","html-keyboard-response","501","588614","0.0-6.0-2.93","","<div style=""font-size:60px;"">+</div>","null","","","","","","",""
"null","","image-keyboard-response","502","590115","0.0-6.0-0.94","","img/red.png","null","trial","null","true","0.2,0.8","2:nogo_b","",""
"null","","html-keyboard-response","503","591117","0.0-6.0-1.94","","<img src=""img/red-n.png"">","null","trial","null","","0.2,0.8","2:nogo_b","0",""
"null","","html-keyboard-response","504","592118","0.0-6.0-2.94","","<div style=""font-size:60px;"">+</div>","null","","","","","","",""
"486.2549999997718","","image-keyboard-response","505","592606","0.0-6.0-0.95","","img/green.png","32","trial","32","true","0.8,0.2","3:go_c","",""
"null","","html-keyboard-response","506","593608","0.0-6.0-1.95","","<img src=""img/green-r.png"" border=""10"">","null","trial","32","","0.8,0.2","3:go_c","1",""
"null","","html-keyboard-response","507","594609","0.0-6.0-2.95","","<div style=""font-size:60px;"">+</div>","null","","","","","","",""
"489.6149999994086","","image-keyboard-response","508","595099","0.0-6.0-0.96","","img/grey.png","32","trial","32","true","0.8,0.2","1:go_a","",""
"null","","html-keyboard-response","509","596102","0.0-6.0-1.96","","<img src=""img/grey-r.png"" border=""10"">","null","trial","32","","0.8,0.2","1:go_a","1",""
"null","","html-keyboard-response","510","597103","0.0-6.0-2.96","","<div style=""font-size:60px;"">+</div>","null","","","","","","",""
"null","","image-keyboard-response","511","598604","0.0-6.0-0.97","","img/pink.png","null","trial","null","true","0.2,0.8","4:nogo_d","",""
"null","","html-keyboard-response","512","599607","0.0-6.0-1.97","","<img src=""img/pink-r.png"">","null","trial","null","","0.2,0.8","4:nogo_d","1",""
"null","","html-keyboard-response","513","600608","0.0-6.0-2.97","","<div style=""font-size:60px;"">+</div>","null","","","","","","",""
"null","","image-keyboard-response","514","602110","0.0-6.0-0.98","","img/red.png","null","trial","null","true","0.2,0.8","2:nogo_b","",""
"null","","html-keyboard-response","515","603112","0.0-6.0-1.98","","<img src=""img/red-r.png"">","null","trial","null","","0.2,0.8","2:nogo_b","1",""
"null","","html-keyboard-response","516","604114","0.0-6.0-2.98","","<div style=""font-size:60px;"">+</div>","null","","","","","","",""
"735.9949999999953","","image-keyboard-response","517","604851","0.0-6.0-0.99","","img/green.png","32","trial","32","true","0.8,0.2","3:go_c","",""
"null","","html-keyboard-response","518","605853","0.0-6.0-1.99","","<img src=""img/green-r.png"" border=""10"">","null","trial","32","","0.8,0.2","3:go_c","1",""
"null","","html-keyboard-response","519","606854","0.0-6.0-2.99","","<div style=""font-size:60px;"">+</div>","null","","","","","","",""
"null","","image-keyboard-response","520","608355","0.0-6.0-0.100","","img/pink.png","null","trial","null","true","0.2,0.8","4:nogo_d","",""
"null","","html-keyboard-response","521","609358","0.0-6.0-1.100","","<img src=""img/pink-r.png"">","null","trial","null","","0.2,0.8","4:nogo_d","1",""
"null","","html-keyboard-response","522","610359","0.0-6.0-2.100","","<div style=""font-size:60px;"">+</div>","null","","","","","","",""
"547.835000000312","","image-keyboard-response","523","610908","0.0-6.0-0.101","","img/grey.png","32","trial","32","true","0.8,0.2","1:go_a","",""
"null","","html-keyboard-response","524","611910","0.0-6.0-1.101","","<img src=""img/grey-n.png"" border=""10"">","null","trial","32","","0.8,0.2","1:go_a","0",""
"null","","html-keyboard-response","525","612911","0.0-6.0-2.101","","<div style=""font-size:60px;"">+</div>","null","","","","","","",""
"324.8100000000559","","image-keyboard-response","526","613238","0.0-6.0-0.102","","img/green.png","32","trial","32","true","0.8,0.2","3:go_c","",""
"null","","html-keyboard-response","527","614240","0.0-6.0-1.102","","<img src=""img/green-r.png"" border=""10"">","null","trial","32","","0.8,0.2","3:go_c","1",""
"null","","html-keyboard-response","528","615242","0.0-6.0-2.102","","<div style=""font-size:60px;"">+</div>","null","","","","","","",""
"null","","image-keyboard-response","529","616743","0.0-6.0-0.103","","img/red.png","null","trial","null","true","0.2,0.8","2:nogo_b","",""
"null","","html-keyboard-response","530","617745","0.0-6.0-1.103","","<img src=""img/red-r.png"">","null","trial","null","","0.2,0.8","2:nogo_b","1",""
"null","","html-keyboard-response","531","618747","0.0-6.0-2.103","","<div style=""font-size:60px;"">+</div>","null","","","","","","",""
"null","","image-keyboard-response","532","620248","0.0-6.0-0.104","","img/pink.png","null","trial","null","true","0.2,0.8","4:nogo_d","",""
"null","","html-keyboard-response","533","621250","0.0-6.0-1.104","","<img src=""img/pink-r.png"">","null","trial","null","","0.2,0.8","4:nogo_d","1",""
"null","","html-keyboard-response","534","622251","0.0-6.0-2.104","","<div style=""font-size:60px;"">+</div>","null","","","","","","",""
"null","","image-keyboard-response","535","623753","0.0-6.0-0.105","","img/red.png","null","trial","null","true","0.2,0.8","2:nogo_b","",""
"null","","html-keyboard-response","536","624755","0.0-6.0-1.105","","<img src=""img/red-n.png"">","null","trial","null","","0.2,0.8","2:nogo_b","0",""
"null","","html-keyboard-response","537","625757","0.0-6.0-2.105","","<div style=""font-size:60px;"">+</div>","null","","","","","","",""
"677.1900000002934","","image-keyboard-response","538","626435","0.0-6.0-0.106","","img/green.png","32","trial","32","true","0.8,0.2","3:go_c","",""
"null","","html-keyboard-response","539","627437","0.0-6.0-1.106","","<img src=""img/green-n.png"" border=""10"">","null","trial","32","","0.8,0.2","3:go_c","0",""
"null","","html-keyboard-response","540","628438","0.0-6.0-2.106","","<div style=""font-size:60px;"">+</div>","null","","","","","","",""
"421.03500000038184","","image-keyboard-response","541","628861","0.0-6.0-0.107","","img/grey.png","32","trial","32","true","0.8,0.2","1:go_a","",""
"null","","html-keyboard-response","542","629863","0.0-6.0-1.107","","<img src=""img/grey-r.png"" border=""10"">","null","trial","32","","0.8,0.2","1:go_a","1",""
"null","","html-keyboard-response","543","630864","0.0-6.0-2.107","","<div style=""font-size:60px;"">+</div>","null","","","","","","",""
"898.1250000006985","","image-keyboard-response","544","631763","0.0-6.0-0.108","","img/grey.png","32","trial","32","true","0.8,0.2","1:go_a","",""
"null","","html-keyboard-response","545","632765","0.0-6.0-1.108","","<img src=""img/grey-r.png"" border=""10"">","null","trial","32","","0.8,0.2","1:go_a","1",""
"null","","html-keyboard-response","546","633767","0.0-6.0-2.108","","<div style=""font-size:60px;"">+</div>","null","","","","","","",""
"815.475000000326","","image-keyboard-response","547","634583","0.0-6.0-0.109","","img/green.png","32","trial","32","true","0.8,0.2","3:go_c","",""
"null","","html-keyboard-response","548","635585","0.0-6.0-1.109","","<img src=""img/green-r.png"" border=""10"">","null","trial","32","","0.8,0.2","3:go_c","1",""
"null","","html-keyboard-response","549","636587","0.0-6.0-2.109","","<div style=""font-size:60px;"">+</div>","null","","","","","","",""
"null","","image-keyboard-response","550","638088","0.0-6.0-0.110","","img/pink.png","null","trial","null","true","0.2,0.8","4:nogo_d","",""
"null","","html-keyboard-response","551","639091","0.0-6.0-1.110","","<img src=""img/pink-r.png"">","null","trial","null","","0.2,0.8","4:nogo_d","1",""
"null","","html-keyboard-response","552","640092","0.0-6.0-2.110","","<div style=""font-size:60px;"">+</div>","null","","","","","","",""
"null","","image-keyboard-response","553","641593","0.0-6.0-0.111","","img/red.png","null","trial","null","true","0.2,0.8","2:nogo_b","",""
"null","","html-keyboard-response","554","642595","0.0-6.0-1.111","","<img src=""img/red-r.png"">","null","trial","null","","0.2,0.8","2:nogo_b","1",""
"null","","html-keyboard-response","555","643596","0.0-6.0-2.111","","<div style=""font-size:60px;"">+</div>","null","","","","","","",""
"null","","image-keyboard-response","556","645098","0.0-6.0-0.112","","img/red.png","null","trial","null","true","0.2,0.8","2:nogo_b","",""
"null","","html-keyboard-response","557","646100","0.0-6.0-1.112","","<img src=""img/red-r.png"">","null","trial","null","","0.2,0.8","2:nogo_b","1",""
"null","","html-keyboard-response","558","647101","0.0-6.0-2.112","","<div style=""font-size:60px;"">+</div>","null","","","","","","",""
"418.429999999702","","image-keyboard-response","559","647521","0.0-6.0-0.113","","img/green.png","32","trial","32","true","0.8,0.2","3:go_c","",""
"null","","html-keyboard-response","560","648524","0.0-6.0-1.113","","<img src=""img/green-r.png"" border=""10"">","null","trial","32","","0.8,0.2","3:go_c","1",""
"null","","html-keyboard-response","561","649525","0.0-6.0-2.113","","<div style=""font-size:60px;"">+</div>","null","","","","","","",""
"495.0699999999488","","image-keyboard-response","562","650022","0.0-6.0-0.114","","img/grey.png","32","trial","32","true","0.8,0.2","1:go_a","",""
"null","","html-keyboard-response","563","651024","0.0-6.0-1.114","","<img src=""img/grey-n.png"" border=""10"">","null","trial","32","","0.8,0.2","1:go_a","0",""
"null","","html-keyboard-response","564","652025","0.0-6.0-2.114","","<div style=""font-size:60px;"">+</div>","null","","","","","","",""
"null","","image-keyboard-response","565","653527","0.0-6.0-0.115","","img/pink.png","null","trial","null","true","0.2,0.8","4:nogo_d","",""
"null","","html-keyboard-response","566","654529","0.0-6.0-1.115","","<img src=""img/pink-r.png"">","null","trial","null","","0.2,0.8","4:nogo_d","1",""
"null","","html-keyboard-response","567","655530","0.0-6.0-2.115","","<div style=""font-size:60px;"">+</div>","null","","","","","","",""
"null","","image-keyboard-response","568","657032","0.0-6.0-0.116","","img/red.png","null","trial","null","true","0.2,0.8","2:nogo_b","",""
"null","","html-keyboard-response","569","658034","0.0-6.0-1.116","","<img src=""img/red-r.png"">","null","trial","null","","0.2,0.8","2:nogo_b","1",""
"null","","html-keyboard-response","570","659036","0.0-6.0-2.116","","<div style=""font-size:60px;"">+</div>","null","","","","","","",""
"null","","image-keyboard-response","571","660538","0.0-6.0-0.117","","img/pink.png","null","trial","null","true","0.2,0.8","4:nogo_d","",""
"null","","html-keyboard-response","572","661541","0.0-6.0-1.117","","<img src=""img/pink-r.png"">","null","trial","null","","0.2,0.8","4:nogo_d","1",""
"null","","html-keyboard-response","573","662542","0.0-6.0-2.117","","<div style=""font-size:60px;"">+</div>","null","","","","","","",""
"448.3399999999674","","image-keyboard-response","574","662991","0.0-6.0-0.118","","img/green.png","32","trial","32","true","0.8,0.2","3:go_c","",""
"null","","html-keyboard-response","575","663994","0.0-6.0-1.118","","<img src=""img/green-r.png"" border=""10"">","null","trial","32","","0.8,0.2","3:go_c","1",""
"null","","html-keyboard-response","576","664995","0.0-6.0-2.118","","<div style=""font-size:60px;"">+</div>","null","","","","","","",""
"640.0400000002701","","image-keyboard-response","577","665636","0.0-6.0-0.119","","img/grey.png","32","trial","32","true","0.8,0.2","1:go_a","",""
"null","","html-keyboard-response","578","666638","0.0-6.0-1.119","","<img src=""img/grey-r.png"" border=""10"">","null","trial","32","","0.8,0.2","1:go_a","1",""
"null","","html-keyboard-response","579","667640","0.0-6.0-2.119","","<div style=""font-size:60px;"">+</div>","null","","","","","","",""
"269059.18999999994","","instructions","580","936699","0.0-7.0","[{""page_index"":0,""viewing_time"":269058.53500000015}]","","","","","","","","",""
"844.1400000001304","","image-keyboard-response","581","937546","0.0-8.0-0.0","","img/grey.png","32","trial","32","true","0.8,0.2","1:go_a","",""
"null","","html-keyboard-response","582","938548","0.0-8.0-1.0","","<img src=""img/grey-r.png"" border=""10"">","null","trial","32","","0.8,0.2","1:go_a","1",""
"null","","html-keyboard-response","583","939550","0.0-8.0-2.0","","<div style=""font-size:60px;"">+</div>","null","","","","","","",""
"271.05500000016764","","image-keyboard-response","584","939822","0.0-8.0-0.1","","img/orange.png","32","trial","32","true","1,0","3:go_c","",""
"null","","html-keyboard-response","585","940826","0.0-8.0-1.1","","<img src=""img/orange-r.png"" border=""10"">","null","trial","32","","1,0","3:go_c","1",""
"null","","html-keyboard-response","586","941828","0.0-8.0-2.1","","<div style=""font-size:60px;"">+</div>","null","","","","","","",""
"237.72999999986496","","image-keyboard-response","587","942066","0.0-8.0-0.2","","img/blue.png","32","trial","null","false","0.2,0.8","2:nogo_b","",""
"null","","html-keyboard-response","588","943069","0.0-8.0-1.2","","<img src=""img/blue-n.png"" border=""10"">","null","trial","null","","0.2,0.8","2:nogo_b","0",""
"null","","html-keyboard-response","589","944070","0.0-8.0-2.2","","<div style=""font-size:60px;"">+</div>","null","","","","","","",""
"237.79999999993015","","image-keyboard-response","590","944309","0.0-8.0-0.3","","img/purple.png","32","trial","null","false","0,1","4:nogo_d","",""
"null","","html-keyboard-response","591","945311","0.0-8.0-1.3","","<img src=""img/purple-n.png"" border=""10"">","null","trial","null","","0,1","4:nogo_d","0",""
"null","","html-keyboard-response","592","946312","0.0-8.0-2.3","","<div style=""font-size:60px;"">+</div>","null","","","","","","",""
"340.63499999966007","","image-keyboard-response","593","946654","0.0-8.0-0.4","","img/purple.png","32","trial","null","false","0,1","4:nogo_d","",""
"null","","html-keyboard-response","594","947656","0.0-8.0-1.4","","<img src=""img/purple-n.png"" border=""10"">","null","trial","null","","0,1","4:nogo_d","0",""
"null","","html-keyboard-response","595","948657","0.0-8.0-2.4","","<div style=""font-size:60px;"">+</div>","null","","","","","","",""
"1218.9049999996787","","image-keyboard-response","596","949878","0.0-8.0-0.5","","img/blue.png","32","trial","null","false","0.2,0.8","2:nogo_b","",""
"null","","html-keyboard-response","597","950880","0.0-8.0-1.5","","<img src=""img/blue-r.png"" border=""10"">","null","trial","null","","0.2,0.8","2:nogo_b","1",""
"null","","html-keyboard-response","598","951881","0.0-8.0-2.5","","<div style=""font-size:60px;"">+</div>","null","","","","","","",""
"531.8449999995064","","image-keyboard-response","599","952415","0.0-8.0-0.6","","img/grey.png","32","trial","32","true","0.8,0.2","1:go_a","",""
"null","","html-keyboard-response","600","953418","0.0-8.0-1.6","","<img src=""img/grey-r.png"" border=""10"">","null","trial","32","","0.8,0.2","1:go_a","1",""
"null","","html-keyboard-response","601","954419","0.0-8.0-2.6","","<div style=""font-size:60px;"">+</div>","null","","","","","","",""
"351.3800000001211","","image-keyboard-response","602","954772","0.0-8.0-0.7","","img/orange.png","32","trial","32","true","1,0","3:go_c","",""
"null","","html-keyboard-response","603","955774","0.0-8.0-1.7","","<img src=""img/orange-r.png"" border=""10"">","null","trial","32","","1,0","3:go_c","1",""
"null","","html-keyboard-response","604","956775","0.0-8.0-2.7","","<div style=""font-size:60px;"">+</div>","null","","","","","","",""
"434.5300000003772","","image-keyboard-response","605","957211","0.0-8.0-0.8","","img/blue.png","32","trial","null","false","0.2,0.8","2:nogo_b","",""
"null","","html-keyboard-response","606","958213","0.0-8.0-1.8","","<img src=""img/blue-n.png"" border=""10"">","null","trial","null","","0.2,0.8","2:nogo_b","0",""
"null","","html-keyboard-response","607","959215","0.0-8.0-2.8","","<div style=""font-size:60px;"">+</div>","null","","","","","","",""
"367.3050000006333","","image-keyboard-response","608","959583","0.0-8.0-0.9","","img/grey.png","32","trial","32","true","0.8,0.2","1:go_a","",""
"null","","html-keyboard-response","609","960585","0.0-8.0-1.9","","<img src=""img/grey-n.png"" border=""10"">","null","trial","32","","0.8,0.2","1:go_a","0",""
"null","","html-keyboard-response","610","961586","0.0-8.0-2.9","","<div style=""font-size:60px;"">+</div>","null","","","","","","",""
"250.56500000029337","","image-keyboard-response","611","961839","0.0-8.0-0.10","","img/purple.png","32","trial","null","false","0,1","4:nogo_d","",""
"null","","html-keyboard-response","612","962840","0.0-8.0-1.10","","<img src=""img/purple-n.png"" border=""10"">","null","trial","null","","0,1","4:nogo_d","0",""
"null","","html-keyboard-response","613","963842","0.0-8.0-2.10","","<div style=""font-size:60px;"">+</div>","null","","","","","","",""
"326.7550000001211","","image-keyboard-response","614","964170","0.0-8.0-0.11","","img/orange.png","32","trial","32","true","1,0","3:go_c","",""
"null","","html-keyboard-response","615","965173","0.0-8.0-1.11","","<img src=""img/orange-r.png"" border=""10"">","null","trial","32","","1,0","3:go_c","1",""
"null","","html-keyboard-response","616","966173","0.0-8.0-2.11","","<div style=""font-size:60px;"">+</div>","null","","","","","","",""
"281.85000000032596","","image-keyboard-response","617","966456","0.0-8.0-0.12","","img/purple.png","32","trial","null","false","0,1","4:nogo_d","",""
"null","","html-keyboard-response","618","967458","0.0-8.0-1.12","","<img src=""img/purple-n.png"" border=""10"">","null","trial","null","","0,1","4:nogo_d","0",""
"null","","html-keyboard-response","619","968460","0.0-8.0-2.12","","<div style=""font-size:60px;"">+</div>","null","","","","","","",""
"336.9800000000978","","image-keyboard-response","620","968798","0.0-8.0-0.13","","img/grey.png","32","trial","32","true","0.8,0.2","1:go_a","",""
"null","","html-keyboard-response","621","969800","0.0-8.0-1.13","","<img src=""img/grey-n.png"" border=""10"">","null","trial","32","","0.8,0.2","1:go_a","0",""
"null","","html-keyboard-response","622","970801","0.0-8.0-2.13","","<div style=""font-size:60px;"">+</div>","null","","","","","","",""
"274.27499999979045","","image-keyboard-response","623","971077","0.0-8.0-0.14","","img/orange.png","32","trial","32","true","1,0","3:go_c","",""
"null","","html-keyboard-response","624","972079","0.0-8.0-1.14","","<img src=""img/orange-r.png"" border=""10"">","null","trial","32","","1,0","3:go_c","1",""
"null","","html-keyboard-response","625","973081","0.0-8.0-2.14","","<div style=""font-size:60px;"">+</div>","null","","","","","","",""
"485.06999999983236","","image-keyboard-response","626","973567","0.0-8.0-0.15","","img/blue.png","32","trial","null","false","0.2,0.8","2:nogo_b","",""
"null","","html-keyboard-response","627","974569","0.0-8.0-1.15","","<img src=""img/blue-n.png"" border=""10"">","null","trial","null","","0.2,0.8","2:nogo_b","0",""
"null","","html-keyboard-response","628","975570","0.0-8.0-2.15","","<div style=""font-size:60px;"">+</div>","null","","","","","","",""
"null","","image-keyboard-response","629","977072","0.0-8.0-0.16","","img/blue.png","null","trial","null","true","0.2,0.8","2:nogo_b","",""
"null","","html-keyboard-response","630","978074","0.0-8.0-1.16","","<img src=""img/blue-r.png"">","null","trial","null","","0.2,0.8","2:nogo_b","1",""
"null","","html-keyboard-response","631","979075","0.0-8.0-2.16","","<div style=""font-size:60px;"">+</div>","null","","","","","","",""
"null","","image-keyboard-response","632","980577","0.0-8.0-0.17","","img/purple.png","null","trial","null","true","0,1","4:nogo_d","",""
"null","","html-keyboard-response","633","981579","0.0-8.0-1.17","","<img src=""img/purple-r.png"">","null","trial","null","","0,1","4:nogo_d","1",""
"null","","html-keyboard-response","634","982580","0.0-8.0-2.17","","<div style=""font-size:60px;"">+</div>","null","","","","","","",""
"null","","image-keyboard-response","635","984081","0.0-8.0-0.18","","img/grey.png","null","trial","32","false","0.8,0.2","1:go_a","",""
"null","","html-keyboard-response","636","985084","0.0-8.0-1.18","","<img src=""img/grey-n.png"">","null","trial","32","","0.8,0.2","1:go_a","0",""
"null","","html-keyboard-response","637","986086","0.0-8.0-2.18","","<div style=""font-size:60px;"">+</div>","null","","","","","","",""
"565.7650000003632","","image-keyboard-response","638","986653","0.0-8.0-0.19","","img/orange.png","32","trial","32","true","1,0","3:go_c","",""
"null","","html-keyboard-response","639","987654","0.0-8.0-1.19","","<img src=""img/orange-r.png"" border=""10"">","null","trial","32","","1,0","3:go_c","1",""
"null","","html-keyboard-response","640","988656","0.0-8.0-2.19","","<div style=""font-size:60px;"">+</div>","null","","","","","","",""
"null","","image-keyboard-response","641","990158","0.0-8.0-0.20","","img/purple.png","null","trial","null","true","0,1","4:nogo_d","",""
"null","","html-keyboard-response","642","991159","0.0-8.0-1.20","","<img src=""img/purple-r.png"">","null","trial","null","","0,1","4:nogo_d","1",""
"null","","html-keyboard-response","643","992161","0.0-8.0-2.20","","<div style=""font-size:60px;"">+</div>","null","","","","","","",""
"579.8450000002049","","image-keyboard-response","644","992742","0.0-8.0-0.21","","img/orange.png","32","trial","32","true","1,0","3:go_c","",""
"null","","html-keyboard-response","645","993744","0.0-8.0-1.21","","<img src=""img/orange-r.png"" border=""10"">","null","trial","32","","1,0","3:go_c","1",""
"null","","html-keyboard-response","646","994745","0.0-8.0-2.21","","<div style=""font-size:60px;"">+</div>","null","","","","","","",""
"null","","image-keyboard-response","647","996248","0.0-8.0-0.22","","img/blue.png","null","trial","null","true","0.2,0.8","2:nogo_b","",""
"null","","html-keyboard-response","648","997250","0.0-8.0-1.22","","<img src=""img/blue-r.png"">","null","trial","null","","0.2,0.8","2:nogo_b","1",""
"null","","html-keyboard-response","649","998251","0.0-8.0-2.22","","<div style=""font-size:60px;"">+</div>","null","","","","","","",""
"419.23500000021886","","image-keyboard-response","650","998672","0.0-8.0-0.23","","img/grey.png","32","trial","32","true","0.8,0.2","1:go_a","",""
"null","","html-keyboard-response","651","999674","0.0-8.0-1.23","","<img src=""img/grey-r.png"" border=""10"">","null","trial","32","","0.8,0.2","1:go_a","1",""
"null","","html-keyboard-response","652","1000675","0.0-8.0-2.23","","<div style=""font-size:60px;"">+</div>","null","","","","","","",""
"null","","image-keyboard-response","653","1002177","0.0-8.0-0.24","","img/purple.png","null","trial","null","true","0,1","4:nogo_d","",""
"null","","html-keyboard-response","654","1003180","0.0-8.0-1.24","","<img src=""img/purple-r.png"">","null","trial","null","","0,1","4:nogo_d","1",""
"null","","html-keyboard-response","655","1004181","0.0-8.0-2.24","","<div style=""font-size:60px;"">+</div>","null","","","","","","",""
"412.84499999985565","","image-keyboard-response","656","1004595","0.0-8.0-0.25","","img/grey.png","32","trial","32","true","0.8,0.2","1:go_a","",""
"null","","html-keyboard-response","657","1005597","0.0-8.0-1.25","","<img src=""img/grey-r.png"" border=""10"">","null","trial","32","","0.8,0.2","1:go_a","1",""
"null","","html-keyboard-response","658","1006598","0.0-8.0-2.25","","<div style=""font-size:60px;"">+</div>","null","","","","","","",""
"405.3450000000885","","image-keyboard-response","659","1007005","0.0-8.0-0.26","","img/orange.png","32","trial","32","true","1,0","3:go_c","",""
"null","","html-keyboard-response","660","1008007","0.0-8.0-1.26","","<img src=""img/orange-r.png"" border=""10"">","null","trial","32","","1,0","3:go_c","1",""
"null","","html-keyboard-response","661","1009008","0.0-8.0-2.26","","<div style=""font-size:60px;"">+</div>","null","","","","","","",""
"null","","image-keyboard-response","662","1010509","0.0-8.0-0.27","","img/blue.png","null","trial","null","true","0.2,0.8","2:nogo_b","",""
"null","","html-keyboard-response","663","1011511","0.0-8.0-1.27","","<img src=""img/blue-n.png"">","null","trial","null","","0.2,0.8","2:nogo_b","0",""
"null","","html-keyboard-response","664","1012512","0.0-8.0-2.27","","<div style=""font-size:60px;"">+</div>","null","","","","","","",""
"null","","image-keyboard-response","665","1014014","0.0-8.0-0.28","","img/blue.png","null","trial","null","true","0.2,0.8","2:nogo_b","",""
"null","","html-keyboard-response","666","1015016","0.0-8.0-1.28","","<img src=""img/blue-r.png"">","null","trial","null","","0.2,0.8","2:nogo_b","1",""
"null","","html-keyboard-response","667","1016018","0.0-8.0-2.28","","<div style=""font-size:60px;"">+</div>","null","","","","","","",""
"null","","image-keyboard-response","668","1017519","0.0-8.0-0.29","","img/purple.png","null","trial","null","true","0,1","4:nogo_d","",""
"null","","html-keyboard-response","669","1018521","0.0-8.0-1.29","","<img src=""img/purple-r.png"">","null","trial","null","","0,1","4:nogo_d","1",""
"null","","html-keyboard-response","670","1019522","0.0-8.0-2.29","","<div style=""font-size:60px;"">+</div>","null","","","","","","",""
"548.2449999999953","","image-keyboard-response","671","1020072","0.0-8.0-0.30","","img/grey.png","32","trial","32","true","0.8,0.2","1:go_a","",""
"null","","html-keyboard-response","672","1021074","0.0-8.0-1.30","","<img src=""img/grey-r.png"" border=""10"">","null","trial","32","","0.8,0.2","1:go_a","1",""
"null","","html-keyboard-response","673","1022076","0.0-8.0-2.30","","<div style=""font-size:60px;"">+</div>","null","","","","","","",""
"892.6900000005262","","image-keyboard-response","674","1022970","0.0-8.0-0.31","","img/orange.png","32","trial","32","true","1,0","3:go_c","",""
"null","","html-keyboard-response","675","1023972","0.0-8.0-1.31","","<img src=""img/orange-r.png"" border=""10"">","null","trial","32","","1,0","3:go_c","1",""
"null","","html-keyboard-response","676","1024973","0.0-8.0-2.31","","<div style=""font-size:60px;"">+</div>","null","","","","","","",""
"785.6599999995669","","image-keyboard-response","677","1025760","0.0-8.0-0.32","","img/orange.png","32","trial","32","true","1,0","3:go_c","",""
"null","","html-keyboard-response","678","1026763","0.0-8.0-1.32","","<img src=""img/orange-r.png"" border=""10"">","null","trial","32","","1,0","3:go_c","1",""
"null","","html-keyboard-response","679","1027765","0.0-8.0-2.32","","<div style=""font-size:60px;"">+</div>","null","","","","","","",""
"381.21999999927357","","image-keyboard-response","680","1028147","0.0-8.0-0.33","","img/grey.png","32","trial","32","true","0.8,0.2","1:go_a","",""
"null","","html-keyboard-response","681","1029149","0.0-8.0-1.33","","<img src=""img/grey-r.png"" border=""10"">","null","trial","32","","0.8,0.2","1:go_a","1",""
