"rt","url","trial_type","trial_index","time_elapsed","internal_node_id","view_history","stimulus","key_press","test_part","correct_response","correct","use_rew","which_stim","reward","responses"
"2728056.225000002","consent.html","external-html","0","2728148","0.0-0.0","","","","","","","","","",""
"2053627.209999999","","instructions","1","4781778","0.0-1.0","[{""page_index"":0,""viewing_time"":2474.0699999965727},{""page_index"":1,""viewing_time"":21115.975000001024},{""page_index"":2,""viewing_time"":23991.60499999905},{""page_index"":3,""viewing_time"":28623.83000000054},{""page_index"":4,""viewing_time"":12800.265000001527},{""page_index"":5,""viewing_time"":7506.245000000577},{""page_index"":6,""viewing_time"":1957112.1649999982}]","","","","","","","","",""
"null","","image-keyboard-response","2","4783283","0.0-2.0-0.0","","img/test2.PNG","null","practice","null","true","","","",""
"null","","html-keyboard-response","3","4784284","0.0-2.0-1.0","","<img src=""img/test2-reward.PNG"">","null","","","","","","",""
"null","","html-keyboard-response","4","4785286","0.0-2.0-2.0","","<div style=""font-size:60px;"">+</div>","null","","","","","","",""
"null","","image-keyboard-response","5","4786788","0.0-2.0-0.1","","img/test3.PNG","null","practice","null","true","","","",""
"null","","html-keyboard-response","6","4787789","0.0-2.0-1.1","","<img src=""img/test3-reward.PNG"">","null","","","","","","",""
"null","","html-keyboard-response","7","4788790","0.0-2.0-2.1","","<div style=""font-size:60px;"">+</div>","null","","","","","","",""
"995.5650000013411","","image-keyboard-response","8","4789789","0.0-2.0-0.2","","img/test1.PNG","32","practice","32","true","","","",""
"null","","html-keyboard-response","9","4790792","0.0-2.0-1.2","","<img src=""img/test1-reward.PNG"" border=""10px; grey"">","null","","","","","","",""
"null","","html-keyboard-response","10","4791794","0.0-2.0-2.2","","<div style=""font-size:60px;"">+</div>","null","","","","","","",""
"null","","image-keyboard-response","11","4793295","0.0-2.0-0.3","","img/test2.PNG","null","practice","null","true","","","",""
"null","","html-keyboard-response","12","4794297","0.0-2.0-1.3","","<img src=""img/test2-reward.PNG"">","null","","","","","","",""
"null","","html-keyboard-response","13","4795298","0.0-2.0-2.3","","<div style=""font-size:60px;"">+</div>","null","","","","","","",""
"null","","image-keyboard-response","14","4796799","0.0-2.0-0.4","","img/test3.PNG","null","practice","null","true","","","",""
"null","","html-keyboard-response","15","4797801","0.0-2.0-1.4","","<img src=""img/test3-reward.PNG"">","null","","","","","","",""
"null","","html-keyboard-response","16","4798802","0.0-2.0-2.4","","<div style=""font-size:60px;"">+</div>","null","","","","","","",""
"470.93999999947846","","image-keyboard-response","17","4799274","0.0-2.0-0.5","","img/test1.PNG","32","practice","32","true","","","",""
"null","","html-keyboard-response","18","4800277","0.0-2.0-1.5","","<img src=""img/test1-reward.PNG"" border=""10px; grey"">","null","","","","","","",""
"null","","html-keyboard-response","19","4801278","0.0-2.0-2.5","","<div style=""font-size:60px;"">+</div>","null","","","","","","",""
"594.8400000017136","","image-keyboard-response","20","4801874","0.0-2.0-0.6","","img/test1.PNG","32","practice","32","true","","","",""
"null","","html-keyboard-response","21","4802876","0.0-2.0-1.6","","<img src=""img/test1-reward.PNG"" border=""10px; grey"">","null","","","","","","",""
"null","","html-keyboard-response","22","4803876","0.0-2.0-2.6","","<div style=""font-size:60px;"">+</div>","null","","","","","","",""
"null","","image-keyboard-response","23","4805378","0.0-2.0-0.7","","img/test3.PNG","null","practice","null","true","","","",""
"null","","html-keyboard-response","24","4806380","0.0-2.0-1.7","","<img src=""img/test3-reward.PNG"">","null","","","","","","",""
"null","","html-keyboard-response","25","4807380","0.0-2.0-2.7","","<div style=""font-size:60px;"">+</div>","null","","","","","","",""
"null","","image-keyboard-response","26","4808882","0.0-2.0-0.8","","img/test2.PNG","null","practice","null","true","","","",""
"null","","html-keyboard-response","27","4809883","0.0-2.0-1.8","","<img src=""img/test2-reward.PNG"">","null","","","","","","",""
"null","","html-keyboard-response","28","4810884","0.0-2.0-2.8","","<div style=""font-size:60px;"">+</div>","null","","","","","","",""
"null","","image-keyboard-response","29","4812386","0.0-2.0-0.9","","img/test2.PNG","null","practice","null","true","","","",""
"null","","html-keyboard-response","30","4813388","0.0-2.0-1.9","","<img src=""img/test2-reward.PNG"">","null","","","","","","",""
"null","","html-keyboard-response","31","4814389","0.0-2.0-2.9","","<div style=""font-size:60px;"">+</div>","null","","","","","","",""
"null","","image-keyboard-response","32","4815890","0.0-2.0-0.10","","img/test3.PNG","null","practice","null","true","","","",""
"null","","html-keyboard-response","33","4816892","0.0-2.0-1.10","","<img src=""img/test3-reward.PNG"">","null","","","","","","",""
"null","","html-keyboard-response","34","4817893","0.0-2.0-2.10","","<div style=""font-size:60px;"">+</div>","null","","","","","","",""
"427.33499999996275","","image-keyboard-response","35","4818322","0.0-2.0-0.11","","img/test1.PNG","32","practice","32","true","","","",""
"null","","html-keyboard-response","36","4819323","0.0-2.0-1.11","","<img src=""img/test1-reward.PNG"" border=""10px; grey"">","null","","","","","","",""
"null","","html-keyboard-response","37","4820324","0.0-2.0-2.11","","<div style=""font-size:60px;"">+</div>","null","","","","","","",""
"12542.494999997318","","instructions","38","4832867","0.0-3.0","[{""page_index"":0,""viewing_time"":12542.199999999255}]","","","","","","","","",""
"null","","image-keyboard-response","39","4834370","0.0-4.0-0.0","","img/grey.png","null","trial","32","false","0.8,0.2","1:go_a","",""
"null","","html-keyboard-response","40","4835374","0.0-4.0-1.0","","<img src=""img/grey-n.png"">","null","trial","32","","0.8,0.2","1:go_a","0",""
"null","","html-keyboard-response","41","4836375","0.0-4.0-2.0","","<div style=""font-size:60px;"">+</div>","null","","","","","","",""
"null","","image-keyboard-response","42","4837877","0.0-4.0-0.1","","img/pink.png","null","trial","null","true","0.2,0.8","2:nogo_b","",""
"null","","html-keyboard-response","43","4838879","0.0-4.0-1.1","","<img src=""img/pink-n.png"">","null","trial","null","","0.2,0.8","2:nogo_b","0",""
"null","","html-keyboard-response","44","4839880","0.0-4.0-2.1","","<div style=""font-size:60px;"">+</div>","null","","","","","","",""
"null","","image-keyboard-response","45","4841381","0.0-4.0-0.2","","img/grey.png","null","trial","32","false","0.8,0.2","1:go_a","",""
"null","","html-keyboard-response","46","4842384","0.0-4.0-1.2","","<img src=""img/grey-n.png"">","null","trial","32","","0.8,0.2","1:go_a","0",""
"null","","html-keyboard-response","47","4843385","0.0-4.0-2.2","","<div style=""font-size:60px;"">+</div>","null","","","","","","",""
"604.4399999985471","","image-keyboard-response","48","4843991","0.0-4.0-0.3","","img/pink.png","32","trial","null","false","0.2,0.8","2:nogo_b","",""
"null","","html-keyboard-response","49","4844993","0.0-4.0-1.3","","<img src=""img/pink-n.png"" border=""10"">","null","trial","null","","0.2,0.8","2:nogo_b","0",""
"null","","html-keyboard-response","50","4845994","0.0-4.0-2.3","","<div style=""font-size:60px;"">+</div>","null","","","","","","",""
"919.4499999973923","","image-keyboard-response","51","4846915","0.0-4.0-0.4","","img/pink.png","32","trial","null","false","0.2,0.8","2:nogo_b","",""
"null","","html-keyboard-response","52","4847917","0.0-4.0-1.4","","<img src=""img/pink-r.png"" border=""10"">","null","trial","null","","0.2,0.8","2:nogo_b","1",""
"null","","html-keyboard-response","53","4848918","0.0-4.0-2.4","","<div style=""font-size:60px;"">+</div>","null","","","","","","",""
"881.9199999999255","","image-keyboard-response","54","4849801","0.0-4.0-0.5","","img/grey.png","32","trial","32","true","0.8,0.2","1:go_a","",""
"null","","html-keyboard-response","55","4850804","0.0-4.0-1.5","","<img src=""img/grey-r.png"" border=""10"">","null","trial","32","","0.8,0.2","1:go_a","1",""
"null","","html-keyboard-response","56","4851805","0.0-4.0-2.5","","<div style=""font-size:60px;"">+</div>","null","","","","","","",""
"509.43500000052154","","image-keyboard-response","57","4852316","0.0-4.0-0.6","","img/grey.png","32","trial","32","true","0.8,0.2","1:go_a","",""
"null","","html-keyboard-response","58","4853318","0.0-4.0-1.6","","<img src=""img/grey-r.png"" border=""10"">","null","trial","32","","0.8,0.2","1:go_a","1",""
"null","","html-keyboard-response","59","4854320","0.0-4.0-2.6","","<div style=""font-size:60px;"">+</div>","null","","","","","","",""
"370.32000000216067","","image-keyboard-response","60","4854691","0.0-4.0-0.7","","img/pink.png","32","trial","null","false","0.2,0.8","2:nogo_b","",""
"null","","html-keyboard-response","61","4855693","0.0-4.0-1.7","","<img src=""img/pink-n.png"" border=""10"">","null","trial","null","","0.2,0.8","2:nogo_b","0",""
"null","","html-keyboard-response","62","4856694","0.0-4.0-2.7","","<div style=""font-size:60px;"">+</div>","null","","","","","","",""
"458.0349999992177","","image-keyboard-response","63","4857153","0.0-4.0-0.8","","img/grey.png","32","trial","32","true","0.8,0.2","1:go_a","",""
"null","","html-keyboard-response","64","4858156","0.0-4.0-1.8","","<img src=""img/grey-r.png"" border=""10"">","null","trial","32","","0.8,0.2","1:go_a","1",""
"null","","html-keyboard-response","65","4859157","0.0-4.0-2.8","","<div style=""font-size:60px;"">+</div>","null","","","","","","",""
"769.1349999988452","","image-keyboard-response","66","4859927","0.0-4.0-0.9","","img/pink.png","32","trial","null","false","0.2,0.8","2:nogo_b","",""
"null","","html-keyboard-response","67","4860929","0.0-4.0-1.9","","<img src=""img/pink-n.png"" border=""10"">","null","trial","null","","0.2,0.8","2:nogo_b","0",""
"null","","html-keyboard-response","68","4861930","0.0-4.0-2.9","","<div style=""font-size:60px;"">+</div>","null","","","","","","",""
"442.48999999742955","","image-keyboard-response","69","4862374","0.0-4.0-0.10","","img/pink.png","32","trial","null","false","0.2,0.8","2:nogo_b","",""
"null","","html-keyboard-response","70","4863390","0.0-4.0-1.10","","<img src=""img/pink-n.png"" border=""10"">","null","trial","null","","0.2,0.8","2:nogo_b","0",""
"null","","html-keyboard-response","71","4864392","0.0-4.0-2.10","","<div style=""font-size:60px;"">+</div>","null","","","","","","",""
"353.94500000216067","","image-keyboard-response","72","4864747","0.0-4.0-0.11","","img/grey.png","32","trial","32","true","0.8,0.2","1:go_a","",""
"null","","html-keyboard-response","73","4865749","0.0-4.0-1.11","","<img src=""img/grey-r.png"" border=""10"">","null","trial","32","","0.8,0.2","1:go_a","1",""
"null","","html-keyboard-response","74","4866750","0.0-4.0-2.11","","<div style=""font-size:60px;"">+</div>","null","","","","","","",""
"421.64499999862164","","image-keyboard-response","75","4867173","0.0-4.0-0.12","","img/grey.png","32","trial","32","true","0.8,0.2","1:go_a","",""
"null","","html-keyboard-response","76","4868175","0.0-4.0-1.12","","<img src=""img/grey-r.png"" border=""10"">","null","trial","32","","0.8,0.2","1:go_a","1",""
"null","","html-keyboard-response","77","4869176","0.0-4.0-2.12","","<div style=""font-size:60px;"">+</div>","null","","","","","","",""
"466.82499999925494","","image-keyboard-response","78","4869644","0.0-4.0-0.13","","img/pink.png","32","trial","null","false","0.2,0.8","2:nogo_b","",""
"null","","html-keyboard-response","79","4870647","0.0-4.0-1.13","","<img src=""img/pink-n.png"" border=""10"">","null","trial","null","","0.2,0.8","2:nogo_b","0",""
"null","","html-keyboard-response","80","4871648","0.0-4.0-2.13","","<div style=""font-size:60px;"">+</div>","null","","","","","","",""
"430.56499999854714","","image-keyboard-response","81","4872080","0.0-4.0-0.14","","img/grey.png","32","trial","32","true","0.8,0.2","1:go_a","",""
"null","","html-keyboard-response","82","4873082","0.0-4.0-1.14","","<img src=""img/grey-r.png"" border=""10"">","null","trial","32","","0.8,0.2","1:go_a","1",""
"null","","html-keyboard-response","83","4874084","0.0-4.0-2.14","","<div style=""font-size:60px;"">+</div>","null","","","","","","",""
"null","","image-keyboard-response","84","4875585","0.0-4.0-0.15","","img/pink.png","null","trial","null","true","0.2,0.8","2:nogo_b","",""
"null","","html-keyboard-response","85","4876587","0.0-4.0-1.15","","<img src=""img/pink-r.png"">","null","trial","null","","0.2,0.8","2:nogo_b","1",""
"null","","html-keyboard-response","86","4877588","0.0-4.0-2.15","","<div style=""font-size:60px;"">+</div>","null","","","","","","",""
"null","","image-keyboard-response","87","4879090","0.0-4.0-0.16","","img/pink.png","null","trial","null","true","0.2,0.8","2:nogo_b","",""
"null","","html-keyboard-response","88","4880091","0.0-4.0-1.16","","<img src=""img/pink-n.png"">","null","trial","null","","0.2,0.8","2:nogo_b","0",""
"null","","html-keyboard-response","89","4881093","0.0-4.0-2.16","","<div style=""font-size:60px;"">+</div>","null","","","","","","",""
"463.9449999993667","","image-keyboard-response","90","4881558","0.0-4.0-0.17","","img/grey.png","32","trial","32","true","0.8,0.2","1:go_a","",""
"null","","html-keyboard-response","91","4882560","0.0-4.0-1.17","","<img src=""img/grey-n.png"" border=""10"">","null","trial","32","","0.8,0.2","1:go_a","0",""
"null","","html-keyboard-response","92","4883561","0.0-4.0-2.17","","<div style=""font-size:60px;"">+</div>","null","","","","","","",""
"454.67500000074506","","image-keyboard-response","93","4884017","0.0-4.0-0.18","","img/grey.png","32","trial","32","true","0.8,0.2","1:go_a","",""
"null","","html-keyboard-response","94","4885019","0.0-4.0-1.18","","<img src=""img/grey-r.png"" border=""10"">","null","trial","32","","0.8,0.2","1:go_a","1",""
"null","","html-keyboard-response","95","4886020","0.0-4.0-2.18","","<div style=""font-size:60px;"">+</div>","null","","","","","","",""
"723.0649999985471","","image-keyboard-response","96","4886745","0.0-4.0-0.19","","img/pink.png","32","trial","null","false","0.2,0.8","2:nogo_b","",""
"null","","html-keyboard-response","97","4887746","0.0-4.0-1.19","","<img src=""img/pink-n.png"" border=""10"">","null","trial","null","","0.2,0.8","2:nogo_b","0",""
"null","","html-keyboard-response","98","4888748","0.0-4.0-2.19","","<div style=""font-size:60px;"">+</div>","null","","","","","","",""
"null","","image-keyboard-response","99","4890249","0.0-4.0-0.20","","img/grey.png","null","trial","32","false","0.8,0.2","1:go_a","",""
"null","","html-keyboard-response","100","4891251","0.0-4.0-1.20","","<img src=""img/grey-n.png"">","null","trial","32","","0.8,0.2","1:go_a","0",""
"null","","html-keyboard-response","101","4892253","0.0-4.0-2.20","","<div style=""font-size:60px;"">+</div>","null","","","","","","",""
"null","","image-keyboard-response","102","4893754","0.0-4.0-0.21","","img/pink.png","null","trial","null","true","0.2,0.8","2:nogo_b","",""
"null","","html-keyboard-response","103","4894756","0.0-4.0-1.21","","<img src=""img/pink-r.png"">","null","trial","null","","0.2,0.8","2:nogo_b","1",""
"null","","html-keyboard-response","104","4895757","0.0-4.0-2.21","","<div style=""font-size:60px;"">+</div>","null","","","","","","",""
"438.3449999988079","","image-keyboard-response","105","4896197","0.0-4.0-0.22","","img/grey.png","32","trial","32","true","0.8,0.2","1:go_a","",""
"null","","html-keyboard-response","106","4897199","0.0-4.0-1.22","","<img src=""img/grey-r.png"" border=""10"">","null","trial","32","","0.8,0.2","1:go_a","1",""
"null","","html-keyboard-response","107","4898199","0.0-4.0-2.22","","<div style=""font-size:60px;"">+</div>","null","","","","","","",""
"null","","image-keyboard-response","108","4899701","0.0-4.0-0.23","","img/pink.png","null","trial","null","true","0.2,0.8","2:nogo_b","",""
"null","","html-keyboard-response","109","4900703","0.0-4.0-1.23","","<img src=""img/pink-r.png"">","null","trial","null","","0.2,0.8","2:nogo_b","1",""
"null","","html-keyboard-response","110","4901704","0.0-4.0-2.23","","<div style=""font-size:60px;"">+</div>","null","","","","","","",""
"317.90500000026077","","image-keyboard-response","111","4902023","0.0-4.0-0.24","","img/grey.png","32","trial","32","true","0.8,0.2","1:go_a","",""
"null","","html-keyboard-response","112","4903025","0.0-4.0-1.24","","<img src=""img/grey-r.png"" border=""10"">","null","trial","32","","0.8,0.2","1:go_a","1",""
"null","","html-keyboard-response","113","4904027","0.0-4.0-2.24","","<div style=""font-size:60px;"">+</div>","null","","","","","","",""
"null","","image-keyboard-response","114","4905529","0.0-4.0-0.25","","img/pink.png","null","trial","null","true","0.2,0.8","2:nogo_b","",""
"null","","html-keyboard-response","115","4906531","0.0-4.0-1.25","","<img src=""img/pink-r.png"">","null","trial","null","","0.2,0.8","2:nogo_b","1",""
"null","","html-keyboard-response","116","4907533","0.0-4.0-2.25","","<div style=""font-size:60px;"">+</div>","null","","","","","","",""
"294.62000000011176","","image-keyboard-response","117","4907829","0.0-4.0-0.26","","img/grey.png","32","trial","32","true","0.8,0.2","1:go_a","",""
"null","","html-keyboard-response","118","4908831","0.0-4.0-1.26","","<img src=""img/grey-r.png"" border=""10"">","null","trial","32","","0.8,0.2","1:go_a","1",""
"null","","html-keyboard-response","119","4909832","0.0-4.0-2.26","","<div style=""font-size:60px;"">+</div>","null","","","","","","",""
"null","","image-keyboard-response","120","4911334","0.0-4.0-0.27","","img/pink.png","null","trial","null","true","0.2,0.8","2:nogo_b","",""
"null","","html-keyboard-response","121","4912336","0.0-4.0-1.27","","<img src=""img/pink-r.png"">","null","trial","null","","0.2,0.8","2:nogo_b","1",""
"null","","html-keyboard-response","122","4913338","0.0-4.0-2.27","","<div style=""font-size:60px;"">+</div>","null","","","","","","",""
"null","","image-keyboard-response","123","4914839","0.0-4.0-0.28","","img/pink.png","null","trial","null","true","0.2,0.8","2:nogo_b","",""
"null","","html-keyboard-response","124","4915841","0.0-4.0-1.28","","<img src=""img/pink-n.png"">","null","trial","null","","0.2,0.8","2:nogo_b","0",""
"null","","html-keyboard-response","125","4916842","0.0-4.0-2.28","","<div style=""font-size:60px;"">+</div>","null","","","","","","",""
"358.77500000037253","","image-keyboard-response","126","4917202","0.0-4.0-0.29","","img/grey.png","32","trial","32","true","0.8,0.2","1:go_a","",""
"null","","html-keyboard-response","127","4918204","0.0-4.0-1.29","","<img src=""img/grey-r.png"" border=""10"">","null","trial","32","","0.8,0.2","1:go_a","1",""
"null","","html-keyboard-response","128","4919205","0.0-4.0-2.29","","<div style=""font-size:60px;"">+</div>","null","","","","","","",""
"null","","image-keyboard-response","129","4920707","0.0-4.0-0.30","","img/pink.png","null","trial","null","true","0.2,0.8","2:nogo_b","",""
"null","","html-keyboard-response","130","4921709","0.0-4.0-1.30","","<img src=""img/pink-r.png"">","null","trial","null","","0.2,0.8","2:nogo_b","1",""
"null","","html-keyboard-response","131","4922710","0.0-4.0-2.30","","<div style=""font-size:60px;"">+</div>","null","","","","","","",""
"405.9899999992922","","image-keyboard-response","132","4923117","0.0-4.0-0.31","","img/grey.png","32","trial","32","true","0.8,0.2","1:go_a","",""
"null","","html-keyboard-response","133","4924120","0.0-4.0-1.31","","<img src=""img/grey-r.png"" border=""10"">","null","trial","32","","0.8,0.2","1:go_a","1",""
"null","","html-keyboard-response","134","4925121","0.0-4.0-2.31","","<div style=""font-size:60px;"">+</div>","null","","","","","","",""
"481.5300000011921","","image-keyboard-response","135","4925604","0.0-4.0-0.32","","img/grey.png","32","trial","32","true","0.8,0.2","1:go_a","",""
"null","","html-keyboard-response","136","4926606","0.0-4.0-1.32","","<img src=""img/grey-r.png"" border=""10"">","null","trial","32","","0.8,0.2","1:go_a","1",""
"null","","html-keyboard-response","137","4927607","0.0-4.0-2.32","","<div style=""font-size:60px;"">+</div>","null","","","","","","",""
"null","","image-keyboard-response","138","4929108","0.0-4.0-0.33","","img/pink.png","null","trial","null","true","0.2,0.8","2:nogo_b","",""
"null","","html-keyboard-response","139","4930110","0.0-4.0-1.33","","<img src=""img/pink-n.png"">","null","trial","null","","0.2,0.8","2:nogo_b","0",""
"null","","html-keyboard-response","140","4931111","0.0-4.0-2.33","","<div style=""font-size:60px;"">+</div>","null","","","","","","",""
"null","","image-keyboard-response","141","4932613","0.0-4.0-0.34","","img/pink.png","null","trial","null","true","0.2,0.8","2:nogo_b","",""
"null","","html-keyboard-response","142","4933615","0.0-4.0-1.34","","<img src=""img/pink-r.png"">","null","trial","null","","0.2,0.8","2:nogo_b","1",""
"null","","html-keyboard-response","143","4934616","0.0-4.0-2.34","","<div style=""font-size:60px;"">+</div>","null","","","","","","",""
"387.3649999992922","","image-keyboard-response","144","4935004","0.0-4.0-0.35","","img/grey.png","32","trial","32","true","0.8,0.2","1:go_a","",""
"null","","html-keyboard-response","145","4936007","0.0-4.0-1.35","","<img src=""img/grey-r.png"" border=""10"">","null","trial","32","","0.8,0.2","1:go_a","1",""
"null","","html-keyboard-response","146","4937009","0.0-4.0-2.35","","<div style=""font-size:60px;"">+</div>","null","","","","","","",""
"706.8899999978021","","image-keyboard-response","147","4937716","0.0-4.0-0.36","","img/grey.png","32","trial","32","true","0.8,0.2","1:go_a","",""
"null","","html-keyboard-response","148","4938719","0.0-4.0-1.36","","<img src=""img/grey-r.png"" border=""10"">","null","trial","32","","0.8,0.2","1:go_a","1",""
"null","","html-keyboard-response","149","4939720","0.0-4.0-2.36","","<div style=""font-size:60px;"">+</div>","null","","","","","","",""
"null","","image-keyboard-response","150","4941221","0.0-4.0-0.37","","img/pink.png","null","trial","null","true","0.2,0.8","2:nogo_b","",""
"null","","html-keyboard-response","151","4942223","0.0-4.0-1.37","","<img src=""img/pink-r.png"">","null","trial","null","","0.2,0.8","2:nogo_b","1",""
"null","","html-keyboard-response","152","4943224","0.0-4.0-2.37","","<div style=""font-size:60px;"">+</div>","null","","","","","","",""
"null","","image-keyboard-response","153","4944725","0.0-4.0-0.38","","img/pink.png","null","trial","null","true","0.2,0.8","2:nogo_b","",""
"null","","html-keyboard-response","154","4945728","0.0-4.0-1.38","","<img src=""img/pink-r.png"">","null","trial","null","","0.2,0.8","2:nogo_b","1",""
"null","","html-keyboard-response","155","4946730","0.0-4.0-2.38","","<div style=""font-size:60px;"">+</div>","null","","","","","","",""
"485.07999999821186","","image-keyboard-response","156","4947217","0.0-4.0-0.39","","img/grey.png","32","trial","32","true","0.8,0.2","1:go_a","",""
"null","","html-keyboard-response","157","4948219","0.0-4.0-1.39","","<img src=""img/grey-r.png"" border=""10"">","null","trial","32","","0.8,0.2","1:go_a","1",""
"null","","html-keyboard-response","158","4949220","0.0-4.0-2.39","","<div style=""font-size:60px;"">+</div>","null","","","","","","",""
"604.7800000011921","","image-keyboard-response","159","4949826","0.0-4.0-0.40","","img/grey.png","32","trial","32","true","0.8,0.2","1:go_a","",""
"null","","html-keyboard-response","160","4950828","0.0-4.0-1.40","","<img src=""img/grey-r.png"" border=""10"">","null","trial","32","","0.8,0.2","1:go_a","1",""
"null","","html-keyboard-response","161","4951830","0.0-4.0-2.40","","<div style=""font-size:60px;"">+</div>","null","","","","","","",""
"null","","image-keyboard-response","162","4953331","0.0-4.0-0.41","","img/pink.png","null","trial","null","true","0.2,0.8","2:nogo_b","",""
"null","","html-keyboard-response","163","4954334","0.0-4.0-1.41","","<img src=""img/pink-r.png"">","null","trial","null","","0.2,0.8","2:nogo_b","1",""
"null","","html-keyboard-response","164","4955335","0.0-4.0-2.41","","<div style=""font-size:60px;"">+</div>","null","","","","","","",""
"387.96999999973923","","image-keyboard-response","165","4955724","0.0-4.0-0.42","","img/grey.png","32","trial","32","true","0.8,0.2","1:go_a","",""
"null","","html-keyboard-response","166","4956726","0.0-4.0-1.42","","<img src=""img/grey-n.png"" border=""10"">","null","trial","32","","0.8,0.2","1:go_a","0",""
"null","","html-keyboard-response","167","4957727","0.0-4.0-2.42","","<div style=""font-size:60px;"">+</div>","null","","","","","","",""
"null","","image-keyboard-response","168","4959230","0.0-4.0-0.43","","img/pink.png","null","trial","null","true","0.2,0.8","2:nogo_b","",""
"null","","html-keyboard-response","169","4960232","0.0-4.0-1.43","","<img src=""img/pink-r.png"">","null","trial","null","","0.2,0.8","2:nogo_b","1",""
"null","","html-keyboard-response","170","4961233","0.0-4.0-2.43","","<div style=""font-size:60px;"">+</div>","null","","","","","","",""
"null","","image-keyboard-response","171","4962735","0.0-4.0-0.44","","img/pink.png","null","trial","null","true","0.2,0.8","2:nogo_b","",""
"null","","html-keyboard-response","172","4963736","0.0-4.0-1.44","","<img src=""img/pink-n.png"">","null","trial","null","","0.2,0.8","2:nogo_b","0",""
"null","","html-keyboard-response","173","4964737","0.0-4.0-2.44","","<div style=""font-size:60px;"">+</div>","null","","","","","","",""
"374.6450000004843","","image-keyboard-response","174","4965113","0.0-4.0-0.45","","img/grey.png","32","trial","32","true","0.8,0.2","1:go_a","",""
"null","","html-keyboard-response","175","4966116","0.0-4.0-1.45","","<img src=""img/grey-r.png"" border=""10"">","null","trial","32","","0.8,0.2","1:go_a","1",""
"null","","html-keyboard-response","176","4967116","0.0-4.0-2.45","","<div style=""font-size:60px;"">+</div>","null","","","","","","",""
"null","","image-keyboard-response","177","4968618","0.0-4.0-0.46","","img/pink.png","null","trial","null","true","0.2,0.8","2:nogo_b","",""
"null","","html-keyboard-response","178","4969620","0.0-4.0-1.46","","<img src=""img/pink-r.png"">","null","trial","null","","0.2,0.8","2:nogo_b","1",""
"null","","html-keyboard-response","179","4970621","0.0-4.0-2.46","","<div style=""font-size:60px;"">+</div>","null","","","","","","",""
"354.4650000007823","","image-keyboard-response","180","4970977","0.0-4.0-0.47","","img/grey.png","32","trial","32","true","0.8,0.2","1:go_a","",""
"null","","html-keyboard-response","181","4971979","0.0-4.0-1.47","","<img src=""img/grey-r.png"" border=""10"">","null","trial","32","","0.8,0.2","1:go_a","1",""
"null","","html-keyboard-response","182","4972980","0.0-4.0-2.47","","<div style=""font-size:60px;"">+</div>","null","","","","","","",""
"480.5699999993667","","image-keyboard-response","183","4973462","0.0-4.0-0.48","","img/grey.png","32","trial","32","true","0.8,0.2","1:go_a","",""
"null","","html-keyboard-response","184","4974464","0.0-4.0-1.48","","<img src=""img/grey-r.png"" border=""10"">","null","trial","32","","0.8,0.2","1:go_a","1",""
"null","","html-keyboard-response","185","4975466","0.0-4.0-2.48","","<div style=""font-size:60px;"">+</div>","null","","","","","","",""
"null","","image-keyboard-response","186","4976967","0.0-4.0-0.49","","img/pink.png","null","trial","null","true","0.2,0.8","2:nogo_b","",""
"null","","html-keyboard-response","187","4977969","0.0-4.0-1.49","","<img src=""img/pink-r.png"">","null","trial","null","","0.2,0.8","2:nogo_b","1",""
"null","","html-keyboard-response","188","4978970","0.0-4.0-2.49","","<div style=""font-size:60px;"">+</div>","null","","","","","","",""
"417.4950000019744","","image-keyboard-response","189","4979389","0.0-4.0-0.50","","img/grey.png","32","trial","32","true","0.8,0.2","1:go_a","",""
"null","","html-keyboard-response","190","4980392","0.0-4.0-1.50","","<img src=""img/grey-n.png"" border=""10"">","null","trial","32","","0.8,0.2","1:go_a","0",""
"null","","html-keyboard-response","191","4981393","0.0-4.0-2.50","","<div style=""font-size:60px;"">+</div>","null","","","","","","",""
"null","","image-keyboard-response","192","4982895","0.0-4.0-0.51","","img/pink.png","null","trial","null","true","0.2,0.8","2:nogo_b","",""
"null","","html-keyboard-response","193","4983896","0.0-4.0-1.51","","<img src=""img/pink-r.png"">","null","trial","null","","0.2,0.8","2:nogo_b","1",""
"null","","html-keyboard-response","194","4984897","0.0-4.0-2.51","","<div style=""font-size:60px;"">+</div>","null","","","","","","",""
"309.7600000007078","","image-keyboard-response","195","4985209","0.0-4.0-0.52","","img/grey.png","32","trial","32","true","0.8,0.2","1:go_a","",""
"null","","html-keyboard-response","196","4986211","0.0-4.0-1.52","","<img src=""img/grey-r.png"" border=""10"">","null","trial","32","","0.8,0.2","1:go_a","1",""
"null","","html-keyboard-response","197","4987212","0.0-4.0-2.52","","<div style=""font-size:60px;"">+</div>","null","","","","","","",""
"null","","image-keyboard-response","198","4988713","0.0-4.0-0.53","","img/pink.png","null","trial","null","true","0.2,0.8","2:nogo_b","",""
"null","","html-keyboard-response","199","4989715","0.0-4.0-1.53","","<img src=""img/pink-r.png"">","null","trial","null","","0.2,0.8","2:nogo_b","1",""
"null","","html-keyboard-response","200","4990716","0.0-4.0-2.53","","<div style=""font-size:60px;"">+</div>","null","","","","","","",""
"580.6699999999255","","image-keyboard-response","201","4991298","0.0-4.0-0.54","","img/grey.png","32","trial","32","true","0.8,0.2","1:go_a","",""
"null","","html-keyboard-response","202","4992300","0.0-4.0-1.54","","<img src=""img/grey-r.png"" border=""10"">","null","trial","32","","0.8,0.2","1:go_a","1",""
"null","","html-keyboard-response","203","4993301","0.0-4.0-2.54","","<div style=""font-size:60px;"">+</div>","null","","","","","","",""
"null","","image-keyboard-response","204","4994802","0.0-4.0-0.55","","img/pink.png","null","trial","null","true","0.2,0.8","2:nogo_b","",""
"null","","html-keyboard-response","205","4995804","0.0-4.0-1.55","","<img src=""img/pink-r.png"">","null","trial","null","","0.2,0.8","2:nogo_b","1",""
"null","","html-keyboard-response","206","4996806","0.0-4.0-2.55","","<div style=""font-size:60px;"">+</div>","null","","","","","","",""
"null","","image-keyboard-response","207","4998307","0.0-4.0-0.56","","img/pink.png","null","trial","null","true","0.2,0.8","2:nogo_b","",""
"null","","html-keyboard-response","208","4999309","0.0-4.0-1.56","","<img src=""img/pink-r.png"">","null","trial","null","","0.2,0.8","2:nogo_b","1",""
"null","","html-keyboard-response","209","5000310","0.0-4.0-2.56","","<div style=""font-size:60px;"">+</div>","null","","","","","","",""
"274.46999999973923","","image-keyboard-response","210","5000586","0.0-4.0-0.57","","img/grey.png","32","trial","32","true","0.8,0.2","1:go_a","",""
"null","","html-keyboard-response","211","5001589","0.0-4.0-1.57","","<img src=""img/grey-r.png"" border=""10"">","null","trial","32","","0.8,0.2","1:go_a","1",""
"null","","html-keyboard-response","212","5002590","0.0-4.0-2.57","","<div style=""font-size:60px;"">+</div>","null","","","","","","",""
"378.8500000005588","","image-keyboard-response","213","5002970","0.0-4.0-0.58","","img/grey.png","32","trial","32","true","0.8,0.2","1:go_a","",""
"null","","html-keyboard-response","214","5003972","0.0-4.0-1.58","","<img src=""img/grey-r.png"" border=""10"">","null","trial","32","","0.8,0.2","1:go_a","1",""
"null","","html-keyboard-response","215","5004974","0.0-4.0-2.58","","<div style=""font-size:60px;"">+</div>","null","","","","","","",""
"null","","image-keyboard-response","216","5006475","0.0-4.0-0.59","","img/pink.png","null","trial","null","true","0.2,0.8","2:nogo_b","",""
"null","","html-keyboard-response","217","5007477","0.0-4.0-1.59","","<img src=""img/pink-r.png"">","null","trial","null","","0.2,0.8","2:nogo_b","1",""
"null","","html-keyboard-response","218","5008479","0.0-4.0-2.59","","<div style=""font-size:60px;"">+</div>","null","","","","","","",""
"2104.584999997169","","instructions","219","5010584","0.0-5.0","[{""page_index"":0,""viewing_time"":2104.309999998659}]","","","","","","","","",""
"1183.0350000020117","","image-keyboard-response","220","5011769","0.0-6.0-0.0","","img/orange.png","32","trial","32","true","0.8,0.2","1:go_a","",""
"null","","html-keyboard-response","221","5012771","0.0-6.0-1.0","","<img src=""img/orange-r.png"" border=""10"">","null","trial","32","","0.8,0.2","1:go_a","1",""
"null","","html-keyboard-response","222","5013772","0.0-6.0-2.0","","<div style=""font-size:60px;"">+</div>","null","","","","","","",""
"460.2700000004843","","image-keyboard-response","223","5014233","0.0-6.0-0.1","","img/purple.png","32","trial","null","false","0.2,0.8","2:nogo_b","",""
"null","","html-keyboard-response","224","5015235","0.0-6.0-1.1","","<img src=""img/purple-n.png"" border=""10"">","null","trial","null","","0.2,0.8","2:nogo_b","0",""
"null","","html-keyboard-response","225","5016236","0.0-6.0-2.1","","<div style=""font-size:60px;"">+</div>","null","","","","","","",""
"535.6549999993294","","image-keyboard-response","226","5016773","0.0-6.0-0.2","","img/pink.png","32","trial","32","true","1,0","3:go_c","",""
"null","","html-keyboard-response","227","5017775","0.0-6.0-1.2","","<img src=""img/pink-r.png"" border=""10"">","null","trial","32","","1,0","3:go_c","1",""
"null","","html-keyboard-response","228","5018776","0.0-6.0-2.2","","<div style=""font-size:60px;"">+</div>","null","","","","","","",""
"622.8100000005215","","image-keyboard-response","229","5019400","0.0-6.0-0.3","","img/grey.png","32","trial","null","false","0,1","4:nogo_d","",""
"null","","html-keyboard-response","230","5020402","0.0-6.0-1.3","","<img src=""img/grey-n.png"" border=""10"">","null","trial","null","","0,1","4:nogo_d","0",""
"null","","html-keyboard-response","231","5021403","0.0-6.0-2.3","","<div style=""font-size:60px;"">+</div>","null","","","","","","",""
"909.2450000019744","","image-keyboard-response","232","5022314","0.0-6.0-0.4","","img/purple.png","32","trial","null","false","0.2,0.8","2:nogo_b","",""
"null","","html-keyboard-response","233","5023316","0.0-6.0-1.4","","<img src=""img/purple-n.png"" border=""10"">","null","trial","null","","0.2,0.8","2:nogo_b","0",""
"null","","html-keyboard-response","234","5024317","0.0-6.0-2.4","","<div style=""font-size:60px;"">+</div>","null","","","","","","",""
"null","","image-keyboard-response","235","5025819","0.0-6.0-0.5","","img/grey.png","null","trial","null","true","0,1","4:nogo_d","",""
"null","","html-keyboard-response","236","5026822","0.0-6.0-1.5","","<img src=""img/grey-r.png"">","null","trial","null","","0,1","4:nogo_d","1",""
"null","","html-keyboard-response","237","5027823","0.0-6.0-2.5","","<div style=""font-size:60px;"">+</div>","null","","","","","","",""
"376.49500000011176","","image-keyboard-response","238","5028200","0.0-6.0-0.6","","img/pink.png","32","trial","32","true","1,0","3:go_c","",""
"null","","html-keyboard-response","239","5029202","0.0-6.0-1.6","","<img src=""img/pink-r.png"" border=""10"">","null","trial","32","","1,0","3:go_c","1",""
"null","","html-keyboard-response","240","5030203","0.0-6.0-2.6","","<div style=""font-size:60px;"">+</div>","null","","","","","","",""
"356.9300000015646","","image-keyboard-response","241","5030561","0.0-6.0-0.7","","img/orange.png","32","trial","32","true","0.8,0.2","1:go_a","",""
"null","","html-keyboard-response","242","5031563","0.0-6.0-1.7","","<img src=""img/orange-r.png"" border=""10"">","null","trial","32","","0.8,0.2","1:go_a","1",""
"null","","html-keyboard-response","243","5032564","0.0-6.0-2.7","","<div style=""font-size:60px;"">+</div>","null","","","","","","",""
"357.8899999987334","","image-keyboard-response","244","5032923","0.0-6.0-0.8","","img/pink.png","32","trial","32","true","1,0","3:go_c","",""
"null","","html-keyboard-response","245","5033925","0.0-6.0-1.8","","<img src=""img/pink-r.png"" border=""10"">","null","trial","32","","1,0","3:go_c","1",""
"null","","html-keyboard-response","246","5034926","0.0-6.0-2.8","","<div style=""font-size:60px;"">+</div>","null","","","","","","",""
"535.8349999990314","","image-keyboard-response","247","5035464","0.0-6.0-0.9","","img/orange.png","32","trial","32","true","0.8,0.2","1:go_a","",""
"null","","html-keyboard-response","248","5036466","0.0-6.0-1.9","","<img src=""img/orange-r.png"" border=""10"">","null","trial","32","","0.8,0.2","1:go_a","1",""
"null","","html-keyboard-response","249","5037467","0.0-6.0-2.9","","<div style=""font-size:60px;"">+</div>","null","","","","","","",""
"null","","image-keyboard-response","250","5038969","0.0-6.0-0.10","","img/purple.png","null","trial","null","true","0.2,0.8","2:nogo_b","",""
"null","","html-keyboard-response","251","5039971","0.0-6.0-1.10","","<img src=""img/purple-r.png"">","null","trial","null","","0.2,0.8","2:nogo_b","1",""
"null","","html-keyboard-response","252","5040972","0.0-6.0-2.10","","<div style=""font-size:60px;"">+</div>","null","","","","","","",""
"null","","image-keyboard-response","253","5042474","0.0-6.0-0.11","","img/grey.png","null","trial","null","true","0,1","4:nogo_d","",""
"null","","html-keyboard-response","254","5043476","0.0-6.0-1.11","","<img src=""img/grey-r.png"">","null","trial","null","","0,1","4:nogo_d","1",""
"null","","html-keyboard-response","255","5044477","0.0-6.0-2.11","","<div style=""font-size:60px;"">+</div>","null","","","","","","",""
"null","","image-keyboard-response","256","5045978","0.0-6.0-0.12","","img/grey.png","null","trial","null","true","0,1","4:nogo_d","",""
"null","","html-keyboard-response","257","5046981","0.0-6.0-1.12","","<img src=""img/grey-r.png"">","null","trial","null","","0,1","4:nogo_d","1",""
"null","","html-keyboard-response","258","5047982","0.0-6.0-2.12","","<div style=""font-size:60px;"">+</div>","null","","","","","","",""
"336.84999999962747","","image-keyboard-response","259","5048320","0.0-6.0-0.13","","img/pink.png","32","trial","32","true","1,0","3:go_c","",""
"null","","html-keyboard-response","260","5049322","0.0-6.0-1.13","","<img src=""img/pink-r.png"" border=""10"">","null","trial","32","","1,0","3:go_c","1",""
"null","","html-keyboard-response","261","5050323","0.0-6.0-2.13","","<div style=""font-size:60px;"">+</div>","null","","","","","","",""
"376.7450000019744","","image-keyboard-response","262","5050701","0.0-6.0-0.14","","img/orange.png","32","trial","32","true","0.8,0.2","1:go_a","",""
"null","","html-keyboard-response","263","5051704","0.0-6.0-1.14","","<img src=""img/orange-r.png"" border=""10"">","null","trial","32","","0.8,0.2","1:go_a","1",""
"null","","html-keyboard-response","264","5052705","0.0-6.0-2.14","","<div style=""font-size:60px;"">+</div>","null","","","","","","",""
"null","","image-keyboard-response","265","5054207","0.0-6.0-0.15","","img/purple.png","null","trial","null","true","0.2,0.8","2:nogo_b","",""
"null","","html-keyboard-response","266","5055209","0.0-6.0-1.15","","<img src=""img/purple-r.png"">","null","trial","null","","0.2,0.8","2:nogo_b","1",""
"null","","html-keyboard-response","267","5056210","0.0-6.0-2.15","","<div style=""font-size:60px;"">+</div>","null","","","","","","",""
"441.1250000009313","","image-keyboard-response","268","5056653","0.0-6.0-0.16","","img/pink.png","32","trial","32","true","1,0","3:go_c","",""
"null","","html-keyboard-response","269","5057655","0.0-6.0-1.16","","<img src=""img/pink-r.png"" border=""10"">","null","trial","32","","1,0","3:go_c","1",""
"null","","html-keyboard-response","270","5058656","0.0-6.0-2.16","","<div style=""font-size:60px;"">+</div>","null","","","","","","",""
"null","","image-keyboard-response","271","5060158","0.0-6.0-0.17","","img/purple.png","null","trial","null","true","0.2,0.8","2:nogo_b","",""
"null","","html-keyboard-response","272","5061160","0.0-6.0-1.17","","<img src=""img/purple-r.png"">","null","trial","null","","0.2,0.8","2:nogo_b","1",""
"null","","html-keyboard-response","273","5062161","0.0-6.0-2.17","","<div style=""font-size:60px;"">+</div>","null","","","","","","",""
"344.7999999988824","","image-keyboard-response","274","5062507","0.0-6.0-0.18","","img/orange.png","32","trial","32","true","0.8,0.2","1:go_a","",""
"null","","html-keyboard-response","275","5063510","0.0-6.0-1.18","","<img src=""img/orange-r.png"" border=""10"">","null","trial","32","","0.8,0.2","1:go_a","1",""
"null","","html-keyboard-response","276","5064512","0.0-6.0-2.18","","<div style=""font-size:60px;"">+</div>","null","","","","","","",""
"null","","image-keyboard-response","277","5066013","0.0-6.0-0.19","","img/grey.png","null","trial","null","true","0,1","4:nogo_d","",""
"null","","html-keyboard-response","278","5067015","0.0-6.0-1.19","","<img src=""img/grey-r.png"">","null","trial","null","","0,1","4:nogo_d","1",""
"null","","html-keyboard-response","279","5068016","0.0-6.0-2.19","","<div style=""font-size:60px;"">+</div>","null","","","","","","",""
"374.3199999984354","","image-keyboard-response","280","5068391","0.0-6.0-0.20","","img/orange.png","32","trial","32","true","0.8,0.2","1:go_a","",""
"null","","html-keyboard-response","281","5069394","0.0-6.0-1.20","","<img src=""img/orange-n.png"" border=""10"">","null","trial","32","","0.8,0.2","1:go_a","0",""
"null","","html-keyboard-response","282","5070395","0.0-6.0-2.20","","<div style=""font-size:60px;"">+</div>","null","","","","","","",""
"null","","image-keyboard-response","283","5071897","0.0-6.0-0.21","","img/purple.png","null","trial","null","true","0.2,0.8","2:nogo_b","",""
"null","","html-keyboard-response","284","5072899","0.0-6.0-1.21","","<img src=""img/purple-r.png"">","null","trial","null","","0.2,0.8","2:nogo_b","1",""
"null","","html-keyboard-response","285","5073901","0.0-6.0-2.21","","<div style=""font-size:60px;"">+</div>","null","","","","","","",""
"363.2949999989942","","image-keyboard-response","286","5074265","0.0-6.0-0.22","","img/pink.png","32","trial","32","true","1,0","3:go_c","",""
"null","","html-keyboard-response","287","5075268","0.0-6.0-1.22","","<img src=""img/pink-r.png"" border=""10"">","null","trial","32","","1,0","3:go_c","1",""
"null","","html-keyboard-response","288","5076269","0.0-6.0-2.22","","<div style=""font-size:60px;"">+</div>","null","","","","","","",""
"null","","image-keyboard-response","289","5077771","0.0-6.0-0.23","","img/grey.png","null","trial","null","true","0,1","4:nogo_d","",""
"null","","html-keyboard-response","290","5078773","0.0-6.0-1.23","","<img src=""img/grey-r.png"">","null","trial","null","","0,1","4:nogo_d","1",""
"null","","html-keyboard-response","291","5079774","0.0-6.0-2.23","","<div style=""font-size:60px;"">+</div>","null","","","","","","",""
"null","","image-keyboard-response","292","5081276","0.0-6.0-0.24","","img/grey.png","null","trial","null","true","0,1","4:nogo_d","",""
"null","","html-keyboard-response","293","5082277","0.0-6.0-1.24","","<img src=""img/grey-r.png"">","null","trial","null","","0,1","4:nogo_d","1",""
"null","","html-keyboard-response","294","5083279","0.0-6.0-2.24","","<div style=""font-size:60px;"">+</div>","null","","","","","","",""
"300.0800000000745","","image-keyboard-response","295","5083580","0.0-6.0-0.25","","img/orange.png","32","trial","32","true","0.8,0.2","1:go_a","",""
"null","","html-keyboard-response","296","5084582","0.0-6.0-1.25","","<img src=""img/orange-r.png"" border=""10"">","null","trial","32","","0.8,0.2","1:go_a","1",""
"null","","html-keyboard-response","297","5085584","0.0-6.0-2.25","","<div style=""font-size:60px;"">+</div>","null","","","","","","",""
"null","","image-keyboard-response","298","5087085","0.0-6.0-0.26","","img/purple.png","null","trial","null","true","0.2,0.8","2:nogo_b","",""
"null","","html-keyboard-response","299","5088087","0.0-6.0-1.26","","<img src=""img/purple-r.png"">","null","trial","null","","0.2,0.8","2:nogo_b","1",""
"null","","html-keyboard-response","300","5089089","0.0-6.0-2.26","","<div style=""font-size:60px;"">+</div>","null","","","","","","",""
"361.99999999720603","","image-keyboard-response","301","5089452","0.0-6.0-0.27","","img/pink.png","32","trial","32","true","1,0","3:go_c","",""
"null","","html-keyboard-response","302","5090454","0.0-6.0-1.27","","<img src=""img/pink-r.png"" border=""10"">","null","trial","32","","1,0","3:go_c","1",""
"null","","html-keyboard-response","303","5091455","0.0-6.0-2.27","","<div style=""font-size:60px;"">+</div>","null","","","","","","",""
"null","","image-keyboard-response","304","5092957","0.0-6.0-0.28","","img/grey.png","null","trial","null","true","0,1","4:nogo_d","",""
"null","","html-keyboard-response","305","5093959","0.0-6.0-1.28","","<img src=""img/grey-r.png"">","null","trial","null","","0,1","4:nogo_d","1",""
"null","","html-keyboard-response","306","5094960","0.0-6.0-2.28","","<div style=""font-size:60px;"">+</div>","null","","","","","","",""
"559.4949999973178","","image-keyboard-response","307","5095521","0.0-6.0-0.29","","img/pink.png","32","trial","32","true","1,0","3:go_c","",""
"null","","html-keyboard-response","308","5096523","0.0-6.0-1.29","","<img src=""img/pink-r.png"" border=""10"">","null","trial","32","","1,0","3:go_c","1",""
"null","","html-keyboard-response","309","5097525","0.0-6.0-2.29","","<div style=""font-size:60px;"">+</div>","null","","","","","","",""
"1160.7799999983981","","image-keyboard-response","310","5098686","0.0-6.0-0.30","","img/orange.png","32","trial","32","true","0.8,0.2","1:go_a","",""
"null","","html-keyboard-response","311","5099688","0.0-6.0-1.30","","<img src=""img/orange-r.png"" border=""10"">","null","trial","32","","0.8,0.2","1:go_a","1",""
"null","","html-keyboard-response","312","5100689","0.0-6.0-2.30","","<div style=""font-size:60px;"">+</div>","null","","","","","","",""
"null","","image-keyboard-response","313","5102190","0.0-6.0-0.31","","img/purple.png","null","trial","null","true","0.2,0.8","2:nogo_b","",""
"null","","html-keyboard-response","314","5103192","0.0-6.0-1.31","","<img src=""img/purple-r.png"">","null","trial","null","","0.2,0.8","2:nogo_b","1",""
"null","","html-keyboard-response","315","5104194","0.0-6.0-2.31","","<div style=""font-size:60px;"">+</div>","null","","","","","","",""
"434.50999999884516","","image-keyboard-response","316","5104630","0.0-6.0-0.32","","img/orange.png","32","trial","32","true","0.8,0.2","1:go_a","",""
"null","","html-keyboard-response","317","5105632","0.0-6.0-1.32","","<img src=""img/orange-r.png"" border=""10"">","null","trial","32","","0.8,0.2","1:go_a","1",""
"null","","html-keyboard-response","318","5106633","0.0-6.0-2.32","","<div style=""font-size:60px;"">+</div>","null","","","","","","",""
"null","","image-keyboard-response","319","5108135","0.0-6.0-0.33","","img/purple.png","null","trial","null","true","0.2,0.8","2:nogo_b","",""
"null","","html-keyboard-response","320","5109138","0.0-6.0-1.33","","<img src=""img/purple-r.png"">","null","trial","null","","0.2,0.8","2:nogo_b","1",""
"null","","html-keyboard-response","321","5110139","0.0-6.0-2.33","","<div style=""font-size:60px;"">+</div>","null","","","","","","",""
"355.6199999982491","","image-keyboard-response","322","5110495","0.0-6.0-0.34","","img/pink.png","32","trial","32","true","1,0","3:go_c","",""
"null","","html-keyboard-response","323","5111497","0.0-6.0-1.34","","<img src=""img/pink-r.png"" border=""10"">","null","trial","32","","1,0","3:go_c","1",""
"null","","html-keyboard-response","324","5112499","0.0-6.0-2.34","","<div style=""font-size:60px;"">+</div>","null","","","","","","",""
"null","","image-keyboard-response","325","5114000","0.0-6.0-0.35","","img/grey.png","null","trial","null","true","0,1","4:nogo_d","",""
"null","","html-keyboard-response","326","5115002","0.0-6.0-1.35","","<img src=""img/grey-r.png"">","null","trial","null","","0,1","4:nogo_d","1",""
"null","","html-keyboard-response","327","5116003","0.0-6.0-2.35","","<div style=""font-size:60px;"">+</div>","null","","","","","","",""
"null","","image-keyboard-response","328","5117505","0.0-6.0-0.36","","img/grey.png","null","trial","null","true","0,1","4:nogo_d","",""
"null","","html-keyboard-response","329","5118507","0.0-6.0-1.36","","<img src=""img/grey-r.png"">","null","trial","null","","0,1","4:nogo_d","1",""
"null","","html-keyboard-response","330","5119508","0.0-6.0-2.36","","<div style=""font-size:60px;"">+</div>","null","","","","","","",""
"null","","image-keyboard-response","331","5121010","0.0-6.0-0.37","","img/purple.png","null","trial","null","true","0.2,0.8","2:nogo_b","",""
"null","","html-keyboard-response","332","5122012","0.0-6.0-1.37","","<img src=""img/purple-r.png"">","null","trial","null","","0.2,0.8","2:nogo_b","1",""
"null","","html-keyboard-response","333","5123013","0.0-6.0-2.37","","<div style=""font-size:60px;"">+</div>","null","","","","","","",""
"257.5050000017509","","image-keyboard-response","334","5123272","0.0-6.0-0.38","","img/orange.png","32","trial","32","true","0.8,0.2","1:go_a","",""
"null","","html-keyboard-response","335","5124273","0.0-6.0-1.38","","<img src=""img/orange-r.png"" border=""10"">","null","trial","32","","0.8,0.2","1:go_a","1",""
"null","","html-keyboard-response","336","5125275","0.0-6.0-2.38","","<div style=""font-size:60px;"">+</div>","null","","","","","","",""
"399.8549999995157","","image-keyboard-response","337","5125676","0.0-6.0-0.39","","img/pink.png","32","trial","32","true","1,0","3:go_c","",""
"null","","html-keyboard-response","338","5126678","0.0-6.0-1.39","","<img src=""img/pink-r.png"" border=""10"">","null","trial","32","","1,0","3:go_c","1",""
"null","","html-keyboard-response","339","5127679","0.0-6.0-2.39","","<div style=""font-size:60px;"">+</div>","null","","","","","","",""
"null","","image-keyboard-response","340","5129180","0.0-6.0-0.40","","img/purple.png","null","trial","null","true","0.2,0.8","2:nogo_b","",""
"null","","html-keyboard-response","341","5130183","0.0-6.0-1.40","","<img src=""img/purple-r.png"">","null","trial","null","","0.2,0.8","2:nogo_b","1",""
"null","","html-keyboard-response","342","5131183","0.0-6.0-2.40","","<div style=""font-size:60px;"">+</div>","null","","","","","","",""
"364.875","","image-keyboard-response","343","5131550","0.0-6.0-0.41","","img/orange.png","32","trial","32","true","0.8,0.2","1:go_a","",""
"null","","html-keyboard-response","344","5132552","0.0-6.0-1.41","","<img src=""img/orange-r.png"" border=""10"">","null","trial","32","","0.8,0.2","1:go_a","1",""
"null","","html-keyboard-response","345","5133554","0.0-6.0-2.41","","<div style=""font-size:60px;"">+</div>","null","","","","","","",""
"null","","image-keyboard-response","346","5135055","0.0-6.0-0.42","","img/grey.png","null","trial","null","true","0,1","4:nogo_d","",""
"null","","html-keyboard-response","347","5136057","0.0-6.0-1.42","","<img src=""img/grey-r.png"">","null","trial","null","","0,1","4:nogo_d","1",""
"null","","html-keyboard-response","348","5137058","0.0-6.0-2.42","","<div style=""font-size:60px;"">+</div>","null","","","","","","",""
"402.41500000003725","","image-keyboard-response","349","5137461","0.0-6.0-0.43","","img/pink.png","32","trial","32","true","1,0","3:go_c","",""
"null","","html-keyboard-response","350","5138464","0.0-6.0-1.43","","<img src=""img/pink-r.png"" border=""10"">","null","trial","32","","1,0","3:go_c","1",""
"null","","html-keyboard-response","351","5139465","0.0-6.0-2.43","","<div style=""font-size:60px;"">+</div>","null","","","","","","",""
"425.2050000000745","","image-keyboard-response","352","5139891","0.0-6.0-0.44","","img/pink.png","32","trial","32","true","1,0","3:go_c","",""
"null","","html-keyboard-response","353","5140893","0.0-6.0-1.44","","<img src=""img/pink-r.png"" border=""10"">","null","trial","32","","1,0","3:go_c","1",""
"null","","html-keyboard-response","354","5141894","0.0-6.0-2.44","","<div style=""font-size:60px;"">+</div>","null","","","","","","",""
"null","","image-keyboard-response","355","5143396","0.0-6.0-0.45","","img/grey.png","null","trial","null","true","0,1","4:nogo_d","",""
"null","","html-keyboard-response","356","5144398","0.0-6.0-1.45","","<img src=""img/grey-r.png"">","null","trial","null","","0,1","4:nogo_d","1",""
"null","","html-keyboard-response","357","5145399","0.0-6.0-2.45","","<div style=""font-size:60px;"">+</div>","null","","","","","","",""
"null","","image-keyboard-response","358","5146901","0.0-6.0-0.46","","img/purple.png","null","trial","null","true","0.2,0.8","2:nogo_b","",""
"null","","html-keyboard-response","359","5147903","0.0-6.0-1.46","","<img src=""img/purple-r.png"">","null","trial","null","","0.2,0.8","2:nogo_b","1",""
"null","","html-keyboard-response","360","5148904","0.0-6.0-2.46","","<div style=""font-size:60px;"">+</div>","null","","","","","","",""
"946.1049999985844","","image-keyboard-response","361","5149851","0.0-6.0-0.47","","img/orange.png","32","trial","32","true","0.8,0.2","1:go_a","",""
"null","","html-keyboard-response","362","5150853","0.0-6.0-1.47","","<img src=""img/orange-r.png"" border=""10"">","null","trial","32","","0.8,0.2","1:go_a","1",""
"null","","html-keyboard-response","363","5151854","0.0-6.0-2.47","","<div style=""font-size:60px;"">+</div>","null","","","","","","",""
"717.2800000002608","","image-keyboard-response","364","5152573","0.0-6.0-0.48","","img/orange.png","32","trial","32","true","0.8,0.2","1:go_a","",""
"null","","html-keyboard-response","365","5153575","0.0-6.0-1.48","","<img src=""img/orange-r.png"" border=""10"">","null","trial","32","","0.8,0.2","1:go_a","1",""
"null","","html-keyboard-response","366","5154577","0.0-6.0-2.48","","<div style=""font-size:60px;"">+</div>","null","","","","","","",""
"null","","image-keyboard-response","367","5156078","0.0-6.0-0.49","","img/purple.png","null","trial","null","true","0.2,0.8","2:nogo_b","",""
"null","","html-keyboard-response","368","5157080","0.0-6.0-1.49","","<img src=""img/purple-r.png"">","null","trial","null","","0.2,0.8","2:nogo_b","1",""
"null","","html-keyboard-response","369","5158081","0.0-6.0-2.49","","<div style=""font-size:60px;"">+</div>","null","","","","","","",""
"null","","image-keyboard-response","370","5159582","0.0-6.0-0.50","","img/grey.png","null","trial","null","true","0,1","4:nogo_d","",""
"null","","html-keyboard-response","371","5160584","0.0-6.0-1.50","","<img src=""img/grey-r.png"">","null","trial","null","","0,1","4:nogo_d","1",""
"null","","html-keyboard-response","372","5161585","0.0-6.0-2.50","","<div style=""font-size:60px;"">+</div>","null","","","","","","",""
"618.3400000017136","","image-keyboard-response","373","5162205","0.0-6.0-0.51","","img/pink.png","32","trial","32","true","1,0","3:go_c","",""
"null","","html-keyboard-response","374","5163207","0.0-6.0-1.51","","<img src=""img/pink-r.png"" border=""10"">","null","trial","32","","1,0","3:go_c","1",""
"null","","html-keyboard-response","375","5164208","0.0-6.0-2.51","","<div style=""font-size:60px;"">+</div>","null","","","","","","",""
"479.9850000021979","","image-keyboard-response","376","5164689","0.0-6.0-0.52","","img/pink.png","32","trial","32","true","1,0","3:go_c","",""
"null","","html-keyboard-response","377","5165691","0.0-6.0-1.52","","<img src=""img/pink-r.png"" border=""10"">","null","trial","32","","1,0","3:go_c","1",""
"null","","html-keyboard-response","378","5166693","0.0-6.0-2.52","","<div style=""font-size:60px;"">+</div>","null","","","","","","",""
"null","","image-keyboard-response","379","5168194","0.0-6.0-0.53","","img/grey.png","null","trial","null","true","0,1","4:nogo_d","",""
"null","","html-keyboard-response","380","5169196","0.0-6.0-1.53","","<img src=""img/grey-r.png"">","null","trial","null","","0,1","4:nogo_d","1",""
"null","","html-keyboard-response","381","5170197","0.0-6.0-2.53","","<div style=""font-size:60px;"">+</div>","null","","","","","","",""
"482.7450000010431","","image-keyboard-response","382","5170681","0.0-6.0-0.54","","img/orange.png","32","trial","32","true","0.8,0.2","1:go_a","",""
"null","","html-keyboard-response","383","5171683","0.0-6.0-1.54","","<img src=""img/orange-n.png"" border=""10"">","null","trial","32","","0.8,0.2","1:go_a","0",""
"null","","html-keyboard-response","384","5172684","0.0-6.0-2.54","","<div style=""font-size:60px;"">+</div>","null","","","","","","",""
"null","","image-keyboard-response","385","5174185","0.0-6.0-0.55","","img/purple.png","null","trial","null","true","0.2,0.8","2:nogo_b","",""
"null","","html-keyboard-response","386","5175187","0.0-6.0-1.55","","<img src=""img/purple-r.png"">","null","trial","null","","0.2,0.8","2:nogo_b","1",""
"null","","html-keyboard-response","387","5176189","0.0-6.0-2.55","","<div style=""font-size:60px;"">+</div>","null","","","","","","",""
"null","","image-keyboard-response","388","5177691","0.0-6.0-0.56","","img/purple.png","null","trial","null","true","0.2,0.8","2:nogo_b","",""
"null","","html-keyboard-response","389","5178693","0.0-6.0-1.56","","<img src=""img/purple-r.png"">","null","trial","null","","0.2,0.8","2:nogo_b","1",""
"null","","html-keyboard-response","390","5179694","0.0-6.0-2.56","","<div style=""font-size:60px;"">+</div>","null","","","","","","",""
"1421.0149999996647","","image-keyboard-response","391","5181117","0.0-6.0-0.57","","img/pink.png","32","trial","32","true","1,0","3:go_c","",""
"null","","html-keyboard-response","392","5182119","0.0-6.0-1.57","","<img src=""img/pink-r.png"" border=""10"">","null","trial","32","","1,0","3:go_c","1",""
"null","","html-keyboard-response","393","5183120","0.0-6.0-2.57","","<div style=""font-size:60px;"">+</div>","null","","","","","","",""
"700.4599999999627","","image-keyboard-response","394","5183822","0.0-6.0-0.58","","img/orange.png","32","trial","32","true","0.8,0.2","1:go_a","",""
"null","","html-keyboard-response","395","5184824","0.0-6.0-1.58","","<img src=""img/orange-r.png"" border=""10"">","null","trial","32","","0.8,0.2","1:go_a","1",""
"null","","html-keyboard-response","396","5185825","0.0-6.0-2.58","","<div style=""font-size:60px;"">+</div>","null","","","","","","",""
"null","","image-keyboard-response","397","5187326","0.0-6.0-0.59","","img/grey.png","null","trial","null","true","0,1","4:nogo_d","",""
"null","","html-keyboard-response","398","5188328","0.0-6.0-1.59","","<img src=""img/grey-r.png"">","null","trial","null","","0,1","4:nogo_d","1",""
"null","","html-keyboard-response","399","5189330","0.0-6.0-2.59","","<div style=""font-size:60px;"">+</div>","null","","","","","","",""
"440.01000000257045","","image-keyboard-response","400","5189771","0.0-6.0-0.60","","img/pink.png","32","trial","32","true","1,0","3:go_c","",""
"null","","html-keyboard-response","401","5190773","0.0-6.0-1.60","","<img src=""img/pink-r.png"" border=""10"">","null","trial","32","","1,0","3:go_c","1",""
"null","","html-keyboard-response","402","5191774","0.0-6.0-2.60","","<div style=""font-size:60px;"">+</div>","null","","","","","","",""
"null","","image-keyboard-response","403","5193275","0.0-6.0-0.61","","img/grey.png","null","trial","null","true","0,1","4:nogo_d","",""
"null","","html-keyboard-response","404","5194278","0.0-6.0-1.61","","<img src=""img/grey-r.png"">","null","trial","null","","0,1","4:nogo_d","1",""
"null","","html-keyboard-response","405","5195279","0.0-6.0-2.61","","<div style=""font-size:60px;"">+</div>","null","","","","","","",""
"403.06000000052154","","image-keyboard-response","406","5195683","0.0-6.0-0.62","","img/orange.png","32","trial","32","true","0.8,0.2","1:go_a","",""
"null","","html-keyboard-response","407","5196685","0.0-6.0-1.62","","<img src=""img/orange-r.png"" border=""10"">","null","trial","32","","0.8,0.2","1:go_a","1",""
"null","","html-keyboard-response","408","5197686","0.0-6.0-2.62","","<div style=""font-size:60px;"">+</div>","null","","","","","","",""
"null","","image-keyboard-response","409","5199188","0.0-6.0-0.63","","img/purple.png","null","trial","null","true","0.2,0.8","2:nogo_b","",""
"null","","html-keyboard-response","410","5200189","0.0-6.0-1.63","","<img src=""img/purple-r.png"">","null","trial","null","","0.2,0.8","2:nogo_b","1",""
"null","","html-keyboard-response","411","5201190","0.0-6.0-2.63","","<div style=""font-size:60px;"">+</div>","null","","","","","","",""
"366.74000000208616","","image-keyboard-response","412","5201559","0.0-6.0-0.64","","img/orange.png","32","trial","32","true","0.8,0.2","1:go_a","",""
"null","","html-keyboard-response","413","5202561","0.0-6.0-1.64","","<img src=""img/orange-r.png"" border=""10"">","null","trial","32","","0.8,0.2","1:go_a","1",""
"null","","html-keyboard-response","414","5203562","0.0-6.0-2.64","","<div style=""font-size:60px;"">+</div>","null","","","","","","",""
"392.0449999971315","","image-keyboard-response","415","5203956","0.0-6.0-0.65","","img/pink.png","32","trial","32","true","1,0","3:go_c","",""
"null","","html-keyboard-response","416","5204958","0.0-6.0-1.65","","<img src=""img/pink-r.png"" border=""10"">","null","trial","32","","1,0","3:go_c","1",""
"null","","html-keyboard-response","417","5205960","0.0-6.0-2.65","","<div style=""font-size:60px;"">+</div>","null","","","","","","",""
"null","","image-keyboard-response","418","5207461","0.0-6.0-0.66","","img/grey.png","null","trial","null","true","0,1","4:nogo_d","",""
"null","","html-keyboard-response","419","5208463","0.0-6.0-1.66","","<img src=""img/grey-r.png"">","null","trial","null","","0,1","4:nogo_d","1",""
"null","","html-keyboard-response","420","5209464","0.0-6.0-2.66","","<div style=""font-size:60px;"">+</div>","null","","","","","","",""
"null","","image-keyboard-response","421","5210966","0.0-6.0-0.67","","img/purple.png","null","trial","null","true","0.2,0.8","2:nogo_b","",""
"null","","html-keyboard-response","422","5211968","0.0-6.0-1.67","","<img src=""img/purple-r.png"">","null","trial","null","","0.2,0.8","2:nogo_b","1",""
"null","","html-keyboard-response","423","5212970","0.0-6.0-2.67","","<div style=""font-size:60px;"">+</div>","null","","","","","","",""
"439.68999999947846","","image-keyboard-response","424","5213411","0.0-6.0-0.68","","img/pink.png","32","trial","32","true","1,0","3:go_c","",""
"null","","html-keyboard-response","425","5214413","0.0-6.0-1.68","","<img src=""img/pink-r.png"" border=""10"">","null","trial","32","","1,0","3:go_c","1",""
"null","","html-keyboard-response","426","5215414","0.0-6.0-2.68","","<div style=""font-size:60px;"">+</div>","null","","","","","","",""
"423.70000000298023","","image-keyboard-response","427","5215839","0.0-6.0-0.69","","img/orange.png","32","trial","32","true","0.8,0.2","1:go_a","",""
"null","","html-keyboard-response","428","5216841","0.0-6.0-1.69","","<img src=""img/orange-n.png"" border=""10"">","null","trial","32","","0.8,0.2","1:go_a","0",""
"null","","html-keyboard-response","429","5217842","0.0-6.0-2.69","","<div style=""font-size:60px;"">+</div>","null","","","","","","",""
"null","","image-keyboard-response","430","5219343","0.0-6.0-0.70","","img/purple.png","null","trial","null","true","0.2,0.8","2:nogo_b","",""
"null","","html-keyboard-response","431","5220345","0.0-6.0-1.70","","<img src=""img/purple-r.png"">","null","trial","null","","0.2,0.8","2:nogo_b","1",""
"null","","html-keyboard-response","432","5221346","0.0-6.0-2.70","","<div style=""font-size:60px;"">+</div>","null","","","","","","",""
"null","","image-keyboard-response","433","5222848","0.0-6.0-0.71","","img/grey.png","null","trial","null","true","0,1","4:nogo_d","",""
"null","","html-keyboard-response","434","5223850","0.0-6.0-1.71","","<img src=""img/grey-r.png"">","null","trial","null","","0,1","4:nogo_d","1",""
"null","","html-keyboard-response","435","5224851","0.0-6.0-2.71","","<div style=""font-size:60px;"">+</div>","null","","","","","","",""
"null","","image-keyboard-response","436","5226353","0.0-6.0-0.72","","img/grey.png","null","trial","null","true","0,1","4:nogo_d","",""
"null","","html-keyboard-response","437","5227355","0.0-6.0-1.72","","<img src=""img/grey-r.png"">","null","trial","null","","0,1","4:nogo_d","1",""
"null","","html-keyboard-response","438","5228356","0.0-6.0-2.72","","<div style=""font-size:60px;"">+</div>","null","","","","","","",""
"378.18999999947846","","image-keyboard-response","439","5228736","0.0-6.0-0.73","","img/orange.png","32","trial","32","true","0.8,0.2","1:go_a","",""
"null","","html-keyboard-response","440","5229738","0.0-6.0-1.73","","<img src=""img/orange-n.png"" border=""10"">","null","trial","32","","0.8,0.2","1:go_a","0",""
"null","","html-keyboard-response","441","5230740","0.0-6.0-2.73","","<div style=""font-size:60px;"">+</div>","null","","","","","","",""
"469.8050000006333","","image-keyboard-response","442","5231210","0.0-6.0-0.74","","img/pink.png","32","trial","32","true","1,0","3:go_c","",""
"null","","html-keyboard-response","443","5232213","0.0-6.0-1.74","","<img src=""img/pink-r.png"" border=""10"">","null","trial","32","","1,0","3:go_c","1",""
"null","","html-keyboard-response","444","5233214","0.0-6.0-2.74","","<div style=""font-size:60px;"">+</div>","null","","","","","","",""
"791.3549999976531","","image-keyboard-response","445","5234007","0.0-6.0-0.75","","img/purple.png","32","trial","null","false","0.2,0.8","2:nogo_b","",""
"null","","html-keyboard-response","446","5235008","0.0-6.0-1.75","","<img src=""img/purple-n.png"" border=""10"">","null","trial","null","","0.2,0.8","2:nogo_b","0",""
"null","","html-keyboard-response","447","5236009","0.0-6.0-2.75","","<div style=""font-size:60px;"">+</div>","null","","","","","","",""
"411.98000000044703","","image-keyboard-response","448","5236423","0.0-6.0-0.76","","img/orange.png","32","trial","32","true","0.8,0.2","1:go_a","",""
"null","","html-keyboard-response","449","5237425","0.0-6.0-1.76","","<img src=""img/orange-r.png"" border=""10"">","null","trial","32","","0.8,0.2","1:go_a","1",""
"null","","html-keyboard-response","450","5238426","0.0-6.0-2.76","","<div style=""font-size:60px;"">+</div>","null","","","","","","",""
"603.2200000006706","","image-keyboard-response","451","5239031","0.0-6.0-0.77","","img/pink.png","32","trial","32","true","1,0","3:go_c","",""
"null","","html-keyboard-response","452","5240033","0.0-6.0-1.77","","<img src=""img/pink-r.png"" border=""10"">","null","trial","32","","1,0","3:go_c","1",""
"null","","html-keyboard-response","453","5241034","0.0-6.0-2.77","","<div style=""font-size:60px;"">+</div>","null","","","","","","",""
"null","","image-keyboard-response","454","5242535","0.0-6.0-0.78","","img/purple.png","null","trial","null","true","0.2,0.8","2:nogo_b","",""
"null","","html-keyboard-response","455","5243537","0.0-6.0-1.78","","<img src=""img/purple-n.png"">","null","trial","null","","0.2,0.8","2:nogo_b","0",""
"null","","html-keyboard-response","456","5244538","0.0-6.0-2.78","","<div style=""font-size:60px;"">+</div>","null","","","","","","",""
"null","","image-keyboard-response","457","5246040","0.0-6.0-0.79","","img/grey.png","null","trial","null","true","0,1","4:nogo_d","",""
"null","","html-keyboard-response","458","5247042","0.0-6.0-1.79","","<img src=""img/grey-r.png"">","null","trial","null","","0,1","4:nogo_d","1",""
"null","","html-keyboard-response","459","5248043","0.0-6.0-2.79","","<div style=""font-size:60px;"">+</div>","null","","","","","","",""
"null","","image-keyboard-response","460","5249545","0.0-6.0-0.80","","img/grey.png","null","trial","null","true","0,1","4:nogo_d","",""
"null","","html-keyboard-response","461","5250546","0.0-6.0-1.80","","<img src=""img/grey-r.png"">","null","trial","null","","0,1","4:nogo_d","1",""
"null","","html-keyboard-response","462","5251547","0.0-6.0-2.80","","<div style=""font-size:60px;"">+</div>","null","","","","","","",""
"753.515000000596","","image-keyboard-response","463","5252302","0.0-6.0-0.81","","img/purple.png","32","trial","null","false","0.2,0.8","2:nogo_b","",""
"null","","html-keyboard-response","464","5253305","0.0-6.0-1.81","","<img src=""img/purple-r.png"" border=""10"">","null","trial","null","","0.2,0.8","2:nogo_b","1",""
"null","","html-keyboard-response","465","5254306","0.0-6.0-2.81","","<div style=""font-size:60px;"">+</div>","null","","","","","","",""
"476.4049999974668","","image-keyboard-response","466","5254784","0.0-6.0-0.82","","img/orange.png","32","trial","32","true","0.8,0.2","1:go_a","",""
"null","","html-keyboard-response","467","5255786","0.0-6.0-1.82","","<img src=""img/orange-r.png"" border=""10"">","null","trial","32","","0.8,0.2","1:go_a","1",""
"null","","html-keyboard-response","468","5256787","0.0-6.0-2.82","","<div style=""font-size:60px;"">+</div>","null","","","","","","",""
"null","","image-keyboard-response","469","5258289","0.0-6.0-0.83","","img/pink.png","null","trial","32","false","1,0","3:go_c","",""
"null","","html-keyboard-response","470","5259291","0.0-6.0-1.83","","<img src=""img/pink-n.png"">","null","trial","32","","1,0","3:go_c","0",""
"null","","html-keyboard-response","471","5260293","0.0-6.0-2.83","","<div style=""font-size:60px;"">+</div>","null","","","","","","",""
"496.839999999851","","image-keyboard-response","472","5260791","0.0-6.0-0.84","","img/orange.png","32","trial","32","true","0.8,0.2","1:go_a","",""
"null","","html-keyboard-response","473","5261793","0.0-6.0-1.84","","<img src=""img/orange-r.png"" border=""10"">","null","trial","32","","0.8,0.2","1:go_a","1",""
"null","","html-keyboard-response","474","5262794","0.0-6.0-2.84","","<div style=""font-size:60px;"">+</div>","null","","","","","","",""
"492.2999999979511","","image-keyboard-response","475","5263288","0.0-6.0-0.85","","img/pink.png","32","trial","32","true","1,0","3:go_c","",""
"null","","html-keyboard-response","476","5264290","0.0-6.0-1.85","","<img src=""img/pink-r.png"" border=""10"">","null","trial","32","","1,0","3:go_c","1",""
"null","","html-keyboard-response","477","5265292","0.0-6.0-2.85","","<div style=""font-size:60px;"">+</div>","null","","","","","","",""
"null","","image-keyboard-response","478","5266793","0.0-6.0-0.86","","img/grey.png","null","trial","null","true","0,1","4:nogo_d","",""
"null","","html-keyboard-response","479","5267795","0.0-6.0-1.86","","<img src=""img/grey-r.png"">","null","trial","null","","0,1","4:nogo_d","1",""
"null","","html-keyboard-response","480","5268796","0.0-6.0-2.86","","<div style=""font-size:60px;"">+</div>","null","","","","","","",""
"483.5149999996647","","image-keyboard-response","481","5269281","0.0-6.0-0.87","","img/purple.png","32","trial","null","false","0.2,0.8","2:nogo_b","",""
"null","","html-keyboard-response","482","5270284","0.0-6.0-1.87","","<img src=""img/purple-n.png"" border=""10"">","null","trial","null","","0.2,0.8","2:nogo_b","0",""
"null","","html-keyboard-response","483","5271285","0.0-6.0-2.87","","<div style=""font-size:60px;"">+</div>","null","","","","","","",""
"null","","image-keyboard-response","484","5272787","0.0-6.0-0.88","","img/grey.png","null","trial","null","true","0,1","4:nogo_d","",""
"null","","html-keyboard-response","485","5273789","0.0-6.0-1.88","","<img src=""img/grey-r.png"">","null","trial","null","","0,1","4:nogo_d","1",""
"null","","html-keyboard-response","486","5274791","0.0-6.0-2.88","","<div style=""font-size:60px;"">+</div>","null","","","","","","",""
"null","","image-keyboard-response","487","5276292","0.0-6.0-0.89","","img/purple.png","null","trial","null","true","0.2,0.8","2:nogo_b","",""
"null","","html-keyboard-response","488","5277294","0.0-6.0-1.89","","<img src=""img/purple-r.png"">","null","trial","null","","0.2,0.8","2:nogo_b","1",""
"null","","html-keyboard-response","489","5278296","0.0-6.0-2.89","","<div style=""font-size:60px;"">+</div>","null","","","","","","",""
"401.79499999806285","","image-keyboard-response","490","5278698","0.0-6.0-0.90","","img/orange.png","32","trial","32","true","0.8,0.2","1:go_a","",""
"null","","html-keyboard-response","491","5279700","0.0-6.0-1.90","","<img src=""img/orange-n.png"" border=""10"">","null","trial","32","","0.8,0.2","1:go_a","0",""
"null","","html-keyboard-response","492","5280702","0.0-6.0-2.90","","<div style=""font-size:60px;"">+</div>","null","","","","","","",""
"527.7700000004843","","image-keyboard-response","493","5281231","0.0-6.0-0.91","","img/pink.png","32","trial","32","true","1,0","3:go_c","",""
"null","","html-keyboard-response","494","5282232","0.0-6.0-1.91","","<img src=""img/pink-r.png"" border=""10"">","null","trial","32","","1,0","3:go_c","1",""
"null","","html-keyboard-response","495","5283233","0.0-6.0-2.91","","<div style=""font-size:60px;"">+</div>","null","","","","","","",""
"491.9699999988079","","image-keyboard-response","496","5283726","0.0-6.0-0.92","","img/orange.png","32","trial","32","true","0.8,0.2","1:go_a","",""
"null","","html-keyboard-response","497","5284729","0.0-6.0-1.92","","<img src=""img/orange-r.png"" border=""10"">","null","trial","32","","0.8,0.2","1:go_a","1",""
"null","","html-keyboard-response","498","5285730","0.0-6.0-2.92","","<div style=""font-size:60px;"">+</div>","null","","","","","","",""
"null","","image-keyboard-response","499","5287231","0.0-6.0-0.93","","img/pink.png","null","trial","32","false","1,0","3:go_c","",""
"null","","html-keyboard-response","500","5288233","0.0-6.0-1.93","","<img src=""img/pink-n.png"">","null","trial","32","","1,0","3:go_c","0",""
"null","","html-keyboard-response","501","5289234","0.0-6.0-2.93","","<div style=""font-size:60px;"">+</div>","null","","","","","","",""
"null","","image-keyboard-response","502","5290736","0.0-6.0-0.94","","img/grey.png","null","trial","null","true","0,1","4:nogo_d","",""
"null","","html-keyboard-response","503","5291739","0.0-6.0-1.94","","<img src=""img/grey-r.png"">","null","trial","null","","0,1","4:nogo_d","1",""
"null","","html-keyboard-response","504","5292740","0.0-6.0-2.94","","<div style=""font-size:60px;"">+</div>","null","","","","","","",""
"681.9800000013784","","image-keyboard-response","505","5293423","0.0-6.0-0.95","","img/purple.png","32","trial","null","false","0.2,0.8","2:nogo_b","",""
"null","","html-keyboard-response","506","5294425","0.0-6.0-1.95","","<img src=""img/purple-n.png"" border=""10"">","null","trial","null","","0.2,0.8","2:nogo_b","0",""
"null","","html-keyboard-response","507","5295426","0.0-6.0-2.95","","<div style=""font-size:60px;"">+</div>","null","","","","","","",""
"null","","image-keyboard-response","508","5296928","0.0-6.0-0.96","","img/purple.png","null","trial","null","true","0.2,0.8","2:nogo_b","",""
"null","","html-keyboard-response","509","5297930","0.0-6.0-1.96","","<img src=""img/purple-r.png"">","null","trial","null","","0.2,0.8","2:nogo_b","1",""
"null","","html-keyboard-response","510","5298932","0.0-6.0-2.96","","<div style=""font-size:60px;"">+</div>","null","","","","","","",""
"447.0699999984354","","image-keyboard-response","511","5299380","0.0-6.0-0.97","","img/pink.png","32","trial","32","true","1,0","3:go_c","",""
"null","","html-keyboard-response","512","5300383","0.0-6.0-1.97","","<img src=""img/pink-r.png"" border=""10"">","null","trial","32","","1,0","3:go_c","1",""
"null","","html-keyboard-response","513","5301384","0.0-6.0-2.97","","<div style=""font-size:60px;"">+</div>","null","","","","","","",""
"421.9849999975413","","image-keyboard-response","514","5301807","0.0-6.0-0.98","","img/orange.png","32","trial","32","true","0.8,0.2","1:go_a","",""
"null","","html-keyboard-response","515","5302809","0.0-6.0-1.98","","<img src=""img/orange-r.png"" border=""10"">","null","trial","32","","0.8,0.2","1:go_a","1",""
"null","","html-keyboard-response","516","5303811","0.0-6.0-2.98","","<div style=""font-size:60px;"">+</div>","null","","","","","","",""
"null","","image-keyboard-response","517","5305312","0.0-6.0-0.99","","img/grey.png","null","trial","null","true","0,1","4:nogo_d","",""
"null","","html-keyboard-response","518","5306315","0.0-6.0-1.99","","<img src=""img/grey-r.png"">","null","trial","null","","0,1","4:nogo_d","1",""
"null","","html-keyboard-response","519","5307316","0.0-6.0-2.99","","<div style=""font-size:60px;"">+</div>","null","","","","","","",""
"null","","image-keyboard-response","520","5308818","0.0-6.0-0.100","","img/purple.png","null","trial","null","true","0.2,0.8","2:nogo_b","",""
"null","","html-keyboard-response","521","5309821","0.0-6.0-1.100","","<img src=""img/purple-r.png"">","null","trial","null","","0.2,0.8","2:nogo_b","1",""
"null","","html-keyboard-response","522","5310822","0.0-6.0-2.100","","<div style=""font-size:60px;"">+</div>","null","","","","","","",""
"null","","image-keyboard-response","523","5312324","0.0-6.0-0.101","","img/grey.png","null","trial","null","true","0,1","4:nogo_d","",""
"null","","html-keyboard-response","524","5313326","0.0-6.0-1.101","","<img src=""img/grey-r.png"">","null","trial","null","","0,1","4:nogo_d","1",""
"null","","html-keyboard-response","525","5314327","0.0-6.0-2.101","","<div style=""font-size:60px;"">+</div>","null","","","","","","",""
"838.4650000007823","","image-keyboard-response","526","5315166","0.0-6.0-0.102","","img/orange.png","32","trial","32","true","0.8,0.2","1:go_a","",""
"null","","html-keyboard-response","527","5316169","0.0-6.0-1.102","","<img src=""img/orange-r.png"" border=""10"">","null","trial","32","","0.8,0.2","1:go_a","1",""
"null","","html-keyboard-response","528","5317170","0.0-6.0-2.102","","<div style=""font-size:60px;"">+</div>","null","","","","","","",""
"null","","image-keyboard-response","529","5318671","0.0-6.0-0.103","","img/pink.png","null","trial","32","false","1,0","3:go_c","",""
"null","","html-keyboard-response","530","5319673","0.0-6.0-1.103","","<img src=""img/pink-n.png"">","null","trial","32","","1,0","3:go_c","0",""
"null","","html-keyboard-response","531","5320674","0.0-6.0-2.103","","<div style=""font-size:60px;"">+</div>","null","","","","","","",""
"null","","image-keyboard-response","532","5322176","0.0-6.0-0.104","","img/grey.png","null","trial","null","true","0,1","4:nogo_d","",""
"null","","html-keyboard-response","533","5323178","0.0-6.0-1.104","","<img src=""img/grey-r.png"">","null","trial","null","","0,1","4:nogo_d","1",""
"null","","html-keyboard-response","534","5324179","0.0-6.0-2.104","","<div style=""font-size:60px;"">+</div>","null","","","","","","",""
"1123.469999998808","","image-keyboard-response","535","5325304","0.0-6.0-0.105","","img/orange.png","32","trial","32","true","0.8,0.2","1:go_a","",""
"null","","html-keyboard-response","536","5326306","0.0-6.0-1.105","","<img src=""img/orange-r.png"" border=""10"">","null","trial","32","","0.8,0.2","1:go_a","1",""
"null","","html-keyboard-response","537","5327307","0.0-6.0-2.105","","<div style=""font-size:60px;"">+</div>","null","","","","","","",""
"null","","image-keyboard-response","538","5328809","0.0-6.0-0.106","","img/purple.png","null","trial","null","true","0.2,0.8","2:nogo_b","",""
"null","","html-keyboard-response","539","5329811","0.0-6.0-1.106","","<img src=""img/purple-r.png"">","null","trial","null","","0.2,0.8","2:nogo_b","1",""
"null","","html-keyboard-response","540","5330812","0.0-6.0-2.106","","<div style=""font-size:60px;"">+</div>","null","","","","","","",""
"407.1999999973923","","image-keyboard-response","541","5331220","0.0-6.0-0.107","","img/pink.png","32","trial","32","true","1,0","3:go_c","",""
"null","","html-keyboard-response","542","5332223","0.0-6.0-1.107","","<img src=""img/pink-r.png"" border=""10"">","null","trial","32","","1,0","3:go_c","1",""
"null","","html-keyboard-response","543","5333224","0.0-6.0-2.107","","<div style=""font-size:60px;"">+</div>","null","","","","","","",""
"null","","image-keyboard-response","544","5334726","0.0-6.0-0.108","","img/grey.png","null","trial","null","true","0,1","4:nogo_d","",""
"null","","html-keyboard-response","545","5335728","0.0-6.0-1.108","","<img src=""img/grey-r.png"">","null","trial","null","","0,1","4:nogo_d","1",""
"null","","html-keyboard-response","546","5336730","0.0-6.0-2.108","","<div style=""font-size:60px;"">+</div>","null","","","","","","",""
"501.375","","image-keyboard-response","547","5337233","0.0-6.0-0.109","","img/pink.png","32","trial","32","true","1,0","3:go_c","",""
"null","","html-keyboard-response","548","5338235","0.0-6.0-1.109","","<img src=""img/pink-r.png"" border=""10"">","null","trial","32","","1,0","3:go_c","1",""
"null","","html-keyboard-response","549","5339236","0.0-6.0-2.109","","<div style=""font-size:60px;"">+</div>","null","","","","","","",""
"919.6799999987707","","image-keyboard-response","550","5340157","0.0-6.0-0.110","","img/orange.png","32","trial","32","true","0.8,0.2","1:go_a","",""
"null","","html-keyboard-response","551","5341159","0.0-6.0-1.110","","<img src=""img/orange-r.png"" border=""10"">","null","trial","32","","0.8,0.2","1:go_a","1",""
"null","","html-keyboard-response","552","5342160","0.0-6.0-2.110","","<div style=""font-size:60px;"">+</div>","null","","","","","","",""
"null","","image-keyboard-response","553","5343662","0.0-6.0-0.111","","img/purple.png","null","trial","null","true","0.2,0.8","2:nogo_b","",""
"null","","html-keyboard-response","554","5344664","0.0-6.0-1.111","","<img src=""img/purple-r.png"">","null","trial","null","","0.2,0.8","2:nogo_b","1",""
"null","","html-keyboard-response","555","5345665","0.0-6.0-2.111","","<div style=""font-size:60px;"">+</div>","null","","","","","","",""
"null","","image-keyboard-response","556","5347167","0.0-6.0-0.112","","img/grey.png","null","trial","null","true","0,1","4:nogo_d","",""
"null","","html-keyboard-response","557","5348169","0.0-6.0-1.112","","<img src=""img/grey-r.png"">","null","trial","null","","0,1","4:nogo_d","1",""
"null","","html-keyboard-response","558","5349170","0.0-6.0-2.112","","<div style=""font-size:60px;"">+</div>","null","","","","","","",""
"536.8100000014529","","image-keyboard-response","559","5349708","0.0-6.0-0.113","","img/pink.png","32","trial","32","true","1,0","3:go_c","",""
"null","","html-keyboard-response","560","5350710","0.0-6.0-1.113","","<img src=""img/pink-r.png"" border=""10"">","null","trial","32","","1,0","3:go_c","1",""
"null","","html-keyboard-response","561","5351711","0.0-6.0-2.113","","<div style=""font-size:60px;"">+</div>","null","","","","","","",""
"420.4700000016019","","image-keyboard-response","562","5352133","0.0-6.0-0.114","","img/orange.png","32","trial","32","true","0.8,0.2","1:go_a","",""
"null","","html-keyboard-response","563","5353135","0.0-6.0-1.114","","<img src=""img/orange-r.png"" border=""10"">","null","trial","32","","0.8,0.2","1:go_a","1",""
"null","","html-keyboard-response","564","5354136","0.0-6.0-2.114","","<div style=""font-size:60px;"">+</div>","null","","","","","","",""
"null","","image-keyboard-response","565","5355638","0.0-6.0-0.115","","img/purple.png","null","trial","null","true","0.2,0.8","2:nogo_b","",""
"null","","html-keyboard-response","566","5356641","0.0-6.0-1.115","","<img src=""img/purple-r.png"">","null","trial","null","","0.2,0.8","2:nogo_b","1",""
"null","","html-keyboard-response","567","5357642","0.0-6.0-2.115","","<div style=""font-size:60px;"">+</div>","null","","","","","","",""
"null","","image-keyboard-response","568","5359144","0.0-6.0-0.116","","img/grey.png","null","trial","null","true","0,1","4:nogo_d","",""
"null","","html-keyboard-response","569","5360146","0.0-6.0-1.116","","<img src=""img/grey-r.png"">","null","trial","null","","0,1","4:nogo_d","1",""
"null","","html-keyboard-response","570","5361146","0.0-6.0-2.116","","<div style=""font-size:60px;"">+</div>","null","","","","","","",""
"473.84499999694526","","image-keyboard-response","571","5361621","0.0-6.0-0.117","","img/pink.png","32","trial","32","true","1,0","3:go_c","",""
"null","","html-keyboard-response","572","5362624","0.0-6.0-1.117","","<img src=""img/pink-r.png"" border=""10"">","null","trial","32","","1,0","3:go_c","1",""
"null","","html-keyboard-response","573","5363625","0.0-6.0-2.117","","<div style=""font-size:60px;"">+</div>","null","","","","","","",""
"null","","image-keyboard-response","574","5365127","0.0-6.0-0.118","","img/purple.png","null","trial","null","true","0.2,0.8","2:nogo_b","",""
"null","","html-keyboard-response","575","5366129","0.0-6.0-1.118","","<img src=""img/purple-r.png"">","null","trial","null","","0.2,0.8","2:nogo_b","1",""
"null","","html-keyboard-response","576","5367130","0.0-6.0-2.118","","<div style=""font-size:60px;"">+</div>","null","","","","","","",""
"351.6949999984354","","image-keyboard-response","577","5367483","0.0-6.0-0.119","","img/orange.png","32","trial","32","true","0.8,0.2","1:go_a","",""
"null","","html-keyboard-response","578","5368485","0.0-6.0-1.119","","<img src=""img/orange-r.png"" border=""10"">","null","trial","32","","0.8,0.2","1:go_a","1",""
"null","","html-keyboard-response","579","5369487","0.0-6.0-2.119","","<div style=""font-size:60px;"">+</div>","null","","","","","","",""
"1839.5699999965727","","instructions","580","5371327","0.0-7.0","[{""page_index"":0,""viewing_time"":1839.2999999998137}]","","","","","","","","",""
"1054.7650000015274","","image-keyboard-response","581","5372384","0.0-8.0-0.0","","img/yellow.png","32","trial","32","true","0.8,0.2","1:go_a","",""
"null","","html-keyboard-response","582","5373386","0.0-8.0-1.0","","<img src=""img/yellow-r.png"" border=""10"">","null","trial","32","","0.8,0.2","1:go_a","1",""
"null","","html-keyboard-response","583","5374387","0.0-8.0-2.0","","<div style=""font-size:60px;"">+</div>","null","","","","","","",""
"351.7099999990314","","image-keyboard-response","584","5374740","0.0-8.0-0.1","","img/grey.png","32","trial","null","false","0.2,0.8","2:nogo_b","",""
"null","","html-keyboard-response","585","5375743","0.0-8.0-1.1","","<img src=""img/grey-n.png"" border=""10"">","null","trial","null","","0.2,0.8","2:nogo_b","0",""
"null","","html-keyboard-response","586","5376744","0.0-8.0-2.1","","<div style=""font-size:60px;"">+</div>","null","","","","","","",""
"318.6150000002235","","image-keyboard-response","587","5377064","0.0-8.0-0.2","","img/purple.png","32","trial","32","true","0.8,0.2","3:go_c","",""
"null","","html-keyboard-response","588","5378066","0.0-8.0-1.2","","<img src=""img/purple-r.png"" border=""10"">","null","trial","32","","0.8,0.2","3:go_c","1",""
"null","","html-keyboard-response","589","5379067","0.0-8.0-2.2","","<div style=""font-size:60px;"">+</div>","null","","","","","","",""
"390.27500000130385","","image-keyboard-response","590","5379459","0.0-8.0-0.3","","img/blue.png","32","trial","null","false","0.2,0.8","4:nogo_d","",""
"null","","html-keyboard-response","591","5380461","0.0-8.0-1.3","","<img src=""img/blue-n.png"" border=""10"">","null","trial","null","","0.2,0.8","4:nogo_d","0",""
"null","","html-keyboard-response","592","5381463","0.0-8.0-2.3","","<div style=""font-size:60px;"">+</div>","null","","","","","","",""
"1095.714999999851","","image-keyboard-response","593","5382559","0.0-8.0-0.4","","img/purple.png","32","trial","32","true","0.8,0.2","3:go_c","",""
"null","","html-keyboard-response","594","5383561","0.0-8.0-1.4","","<img src=""img/purple-r.png"" border=""10"">","null","trial","32","","0.8,0.2","3:go_c","1",""
"null","","html-keyboard-response","595","5384563","0.0-8.0-2.4","","<div style=""font-size:60px;"">+</div>","null","","","","","","",""
"304.60999999940395","","image-keyboard-response","596","5384869","0.0-8.0-0.5","","img/yellow.png","32","trial","32","true","0.8,0.2","1:go_a","",""
"null","","html-keyboard-response","597","5385871","0.0-8.0-1.5","","<img src=""img/yellow-r.png"" border=""10"">","null","trial","32","","0.8,0.2","1:go_a","1",""
"null","","html-keyboard-response","598","5386872","0.0-8.0-2.5","","<div style=""font-size:60px;"">+</div>","null","","","","","","",""
"null","","image-keyboard-response","599","5388374","0.0-8.0-0.6","","img/blue.png","null","trial","null","true","0.2,0.8","4:nogo_d","",""
"null","","html-keyboard-response","600","5389376","0.0-8.0-1.6","","<img src=""img/blue-r.png"">","null","trial","null","","0.2,0.8","4:nogo_d","1",""
"null","","html-keyboard-response","601","5390377","0.0-8.0-2.6","","<div style=""font-size:60px;"">+</div>","null","","","","","","",""
"null","","image-keyboard-response","602","5391879","0.0-8.0-0.7","","img/grey.png","null","trial","null","true","0.2,0.8","2:nogo_b","",""
"null","","html-keyboard-response","603","5392881","0.0-8.0-1.7","","<img src=""img/grey-r.png"">","null","trial","null","","0.2,0.8","2:nogo_b","1",""
"null","","html-keyboard-response","604","5393882","0.0-8.0-2.7","","<div style=""font-size:60px;"">+</div>","null","","","","","","",""
"null","","image-keyboard-response","605","5395384","0.0-8.0-0.8","","img/blue.png","null","trial","null","true","0.2,0.8","4:nogo_d","",""
"null","","html-keyboard-response","606","5396386","0.0-8.0-1.8","","<img src=""img/blue-r.png"">","null","trial","null","","0.2,0.8","4:nogo_d","1",""
"null","","html-keyboard-response","607","5397387","0.0-8.0-2.8","","<div style=""font-size:60px;"">+</div>","null","","","","","","",""
"null","","image-keyboard-response","608","5398889","0.0-8.0-0.9","","img/grey.png","null","trial","null","true","0.2,0.8","2:nogo_b","",""
"null","","html-keyboard-response","609","5399891","0.0-8.0-1.9","","<img src=""img/grey-n.png"">","null","trial","null","","0.2,0.8","2:nogo_b","0",""
"null","","html-keyboard-response","610","5400892","0.0-8.0-2.9","","<div style=""font-size:60px;"">+</div>","null","","","","","","",""
"490.52499999757856","","image-keyboard-response","611","5401383","0.0-8.0-0.10","","img/purple.png","32","trial","32","true","0.8,0.2","3:go_c","",""
"null","","html-keyboard-response","612","5402385","0.0-8.0-1.10","","<img src=""img/purple-r.png"" border=""10"">","null","trial","32","","0.8,0.2","3:go_c","1",""
"null","","html-keyboard-response","613","5403386","0.0-8.0-2.10","","<div style=""font-size:60px;"">+</div>","null","","","","","","",""
"651.3249999992549","","image-keyboard-response","614","5404040","0.0-8.0-0.11","","img/yellow.png","32","trial","32","true","0.8,0.2","1:go_a","",""
"null","","html-keyboard-response","615","5405042","0.0-8.0-1.11","","<img src=""img/yellow-r.png"" border=""10"">","null","trial","32","","0.8,0.2","1:go_a","1",""
"null","","html-keyboard-response","616","5406044","0.0-8.0-2.11","","<div style=""font-size:60px;"">+</div>","null","","","","","","",""
"null","","image-keyboard-response","617","5407546","0.0-8.0-0.12","","img/grey.png","null","trial","null","true","0.2,0.8","2:nogo_b","",""
"null","","html-keyboard-response","618","5408548","0.0-8.0-1.12","","<img src=""img/grey-n.png"">","null","trial","null","","0.2,0.8","2:nogo_b","0",""
"null","","html-keyboard-response","619","5409549","0.0-8.0-2.12","","<div style=""font-size:60px;"">+</div>","null","","","","","","",""
"385.79000000003725","","image-keyboard-response","620","5409936","0.0-8.0-0.13","","img/yellow.png","32","trial","32","true","0.8,0.2","1:go_a","",""
"null","","html-keyboard-response","621","5410939","0.0-8.0-1.13","","<img src=""img/yellow-r.png"" border=""10"">","null","trial","32","","0.8,0.2","1:go_a","1",""
"null","","html-keyboard-response","622","5411940","0.0-8.0-2.13","","<div style=""font-size:60px;"">+</div>","null","","","","","","",""
"null","","image-keyboard-response","623","5413441","0.0-8.0-0.14","","img/blue.png","null","trial","null","true","0.2,0.8","4:nogo_d","",""
"null","","html-keyboard-response","624","5414444","0.0-8.0-1.14","","<img src=""img/blue-n.png"">","null","trial","null","","0.2,0.8","4:nogo_d","0",""
"null","","html-keyboard-response","625","5415446","0.0-8.0-2.14","","<div style=""font-size:60px;"">+</div>","null","","","","","","",""
"1072.1750000016764","","image-keyboard-response","626","5416519","0.0-8.0-0.15","","img/purple.png","32","trial","32","true","0.8,0.2","3:go_c","",""
"null","","html-keyboard-response","627","5417521","0.0-8.0-1.15","","<img src=""img/purple-n.png"" border=""10"">","null","trial","32","","0.8,0.2","3:go_c","0",""
"null","","html-keyboard-response","628","5418522","0.0-8.0-2.15","","<div style=""font-size:60px;"">+</div>","null","","","","","","",""
"null","","image-keyboard-response","629","5420024","0.0-8.0-0.16","","img/grey.png","null","trial","null","true","0.2,0.8","2:nogo_b","",""
"null","","html-keyboard-response","630","5421026","0.0-8.0-1.16","","<img src=""img/grey-r.png"">","null","trial","null","","0.2,0.8","2:nogo_b","1",""
"null","","html-keyboard-response","631","5422027","0.0-8.0-2.16","","<div style=""font-size:60px;"">+</div>","null","","","","","","",""
"null","","image-keyboard-response","632","5423528","0.0-8.0-0.17","","img/blue.png","null","trial","null","true","0.2,0.8","4:nogo_d","",""
"null","","html-keyboard-response","633","5424530","0.0-8.0-1.17","","<img src=""img/blue-r.png"">","null","trial","null","","0.2,0.8","4:nogo_d","1",""
"null","","html-keyboard-response","634","5425532","0.0-8.0-2.17","","<div style=""font-size:60px;"">+</div>","null","","","","","","",""
"1270.4750000005588","","image-keyboard-response","635","5426804","0.0-8.0-0.18","","img/purple.png","32","trial","32","true","0.8,0.2","3:go_c","",""
"null","","html-keyboard-response","636","5427806","0.0-8.0-1.18","","<img src=""img/purple-r.png"" border=""10"">","null","trial","32","","0.8,0.2","3:go_c","1",""
"null","","html-keyboard-response","637","5428807","0.0-8.0-2.18","","<div style=""font-size:60px;"">+</div>","null","","","","","","",""
"1115.700000002049","","image-keyboard-response","638","5429924","0.0-8.0-0.19","","img/yellow.png","32","trial","32","true","0.8,0.2","1:go_a","",""
"null","","html-keyboard-response","639","5430926","0.0-8.0-1.19","","<img src=""img/yellow-r.png"" border=""10"">","null","trial","32","","0.8,0.2","1:go_a","1",""
"null","","html-keyboard-response","640","5431927","0.0-8.0-2.19","","<div style=""font-size:60px;"">+</div>","null","","","","","","",""
"null","","image-keyboard-response","641","5433429","0.0-8.0-0.20","","img/grey.png","null","trial","null","true","0.2,0.8","2:nogo_b","",""
"null","","html-keyboard-response","642","5434431","0.0-8.0-1.20","","<img src=""img/grey-r.png"">","null","trial","null","","0.2,0.8","2:nogo_b","1",""
"null","","html-keyboard-response","643","5435433","0.0-8.0-2.20","","<div style=""font-size:60px;"">+</div>","null","","","","","","",""
"null","","image-keyboard-response","644","5436934","0.0-8.0-0.21","","img/blue.png","null","trial","null","true","0.2,0.8","4:nogo_d","",""
"null","","html-keyboard-response","645","5437936","0.0-8.0-1.21","","<img src=""img/blue-r.png"">","null","trial","null","","0.2,0.8","4:nogo_d","1",""
"null","","html-keyboard-response","646","5438938","0.0-8.0-2.21","","<div style=""font-size:60px;"">+</div>","null","","","","","","",""
"842.1850000014529","","image-keyboard-response","647","5439781","0.0-8.0-0.22","","img/purple.png","32","trial","32","true","0.8,0.2","3:go_c","",""
"null","","html-keyboard-response","648","5440783","0.0-8.0-1.22","","<img src=""img/purple-r.png"" border=""10"">","null","trial","32","","0.8,0.2","3:go_c","1",""
"null","","html-keyboard-response","649","5441784","0.0-8.0-2.22","","<div style=""font-size:60px;"">+</div>","null","","","","","","",""
"636.2000000011176","","image-keyboard-response","650","5442422","0.0-8.0-0.23","","img/yellow.png","32","trial","32","true","0.8,0.2","1:go_a","",""
"null","","html-keyboard-response","651","5443424","0.0-8.0-1.23","","<img src=""img/yellow-r.png"" border=""10"">","null","trial","32","","0.8,0.2","1:go_a","1",""
"null","","html-keyboard-response","652","5444425","0.0-8.0-2.23","","<div style=""font-size:60px;"">+</div>","null","","","","","","",""
"506.72000000067055","","image-keyboard-response","653","5444933","0.0-8.0-0.24","","img/yellow.png","32","trial","32","true","0.8,0.2","1:go_a","",""
"null","","html-keyboard-response","654","5445935","0.0-8.0-1.24","","<img src=""img/yellow-r.png"" border=""10"">","null","trial","32","","0.8,0.2","1:go_a","1",""
"null","","html-keyboard-response","655","5446936","0.0-8.0-2.24","","<div style=""font-size:60px;"">+</div>","null","","","","","","",""
"null","","image-keyboard-response","656","5448438","0.0-8.0-0.25","","img/grey.png","null","trial","null","true","0.2,0.8","2:nogo_b","",""
"null","","html-keyboard-response","657","5449440","0.0-8.0-1.25","","<img src=""img/grey-r.png"">","null","trial","null","","0.2,0.8","2:nogo_b","1",""
"null","","html-keyboard-response","658","5450441","0.0-8.0-2.25","","<div style=""font-size:60px;"">+</div>","null","","","","","","",""
"550.1800000015646","","image-keyboard-response","659","5450993","0.0-8.0-0.26","","img/purple.png","32","trial","32","true","0.8,0.2","3:go_c","",""
"null","","html-keyboard-response","660","5451995","0.0-8.0-1.26","","<img src=""img/purple-r.png"" border=""10"">","null","trial","32","","0.8,0.2","3:go_c","1",""
"null","","html-keyboard-response","661","5452996","0.0-8.0-2.26","","<div style=""font-size:60px;"">+</div>","null","","","","","","",""
"null","","image-keyboard-response","662","5454498","0.0-8.0-0.27","","img/blue.png","null","trial","null","true","0.2,0.8","4:nogo_d","",""
"null","","html-keyboard-response","663","5455500","0.0-8.0-1.27","","<img src=""img/blue-r.png"">","null","trial","null","","0.2,0.8","4:nogo_d","1",""
"null","","html-keyboard-response","664","5456501","0.0-8.0-2.27","","<div style=""font-size:60px;"">+</div>","null","","","","","","",""
"null","","image-keyboard-response","665","5458002","0.0-8.0-0.28","","img/blue.png","null","trial","null","true","0.2,0.8","4:nogo_d","",""
"null","","html-keyboard-response","666","5459004","0.0-8.0-1.28","","<img src=""img/blue-r.png"">","null","trial","null","","0.2,0.8","4:nogo_d","1",""
"null","","html-keyboard-response","667","5460005","0.0-8.0-2.28","","<div style=""font-size:60px;"">+</div>","null","","","","","","",""
"null","","image-keyboard-response","668","5461507","0.0-8.0-0.29","","img/grey.png","null","trial","null","true","0.2,0.8","2:nogo_b","",""
"null","","html-keyboard-response","669","5462509","0.0-8.0-1.29","","<img src=""img/grey-n.png"">","null","trial","null","","0.2,0.8","2:nogo_b","0",""
"null","","html-keyboard-response","670","5463510","0.0-8.0-2.29","","<div style=""font-size:60px;"">+</div>","null","","","","","","",""
"472.46000000089407","","image-keyboard-response","671","5463984","0.0-8.0-0.30","","img/purple.png","32","trial","32","true","0.8,0.2","3:go_c","",""
"null","","html-keyboard-response","672","5464986","0.0-8.0-1.30","","<img src=""img/purple-r.png"" border=""10"">","null","trial","32","","0.8,0.2","3:go_c","1",""
"null","","html-keyboard-response","673","5465988","0.0-8.0-2.30","","<div style=""font-size:60px;"">+</div>","null","","","","","","",""
"464.24000000115484","","image-keyboard-response","674","5466453","0.0-8.0-0.31","","img/yellow.png","32","trial","32","true","0.8,0.2","1:go_a","",""
"null","","html-keyboard-response","675","5467455","0.0-8.0-1.31","","<img src=""img/yellow-r.png"" border=""10"">","null","trial","32","","0.8,0.2","1:go_a","1",""
"null","","html-keyboard-response","676","5468457","0.0-8.0-2.31","","<div style=""font-size:60px;"">+</div>","null","","","","","","",""
"587.1499999994412","","image-keyboard-response","677","5469045","0.0-8.0-0.32","","img/yellow.png","32","trial","32","true","0.8,0.2","1:go_a","",""
"null","","html-keyboard-response","678","5470048","0.0-8.0-1.32","","<img src=""img/yellow-r.png"" border=""10"">","null","trial","32","","0.8,0.2","1:go_a","1",""
"null","","html-keyboard-response","679","5471049","0.0-8.0-2.32","","<div style=""font-size:60px;"">+</div>","null","","","","","","",""
