"rt","url","trial_type","trial_index","time_elapsed","internal_node_id","view_history","stimulus","key_press","test_part","correct_response","correct","use_rew","which_stim","reward","responses"
"148880.63500006683","consent.html","external-html","0","148973","0.0-0.0","","","","","","","","","",""
"81028.05999992415","","instructions","1","230002","0.0-1.0","[{""page_index"":0,""viewing_time"":4169.130000052974},{""page_index"":1,""viewing_time"":19691.824999870732},{""page_index"":2,""viewing_time"":5170.600000070408},{""page_index"":3,""viewing_time"":18095.475000096485},{""page_index"":4,""viewing_time"":13466.069999849424},{""page_index"":5,""viewing_time"":6812.0200000703335},{""page_index"":6,""viewing_time"":13621.885000029579}]","","","","","","","","",""
"null","","image-keyboard-response","2","231505","0.0-2.0-0.0","","img/test2.PNG","null","practice","null","true","","","",""
"null","","html-keyboard-response","3","232507","0.0-2.0-1.0","","<img src=""img/test2-reward.PNG"">","null","","","","","","",""
"null","","html-keyboard-response","4","233510","0.0-2.0-2.0","","<div style=""font-size:60px;"">+</div>","null","","","","","","",""
"403.2600000500679","","image-keyboard-response","5","233914","0.0-2.0-0.1","","img/test1.PNG","32","practice","32","true","","","",""
"null","","html-keyboard-response","6","234918","0.0-2.0-1.1","","<img src=""img/test1-reward.PNG"" border=""10px; grey"">","null","","","","","","",""
"null","","html-keyboard-response","7","235920","0.0-2.0-2.1","","<div style=""font-size:60px;"">+</div>","null","","","","","","",""
"null","","image-keyboard-response","8","237422","0.0-2.0-0.2","","img/test3.PNG","null","practice","null","true","","","",""
"null","","html-keyboard-response","9","238423","0.0-2.0-1.2","","<img src=""img/test3-reward.PNG"">","null","","","","","","",""
"null","","html-keyboard-response","10","239425","0.0-2.0-2.2","","<div style=""font-size:60px;"">+</div>","null","","","","","","",""
"null","","image-keyboard-response","11","240927","0.0-2.0-0.3","","img/test2.PNG","null","practice","null","true","","","",""
"null","","html-keyboard-response","12","241929","0.0-2.0-1.3","","<img src=""img/test2-reward.PNG"">","null","","","","","","",""
"null","","html-keyboard-response","13","242930","0.0-2.0-2.3","","<div style=""font-size:60px;"">+</div>","null","","","","","","",""
"null","","image-keyboard-response","14","244432","0.0-2.0-0.4","","img/test3.PNG","null","practice","null","true","","","",""
"null","","html-keyboard-response","15","245434","0.0-2.0-1.4","","<img src=""img/test3-reward.PNG"">","null","","","","","","",""
"null","","html-keyboard-response","16","246436","0.0-2.0-2.4","","<div style=""font-size:60px;"">+</div>","null","","","","","","",""
"388.4649998508394","","image-keyboard-response","17","246826","0.0-2.0-0.5","","img/test1.PNG","32","practice","32","true","","","",""
"null","","html-keyboard-response","18","247827","0.0-2.0-1.5","","<img src=""img/test1-reward.PNG"" border=""10px; grey"">","null","","","","","","",""
"null","","html-keyboard-response","19","248829","0.0-2.0-2.5","","<div style=""font-size:60px;"">+</div>","null","","","","","","",""
"null","","image-keyboard-response","20","250331","0.0-2.0-0.6","","img/test2.PNG","null","practice","null","true","","","",""
"null","","html-keyboard-response","21","251333","0.0-2.0-1.6","","<img src=""img/test2-reward.PNG"">","null","","","","","","",""
"null","","html-keyboard-response","22","252334","0.0-2.0-2.6","","<div style=""font-size:60px;"">+</div>","null","","","","","","",""
"762.455000076443","","image-keyboard-response","23","253098","0.0-2.0-0.7","","img/test1.PNG","32","practice","32","true","","","",""
"null","","html-keyboard-response","24","254099","0.0-2.0-1.7","","<img src=""img/test1-reward.PNG"" border=""10px; grey"">","null","","","","","","",""
"null","","html-keyboard-response","25","255100","0.0-2.0-2.7","","<div style=""font-size:60px;"">+</div>","null","","","","","","",""
"null","","image-keyboard-response","26","256602","0.0-2.0-0.8","","img/test3.PNG","null","practice","null","true","","","",""
"null","","html-keyboard-response","27","257603","0.0-2.0-1.8","","<img src=""img/test3-reward.PNG"">","null","","","","","","",""
"null","","html-keyboard-response","28","258605","0.0-2.0-2.8","","<div style=""font-size:60px;"">+</div>","null","","","","","","",""
"null","","image-keyboard-response","29","260108","0.0-2.0-0.9","","img/test2.PNG","null","practice","null","true","","","",""
"null","","html-keyboard-response","30","261109","0.0-2.0-1.9","","<img src=""img/test2-reward.PNG"">","null","","","","","","",""
"null","","html-keyboard-response","31","262111","0.0-2.0-2.9","","<div style=""font-size:60px;"">+</div>","null","","","","","","",""
"null","","image-keyboard-response","32","263613","0.0-2.0-0.10","","img/test3.PNG","null","practice","null","true","","","",""
"null","","html-keyboard-response","33","264615","0.0-2.0-1.10","","<img src=""img/test3-reward.PNG"">","null","","","","","","",""
"null","","html-keyboard-response","34","265617","0.0-2.0-2.10","","<div style=""font-size:60px;"">+</div>","null","","","","","","",""
"511.8699998129159","","image-keyboard-response","35","266130","0.0-2.0-0.11","","img/test1.PNG","32","practice","32","true","","","",""
"null","","html-keyboard-response","36","267131","0.0-2.0-1.11","","<img src=""img/test1-reward.PNG"" border=""10px; grey"">","null","","","","","","",""
"null","","html-keyboard-response","37","268133","0.0-2.0-2.11","","<div style=""font-size:60px;"">+</div>","null","","","","","","",""
"2444.819999858737","","instructions","38","270578","0.0-3.0","[{""page_index"":0,""viewing_time"":2444.439999992028}]","","","","","","","","",""
"null","","image-keyboard-response","39","272081","0.0-4.0-0.0","","img/red.png","null","trial","null","true","0.2,0.8","2:nogo_b","",""
"null","","html-keyboard-response","40","273085","0.0-4.0-1.0","","<img src=""img/red-r.png"">","null","trial","null","","0.2,0.8","2:nogo_b","1",""
"null","","html-keyboard-response","41","274088","0.0-4.0-2.0","","<div style=""font-size:60px;"">+</div>","null","","","","","","",""
"null","","image-keyboard-response","42","275590","0.0-4.0-0.1","","img/orange.png","null","trial","32","false","0.8,0.2","1:go_a","",""
"null","","html-keyboard-response","43","276591","0.0-4.0-1.1","","<img src=""img/orange-n.png"">","null","trial","32","","0.8,0.2","1:go_a","0",""
"null","","html-keyboard-response","44","277593","0.0-4.0-2.1","","<div style=""font-size:60px;"">+</div>","null","","","","","","",""
"472.07999997772276","","image-keyboard-response","45","278066","0.0-4.0-0.2","","img/orange.png","32","trial","32","true","0.8,0.2","1:go_a","",""
"null","","html-keyboard-response","46","279068","0.0-4.0-1.2","","<img src=""img/orange-r.png"" border=""10"">","null","trial","32","","0.8,0.2","1:go_a","1",""
"null","","html-keyboard-response","47","280070","0.0-4.0-2.2","","<div style=""font-size:60px;"">+</div>","null","","","","","","",""
"null","","image-keyboard-response","48","281572","0.0-4.0-0.3","","img/red.png","null","trial","null","true","0.2,0.8","2:nogo_b","",""
"null","","html-keyboard-response","49","282576","0.0-4.0-1.3","","<img src=""img/red-r.png"">","null","trial","null","","0.2,0.8","2:nogo_b","1",""
"null","","html-keyboard-response","50","283580","0.0-4.0-2.3","","<div style=""font-size:60px;"">+</div>","null","","","","","","",""
"381.38499995693564","","image-keyboard-response","51","283962","0.0-4.0-0.4","","img/orange.png","32","trial","32","true","0.8,0.2","1:go_a","",""
"null","","html-keyboard-response","52","284964","0.0-4.0-1.4","","<img src=""img/orange-n.png"" border=""10"">","null","trial","32","","0.8,0.2","1:go_a","0",""
"null","","html-keyboard-response","53","285976","0.0-4.0-2.4","","<div style=""font-size:60px;"">+</div>","null","","","","","","",""
"null","","image-keyboard-response","54","287484","0.0-4.0-0.5","","img/red.png","null","trial","null","true","0.2,0.8","2:nogo_b","",""
"null","","html-keyboard-response","55","288487","0.0-4.0-1.5","","<img src=""img/red-n.png"">","null","trial","null","","0.2,0.8","2:nogo_b","0",""
"null","","html-keyboard-response","56","289488","0.0-4.0-2.5","","<div style=""font-size:60px;"">+</div>","null","","","","","","",""
"473.1550000142306","","image-keyboard-response","57","289962","0.0-4.0-0.6","","img/red.png","32","trial","null","false","0.2,0.8","2:nogo_b","",""
"null","","html-keyboard-response","58","290964","0.0-4.0-1.6","","<img src=""img/red-n.png"" border=""10"">","null","trial","null","","0.2,0.8","2:nogo_b","0",""
"null","","html-keyboard-response","59","291966","0.0-4.0-2.6","","<div style=""font-size:60px;"">+</div>","null","","","","","","",""
"null","","image-keyboard-response","60","293468","0.0-4.0-0.7","","img/orange.png","null","trial","32","false","0.8,0.2","1:go_a","",""
"null","","html-keyboard-response","61","294472","0.0-4.0-1.7","","<img src=""img/orange-n.png"">","null","trial","32","","0.8,0.2","1:go_a","0",""
"null","","html-keyboard-response","62","295474","0.0-4.0-2.7","","<div style=""font-size:60px;"">+</div>","null","","","","","","",""
"null","","image-keyboard-response","63","296976","0.0-4.0-0.8","","img/red.png","null","trial","null","true","0.2,0.8","2:nogo_b","",""
"null","","html-keyboard-response","64","297978","0.0-4.0-1.8","","<img src=""img/red-r.png"">","null","trial","null","","0.2,0.8","2:nogo_b","1",""
"null","","html-keyboard-response","65","298979","0.0-4.0-2.8","","<div style=""font-size:60px;"">+</div>","null","","","","","","",""
"389.98500001616776","","image-keyboard-response","66","299370","0.0-4.0-0.9","","img/orange.png","32","trial","32","true","0.8,0.2","1:go_a","",""
"null","","html-keyboard-response","67","300372","0.0-4.0-1.9","","<img src=""img/orange-r.png"" border=""10"">","null","trial","32","","0.8,0.2","1:go_a","1",""
"null","","html-keyboard-response","68","301374","0.0-4.0-2.9","","<div style=""font-size:60px;"">+</div>","null","","","","","","",""
"null","","image-keyboard-response","69","302876","0.0-4.0-0.10","","img/red.png","null","trial","null","true","0.2,0.8","2:nogo_b","",""
"null","","html-keyboard-response","70","303880","0.0-4.0-1.10","","<img src=""img/red-r.png"">","null","trial","null","","0.2,0.8","2:nogo_b","1",""
"null","","html-keyboard-response","71","304882","0.0-4.0-2.10","","<div style=""font-size:60px;"">+</div>","null","","","","","","",""
"382.63999996706843","","image-keyboard-response","72","305266","0.0-4.0-0.11","","img/orange.png","32","trial","32","true","0.8,0.2","1:go_a","",""
"null","","html-keyboard-response","73","306268","0.0-4.0-1.11","","<img src=""img/orange-r.png"" border=""10"">","null","trial","32","","0.8,0.2","1:go_a","1",""
"null","","html-keyboard-response","74","307284","0.0-4.0-2.11","","<div style=""font-size:60px;"">+</div>","null","","","","","","",""
"null","","image-keyboard-response","75","308786","0.0-4.0-0.12","","img/red.png","null","trial","null","true","0.2,0.8","2:nogo_b","",""
"null","","html-keyboard-response","76","309788","0.0-4.0-1.12","","<img src=""img/red-n.png"">","null","trial","null","","0.2,0.8","2:nogo_b","0",""
"null","","html-keyboard-response","77","310790","0.0-4.0-2.12","","<div style=""font-size:60px;"">+</div>","null","","","","","","",""
"355.48499994911253","","image-keyboard-response","78","311147","0.0-4.0-0.13","","img/orange.png","32","trial","32","true","0.8,0.2","1:go_a","",""
"null","","html-keyboard-response","79","312148","0.0-4.0-1.13","","<img src=""img/orange-r.png"" border=""10"">","null","trial","32","","0.8,0.2","1:go_a","1",""
"null","","html-keyboard-response","80","313150","0.0-4.0-2.13","","<div style=""font-size:60px;"">+</div>","null","","","","","","",""
"682.9750000033528","","image-keyboard-response","81","313834","0.0-4.0-0.14","","img/orange.png","32","trial","32","true","0.8,0.2","1:go_a","",""
"null","","html-keyboard-response","82","314836","0.0-4.0-1.14","","<img src=""img/orange-r.png"" border=""10"">","null","trial","32","","0.8,0.2","1:go_a","1",""
"null","","html-keyboard-response","83","315838","0.0-4.0-2.14","","<div style=""font-size:60px;"">+</div>","null","","","","","","",""
"null","","image-keyboard-response","84","317340","0.0-4.0-0.15","","img/red.png","null","trial","null","true","0.2,0.8","2:nogo_b","",""
"null","","html-keyboard-response","85","318355","0.0-4.0-1.15","","<img src=""img/red-r.png"">","null","trial","null","","0.2,0.8","2:nogo_b","1",""
"null","","html-keyboard-response","86","319358","0.0-4.0-2.15","","<div style=""font-size:60px;"">+</div>","null","","","","","","",""
"null","","image-keyboard-response","87","320860","0.0-4.0-0.16","","img/red.png","null","trial","null","true","0.2,0.8","2:nogo_b","",""
"null","","html-keyboard-response","88","321861","0.0-4.0-1.16","","<img src=""img/red-n.png"">","null","trial","null","","0.2,0.8","2:nogo_b","0",""
"null","","html-keyboard-response","89","322871","0.0-4.0-2.16","","<div style=""font-size:60px;"">+</div>","null","","","","","","",""
"442.79500003904104","","image-keyboard-response","90","323314","0.0-4.0-0.17","","img/orange.png","32","trial","32","true","0.8,0.2","1:go_a","",""
"null","","html-keyboard-response","91","324317","0.0-4.0-1.17","","<img src=""img/orange-r.png"" border=""10"">","null","trial","32","","0.8,0.2","1:go_a","1",""
"null","","html-keyboard-response","92","325318","0.0-4.0-2.17","","<div style=""font-size:60px;"">+</div>","null","","","","","","",""
"null","","image-keyboard-response","93","326819","0.0-4.0-0.18","","img/red.png","null","trial","null","true","0.2,0.8","2:nogo_b","",""
"null","","html-keyboard-response","94","327822","0.0-4.0-1.18","","<img src=""img/red-r.png"">","null","trial","null","","0.2,0.8","2:nogo_b","1",""
"null","","html-keyboard-response","95","328825","0.0-4.0-2.18","","<div style=""font-size:60px;"">+</div>","null","","","","","","",""
"568.459999980405","","image-keyboard-response","96","329394","0.0-4.0-0.19","","img/orange.png","32","trial","32","true","0.8,0.2","1:go_a","",""
"null","","html-keyboard-response","97","330397","0.0-4.0-1.19","","<img src=""img/orange-r.png"" border=""10"">","null","trial","32","","0.8,0.2","1:go_a","1",""
"null","","html-keyboard-response","98","331399","0.0-4.0-2.19","","<div style=""font-size:60px;"">+</div>","null","","","","","","",""
"null","","image-keyboard-response","99","332901","0.0-4.0-0.20","","img/red.png","null","trial","null","true","0.2,0.8","2:nogo_b","",""
"null","","html-keyboard-response","100","333903","0.0-4.0-1.20","","<img src=""img/red-r.png"">","null","trial","null","","0.2,0.8","2:nogo_b","1",""
"null","","html-keyboard-response","101","334904","0.0-4.0-2.20","","<div style=""font-size:60px;"">+</div>","null","","","","","","",""
"400.7550000678748","","image-keyboard-response","102","335306","0.0-4.0-0.21","","img/orange.png","32","trial","32","true","0.8,0.2","1:go_a","",""
"null","","html-keyboard-response","103","336308","0.0-4.0-1.21","","<img src=""img/orange-n.png"" border=""10"">","null","trial","32","","0.8,0.2","1:go_a","0",""
"null","","html-keyboard-response","104","337310","0.0-4.0-2.21","","<div style=""font-size:60px;"">+</div>","null","","","","","","",""
"451.27999992109835","","image-keyboard-response","105","337762","0.0-4.0-0.22","","img/orange.png","32","trial","32","true","0.8,0.2","1:go_a","",""
"null","","html-keyboard-response","106","338766","0.0-4.0-1.22","","<img src=""img/orange-n.png"" border=""10"">","null","trial","32","","0.8,0.2","1:go_a","0",""
"null","","html-keyboard-response","107","339769","0.0-4.0-2.22","","<div style=""font-size:60px;"">+</div>","null","","","","","","",""
"null","","image-keyboard-response","108","341272","0.0-4.0-0.23","","img/red.png","null","trial","null","true","0.2,0.8","2:nogo_b","",""
"null","","html-keyboard-response","109","342274","0.0-4.0-1.23","","<img src=""img/red-r.png"">","null","trial","null","","0.2,0.8","2:nogo_b","1",""
"null","","html-keyboard-response","110","343276","0.0-4.0-2.23","","<div style=""font-size:60px;"">+</div>","null","","","","","","",""
"404.64500011876225","","image-keyboard-response","111","343681","0.0-4.0-0.24","","img/orange.png","32","trial","32","true","0.8,0.2","1:go_a","",""
"null","","html-keyboard-response","112","344690","0.0-4.0-1.24","","<img src=""img/orange-r.png"" border=""10"">","null","trial","32","","0.8,0.2","1:go_a","1",""
"null","","html-keyboard-response","113","345707","0.0-4.0-2.24","","<div style=""font-size:60px;"">+</div>","null","","","","","","",""
"null","","image-keyboard-response","114","347210","0.0-4.0-0.25","","img/red.png","null","trial","null","true","0.2,0.8","2:nogo_b","",""
"null","","html-keyboard-response","115","348220","0.0-4.0-1.25","","<img src=""img/red-r.png"">","null","trial","null","","0.2,0.8","2:nogo_b","1",""
"null","","html-keyboard-response","116","349222","0.0-4.0-2.25","","<div style=""font-size:60px;"">+</div>","null","","","","","","",""
"null","","image-keyboard-response","117","350724","0.0-4.0-0.26","","img/red.png","null","trial","null","true","0.2,0.8","2:nogo_b","",""
"null","","html-keyboard-response","118","351726","0.0-4.0-1.26","","<img src=""img/red-r.png"">","null","trial","null","","0.2,0.8","2:nogo_b","1",""
"null","","html-keyboard-response","119","352728","0.0-4.0-2.26","","<div style=""font-size:60px;"">+</div>","null","","","","","","",""
"407.670000102371","","image-keyboard-response","120","353138","0.0-4.0-0.27","","img/orange.png","32","trial","32","true","0.8,0.2","1:go_a","",""
"null","","html-keyboard-response","121","354140","0.0-4.0-1.27","","<img src=""img/orange-r.png"" border=""10"">","null","trial","32","","0.8,0.2","1:go_a","1",""
"null","","html-keyboard-response","122","355141","0.0-4.0-2.27","","<div style=""font-size:60px;"">+</div>","null","","","","","","",""
"null","","image-keyboard-response","123","356643","0.0-4.0-0.28","","img/red.png","null","trial","null","true","0.2,0.8","2:nogo_b","",""
"null","","html-keyboard-response","124","357648","0.0-4.0-1.28","","<img src=""img/red-r.png"">","null","trial","null","","0.2,0.8","2:nogo_b","1",""
"null","","html-keyboard-response","125","358649","0.0-4.0-2.28","","<div style=""font-size:60px;"">+</div>","null","","","","","","",""
"407.07499999552965","","image-keyboard-response","126","359057","0.0-4.0-0.29","","img/orange.png","32","trial","32","true","0.8,0.2","1:go_a","",""
"null","","html-keyboard-response","127","360060","0.0-4.0-1.29","","<img src=""img/orange-r.png"" border=""10"">","null","trial","32","","0.8,0.2","1:go_a","1",""
"null","","html-keyboard-response","128","361062","0.0-4.0-2.29","","<div style=""font-size:60px;"">+</div>","null","","","","","","",""
"null","","image-keyboard-response","129","362564","0.0-4.0-0.30","","img/red.png","null","trial","null","true","0.2,0.8","2:nogo_b","",""
"null","","html-keyboard-response","130","363565","0.0-4.0-1.30","","<img src=""img/red-r.png"">","null","trial","null","","0.2,0.8","2:nogo_b","1",""
"null","","html-keyboard-response","131","364566","0.0-4.0-2.30","","<div style=""font-size:60px;"">+</div>","null","","","","","","",""
"370.7300000824034","","image-keyboard-response","132","364938","0.0-4.0-0.31","","img/orange.png","32","trial","32","true","0.8,0.2","1:go_a","",""
"null","","html-keyboard-response","133","365941","0.0-4.0-1.31","","<img src=""img/orange-r.png"" border=""10"">","null","trial","32","","0.8,0.2","1:go_a","1",""
"null","","html-keyboard-response","134","366948","0.0-4.0-2.31","","<div style=""font-size:60px;"">+</div>","null","","","","","","",""
"null","","image-keyboard-response","135","368450","0.0-4.0-0.32","","img/red.png","null","trial","null","true","0.2,0.8","2:nogo_b","",""
"null","","html-keyboard-response","136","369453","0.0-4.0-1.32","","<img src=""img/red-r.png"">","null","trial","null","","0.2,0.8","2:nogo_b","1",""
"null","","html-keyboard-response","137","370454","0.0-4.0-2.32","","<div style=""font-size:60px;"">+</div>","null","","","","","","",""
"338.6099999770522","","image-keyboard-response","138","370794","0.0-4.0-0.33","","img/orange.png","32","trial","32","true","0.8,0.2","1:go_a","",""
"null","","html-keyboard-response","139","371796","0.0-4.0-1.33","","<img src=""img/orange-r.png"" border=""10"">","null","trial","32","","0.8,0.2","1:go_a","1",""
"null","","html-keyboard-response","140","372801","0.0-4.0-2.33","","<div style=""font-size:60px;"">+</div>","null","","","","","","",""
"407.78500004671514","","image-keyboard-response","141","373210","0.0-4.0-0.34","","img/orange.png","32","trial","32","true","0.8,0.2","1:go_a","",""
"null","","html-keyboard-response","142","374211","0.0-4.0-1.34","","<img src=""img/orange-n.png"" border=""10"">","null","trial","32","","0.8,0.2","1:go_a","0",""
"null","","html-keyboard-response","143","375214","0.0-4.0-2.34","","<div style=""font-size:60px;"">+</div>","null","","","","","","",""
"null","","image-keyboard-response","144","376715","0.0-4.0-0.35","","img/red.png","null","trial","null","true","0.2,0.8","2:nogo_b","",""
"null","","html-keyboard-response","145","377717","0.0-4.0-1.35","","<img src=""img/red-n.png"">","null","trial","null","","0.2,0.8","2:nogo_b","0",""
"null","","html-keyboard-response","146","378718","0.0-4.0-2.35","","<div style=""font-size:60px;"">+</div>","null","","","","","","",""
"null","","image-keyboard-response","147","380219","0.0-4.0-0.36","","img/red.png","null","trial","null","true","0.2,0.8","2:nogo_b","",""
"null","","html-keyboard-response","148","381221","0.0-4.0-1.36","","<img src=""img/red-r.png"">","null","trial","null","","0.2,0.8","2:nogo_b","1",""
"null","","html-keyboard-response","149","382222","0.0-4.0-2.36","","<div style=""font-size:60px;"">+</div>","null","","","","","","",""
"410.6300000566989","","image-keyboard-response","150","382634","0.0-4.0-0.37","","img/orange.png","32","trial","32","true","0.8,0.2","1:go_a","",""
"null","","html-keyboard-response","151","383636","0.0-4.0-1.37","","<img src=""img/orange-r.png"" border=""10"">","null","trial","32","","0.8,0.2","1:go_a","1",""
"null","","html-keyboard-response","152","384638","0.0-4.0-2.37","","<div style=""font-size:60px;"">+</div>","null","","","","","","",""
"null","","image-keyboard-response","153","386139","0.0-4.0-0.38","","img/red.png","null","trial","null","true","0.2,0.8","2:nogo_b","",""
"null","","html-keyboard-response","154","387142","0.0-4.0-1.38","","<img src=""img/red-r.png"">","null","trial","null","","0.2,0.8","2:nogo_b","1",""
"null","","html-keyboard-response","155","388144","0.0-4.0-2.38","","<div style=""font-size:60px;"">+</div>","null","","","","","","",""
"440.9050000831485","","image-keyboard-response","156","388586","0.0-4.0-0.39","","img/orange.png","32","trial","32","true","0.8,0.2","1:go_a","",""
"null","","html-keyboard-response","157","389588","0.0-4.0-1.39","","<img src=""img/orange-r.png"" border=""10"">","null","trial","32","","0.8,0.2","1:go_a","1",""
"null","","html-keyboard-response","158","390590","0.0-4.0-2.39","","<div style=""font-size:60px;"">+</div>","null","","","","","","",""
"426.9349998794496","","image-keyboard-response","159","391018","0.0-4.0-0.40","","img/orange.png","32","trial","32","true","0.8,0.2","1:go_a","",""
"null","","html-keyboard-response","160","392021","0.0-4.0-1.40","","<img src=""img/orange-n.png"" border=""10"">","null","trial","32","","0.8,0.2","1:go_a","0",""
"null","","html-keyboard-response","161","393022","0.0-4.0-2.40","","<div style=""font-size:60px;"">+</div>","null","","","","","","",""
"null","","image-keyboard-response","162","394524","0.0-4.0-0.41","","img/red.png","null","trial","null","true","0.2,0.8","2:nogo_b","",""
"null","","html-keyboard-response","163","395526","0.0-4.0-1.41","","<img src=""img/red-r.png"">","null","trial","null","","0.2,0.8","2:nogo_b","1",""
"null","","html-keyboard-response","164","396528","0.0-4.0-2.41","","<div style=""font-size:60px;"">+</div>","null","","","","","","",""
"409.57999997772276","","image-keyboard-response","165","396938","0.0-4.0-0.42","","img/orange.png","32","trial","32","true","0.8,0.2","1:go_a","",""
"null","","html-keyboard-response","166","397941","0.0-4.0-1.42","","<img src=""img/orange-r.png"" border=""10"">","null","trial","32","","0.8,0.2","1:go_a","1",""
"null","","html-keyboard-response","167","398943","0.0-4.0-2.42","","<div style=""font-size:60px;"">+</div>","null","","","","","","",""
"null","","image-keyboard-response","168","400447","0.0-4.0-0.43","","img/red.png","null","trial","null","true","0.2,0.8","2:nogo_b","",""
"null","","html-keyboard-response","169","401450","0.0-4.0-1.43","","<img src=""img/red-r.png"">","null","trial","null","","0.2,0.8","2:nogo_b","1",""
"null","","html-keyboard-response","170","402451","0.0-4.0-2.43","","<div style=""font-size:60px;"">+</div>","null","","","","","","",""
"null","","image-keyboard-response","171","403953","0.0-4.0-0.44","","img/red.png","null","trial","null","true","0.2,0.8","2:nogo_b","",""
"null","","html-keyboard-response","172","404956","0.0-4.0-1.44","","<img src=""img/red-r.png"">","null","trial","null","","0.2,0.8","2:nogo_b","1",""
"null","","html-keyboard-response","173","405957","0.0-4.0-2.44","","<div style=""font-size:60px;"">+</div>","null","","","","","","",""
"483.6200000718236","","image-keyboard-response","174","406442","0.0-4.0-0.45","","img/orange.png","32","trial","32","true","0.8,0.2","1:go_a","",""
"null","","html-keyboard-response","175","407444","0.0-4.0-1.45","","<img src=""img/orange-n.png"" border=""10"">","null","trial","32","","0.8,0.2","1:go_a","0",""
"null","","html-keyboard-response","176","408445","0.0-4.0-2.45","","<div style=""font-size:60px;"">+</div>","null","","","","","","",""
"null","","image-keyboard-response","177","409947","0.0-4.0-0.46","","img/red.png","null","trial","null","true","0.2,0.8","2:nogo_b","",""
"null","","html-keyboard-response","178","410949","0.0-4.0-1.46","","<img src=""img/red-r.png"">","null","trial","null","","0.2,0.8","2:nogo_b","1",""
"null","","html-keyboard-response","179","411951","0.0-4.0-2.46","","<div style=""font-size:60px;"">+</div>","null","","","","","","",""
"466.054999968037","","image-keyboard-response","180","412418","0.0-4.0-0.47","","img/orange.png","32","trial","32","true","0.8,0.2","1:go_a","",""
"null","","html-keyboard-response","181","413421","0.0-4.0-1.47","","<img src=""img/orange-r.png"" border=""10"">","null","trial","32","","0.8,0.2","1:go_a","1",""
"null","","html-keyboard-response","182","414423","0.0-4.0-2.47","","<div style=""font-size:60px;"">+</div>","null","","","","","","",""
"null","","image-keyboard-response","183","415924","0.0-4.0-0.48","","img/red.png","null","trial","null","true","0.2,0.8","2:nogo_b","",""
"null","","html-keyboard-response","184","416927","0.0-4.0-1.48","","<img src=""img/red-r.png"">","null","trial","null","","0.2,0.8","2:nogo_b","1",""
"null","","html-keyboard-response","185","417928","0.0-4.0-2.48","","<div style=""font-size:60px;"">+</div>","null","","","","","","",""
"401.45999984815717","","image-keyboard-response","186","418331","0.0-4.0-0.49","","img/orange.png","32","trial","32","true","0.8,0.2","1:go_a","",""
"null","","html-keyboard-response","187","419333","0.0-4.0-1.49","","<img src=""img/orange-r.png"" border=""10"">","null","trial","32","","0.8,0.2","1:go_a","1",""
"null","","html-keyboard-response","188","420336","0.0-4.0-2.49","","<div style=""font-size:60px;"">+</div>","null","","","","","","",""
"null","","image-keyboard-response","189","421838","0.0-4.0-0.50","","img/red.png","null","trial","null","true","0.2,0.8","2:nogo_b","",""
"null","","html-keyboard-response","190","422840","0.0-4.0-1.50","","<img src=""img/red-r.png"">","null","trial","null","","0.2,0.8","2:nogo_b","1",""
"null","","html-keyboard-response","191","423841","0.0-4.0-2.50","","<div style=""font-size:60px;"">+</div>","null","","","","","","",""
"504.2299998458475","","image-keyboard-response","192","424346","0.0-4.0-0.51","","img/orange.png","32","trial","32","true","0.8,0.2","1:go_a","",""
"null","","html-keyboard-response","193","425353","0.0-4.0-1.51","","<img src=""img/orange-r.png"" border=""10"">","null","trial","32","","0.8,0.2","1:go_a","1",""
"null","","html-keyboard-response","194","426355","0.0-4.0-2.51","","<div style=""font-size:60px;"">+</div>","null","","","","","","",""
"null","","image-keyboard-response","195","427857","0.0-4.0-0.52","","img/red.png","null","trial","null","true","0.2,0.8","2:nogo_b","",""
"null","","html-keyboard-response","196","428860","0.0-4.0-1.52","","<img src=""img/red-r.png"">","null","trial","null","","0.2,0.8","2:nogo_b","1",""
"null","","html-keyboard-response","197","429861","0.0-4.0-2.52","","<div style=""font-size:60px;"">+</div>","null","","","","","","",""
"499.82999986968935","","image-keyboard-response","198","430362","0.0-4.0-0.53","","img/orange.png","32","trial","32","true","0.8,0.2","1:go_a","",""
"null","","html-keyboard-response","199","431365","0.0-4.0-1.53","","<img src=""img/orange-r.png"" border=""10"">","null","trial","32","","0.8,0.2","1:go_a","1",""
"null","","html-keyboard-response","200","432368","0.0-4.0-2.53","","<div style=""font-size:60px;"">+</div>","null","","","","","","",""
"null","","image-keyboard-response","201","433870","0.0-4.0-0.54","","img/red.png","null","trial","null","true","0.2,0.8","2:nogo_b","",""
"null","","html-keyboard-response","202","434872","0.0-4.0-1.54","","<img src=""img/red-r.png"">","null","trial","null","","0.2,0.8","2:nogo_b","1",""
"null","","html-keyboard-response","203","435873","0.0-4.0-2.54","","<div style=""font-size:60px;"">+</div>","null","","","","","","",""
"367.47499997727573","","image-keyboard-response","204","436242","0.0-4.0-0.55","","img/orange.png","32","trial","32","true","0.8,0.2","1:go_a","",""
"null","","html-keyboard-response","205","437245","0.0-4.0-1.55","","<img src=""img/orange-r.png"" border=""10"">","null","trial","32","","0.8,0.2","1:go_a","1",""
"null","","html-keyboard-response","206","438247","0.0-4.0-2.55","","<div style=""font-size:60px;"">+</div>","null","","","","","","",""
"450.575000140816","","image-keyboard-response","207","438698","0.0-4.0-0.56","","img/orange.png","32","trial","32","true","0.8,0.2","1:go_a","",""
"null","","html-keyboard-response","208","439702","0.0-4.0-1.56","","<img src=""img/orange-r.png"" border=""10"">","null","trial","32","","0.8,0.2","1:go_a","1",""
"null","","html-keyboard-response","209","440704","0.0-4.0-2.56","","<div style=""font-size:60px;"">+</div>","null","","","","","","",""
"null","","image-keyboard-response","210","442204","0.0-4.0-0.57","","img/red.png","null","trial","null","true","0.2,0.8","2:nogo_b","",""
"null","","html-keyboard-response","211","443206","0.0-4.0-1.57","","<img src=""img/red-n.png"">","null","trial","null","","0.2,0.8","2:nogo_b","0",""
"null","","html-keyboard-response","212","444209","0.0-4.0-2.57","","<div style=""font-size:60px;"">+</div>","null","","","","","","",""
"null","","image-keyboard-response","213","445711","0.0-4.0-0.58","","img/red.png","null","trial","null","true","0.2,0.8","2:nogo_b","",""
"null","","html-keyboard-response","214","446712","0.0-4.0-1.58","","<img src=""img/red-r.png"">","null","trial","null","","0.2,0.8","2:nogo_b","1",""
"null","","html-keyboard-response","215","447714","0.0-4.0-2.58","","<div style=""font-size:60px;"">+</div>","null","","","","","","",""
"423.43999980948865","","image-keyboard-response","216","448138","0.0-4.0-0.59","","img/orange.png","32","trial","32","true","0.8,0.2","1:go_a","",""
"null","","html-keyboard-response","217","449141","0.0-4.0-1.59","","<img src=""img/orange-n.png"" border=""10"">","null","trial","32","","0.8,0.2","1:go_a","0",""
"null","","html-keyboard-response","218","450142","0.0-4.0-2.59","","<div style=""font-size:60px;"">+</div>","null","","","","","","",""
"52429.9699999392","","instructions","219","502572","0.0-5.0","[{""page_index"":0,""viewing_time"":52429.76999981329}]","","","","","","","","",""
"null","","image-keyboard-response","220","504074","0.0-6.0-0.0","","img/blue.png","null","trial","32","false","0.6,0.4","3:go_c","",""
"null","","html-keyboard-response","221","505076","0.0-6.0-1.0","","<img src=""img/blue-n.png"">","null","trial","32","","0.6,0.4","3:go_c","0",""
"null","","html-keyboard-response","222","506077","0.0-6.0-2.0","","<div style=""font-size:60px;"">+</div>","null","","","","","","",""
"null","","image-keyboard-response","223","507579","0.0-6.0-0.1","","img/pink.png","null","trial","32","false","0.6,0.4","1:go_a","",""
"null","","html-keyboard-response","224","508582","0.0-6.0-1.1","","<img src=""img/pink-n.png"">","null","trial","32","","0.6,0.4","1:go_a","0",""
"null","","html-keyboard-response","225","509584","0.0-6.0-2.1","","<div style=""font-size:60px;"">+</div>","null","","","","","","",""
"null","","image-keyboard-response","226","511085","0.0-6.0-0.2","","img/green.png","null","trial","null","true","0.4,0.6","4:nogo_d","",""
"null","","html-keyboard-response","227","512088","0.0-6.0-1.2","","<img src=""img/green-r.png"">","null","trial","null","","0.4,0.6","4:nogo_d","1",""
"null","","html-keyboard-response","228","513143","0.0-6.0-2.2","","<div style=""font-size:60px;"">+</div>","null","","","","","","",""
"null","","image-keyboard-response","229","514645","0.0-6.0-0.3","","img/purple.png","null","trial","null","true","0.4,0.6","2:nogo_b","",""
"null","","html-keyboard-response","230","515647","0.0-6.0-1.3","","<img src=""img/purple-r.png"">","null","trial","null","","0.4,0.6","2:nogo_b","1",""
"null","","html-keyboard-response","231","516650","0.0-6.0-2.3","","<div style=""font-size:60px;"">+</div>","null","","","","","","",""
"559.6199999563396","","image-keyboard-response","232","517210","0.0-6.0-0.4","","img/pink.png","32","trial","32","true","0.6,0.4","1:go_a","",""
"null","","html-keyboard-response","233","518212","0.0-6.0-1.4","","<img src=""img/pink-n.png"" border=""10"">","null","trial","32","","0.6,0.4","1:go_a","0",""
"null","","html-keyboard-response","234","519217","0.0-6.0-2.4","","<div style=""font-size:60px;"">+</div>","null","","","","","","",""
"null","","image-keyboard-response","235","520719","0.0-6.0-0.5","","img/green.png","null","trial","null","true","0.4,0.6","4:nogo_d","",""
"null","","html-keyboard-response","236","521766","0.0-6.0-1.5","","<img src=""img/green-n.png"">","null","trial","null","","0.4,0.6","4:nogo_d","0",""
"null","","html-keyboard-response","237","522768","0.0-6.0-2.5","","<div style=""font-size:60px;"">+</div>","null","","","","","","",""
"752.7199999894947","","image-keyboard-response","238","523522","0.0-6.0-0.6","","img/blue.png","32","trial","32","true","0.6,0.4","3:go_c","",""
"null","","html-keyboard-response","239","524524","0.0-6.0-1.6","","<img src=""img/blue-r.png"" border=""10"">","null","trial","32","","0.6,0.4","3:go_c","1",""
"null","","html-keyboard-response","240","525526","0.0-6.0-2.6","","<div style=""font-size:60px;"">+</div>","null","","","","","","",""
"null","","image-keyboard-response","241","527028","0.0-6.0-0.7","","img/purple.png","null","trial","null","true","0.4,0.6","2:nogo_b","",""
"null","","html-keyboard-response","242","528031","0.0-6.0-1.7","","<img src=""img/purple-r.png"">","null","trial","null","","0.4,0.6","2:nogo_b","1",""
"null","","html-keyboard-response","243","529034","0.0-6.0-2.7","","<div style=""font-size:60px;"">+</div>","null","","","","","","",""
"null","","image-keyboard-response","244","530536","0.0-6.0-0.8","","img/purple.png","null","trial","null","true","0.4,0.6","2:nogo_b","",""
"null","","html-keyboard-response","245","531538","0.0-6.0-1.8","","<img src=""img/purple-r.png"">","null","trial","null","","0.4,0.6","2:nogo_b","1",""
"null","","html-keyboard-response","246","532540","0.0-6.0-2.8","","<div style=""font-size:60px;"">+</div>","null","","","","","","",""
"null","","image-keyboard-response","247","534042","0.0-6.0-0.9","","img/pink.png","null","trial","32","false","0.6,0.4","1:go_a","",""
"null","","html-keyboard-response","248","535044","0.0-6.0-1.9","","<img src=""img/pink-r.png"">","null","trial","32","","0.6,0.4","1:go_a","1",""
"null","","html-keyboard-response","249","536046","0.0-6.0-2.9","","<div style=""font-size:60px;"">+</div>","null","","","","","","",""
"410.85999994538724","","image-keyboard-response","250","536458","0.0-6.0-0.10","","img/blue.png","32","trial","32","true","0.6,0.4","3:go_c","",""
"null","","html-keyboard-response","251","537461","0.0-6.0-1.10","","<img src=""img/blue-n.png"" border=""10"">","null","trial","32","","0.6,0.4","3:go_c","0",""
"null","","html-keyboard-response","252","538475","0.0-6.0-2.10","","<div style=""font-size:60px;"">+</div>","null","","","","","","",""
"null","","image-keyboard-response","253","539984","0.0-6.0-0.11","","img/green.png","null","trial","null","true","0.4,0.6","4:nogo_d","",""
"null","","html-keyboard-response","254","540986","0.0-6.0-1.11","","<img src=""img/green-r.png"">","null","trial","null","","0.4,0.6","4:nogo_d","1",""
"null","","html-keyboard-response","255","541989","0.0-6.0-2.11","","<div style=""font-size:60px;"">+</div>","null","","","","","","",""
"null","","image-keyboard-response","256","543491","0.0-6.0-0.12","","img/pink.png","null","trial","32","false","0.6,0.4","1:go_a","",""
"null","","html-keyboard-response","257","544493","0.0-6.0-1.12","","<img src=""img/pink-n.png"">","null","trial","32","","0.6,0.4","1:go_a","0",""
"null","","html-keyboard-response","258","545502","0.0-6.0-2.12","","<div style=""font-size:60px;"">+</div>","null","","","","","","",""
"514.869999838993","","image-keyboard-response","259","546018","0.0-6.0-0.13","","img/blue.png","32","trial","32","true","0.6,0.4","3:go_c","",""
"null","","html-keyboard-response","260","547020","0.0-6.0-1.13","","<img src=""img/blue-r.png"" border=""10"">","null","trial","32","","0.6,0.4","3:go_c","1",""
"null","","html-keyboard-response","261","548021","0.0-6.0-2.13","","<div style=""font-size:60px;"">+</div>","null","","","","","","",""
"null","","image-keyboard-response","262","549524","0.0-6.0-0.14","","img/green.png","null","trial","null","true","0.4,0.6","4:nogo_d","",""
"null","","html-keyboard-response","263","550527","0.0-6.0-1.14","","<img src=""img/green-r.png"">","null","trial","null","","0.4,0.6","4:nogo_d","1",""
"null","","html-keyboard-response","264","551528","0.0-6.0-2.14","","<div style=""font-size:60px;"">+</div>","null","","","","","","",""
"null","","image-keyboard-response","265","553030","0.0-6.0-0.15","","img/purple.png","null","trial","null","true","0.4,0.6","2:nogo_b","",""
"null","","html-keyboard-response","266","554031","0.0-6.0-1.15","","<img src=""img/purple-n.png"">","null","trial","null","","0.4,0.6","2:nogo_b","0",""
"null","","html-keyboard-response","267","555034","0.0-6.0-2.15","","<div style=""font-size:60px;"">+</div>","null","","","","","","",""
"471.665000077337","","image-keyboard-response","268","555506","0.0-6.0-0.16","","img/blue.png","32","trial","32","true","0.6,0.4","3:go_c","",""
"null","","html-keyboard-response","269","556508","0.0-6.0-1.16","","<img src=""img/blue-r.png"" border=""10"">","null","trial","32","","0.6,0.4","3:go_c","1",""
"null","","html-keyboard-response","270","557520","0.0-6.0-2.16","","<div style=""font-size:60px;"">+</div>","null","","","","","","",""
"648.5850000753999","","image-keyboard-response","271","558170","0.0-6.0-0.17","","img/pink.png","32","trial","32","true","0.6,0.4","1:go_a","",""
"null","","html-keyboard-response","272","559172","0.0-6.0-1.17","","<img src=""img/pink-n.png"" border=""10"">","null","trial","32","","0.6,0.4","1:go_a","0",""
"null","","html-keyboard-response","273","560173","0.0-6.0-2.17","","<div style=""font-size:60px;"">+</div>","null","","","","","","",""
"null","","image-keyboard-response","274","561676","0.0-6.0-0.18","","img/purple.png","null","trial","null","true","0.4,0.6","2:nogo_b","",""
"null","","html-keyboard-response","275","562679","0.0-6.0-1.18","","<img src=""img/purple-n.png"">","null","trial","null","","0.4,0.6","2:nogo_b","0",""
"null","","html-keyboard-response","276","563682","0.0-6.0-2.18","","<div style=""font-size:60px;"">+</div>","null","","","","","","",""
"null","","image-keyboard-response","277","565184","0.0-6.0-0.19","","img/green.png","null","trial","null","true","0.4,0.6","4:nogo_d","",""
"null","","html-keyboard-response","278","566185","0.0-6.0-1.19","","<img src=""img/green-r.png"">","null","trial","null","","0.4,0.6","4:nogo_d","1",""
"null","","html-keyboard-response","279","567187","0.0-6.0-2.19","","<div style=""font-size:60px;"">+</div>","null","","","","","","",""
"607.079999987036","","image-keyboard-response","280","567795","0.0-6.0-0.20","","img/pink.png","32","trial","32","true","0.6,0.4","1:go_a","",""
"null","","html-keyboard-response","281","568798","0.0-6.0-1.20","","<img src=""img/pink-n.png"" border=""10"">","null","trial","32","","0.6,0.4","1:go_a","0",""
"null","","html-keyboard-response","282","569799","0.0-6.0-2.20","","<div style=""font-size:60px;"">+</div>","null","","","","","","",""
"null","","image-keyboard-response","283","571302","0.0-6.0-0.21","","img/green.png","null","trial","null","true","0.4,0.6","4:nogo_d","",""
"null","","html-keyboard-response","284","572305","0.0-6.0-1.21","","<img src=""img/green-r.png"">","null","trial","null","","0.4,0.6","4:nogo_d","1",""
"null","","html-keyboard-response","285","573306","0.0-6.0-2.21","","<div style=""font-size:60px;"">+</div>","null","","","","","","",""
"503.47999995574355","","image-keyboard-response","286","573811","0.0-6.0-0.22","","img/blue.png","32","trial","32","true","0.6,0.4","3:go_c","",""
"null","","html-keyboard-response","287","574825","0.0-6.0-1.22","","<img src=""img/blue-n.png"" border=""10"">","null","trial","32","","0.6,0.4","3:go_c","0",""
"null","","html-keyboard-response","288","575826","0.0-6.0-2.22","","<div style=""font-size:60px;"">+</div>","null","","","","","","",""
"null","","image-keyboard-response","289","577327","0.0-6.0-0.23","","img/purple.png","null","trial","null","true","0.4,0.6","2:nogo_b","",""
"null","","html-keyboard-response","290","578329","0.0-6.0-1.23","","<img src=""img/purple-n.png"">","null","trial","null","","0.4,0.6","2:nogo_b","0",""
"null","","html-keyboard-response","291","579332","0.0-6.0-2.23","","<div style=""font-size:60px;"">+</div>","null","","","","","","",""
"null","","image-keyboard-response","292","580832","0.0-6.0-0.24","","img/green.png","null","trial","null","true","0.4,0.6","4:nogo_d","",""
"null","","html-keyboard-response","293","581835","0.0-6.0-1.24","","<img src=""img/green-r.png"">","null","trial","null","","0.4,0.6","4:nogo_d","1",""
"null","","html-keyboard-response","294","582852","0.0-6.0-2.24","","<div style=""font-size:60px;"">+</div>","null","","","","","","",""
"621.4850000105798","","image-keyboard-response","295","583475","0.0-6.0-0.25","","img/purple.png","32","trial","null","false","0.4,0.6","2:nogo_b","",""
"null","","html-keyboard-response","296","584477","0.0-6.0-1.25","","<img src=""img/purple-r.png"" border=""10"">","null","trial","null","","0.4,0.6","2:nogo_b","1",""
"null","","html-keyboard-response","297","585479","0.0-6.0-2.25","","<div style=""font-size:60px;"">+</div>","null","","","","","","",""
"null","","image-keyboard-response","298","586980","0.0-6.0-0.26","","img/pink.png","null","trial","32","false","0.6,0.4","1:go_a","",""
"null","","html-keyboard-response","299","587982","0.0-6.0-1.26","","<img src=""img/pink-r.png"">","null","trial","32","","0.6,0.4","1:go_a","1",""
"null","","html-keyboard-response","300","588984","0.0-6.0-2.26","","<div style=""font-size:60px;"">+</div>","null","","","","","","",""
"434.150000102818","","image-keyboard-response","301","589419","0.0-6.0-0.27","","img/blue.png","32","trial","32","true","0.6,0.4","3:go_c","",""
"null","","html-keyboard-response","302","590421","0.0-6.0-1.27","","<img src=""img/blue-n.png"" border=""10"">","null","trial","32","","0.6,0.4","3:go_c","0",""
"null","","html-keyboard-response","303","591423","0.0-6.0-2.27","","<div style=""font-size:60px;"">+</div>","null","","","","","","",""
"null","","image-keyboard-response","304","592927","0.0-6.0-0.28","","img/pink.png","null","trial","32","false","0.6,0.4","1:go_a","",""
"null","","html-keyboard-response","305","593930","0.0-6.0-1.28","","<img src=""img/pink-n.png"">","null","trial","32","","0.6,0.4","1:go_a","0",""
"null","","html-keyboard-response","306","594933","0.0-6.0-2.28","","<div style=""font-size:60px;"">+</div>","null","","","","","","",""
"null","","image-keyboard-response","307","596435","0.0-6.0-0.29","","img/green.png","null","trial","null","true","0.4,0.6","4:nogo_d","",""
"null","","html-keyboard-response","308","597437","0.0-6.0-1.29","","<img src=""img/green-r.png"">","null","trial","null","","0.4,0.6","4:nogo_d","1",""
"null","","html-keyboard-response","309","598438","0.0-6.0-2.29","","<div style=""font-size:60px;"">+</div>","null","","","","","","",""
"null","","image-keyboard-response","310","599940","0.0-6.0-0.30","","img/blue.png","null","trial","32","false","0.6,0.4","3:go_c","",""
"null","","html-keyboard-response","311","600942","0.0-6.0-1.30","","<img src=""img/blue-n.png"">","null","trial","32","","0.6,0.4","3:go_c","0",""
"null","","html-keyboard-response","312","601944","0.0-6.0-2.30","","<div style=""font-size:60px;"">+</div>","null","","","","","","",""
"418.2150000706315","","image-keyboard-response","313","602363","0.0-6.0-0.31","","img/purple.png","32","trial","null","false","0.4,0.6","2:nogo_b","",""
"null","","html-keyboard-response","314","603365","0.0-6.0-1.31","","<img src=""img/purple-n.png"" border=""10"">","null","trial","null","","0.4,0.6","2:nogo_b","0",""
"null","","html-keyboard-response","315","604367","0.0-6.0-2.31","","<div style=""font-size:60px;"">+</div>","null","","","","","","",""
"662.4400001019239","","image-keyboard-response","316","605035","0.0-6.0-0.32","","img/purple.png","32","trial","null","false","0.4,0.6","2:nogo_b","",""
"null","","html-keyboard-response","317","606037","0.0-6.0-1.32","","<img src=""img/purple-r.png"" border=""10"">","null","trial","null","","0.4,0.6","2:nogo_b","1",""
"null","","html-keyboard-response","318","607038","0.0-6.0-2.32","","<div style=""font-size:60px;"">+</div>","null","","","","","","",""
"null","","image-keyboard-response","319","608540","0.0-6.0-0.33","","img/green.png","null","trial","null","true","0.4,0.6","4:nogo_d","",""
"null","","html-keyboard-response","320","609556","0.0-6.0-1.33","","<img src=""img/green-r.png"">","null","trial","null","","0.4,0.6","4:nogo_d","1",""
"null","","html-keyboard-response","321","610557","0.0-6.0-2.33","","<div style=""font-size:60px;"">+</div>","null","","","","","","",""
"null","","image-keyboard-response","322","612059","0.0-6.0-0.34","","img/pink.png","null","trial","32","false","0.6,0.4","1:go_a","",""
"null","","html-keyboard-response","323","613061","0.0-6.0-1.34","","<img src=""img/pink-n.png"">","null","trial","32","","0.6,0.4","1:go_a","0",""
"null","","html-keyboard-response","324","614063","0.0-6.0-2.34","","<div style=""font-size:60px;"">+</div>","null","","","","","","",""
"611.3399998284876","","image-keyboard-response","325","614675","0.0-6.0-0.35","","img/blue.png","32","trial","32","true","0.6,0.4","3:go_c","",""
"null","","html-keyboard-response","326","615676","0.0-6.0-1.35","","<img src=""img/blue-r.png"" border=""10"">","null","trial","32","","0.6,0.4","3:go_c","1",""
"null","","html-keyboard-response","327","616685","0.0-6.0-2.35","","<div style=""font-size:60px;"">+</div>","null","","","","","","",""
"420.600000070408","","image-keyboard-response","328","617107","0.0-6.0-0.36","","img/purple.png","32","trial","null","false","0.4,0.6","2:nogo_b","",""
"null","","html-keyboard-response","329","618110","0.0-6.0-1.36","","<img src=""img/purple-n.png"" border=""10"">","null","trial","null","","0.4,0.6","2:nogo_b","0",""
"null","","html-keyboard-response","330","619121","0.0-6.0-2.36","","<div style=""font-size:60px;"">+</div>","null","","","","","","",""
"null","","image-keyboard-response","331","620622","0.0-6.0-0.37","","img/green.png","null","trial","null","true","0.4,0.6","4:nogo_d","",""
"null","","html-keyboard-response","332","621623","0.0-6.0-1.37","","<img src=""img/green-n.png"">","null","trial","null","","0.4,0.6","4:nogo_d","0",""
"null","","html-keyboard-response","333","622625","0.0-6.0-2.37","","<div style=""font-size:60px;"">+</div>","null","","","","","","",""
"480.6999999564141","","image-keyboard-response","334","623107","0.0-6.0-0.38","","img/blue.png","32","trial","32","true","0.6,0.4","3:go_c","",""
"null","","html-keyboard-response","335","624109","0.0-6.0-1.38","","<img src=""img/blue-r.png"" border=""10"">","null","trial","32","","0.6,0.4","3:go_c","1",""
"null","","html-keyboard-response","336","625122","0.0-6.0-2.38","","<div style=""font-size:60px;"">+</div>","null","","","","","","",""
"null","","image-keyboard-response","337","626624","0.0-6.0-0.39","","img/pink.png","null","trial","32","false","0.6,0.4","1:go_a","",""
"null","","html-keyboard-response","338","627626","0.0-6.0-1.39","","<img src=""img/pink-n.png"">","null","trial","32","","0.6,0.4","1:go_a","0",""
"null","","html-keyboard-response","339","628627","0.0-6.0-2.39","","<div style=""font-size:60px;"">+</div>","null","","","","","","",""
"694.9500001501292","","image-keyboard-response","340","629323","0.0-6.0-0.40","","img/pink.png","32","trial","32","true","0.6,0.4","1:go_a","",""
"null","","html-keyboard-response","341","630325","0.0-6.0-1.40","","<img src=""img/pink-n.png"" border=""10"">","null","trial","32","","0.6,0.4","1:go_a","0",""
"null","","html-keyboard-response","342","631327","0.0-6.0-2.40","","<div style=""font-size:60px;"">+</div>","null","","","","","","",""
"466.4100001100451","","image-keyboard-response","343","631795","0.0-6.0-0.41","","img/blue.png","32","trial","32","true","0.6,0.4","3:go_c","",""
"null","","html-keyboard-response","344","632797","0.0-6.0-1.41","","<img src=""img/blue-r.png"" border=""10"">","null","trial","32","","0.6,0.4","3:go_c","1",""
"null","","html-keyboard-response","345","633799","0.0-6.0-2.41","","<div style=""font-size:60px;"">+</div>","null","","","","","","",""
"null","","image-keyboard-response","346","635300","0.0-6.0-0.42","","img/green.png","null","trial","null","true","0.4,0.6","4:nogo_d","",""
"null","","html-keyboard-response","347","636324","0.0-6.0-1.42","","<img src=""img/green-r.png"">","null","trial","null","","0.4,0.6","4:nogo_d","1",""
"null","","html-keyboard-response","348","637326","0.0-6.0-2.42","","<div style=""font-size:60px;"">+</div>","null","","","","","","",""
"null","","image-keyboard-response","349","638827","0.0-6.0-0.43","","img/purple.png","null","trial","null","true","0.4,0.6","2:nogo_b","",""
"null","","html-keyboard-response","350","639829","0.0-6.0-1.43","","<img src=""img/purple-r.png"">","null","trial","null","","0.4,0.6","2:nogo_b","1",""
"null","","html-keyboard-response","351","640830","0.0-6.0-2.43","","<div style=""font-size:60px;"">+</div>","null","","","","","","",""
"483.6399999912828","","image-keyboard-response","352","641315","0.0-6.0-0.44","","img/blue.png","32","trial","32","true","0.6,0.4","3:go_c","",""
"null","","html-keyboard-response","353","642317","0.0-6.0-1.44","","<img src=""img/blue-r.png"" border=""10"">","null","trial","32","","0.6,0.4","3:go_c","1",""
"null","","html-keyboard-response","354","643319","0.0-6.0-2.44","","<div style=""font-size:60px;"">+</div>","null","","","","","","",""
"null","","image-keyboard-response","355","644820","0.0-6.0-0.45","","img/green.png","null","trial","null","true","0.4,0.6","4:nogo_d","",""
"null","","html-keyboard-response","356","645822","0.0-6.0-1.45","","<img src=""img/green-r.png"">","null","trial","null","","0.4,0.6","4:nogo_d","1",""
"null","","html-keyboard-response","357","646823","0.0-6.0-2.45","","<div style=""font-size:60px;"">+</div>","null","","","","","","",""
"null","","image-keyboard-response","358","648324","0.0-6.0-0.46","","img/purple.png","null","trial","null","true","0.4,0.6","2:nogo_b","",""
"null","","html-keyboard-response","359","649326","0.0-6.0-1.46","","<img src=""img/purple-n.png"">","null","trial","null","","0.4,0.6","2:nogo_b","0",""
"null","","html-keyboard-response","360","650328","0.0-6.0-2.46","","<div style=""font-size:60px;"">+</div>","null","","","","","","",""
"425.5949999205768","","image-keyboard-response","361","650755","0.0-6.0-0.47","","img/pink.png","32","trial","32","true","0.6,0.4","1:go_a","",""
"null","","html-keyboard-response","362","651757","0.0-6.0-1.47","","<img src=""img/pink-r.png"" border=""10"">","null","trial","32","","0.6,0.4","1:go_a","1",""
"null","","html-keyboard-response","363","652758","0.0-6.0-2.47","","<div style=""font-size:60px;"">+</div>","null","","","","","","",""
"531.7949999589473","","image-keyboard-response","364","653291","0.0-6.0-0.48","","img/pink.png","32","trial","32","true","0.6,0.4","1:go_a","",""
"null","","html-keyboard-response","365","654295","0.0-6.0-1.48","","<img src=""img/pink-n.png"" border=""10"">","null","trial","32","","0.6,0.4","1:go_a","0",""
"null","","html-keyboard-response","366","655295","0.0-6.0-2.48","","<div style=""font-size:60px;"">+</div>","null","","","","","","",""
"null","","image-keyboard-response","367","656796","0.0-6.0-0.49","","img/green.png","null","trial","null","true","0.4,0.6","4:nogo_d","",""
"null","","html-keyboard-response","368","657798","0.0-6.0-1.49","","<img src=""img/green-r.png"">","null","trial","null","","0.4,0.6","4:nogo_d","1",""
"null","","html-keyboard-response","369","658805","0.0-6.0-2.49","","<div style=""font-size:60px;"">+</div>","null","","","","","","",""
"null","","image-keyboard-response","370","660308","0.0-6.0-0.50","","img/purple.png","null","trial","null","true","0.4,0.6","2:nogo_b","",""
"null","","html-keyboard-response","371","661310","0.0-6.0-1.50","","<img src=""img/purple-r.png"">","null","trial","null","","0.4,0.6","2:nogo_b","1",""
"null","","html-keyboard-response","372","662311","0.0-6.0-2.50","","<div style=""font-size:60px;"">+</div>","null","","","","","","",""
"362.8199999220669","","image-keyboard-response","373","662675","0.0-6.0-0.51","","img/blue.png","32","trial","32","true","0.6,0.4","3:go_c","",""
"null","","html-keyboard-response","374","663676","0.0-6.0-1.51","","<img src=""img/blue-n.png"" border=""10"">","null","trial","32","","0.6,0.4","3:go_c","0",""
"null","","html-keyboard-response","375","664678","0.0-6.0-2.51","","<div style=""font-size:60px;"">+</div>","null","","","","","","",""
"604.0199999697506","","image-keyboard-response","376","665283","0.0-6.0-0.52","","img/pink.png","32","trial","32","true","0.6,0.4","1:go_a","",""
"null","","html-keyboard-response","377","666285","0.0-6.0-1.52","","<img src=""img/pink-n.png"" border=""10"">","null","trial","32","","0.6,0.4","1:go_a","0",""
"null","","html-keyboard-response","378","667287","0.0-6.0-2.52","","<div style=""font-size:60px;"">+</div>","null","","","","","","",""
"387.6350000500679","","image-keyboard-response","379","667675","0.0-6.0-0.53","","img/blue.png","32","trial","32","true","0.6,0.4","3:go_c","",""
"null","","html-keyboard-response","380","668678","0.0-6.0-1.53","","<img src=""img/blue-r.png"" border=""10"">","null","trial","32","","0.6,0.4","3:go_c","1",""
"null","","html-keyboard-response","381","669679","0.0-6.0-2.53","","<div style=""font-size:60px;"">+</div>","null","","","","","","",""
"null","","image-keyboard-response","382","671181","0.0-6.0-0.54","","img/green.png","null","trial","null","true","0.4,0.6","4:nogo_d","",""
"null","","html-keyboard-response","383","672183","0.0-6.0-1.54","","<img src=""img/green-r.png"">","null","trial","null","","0.4,0.6","4:nogo_d","1",""
"null","","html-keyboard-response","384","673184","0.0-6.0-2.54","","<div style=""font-size:60px;"">+</div>","null","","","","","","",""
"null","","image-keyboard-response","385","674687","0.0-6.0-0.55","","img/purple.png","null","trial","null","true","0.4,0.6","2:nogo_b","",""
"null","","html-keyboard-response","386","675689","0.0-6.0-1.55","","<img src=""img/purple-n.png"">","null","trial","null","","0.4,0.6","2:nogo_b","0",""
"null","","html-keyboard-response","387","676690","0.0-6.0-2.55","","<div style=""font-size:60px;"">+</div>","null","","","","","","",""
"511.7899999022484","","image-keyboard-response","388","677203","0.0-6.0-0.56","","img/purple.png","32","trial","null","false","0.4,0.6","2:nogo_b","",""
"null","","html-keyboard-response","389","678206","0.0-6.0-1.56","","<img src=""img/purple-n.png"" border=""10"">","null","trial","null","","0.4,0.6","2:nogo_b","0",""
"null","","html-keyboard-response","390","679208","0.0-6.0-2.56","","<div style=""font-size:60px;"">+</div>","null","","","","","","",""
"null","","image-keyboard-response","391","680710","0.0-6.0-0.57","","img/pink.png","null","trial","32","false","0.6,0.4","1:go_a","",""
"null","","html-keyboard-response","392","681713","0.0-6.0-1.57","","<img src=""img/pink-n.png"">","null","trial","32","","0.6,0.4","1:go_a","0",""
"null","","html-keyboard-response","393","682716","0.0-6.0-2.57","","<div style=""font-size:60px;"">+</div>","null","","","","","","",""
"null","","image-keyboard-response","394","684229","0.0-6.0-0.58","","img/green.png","null","trial","null","true","0.4,0.6","4:nogo_d","",""
"null","","html-keyboard-response","395","685231","0.0-6.0-1.58","","<img src=""img/green-n.png"">","null","trial","null","","0.4,0.6","4:nogo_d","0",""
"null","","html-keyboard-response","396","686232","0.0-6.0-2.58","","<div style=""font-size:60px;"">+</div>","null","","","","","","",""
"433.52500000037253","","image-keyboard-response","397","686667","0.0-6.0-0.59","","img/blue.png","32","trial","32","true","0.6,0.4","3:go_c","",""
"null","","html-keyboard-response","398","687669","0.0-6.0-1.59","","<img src=""img/blue-r.png"" border=""10"">","null","trial","32","","0.6,0.4","3:go_c","1",""
"null","","html-keyboard-response","399","688671","0.0-6.0-2.59","","<div style=""font-size:60px;"">+</div>","null","","","","","","",""
"467.8100000601262","","image-keyboard-response","400","689139","0.0-6.0-0.60","","img/blue.png","32","trial","32","true","0.6,0.4","3:go_c","",""
"null","","html-keyboard-response","401","690141","0.0-6.0-1.60","","<img src=""img/blue-r.png"" border=""10"">","null","trial","32","","0.6,0.4","3:go_c","1",""
"null","","html-keyboard-response","402","691143","0.0-6.0-2.60","","<div style=""font-size:60px;"">+</div>","null","","","","","","",""
"642.930000089109","","image-keyboard-response","403","691787","0.0-6.0-0.61","","img/pink.png","32","trial","32","true","0.6,0.4","1:go_a","",""
"null","","html-keyboard-response","404","692795","0.0-6.0-1.61","","<img src=""img/pink-r.png"" border=""10"">","null","trial","32","","0.6,0.4","1:go_a","1",""
"null","","html-keyboard-response","405","693796","0.0-6.0-2.61","","<div style=""font-size:60px;"">+</div>","null","","","","","","",""
"null","","image-keyboard-response","406","695299","0.0-6.0-0.62","","img/green.png","null","trial","null","true","0.4,0.6","4:nogo_d","",""
"null","","html-keyboard-response","407","696301","0.0-6.0-1.62","","<img src=""img/green-n.png"">","null","trial","null","","0.4,0.6","4:nogo_d","0",""
"null","","html-keyboard-response","408","697303","0.0-6.0-2.62","","<div style=""font-size:60px;"">+</div>","null","","","","","","",""
"null","","image-keyboard-response","409","698806","0.0-6.0-0.63","","img/purple.png","null","trial","null","true","0.4,0.6","2:nogo_b","",""
"null","","html-keyboard-response","410","699808","0.0-6.0-1.63","","<img src=""img/purple-r.png"">","null","trial","null","","0.4,0.6","2:nogo_b","1",""
"null","","html-keyboard-response","411","700811","0.0-6.0-2.63","","<div style=""font-size:60px;"">+</div>","null","","","","","","",""
"null","","image-keyboard-response","412","702312","0.0-6.0-0.64","","img/purple.png","null","trial","null","true","0.4,0.6","2:nogo_b","",""
"null","","html-keyboard-response","413","703315","0.0-6.0-1.64","","<img src=""img/purple-n.png"">","null","trial","null","","0.4,0.6","2:nogo_b","0",""
"null","","html-keyboard-response","414","704316","0.0-6.0-2.64","","<div style=""font-size:60px;"">+</div>","null","","","","","","",""
"null","","image-keyboard-response","415","705831","0.0-6.0-0.65","","img/green.png","null","trial","null","true","0.4,0.6","4:nogo_d","",""
"null","","html-keyboard-response","416","706892","0.0-6.0-1.65","","<img src=""img/green-r.png"">","null","trial","null","","0.4,0.6","4:nogo_d","1",""
"null","","html-keyboard-response","417","707922","0.0-6.0-2.65","","<div style=""font-size:60px;"">+</div>","null","","","","","","",""
"551.9250000361353","","image-keyboard-response","418","708476","0.0-6.0-0.66","","img/pink.png","32","trial","32","true","0.6,0.4","1:go_a","",""
"null","","html-keyboard-response","419","709478","0.0-6.0-1.66","","<img src=""img/pink-r.png"" border=""10"">","null","trial","32","","0.6,0.4","1:go_a","1",""
"null","","html-keyboard-response","420","710480","0.0-6.0-2.66","","<div style=""font-size:60px;"">+</div>","null","","","","","","",""
"490.25500006973743","","image-keyboard-response","421","710971","0.0-6.0-0.67","","img/blue.png","32","trial","32","true","0.6,0.4","3:go_c","",""
"null","","html-keyboard-response","422","711973","0.0-6.0-1.67","","<img src=""img/blue-r.png"" border=""10"">","null","trial","32","","0.6,0.4","3:go_c","1",""
"null","","html-keyboard-response","423","712974","0.0-6.0-2.67","","<div style=""font-size:60px;"">+</div>","null","","","","","","",""
"900.2950000576675","","image-keyboard-response","424","713875","0.0-6.0-0.68","","img/pink.png","32","trial","32","true","0.6,0.4","1:go_a","",""
"null","","html-keyboard-response","425","714877","0.0-6.0-1.68","","<img src=""img/pink-r.png"" border=""10"">","null","trial","32","","0.6,0.4","1:go_a","1",""
"null","","html-keyboard-response","426","715897","0.0-6.0-2.68","","<div style=""font-size:60px;"">+</div>","null","","","","","","",""
"null","","image-keyboard-response","427","717399","0.0-6.0-0.69","","img/green.png","null","trial","null","true","0.4,0.6","4:nogo_d","",""
"null","","html-keyboard-response","428","718401","0.0-6.0-1.69","","<img src=""img/green-n.png"">","null","trial","null","","0.4,0.6","4:nogo_d","0",""
"null","","html-keyboard-response","429","719402","0.0-6.0-2.69","","<div style=""font-size:60px;"">+</div>","null","","","","","","",""
"null","","image-keyboard-response","430","720906","0.0-6.0-0.70","","img/purple.png","null","trial","null","true","0.4,0.6","2:nogo_b","",""
"null","","html-keyboard-response","431","721909","0.0-6.0-1.70","","<img src=""img/purple-r.png"">","null","trial","null","","0.4,0.6","2:nogo_b","1",""
"null","","html-keyboard-response","432","722911","0.0-6.0-2.70","","<div style=""font-size:60px;"">+</div>","null","","","","","","",""
"467.65000000596046","","image-keyboard-response","433","723379","0.0-6.0-0.71","","img/blue.png","32","trial","32","true","0.6,0.4","3:go_c","",""
"null","","html-keyboard-response","434","724383","0.0-6.0-1.71","","<img src=""img/blue-n.png"" border=""10"">","null","trial","32","","0.6,0.4","3:go_c","0",""
"null","","html-keyboard-response","435","725384","0.0-6.0-2.71","","<div style=""font-size:60px;"">+</div>","null","","","","","","",""
"442.5050001591444","","image-keyboard-response","436","725827","0.0-6.0-0.72","","img/blue.png","32","trial","32","true","0.6,0.4","3:go_c","",""
"null","","html-keyboard-response","437","726829","0.0-6.0-1.72","","<img src=""img/blue-r.png"" border=""10"">","null","trial","32","","0.6,0.4","3:go_c","1",""
"null","","html-keyboard-response","438","727832","0.0-6.0-2.72","","<div style=""font-size:60px;"">+</div>","null","","","","","","",""
"null","","image-keyboard-response","439","729333","0.0-6.0-0.73","","img/green.png","null","trial","null","true","0.4,0.6","4:nogo_d","",""
"null","","html-keyboard-response","440","730336","0.0-6.0-1.73","","<img src=""img/green-r.png"">","null","trial","null","","0.4,0.6","4:nogo_d","1",""
"null","","html-keyboard-response","441","731338","0.0-6.0-2.73","","<div style=""font-size:60px;"">+</div>","null","","","","","","",""
"664.240000071004","","image-keyboard-response","442","732003","0.0-6.0-0.74","","img/pink.png","32","trial","32","true","0.6,0.4","1:go_a","",""
"null","","html-keyboard-response","443","733009","0.0-6.0-1.74","","<img src=""img/pink-r.png"" border=""10"">","null","trial","32","","0.6,0.4","1:go_a","1",""
"null","","html-keyboard-response","444","734010","0.0-6.0-2.74","","<div style=""font-size:60px;"">+</div>","null","","","","","","",""
"760.6599999126047","","image-keyboard-response","445","734772","0.0-6.0-0.75","","img/purple.png","32","trial","null","false","0.4,0.6","2:nogo_b","",""
"null","","html-keyboard-response","446","735776","0.0-6.0-1.75","","<img src=""img/purple-n.png"" border=""10"">","null","trial","null","","0.4,0.6","2:nogo_b","0",""
"null","","html-keyboard-response","447","736778","0.0-6.0-2.75","","<div style=""font-size:60px;"">+</div>","null","","","","","","",""
"536.5600001532584","","image-keyboard-response","448","737315","0.0-6.0-0.76","","img/pink.png","32","trial","32","true","0.6,0.4","1:go_a","",""
"null","","html-keyboard-response","449","738318","0.0-6.0-1.76","","<img src=""img/pink-r.png"" border=""10"">","null","trial","32","","0.6,0.4","1:go_a","1",""
"null","","html-keyboard-response","450","739319","0.0-6.0-2.76","","<div style=""font-size:60px;"">+</div>","null","","","","","","",""
"427.2849999833852","","image-keyboard-response","451","739747","0.0-6.0-0.77","","img/blue.png","32","trial","32","true","0.6,0.4","3:go_c","",""
"null","","html-keyboard-response","452","740750","0.0-6.0-1.77","","<img src=""img/blue-r.png"" border=""10"">","null","trial","32","","0.6,0.4","3:go_c","1",""
"null","","html-keyboard-response","453","741752","0.0-6.0-2.77","","<div style=""font-size:60px;"">+</div>","null","","","","","","",""
"null","","image-keyboard-response","454","743254","0.0-6.0-0.78","","img/green.png","null","trial","null","true","0.4,0.6","4:nogo_d","",""
"null","","html-keyboard-response","455","744256","0.0-6.0-1.78","","<img src=""img/green-r.png"">","null","trial","null","","0.4,0.6","4:nogo_d","1",""
"null","","html-keyboard-response","456","745258","0.0-6.0-2.78","","<div style=""font-size:60px;"">+</div>","null","","","","","","",""
"null","","image-keyboard-response","457","746759","0.0-6.0-0.79","","img/purple.png","null","trial","null","true","0.4,0.6","2:nogo_b","",""
"null","","html-keyboard-response","458","747762","0.0-6.0-1.79","","<img src=""img/purple-r.png"">","null","trial","null","","0.4,0.6","2:nogo_b","1",""
"null","","html-keyboard-response","459","748764","0.0-6.0-2.79","","<div style=""font-size:60px;"">+</div>","null","","","","","","",""
"510.59500011615455","","image-keyboard-response","460","749276","0.0-6.0-0.80","","img/pink.png","32","trial","32","true","0.6,0.4","1:go_a","",""
"null","","html-keyboard-response","461","750278","0.0-6.0-1.80","","<img src=""img/pink-r.png"" border=""10"">","null","trial","32","","0.6,0.4","1:go_a","1",""
"null","","html-keyboard-response","462","751279","0.0-6.0-2.80","","<div style=""font-size:60px;"">+</div>","null","","","","","","",""
"null","","image-keyboard-response","463","752781","0.0-6.0-0.81","","img/green.png","null","trial","null","true","0.4,0.6","4:nogo_d","",""
"null","","html-keyboard-response","464","753783","0.0-6.0-1.81","","<img src=""img/green-n.png"">","null","trial","null","","0.4,0.6","4:nogo_d","0",""
"null","","html-keyboard-response","465","754786","0.0-6.0-2.81","","<div style=""font-size:60px;"">+</div>","null","","","","","","",""
"424.82500011101365","","image-keyboard-response","466","755211","0.0-6.0-0.82","","img/blue.png","32","trial","32","true","0.6,0.4","3:go_c","",""
"null","","html-keyboard-response","467","756220","0.0-6.0-1.82","","<img src=""img/blue-r.png"" border=""10"">","null","trial","32","","0.6,0.4","3:go_c","1",""
"null","","html-keyboard-response","468","757223","0.0-6.0-2.82","","<div style=""font-size:60px;"">+</div>","null","","","","","","",""
"null","","image-keyboard-response","469","758744","0.0-6.0-0.83","","img/purple.png","null","trial","null","true","0.4,0.6","2:nogo_b","",""
"null","","html-keyboard-response","470","759777","0.0-6.0-1.83","","<img src=""img/purple-r.png"">","null","trial","null","","0.4,0.6","2:nogo_b","1",""
"null","","html-keyboard-response","471","760778","0.0-6.0-2.83","","<div style=""font-size:60px;"">+</div>","null","","","","","","",""
"null","","image-keyboard-response","472","762281","0.0-6.0-0.84","","img/purple.png","null","trial","null","true","0.4,0.6","2:nogo_b","",""
"null","","html-keyboard-response","473","763284","0.0-6.0-1.84","","<img src=""img/purple-r.png"">","null","trial","null","","0.4,0.6","2:nogo_b","1",""
"null","","html-keyboard-response","474","764285","0.0-6.0-2.84","","<div style=""font-size:60px;"">+</div>","null","","","","","","",""
"662.1550000272691","","image-keyboard-response","475","764948","0.0-6.0-0.85","","img/pink.png","32","trial","32","true","0.6,0.4","1:go_a","",""
"null","","html-keyboard-response","476","765951","0.0-6.0-1.85","","<img src=""img/pink-n.png"" border=""10"">","null","trial","32","","0.6,0.4","1:go_a","0",""
"null","","html-keyboard-response","477","766951","0.0-6.0-2.85","","<div style=""font-size:60px;"">+</div>","null","","","","","","",""
"null","","image-keyboard-response","478","768461","0.0-6.0-0.86","","img/green.png","null","trial","null","true","0.4,0.6","4:nogo_d","",""
"null","","html-keyboard-response","479","769464","0.0-6.0-1.86","","<img src=""img/green-r.png"">","null","trial","null","","0.4,0.6","4:nogo_d","1",""
"null","","html-keyboard-response","480","770465","0.0-6.0-2.86","","<div style=""font-size:60px;"">+</div>","null","","","","","","",""
"545.285000000149","","image-keyboard-response","481","771011","0.0-6.0-0.87","","img/blue.png","32","trial","32","true","0.6,0.4","3:go_c","",""
"null","","html-keyboard-response","482","772016","0.0-6.0-1.87","","<img src=""img/blue-r.png"" border=""10"">","null","trial","32","","0.6,0.4","3:go_c","1",""
"null","","html-keyboard-response","483","773018","0.0-6.0-2.87","","<div style=""font-size:60px;"">+</div>","null","","","","","","",""
"811.5850000176579","","image-keyboard-response","484","773835","0.0-6.0-0.88","","img/pink.png","32","trial","32","true","0.6,0.4","1:go_a","",""
"null","","html-keyboard-response","485","774838","0.0-6.0-1.88","","<img src=""img/pink-r.png"" border=""10"">","null","trial","32","","0.6,0.4","1:go_a","1",""
"null","","html-keyboard-response","486","775840","0.0-6.0-2.88","","<div style=""font-size:60px;"">+</div>","null","","","","","","",""
"null","","image-keyboard-response","487","777341","0.0-6.0-0.89","","img/green.png","null","trial","null","true","0.4,0.6","4:nogo_d","",""
"null","","html-keyboard-response","488","778343","0.0-6.0-1.89","","<img src=""img/green-r.png"">","null","trial","null","","0.4,0.6","4:nogo_d","1",""
"null","","html-keyboard-response","489","779345","0.0-6.0-2.89","","<div style=""font-size:60px;"">+</div>","null","","","","","","",""
"473.96000009030104","","image-keyboard-response","490","779820","0.0-6.0-0.90","","img/blue.png","32","trial","32","true","0.6,0.4","3:go_c","",""
"null","","html-keyboard-response","491","780822","0.0-6.0-1.90","","<img src=""img/blue-r.png"" border=""10"">","null","trial","32","","0.6,0.4","3:go_c","1",""
"null","","html-keyboard-response","492","781823","0.0-6.0-2.90","","<div style=""font-size:60px;"">+</div>","null","","","","","","",""
"null","","image-keyboard-response","493","783325","0.0-6.0-0.91","","img/purple.png","null","trial","null","true","0.4,0.6","2:nogo_b","",""
"null","","html-keyboard-response","494","784327","0.0-6.0-1.91","","<img src=""img/purple-r.png"">","null","trial","null","","0.4,0.6","2:nogo_b","1",""
"null","","html-keyboard-response","495","785349","0.0-6.0-2.91","","<div style=""font-size:60px;"">+</div>","null","","","","","","",""
"997.4199999123812","","image-keyboard-response","496","786348","0.0-6.0-0.92","","img/pink.png","32","trial","32","true","0.6,0.4","1:go_a","",""
"null","","html-keyboard-response","497","787350","0.0-6.0-1.92","","<img src=""img/pink-n.png"" border=""10"">","null","trial","32","","0.6,0.4","1:go_a","0",""
"null","","html-keyboard-response","498","788351","0.0-6.0-2.92","","<div style=""font-size:60px;"">+</div>","null","","","","","","",""
"null","","image-keyboard-response","499","789853","0.0-6.0-0.93","","img/green.png","null","trial","null","true","0.4,0.6","4:nogo_d","",""
"null","","html-keyboard-response","500","790855","0.0-6.0-1.93","","<img src=""img/green-n.png"">","null","trial","null","","0.4,0.6","4:nogo_d","0",""
"null","","html-keyboard-response","501","791856","0.0-6.0-2.93","","<div style=""font-size:60px;"">+</div>","null","","","","","","",""
"null","","image-keyboard-response","502","793358","0.0-6.0-0.94","","img/purple.png","null","trial","null","true","0.4,0.6","2:nogo_b","",""
"null","","html-keyboard-response","503","794360","0.0-6.0-1.94","","<img src=""img/purple-n.png"">","null","trial","null","","0.4,0.6","2:nogo_b","0",""
"null","","html-keyboard-response","504","795361","0.0-6.0-2.94","","<div style=""font-size:60px;"">+</div>","null","","","","","","",""
"449.9299998860806","","image-keyboard-response","505","795812","0.0-6.0-0.95","","img/blue.png","32","trial","32","true","0.6,0.4","3:go_c","",""
"null","","html-keyboard-response","506","796814","0.0-6.0-1.95","","<img src=""img/blue-r.png"" border=""10"">","null","trial","32","","0.6,0.4","3:go_c","1",""
"null","","html-keyboard-response","507","797815","0.0-6.0-2.95","","<div style=""font-size:60px;"">+</div>","null","","","","","","",""
"467.1249999664724","","image-keyboard-response","508","798283","0.0-6.0-0.96","","img/blue.png","32","trial","32","true","0.6,0.4","3:go_c","",""
"null","","html-keyboard-response","509","799286","0.0-6.0-1.96","","<img src=""img/blue-r.png"" border=""10"">","null","trial","32","","0.6,0.4","3:go_c","1",""
"null","","html-keyboard-response","510","800287","0.0-6.0-2.96","","<div style=""font-size:60px;"">+</div>","null","","","","","","",""
"587.0400001294911","","image-keyboard-response","511","800875","0.0-6.0-0.97","","img/pink.png","32","trial","32","true","0.6,0.4","1:go_a","",""
"null","","html-keyboard-response","512","801877","0.0-6.0-1.97","","<img src=""img/pink-n.png"" border=""10"">","null","trial","32","","0.6,0.4","1:go_a","0",""
"null","","html-keyboard-response","513","802878","0.0-6.0-2.97","","<div style=""font-size:60px;"">+</div>","null","","","","","","",""
"null","","image-keyboard-response","514","804380","0.0-6.0-0.98","","img/green.png","null","trial","null","true","0.4,0.6","4:nogo_d","",""
"null","","html-keyboard-response","515","805383","0.0-6.0-1.98","","<img src=""img/green-n.png"">","null","trial","null","","0.4,0.6","4:nogo_d","0",""
"null","","html-keyboard-response","516","806384","0.0-6.0-2.98","","<div style=""font-size:60px;"">+</div>","null","","","","","","",""
"null","","image-keyboard-response","517","807886","0.0-6.0-0.99","","img/purple.png","null","trial","null","true","0.4,0.6","2:nogo_b","",""
"null","","html-keyboard-response","518","808891","0.0-6.0-1.99","","<img src=""img/purple-n.png"">","null","trial","null","","0.4,0.6","2:nogo_b","0",""
"null","","html-keyboard-response","519","809893","0.0-6.0-2.99","","<div style=""font-size:60px;"">+</div>","null","","","","","","",""
"null","","image-keyboard-response","520","811394","0.0-6.0-0.100","","img/green.png","null","trial","null","true","0.4,0.6","4:nogo_d","",""
"null","","html-keyboard-response","521","812397","0.0-6.0-1.100","","<img src=""img/green-n.png"">","null","trial","null","","0.4,0.6","4:nogo_d","0",""
"null","","html-keyboard-response","522","813398","0.0-6.0-2.100","","<div style=""font-size:60px;"">+</div>","null","","","","","","",""
"436.6249998565763","","image-keyboard-response","523","813836","0.0-6.0-0.101","","img/blue.png","32","trial","32","true","0.6,0.4","3:go_c","",""
"null","","html-keyboard-response","524","814838","0.0-6.0-1.101","","<img src=""img/blue-r.png"" border=""10"">","null","trial","32","","0.6,0.4","3:go_c","1",""
"null","","html-keyboard-response","525","815840","0.0-6.0-2.101","","<div style=""font-size:60px;"">+</div>","null","","","","","","",""
"null","","image-keyboard-response","526","817341","0.0-6.0-0.102","","img/purple.png","null","trial","null","true","0.4,0.6","2:nogo_b","",""
"null","","html-keyboard-response","527","818343","0.0-6.0-1.102","","<img src=""img/purple-r.png"">","null","trial","null","","0.4,0.6","2:nogo_b","1",""
"null","","html-keyboard-response","528","819344","0.0-6.0-2.102","","<div style=""font-size:60px;"">+</div>","null","","","","","","",""
"642.4200001638383","","image-keyboard-response","529","819988","0.0-6.0-0.103","","img/pink.png","32","trial","32","true","0.6,0.4","1:go_a","",""
"null","","html-keyboard-response","530","820989","0.0-6.0-1.103","","<img src=""img/pink-r.png"" border=""10"">","null","trial","32","","0.6,0.4","1:go_a","1",""
"null","","html-keyboard-response","531","821991","0.0-6.0-2.103","","<div style=""font-size:60px;"">+</div>","null","","","","","","",""
"450.5300000309944","","image-keyboard-response","532","822444","0.0-6.0-0.104","","img/blue.png","32","trial","32","true","0.6,0.4","3:go_c","",""
"null","","html-keyboard-response","533","823445","0.0-6.0-1.104","","<img src=""img/blue-r.png"" border=""10"">","null","trial","32","","0.6,0.4","3:go_c","1",""
"null","","html-keyboard-response","534","824463","0.0-6.0-2.104","","<div style=""font-size:60px;"">+</div>","null","","","","","","",""
"562.2149999253452","","image-keyboard-response","535","825028","0.0-6.0-0.105","","img/pink.png","32","trial","32","true","0.6,0.4","1:go_a","",""
"null","","html-keyboard-response","536","826029","0.0-6.0-1.105","","<img src=""img/pink-r.png"" border=""10"">","null","trial","32","","0.6,0.4","1:go_a","1",""
"null","","html-keyboard-response","537","827030","0.0-6.0-2.105","","<div style=""font-size:60px;"">+</div>","null","","","","","","",""
"null","","image-keyboard-response","538","828532","0.0-6.0-0.106","","img/purple.png","null","trial","null","true","0.4,0.6","2:nogo_b","",""
"null","","html-keyboard-response","539","829533","0.0-6.0-1.106","","<img src=""img/purple-r.png"">","null","trial","null","","0.4,0.6","2:nogo_b","1",""
"null","","html-keyboard-response","540","830546","0.0-6.0-2.106","","<div style=""font-size:60px;"">+</div>","null","","","","","","",""
"null","","image-keyboard-response","541","832048","0.0-6.0-0.107","","img/green.png","null","trial","null","true","0.4,0.6","4:nogo_d","",""
"null","","html-keyboard-response","542","833050","0.0-6.0-1.107","","<img src=""img/green-n.png"">","null","trial","null","","0.4,0.6","4:nogo_d","0",""
"null","","html-keyboard-response","543","834052","0.0-6.0-2.107","","<div style=""font-size:60px;"">+</div>","null","","","","","","",""
"null","","image-keyboard-response","544","835553","0.0-6.0-0.108","","img/purple.png","null","trial","null","true","0.4,0.6","2:nogo_b","",""
"null","","html-keyboard-response","545","836555","0.0-6.0-1.108","","<img src=""img/purple-r.png"">","null","trial","null","","0.4,0.6","2:nogo_b","1",""
"null","","html-keyboard-response","546","837557","0.0-6.0-2.108","","<div style=""font-size:60px;"">+</div>","null","","","","","","",""
"null","","image-keyboard-response","547","839058","0.0-6.0-0.109","","img/green.png","null","trial","null","true","0.4,0.6","4:nogo_d","",""
"null","","html-keyboard-response","548","840061","0.0-6.0-1.109","","<img src=""img/green-r.png"">","null","trial","null","","0.4,0.6","4:nogo_d","1",""
"null","","html-keyboard-response","549","841062","0.0-6.0-2.109","","<div style=""font-size:60px;"">+</div>","null","","","","","","",""
"461.30999992601573","","image-keyboard-response","550","841524","0.0-6.0-0.110","","img/blue.png","32","trial","32","true","0.6,0.4","3:go_c","",""
"null","","html-keyboard-response","551","842526","0.0-6.0-1.110","","<img src=""img/blue-r.png"" border=""10"">","null","trial","32","","0.6,0.4","3:go_c","1",""
"null","","html-keyboard-response","552","843527","0.0-6.0-2.110","","<div style=""font-size:60px;"">+</div>","null","","","","","","",""
"667.2700000926852","","image-keyboard-response","553","844195","0.0-6.0-0.111","","img/pink.png","32","trial","32","true","0.6,0.4","1:go_a","",""
"null","","html-keyboard-response","554","845225","0.0-6.0-1.111","","<img src=""img/pink-n.png"" border=""10"">","null","trial","32","","0.6,0.4","1:go_a","0",""
"null","","html-keyboard-response","555","846227","0.0-6.0-2.111","","<div style=""font-size:60px;"">+</div>","null","","","","","","",""
"535.4999999981374","","image-keyboard-response","556","846764","0.0-6.0-0.112","","img/pink.png","32","trial","32","true","0.6,0.4","1:go_a","",""
"null","","html-keyboard-response","557","847766","0.0-6.0-1.112","","<img src=""img/pink-r.png"" border=""10"">","null","trial","32","","0.6,0.4","1:go_a","1",""
"null","","html-keyboard-response","558","848768","0.0-6.0-2.112","","<div style=""font-size:60px;"">+</div>","null","","","","","","",""
"null","","image-keyboard-response","559","850269","0.0-6.0-0.113","","img/purple.png","null","trial","null","true","0.4,0.6","2:nogo_b","",""
"null","","html-keyboard-response","560","851272","0.0-6.0-1.113","","<img src=""img/purple-r.png"">","null","trial","null","","0.4,0.6","2:nogo_b","1",""
"null","","html-keyboard-response","561","852273","0.0-6.0-2.113","","<div style=""font-size:60px;"">+</div>","null","","","","","","",""
"410.14999989420176","","image-keyboard-response","562","852684","0.0-6.0-0.114","","img/blue.png","32","trial","32","true","0.6,0.4","3:go_c","",""
"null","","html-keyboard-response","563","853687","0.0-6.0-1.114","","<img src=""img/blue-n.png"" border=""10"">","null","trial","32","","0.6,0.4","3:go_c","0",""
"null","","html-keyboard-response","564","854690","0.0-6.0-2.114","","<div style=""font-size:60px;"">+</div>","null","","","","","","",""
"null","","image-keyboard-response","565","856191","0.0-6.0-0.115","","img/green.png","null","trial","null","true","0.4,0.6","4:nogo_d","",""
"null","","html-keyboard-response","566","857193","0.0-6.0-1.115","","<img src=""img/green-r.png"">","null","trial","null","","0.4,0.6","4:nogo_d","1",""
"null","","html-keyboard-response","567","858195","0.0-6.0-2.115","","<div style=""font-size:60px;"">+</div>","null","","","","","","",""
"519.7650000918657","","image-keyboard-response","568","858716","0.0-6.0-0.116","","img/pink.png","32","trial","32","true","0.6,0.4","1:go_a","",""
"null","","html-keyboard-response","569","859718","0.0-6.0-1.116","","<img src=""img/pink-r.png"" border=""10"">","null","trial","32","","0.6,0.4","1:go_a","1",""
"null","","html-keyboard-response","570","860720","0.0-6.0-2.116","","<div style=""font-size:60px;"">+</div>","null","","","","","","",""
"null","","image-keyboard-response","571","862221","0.0-6.0-0.117","","img/purple.png","null","trial","null","true","0.4,0.6","2:nogo_b","",""
"null","","html-keyboard-response","572","863225","0.0-6.0-1.117","","<img src=""img/purple-n.png"">","null","trial","null","","0.4,0.6","2:nogo_b","0",""
"null","","html-keyboard-response","573","864230","0.0-6.0-2.117","","<div style=""font-size:60px;"">+</div>","null","","","","","","",""
"538.0150000564754","","image-keyboard-response","574","864771","0.0-6.0-0.118","","img/blue.png","32","trial","32","true","0.6,0.4","3:go_c","",""
"null","","html-keyboard-response","575","865774","0.0-6.0-1.118","","<img src=""img/blue-n.png"" border=""10"">","null","trial","32","","0.6,0.4","3:go_c","0",""
"null","","html-keyboard-response","576","866776","0.0-6.0-2.118","","<div style=""font-size:60px;"">+</div>","null","","","","","","",""
"null","","image-keyboard-response","577","868278","0.0-6.0-0.119","","img/green.png","null","trial","null","true","0.4,0.6","4:nogo_d","",""
"null","","html-keyboard-response","578","869289","0.0-6.0-1.119","","<img src=""img/green-r.png"">","null","trial","null","","0.4,0.6","4:nogo_d","1",""
"null","","html-keyboard-response","579","870290","0.0-6.0-2.119","","<div style=""font-size:60px;"">+</div>","null","","","","","","",""
"53584.740000078455","","instructions","580","923876","0.0-7.0","[{""page_index"":0,""viewing_time"":53584.41999997012}]","","","","","","","","",""
"null","","image-keyboard-response","581","925380","0.0-8.0-0.0","","img/purple.png","null","trial","32","false","0.8,0.2","1:go_a","",""
"null","","html-keyboard-response","582","926382","0.0-8.0-1.0","","<img src=""img/purple-n.png"">","null","trial","32","","0.8,0.2","1:go_a","0",""
"null","","html-keyboard-response","583","927384","0.0-8.0-2.0","","<div style=""font-size:60px;"">+</div>","null","","","","","","",""
"null","","image-keyboard-response","584","928885","0.0-8.0-0.1","","img/red.png","null","trial","null","true","0.4,0.6","4:nogo_d","",""
"null","","html-keyboard-response","585","929887","0.0-8.0-1.1","","<img src=""img/red-n.png"">","null","trial","null","","0.4,0.6","4:nogo_d","0",""
"null","","html-keyboard-response","586","930888","0.0-8.0-2.1","","<div style=""font-size:60px;"">+</div>","null","","","","","","",""
"null","","image-keyboard-response","587","932390","0.0-8.0-0.2","","img/yellow.png","null","trial","null","true","0.2,0.8","2:nogo_b","",""
"null","","html-keyboard-response","588","933393","0.0-8.0-1.2","","<img src=""img/yellow-r.png"">","null","trial","null","","0.2,0.8","2:nogo_b","1",""
"null","","html-keyboard-response","589","934395","0.0-8.0-2.2","","<div style=""font-size:60px;"">+</div>","null","","","","","","",""
"null","","image-keyboard-response","590","935896","0.0-8.0-0.3","","img/orange.png","null","trial","32","false","0.6,0.4","3:go_c","",""
"null","","html-keyboard-response","591","936899","0.0-8.0-1.3","","<img src=""img/orange-n.png"">","null","trial","32","","0.6,0.4","3:go_c","0",""
"null","","html-keyboard-response","592","937900","0.0-8.0-2.3","","<div style=""font-size:60px;"">+</div>","null","","","","","","",""
"462.99999998882413","","image-keyboard-response","593","938364","0.0-8.0-0.4","","img/purple.png","32","trial","32","true","0.8,0.2","1:go_a","",""
"null","","html-keyboard-response","594","939369","0.0-8.0-1.4","","<img src=""img/purple-r.png"" border=""10"">","null","trial","32","","0.8,0.2","1:go_a","1",""
"null","","html-keyboard-response","595","940372","0.0-8.0-2.4","","<div style=""font-size:60px;"">+</div>","null","","","","","","",""
"null","","image-keyboard-response","596","941873","0.0-8.0-0.5","","img/yellow.png","null","trial","null","true","0.2,0.8","2:nogo_b","",""
"null","","html-keyboard-response","597","942875","0.0-8.0-1.5","","<img src=""img/yellow-r.png"">","null","trial","null","","0.2,0.8","2:nogo_b","1",""
"null","","html-keyboard-response","598","943876","0.0-8.0-2.5","","<div style=""font-size:60px;"">+</div>","null","","","","","","",""
"918.8099999446422","","image-keyboard-response","599","944796","0.0-8.0-0.6","","img/orange.png","32","trial","32","true","0.6,0.4","3:go_c","",""
"null","","html-keyboard-response","600","945798","0.0-8.0-1.6","","<img src=""img/orange-n.png"" border=""10"">","null","trial","32","","0.6,0.4","3:go_c","0",""
"null","","html-keyboard-response","601","946800","0.0-8.0-2.6","","<div style=""font-size:60px;"">+</div>","null","","","","","","",""
"643.225000007078","","image-keyboard-response","602","947444","0.0-8.0-0.7","","img/red.png","32","trial","null","false","0.4,0.6","4:nogo_d","",""
"null","","html-keyboard-response","603","948447","0.0-8.0-1.7","","<img src=""img/red-r.png"" border=""10"">","null","trial","null","","0.4,0.6","4:nogo_d","1",""
"null","","html-keyboard-response","604","949449","0.0-8.0-2.7","","<div style=""font-size:60px;"">+</div>","null","","","","","","",""
"null","","image-keyboard-response","605","950950","0.0-8.0-0.8","","img/orange.png","null","trial","32","false","0.6,0.4","3:go_c","",""
"null","","html-keyboard-response","606","951953","0.0-8.0-1.8","","<img src=""img/orange-n.png"">","null","trial","32","","0.6,0.4","3:go_c","0",""
"null","","html-keyboard-response","607","952955","0.0-8.0-2.8","","<div style=""font-size:60px;"">+</div>","null","","","","","","",""
"null","","image-keyboard-response","608","954457","0.0-8.0-0.9","","img/yellow.png","null","trial","null","true","0.2,0.8","2:nogo_b","",""
"null","","html-keyboard-response","609","955459","0.0-8.0-1.9","","<img src=""img/yellow-n.png"">","null","trial","null","","0.2,0.8","2:nogo_b","0",""
"null","","html-keyboard-response","610","956462","0.0-8.0-2.9","","<div style=""font-size:60px;"">+</div>","null","","","","","","",""
"469.40999990329146","","image-keyboard-response","611","956932","0.0-8.0-0.10","","img/purple.png","32","trial","32","true","0.8,0.2","1:go_a","",""
"null","","html-keyboard-response","612","957935","0.0-8.0-1.10","","<img src=""img/purple-r.png"" border=""10"">","null","trial","32","","0.8,0.2","1:go_a","1",""
"null","","html-keyboard-response","613","958936","0.0-8.0-2.10","","<div style=""font-size:60px;"">+</div>","null","","","","","","",""
"402.0399998407811","","image-keyboard-response","614","959340","0.0-8.0-0.11","","img/red.png","32","trial","null","false","0.4,0.6","4:nogo_d","",""
"null","","html-keyboard-response","615","960357","0.0-8.0-1.11","","<img src=""img/red-n.png"" border=""10"">","null","trial","null","","0.4,0.6","4:nogo_d","0",""
"null","","html-keyboard-response","616","961358","0.0-8.0-2.11","","<div style=""font-size:60px;"">+</div>","null","","","","","","",""
"null","","image-keyboard-response","617","962859","0.0-8.0-0.12","","img/yellow.png","null","trial","null","true","0.2,0.8","2:nogo_b","",""
"null","","html-keyboard-response","618","963861","0.0-8.0-1.12","","<img src=""img/yellow-r.png"">","null","trial","null","","0.2,0.8","2:nogo_b","1",""
"null","","html-keyboard-response","619","964864","0.0-8.0-2.12","","<div style=""font-size:60px;"">+</div>","null","","","","","","",""
"379.1199999395758","","image-keyboard-response","620","965244","0.0-8.0-0.13","","img/red.png","32","trial","null","false","0.4,0.6","4:nogo_d","",""
"null","","html-keyboard-response","621","966246","0.0-8.0-1.13","","<img src=""img/red-n.png"" border=""10"">","null","trial","null","","0.4,0.6","4:nogo_d","0",""
"null","","html-keyboard-response","622","967248","0.0-8.0-2.13","","<div style=""font-size:60px;"">+</div>","null","","","","","","",""
"null","","image-keyboard-response","623","968750","0.0-8.0-0.14","","img/orange.png","null","trial","32","false","0.6,0.4","3:go_c","",""
"null","","html-keyboard-response","624","969751","0.0-8.0-1.14","","<img src=""img/orange-n.png"">","null","trial","32","","0.6,0.4","3:go_c","0",""
"null","","html-keyboard-response","625","970768","0.0-8.0-2.14","","<div style=""font-size:60px;"">+</div>","null","","","","","","",""
"410.52499995566905","","image-keyboard-response","626","971180","0.0-8.0-0.15","","img/purple.png","32","trial","32","true","0.8,0.2","1:go_a","",""
"null","","html-keyboard-response","627","972182","0.0-8.0-1.15","","<img src=""img/purple-r.png"" border=""10"">","null","trial","32","","0.8,0.2","1:go_a","1",""
"null","","html-keyboard-response","628","973183","0.0-8.0-2.15","","<div style=""font-size:60px;"">+</div>","null","","","","","","",""
"428.1049999408424","","image-keyboard-response","629","973612","0.0-8.0-0.16","","img/orange.png","32","trial","32","true","0.6,0.4","3:go_c","",""
"null","","html-keyboard-response","630","974615","0.0-8.0-1.16","","<img src=""img/orange-r.png"" border=""10"">","null","trial","32","","0.6,0.4","3:go_c","1",""
"null","","html-keyboard-response","631","975616","0.0-8.0-2.16","","<div style=""font-size:60px;"">+</div>","null","","","","","","",""
"null","","image-keyboard-response","632","977118","0.0-8.0-0.17","","img/red.png","null","trial","null","true","0.4,0.6","4:nogo_d","",""
"null","","html-keyboard-response","633","978120","0.0-8.0-1.17","","<img src=""img/red-r.png"">","null","trial","null","","0.4,0.6","4:nogo_d","1",""
"null","","html-keyboard-response","634","979152","0.0-8.0-2.17","","<div style=""font-size:60px;"">+</div>","null","","","","","","",""
"403.24999997392297","","image-keyboard-response","635","979556","0.0-8.0-0.18","","img/purple.png","32","trial","32","true","0.8,0.2","1:go_a","",""
"null","","html-keyboard-response","636","980560","0.0-8.0-1.18","","<img src=""img/purple-r.png"" border=""10"">","null","trial","32","","0.8,0.2","1:go_a","1",""
"null","","html-keyboard-response","637","981569","0.0-8.0-2.18","","<div style=""font-size:60px;"">+</div>","null","","","","","","",""
"null","","image-keyboard-response","638","983071","0.0-8.0-0.19","","img/yellow.png","null","trial","null","true","0.2,0.8","2:nogo_b","",""
"null","","html-keyboard-response","639","984073","0.0-8.0-1.19","","<img src=""img/yellow-r.png"">","null","trial","null","","0.2,0.8","2:nogo_b","1",""
"null","","html-keyboard-response","640","985075","0.0-8.0-2.19","","<div style=""font-size:60px;"">+</div>","null","","","","","","",""
"null","","image-keyboard-response","641","986577","0.0-8.0-0.20","","img/yellow.png","null","trial","null","true","0.2,0.8","2:nogo_b","",""
"null","","html-keyboard-response","642","987597","0.0-8.0-1.20","","<img src=""img/yellow-r.png"">","null","trial","null","","0.2,0.8","2:nogo_b","1",""
"null","","html-keyboard-response","643","988598","0.0-8.0-2.20","","<div style=""font-size:60px;"">+</div>","null","","","","","","",""
"461.3749999552965","","image-keyboard-response","644","989060","0.0-8.0-0.21","","img/purple.png","32","trial","32","true","0.8,0.2","1:go_a","",""
"null","","html-keyboard-response","645","990064","0.0-8.0-1.21","","<img src=""img/purple-r.png"" border=""10"">","null","trial","32","","0.8,0.2","1:go_a","1",""
"null","","html-keyboard-response","646","991064","0.0-8.0-2.21","","<div style=""font-size:60px;"">+</div>","null","","","","","","",""
"466.90499992109835","","image-keyboard-response","647","991532","0.0-8.0-0.22","","img/orange.png","32","trial","32","true","0.6,0.4","3:go_c","",""
"null","","html-keyboard-response","648","992534","0.0-8.0-1.22","","<img src=""img/orange-n.png"" border=""10"">","null","trial","32","","0.6,0.4","3:go_c","0",""
"null","","html-keyboard-response","649","993535","0.0-8.0-2.22","","<div style=""font-size:60px;"">+</div>","null","","","","","","",""
"null","","image-keyboard-response","650","995037","0.0-8.0-0.23","","img/red.png","null","trial","null","true","0.4,0.6","4:nogo_d","",""
"null","","html-keyboard-response","651","996039","0.0-8.0-1.23","","<img src=""img/red-r.png"">","null","trial","null","","0.4,0.6","4:nogo_d","1",""
"null","","html-keyboard-response","652","997040","0.0-8.0-2.23","","<div style=""font-size:60px;"">+</div>","null","","","","","","",""
"371.0850002244115","","image-keyboard-response","653","997412","0.0-8.0-0.24","","img/purple.png","32","trial","32","true","0.8,0.2","1:go_a","",""
"null","","html-keyboard-response","654","998414","0.0-8.0-1.24","","<img src=""img/purple-r.png"" border=""10"">","null","trial","32","","0.8,0.2","1:go_a","1",""
"null","","html-keyboard-response","655","999417","0.0-8.0-2.24","","<div style=""font-size:60px;"">+</div>","null","","","","","","",""
"410.4100000113249","","image-keyboard-response","656","999829","0.0-8.0-0.25","","img/orange.png","32","trial","32","true","0.6,0.4","3:go_c","",""
"null","","html-keyboard-response","657","1000830","0.0-8.0-1.25","","<img src=""img/orange-r.png"" border=""10"">","null","trial","32","","0.6,0.4","3:go_c","1",""
"null","","html-keyboard-response","658","1001832","0.0-8.0-2.25","","<div style=""font-size:60px;"">+</div>","null","","","","","","",""
"null","","image-keyboard-response","659","1003334","0.0-8.0-0.26","","img/red.png","null","trial","null","true","0.4,0.6","4:nogo_d","",""
"null","","html-keyboard-response","660","1004337","0.0-8.0-1.26","","<img src=""img/red-r.png"">","null","trial","null","","0.4,0.6","4:nogo_d","1",""
"null","","html-keyboard-response","661","1005338","0.0-8.0-2.26","","<div style=""font-size:60px;"">+</div>","null","","","","","","",""
"null","","image-keyboard-response","662","1006845","0.0-8.0-0.27","","img/yellow.png","null","trial","null","true","0.2,0.8","2:nogo_b","",""
"null","","html-keyboard-response","663","1007847","0.0-8.0-1.27","","<img src=""img/yellow-n.png"">","null","trial","null","","0.2,0.8","2:nogo_b","0",""
"null","","html-keyboard-response","664","1008848","0.0-8.0-2.27","","<div style=""font-size:60px;"">+</div>","null","","","","","","",""
"null","","image-keyboard-response","665","1010350","0.0-8.0-0.28","","img/yellow.png","null","trial","null","true","0.2,0.8","2:nogo_b","",""
"null","","html-keyboard-response","666","1011352","0.0-8.0-1.28","","<img src=""img/yellow-r.png"">","null","trial","null","","0.2,0.8","2:nogo_b","1",""
"null","","html-keyboard-response","667","1012354","0.0-8.0-2.28","","<div style=""font-size:60px;"">+</div>","null","","","","","","",""
"753.8649998605251","","image-keyboard-response","668","1013109","0.0-8.0-0.29","","img/orange.png","32","trial","32","true","0.6,0.4","3:go_c","",""
"null","","html-keyboard-response","669","1014110","0.0-8.0-1.29","","<img src=""img/orange-n.png"" border=""10"">","null","trial","32","","0.6,0.4","3:go_c","0",""
"null","","html-keyboard-response","670","1015112","0.0-8.0-2.29","","<div style=""font-size:60px;"">+</div>","null","","","","","","",""
"627.2300002165139","","image-keyboard-response","671","1015740","0.0-8.0-0.30","","img/red.png","32","trial","null","false","0.4,0.6","4:nogo_d","",""
"null","","html-keyboard-response","672","1016743","0.0-8.0-1.30","","<img src=""img/red-n.png"" border=""10"">","null","trial","null","","0.4,0.6","4:nogo_d","0",""
"null","","html-keyboard-response","673","1017745","0.0-8.0-2.30","","<div style=""font-size:60px;"">+</div>","null","","","","","","",""
"346.1999997962266","","image-keyboard-response","674","1018092","0.0-8.0-0.31","","img/purple.png","32","trial","32","true","0.8,0.2","1:go_a","",""
"null","","html-keyboard-response","675","1019096","0.0-8.0-1.31","","<img src=""img/purple-r.png"" border=""10"">","null","trial","32","","0.8,0.2","1:go_a","1",""
"null","","html-keyboard-response","676","1020098","0.0-8.0-2.31","","<div style=""font-size:60px;"">+</div>","null","","","","","","",""
"null","","image-keyboard-response","677","1021599","0.0-8.0-0.32","","img/yellow.png","null","trial","null","true","0.2,0.8","2:nogo_b","",""
"null","","html-keyboard-response","678","1022613","0.0-8.0-1.32","","<img src=""img/yellow-n.png"">","null","trial","null","","0.2,0.8","2:nogo_b","0",""
"null","","html-keyboard-response","679","1023614","0.0-8.0-2.32","","<div style=""font-size:60px;"">+</div>","null","","","","","","",""
"null","","image-keyboard-response","680","1025116","0.0-8.0-0.33","","img/red.png","null","trial","null","true","0.4,0.6","4:nogo_d","",""
"null","","html-keyboard-response","681","1026118","0.0-8.0-1.33","","<img src=""img/red-r.png"">","null","trial","null","","0.4,0.6","4:nogo_d","1",""
"null","","html-keyboard-response","682","1027119","0.0-8.0-2.33","","<div style=""font-size:60px;"">+</div>","null","","","","","","",""
"676.6749999951571","","image-keyboard-response","683","1027797","0.0-8.0-0.34","","img/orange.png","32","trial","32","true","0.6,0.4","3:go_c","",""
