"rt","url","trial_type","trial_index","time_elapsed","internal_node_id","view_history","stimulus","key_press","test_part","correct_response","correct","use_rew","which_stim","reward","responses"
"11405","consent.html","external-html","0","11584","0.0-0.0","","","","","","","","","",""
"132157","","instructions","1","143747","0.0-1.0","[{""page_index"":0,""viewing_time"":8966},{""page_index"":1,""viewing_time"":34086},{""page_index"":2,""viewing_time"":10523},{""page_index"":3,""viewing_time"":30671},{""page_index"":4,""viewing_time"":19893},{""page_index"":5,""viewing_time"":16472},{""page_index"":6,""viewing_time"":11545}]","","","","","","","","",""
"null","","image-keyboard-response","2","145251","0.0-2.0-0.0","","img/test2.PNG","null","practice","null","true","","","",""
"null","","html-keyboard-response","3","146254","0.0-2.0-1.0","","<img src=""img/test2-reward.PNG"">","null","","","","","","",""
"null","","html-keyboard-response","4","147255","0.0-2.0-2.0","","<div style=""font-size:60px;"">+</div>","null","","","","","","",""
"null","","image-keyboard-response","5","148758","0.0-2.0-0.1","","img/test3.PNG","null","practice","null","true","","","",""
"null","","html-keyboard-response","6","149760","0.0-2.0-1.1","","<img src=""img/test3-reward.PNG"">","null","","","","","","",""
"null","","html-keyboard-response","7","150761","0.0-2.0-2.1","","<div style=""font-size:60px;"">+</div>","null","","","","","","",""
"459","","image-keyboard-response","8","151222","0.0-2.0-0.2","","img/test1.PNG","32","practice","32","true","","","",""
"null","","html-keyboard-response","9","152223","0.0-2.0-1.2","","<img src=""img/test1-reward.PNG"" border=""10px; grey"">","null","","","","","","",""
"null","","html-keyboard-response","10","153224","0.0-2.0-2.2","","<div style=""font-size:60px;"">+</div>","null","","","","","","",""
"null","","image-keyboard-response","11","154725","0.0-2.0-0.3","","img/test2.PNG","null","practice","null","true","","","",""
"null","","html-keyboard-response","12","155726","0.0-2.0-1.3","","<img src=""img/test2-reward.PNG"">","null","","","","","","",""
"null","","html-keyboard-response","13","156728","0.0-2.0-2.3","","<div style=""font-size:60px;"">+</div>","null","","","","","","",""
"null","","image-keyboard-response","14","158229","0.0-2.0-0.4","","img/test3.PNG","null","practice","null","true","","","",""
"null","","html-keyboard-response","15","159229","0.0-2.0-1.4","","<img src=""img/test3-reward.PNG"">","null","","","","","","",""
"null","","html-keyboard-response","16","160231","0.0-2.0-2.4","","<div style=""font-size:60px;"">+</div>","null","","","","","","",""
"363","","image-keyboard-response","17","160595","0.0-2.0-0.5","","img/test1.PNG","32","practice","32","true","","","",""
"null","","html-keyboard-response","18","161597","0.0-2.0-1.5","","<img src=""img/test1-reward.PNG"" border=""10px; grey"">","null","","","","","","",""
"null","","html-keyboard-response","19","162597","0.0-2.0-2.5","","<div style=""font-size:60px;"">+</div>","null","","","","","","",""
"412","","image-keyboard-response","20","163011","0.0-2.0-0.6","","img/test1.PNG","32","practice","32","true","","","",""
"null","","html-keyboard-response","21","164012","0.0-2.0-1.6","","<img src=""img/test1-reward.PNG"" border=""10px; grey"">","null","","","","","","",""
"null","","html-keyboard-response","22","165014","0.0-2.0-2.6","","<div style=""font-size:60px;"">+</div>","null","","","","","","",""
"null","","image-keyboard-response","23","166515","0.0-2.0-0.7","","img/test3.PNG","null","practice","null","true","","","",""
"null","","html-keyboard-response","24","167515","0.0-2.0-1.7","","<img src=""img/test3-reward.PNG"">","null","","","","","","",""
"null","","html-keyboard-response","25","168515","0.0-2.0-2.7","","<div style=""font-size:60px;"">+</div>","null","","","","","","",""
"null","","image-keyboard-response","26","170017","0.0-2.0-0.8","","img/test2.PNG","null","practice","null","true","","","",""
"null","","html-keyboard-response","27","171017","0.0-2.0-1.8","","<img src=""img/test2-reward.PNG"">","null","","","","","","",""
"null","","html-keyboard-response","28","172018","0.0-2.0-2.8","","<div style=""font-size:60px;"">+</div>","null","","","","","","",""
"375","","image-keyboard-response","29","172395","0.0-2.0-0.9","","img/test1.PNG","32","practice","32","true","","","",""
"null","","html-keyboard-response","30","173399","0.0-2.0-1.9","","<img src=""img/test1-reward.PNG"" border=""10px; grey"">","null","","","","","","",""
"null","","html-keyboard-response","31","174400","0.0-2.0-2.9","","<div style=""font-size:60px;"">+</div>","null","","","","","","",""
"null","","image-keyboard-response","32","175901","0.0-2.0-0.10","","img/test2.PNG","null","practice","null","true","","","",""
"null","","html-keyboard-response","33","176903","0.0-2.0-1.10","","<img src=""img/test2-reward.PNG"">","null","","","","","","",""
"null","","html-keyboard-response","34","177904","0.0-2.0-2.10","","<div style=""font-size:60px;"">+</div>","null","","","","","","",""
"null","","image-keyboard-response","35","179404","0.0-2.0-0.11","","img/test3.PNG","null","practice","null","true","","","",""
"null","","html-keyboard-response","36","180406","0.0-2.0-1.11","","<img src=""img/test3-reward.PNG"">","null","","","","","","",""
"null","","html-keyboard-response","37","181408","0.0-2.0-2.11","","<div style=""font-size:60px;"">+</div>","null","","","","","","",""
"3298","","instructions","38","184705","0.0-3.0","[{""page_index"":0,""viewing_time"":3297}]","","","","","","","","",""
"690","","image-keyboard-response","39","185396","0.0-4.0-0.0","","img/purple.png","32","trial","null","false","0.2,0.8","2:nogo_b","",""
"null","","html-keyboard-response","40","186399","0.0-4.0-1.0","","<img src=""img/purple-n.png"" border=""10"">","null","trial","null","","0.2,0.8","2:nogo_b","0",""
"null","","html-keyboard-response","41","187399","0.0-4.0-2.0","","<div style=""font-size:60px;"">+</div>","null","","","","","","",""
"745","","image-keyboard-response","42","188145","0.0-4.0-0.1","","img/blue.png","32","trial","32","true","0.8,0.2","1:go_a","",""
"null","","html-keyboard-response","43","189147","0.0-4.0-1.1","","<img src=""img/blue-r.png"" border=""10"">","null","trial","32","","0.8,0.2","1:go_a","1",""
"null","","html-keyboard-response","44","190148","0.0-4.0-2.1","","<div style=""font-size:60px;"">+</div>","null","","","","","","",""
"null","","image-keyboard-response","45","191649","0.0-4.0-0.2","","img/purple.png","null","trial","null","true","0.2,0.8","2:nogo_b","",""
"null","","html-keyboard-response","46","192651","0.0-4.0-1.2","","<img src=""img/purple-r.png"">","null","trial","null","","0.2,0.8","2:nogo_b","1",""
"null","","html-keyboard-response","47","193652","0.0-4.0-2.2","","<div style=""font-size:60px;"">+</div>","null","","","","","","",""
"436","","image-keyboard-response","48","194089","0.0-4.0-0.3","","img/blue.png","32","trial","32","true","0.8,0.2","1:go_a","",""
"null","","html-keyboard-response","49","195090","0.0-4.0-1.3","","<img src=""img/blue-r.png"" border=""10"">","null","trial","32","","0.8,0.2","1:go_a","1",""
"null","","html-keyboard-response","50","196091","0.0-4.0-2.3","","<div style=""font-size:60px;"">+</div>","null","","","","","","",""
"null","","image-keyboard-response","51","197592","0.0-4.0-0.4","","img/purple.png","null","trial","null","true","0.2,0.8","2:nogo_b","",""
"null","","html-keyboard-response","52","198593","0.0-4.0-1.4","","<img src=""img/purple-r.png"">","null","trial","null","","0.2,0.8","2:nogo_b","1",""
"null","","html-keyboard-response","53","199595","0.0-4.0-2.4","","<div style=""font-size:60px;"">+</div>","null","","","","","","",""
"360","","image-keyboard-response","54","199957","0.0-4.0-0.5","","img/blue.png","32","trial","32","true","0.8,0.2","1:go_a","",""
"null","","html-keyboard-response","55","200960","0.0-4.0-1.5","","<img src=""img/blue-r.png"" border=""10"">","null","trial","32","","0.8,0.2","1:go_a","1",""
"null","","html-keyboard-response","56","201960","0.0-4.0-2.5","","<div style=""font-size:60px;"">+</div>","null","","","","","","",""
"null","","image-keyboard-response","57","203462","0.0-4.0-0.6","","img/purple.png","null","trial","null","true","0.2,0.8","2:nogo_b","",""
"null","","html-keyboard-response","58","204464","0.0-4.0-1.6","","<img src=""img/purple-r.png"">","null","trial","null","","0.2,0.8","2:nogo_b","1",""
"null","","html-keyboard-response","59","205466","0.0-4.0-2.6","","<div style=""font-size:60px;"">+</div>","null","","","","","","",""
"409","","image-keyboard-response","60","205877","0.0-4.0-0.7","","img/blue.png","32","trial","32","true","0.8,0.2","1:go_a","",""
"null","","html-keyboard-response","61","206878","0.0-4.0-1.7","","<img src=""img/blue-r.png"" border=""10"">","null","trial","32","","0.8,0.2","1:go_a","1",""
"null","","html-keyboard-response","62","207879","0.0-4.0-2.7","","<div style=""font-size:60px;"">+</div>","null","","","","","","",""
"558","","image-keyboard-response","63","208439","0.0-4.0-0.8","","img/blue.png","32","trial","32","true","0.8,0.2","1:go_a","",""
"null","","html-keyboard-response","64","209441","0.0-4.0-1.8","","<img src=""img/blue-r.png"" border=""10"">","null","trial","32","","0.8,0.2","1:go_a","1",""
"null","","html-keyboard-response","65","210442","0.0-4.0-2.8","","<div style=""font-size:60px;"">+</div>","null","","","","","","",""
"null","","image-keyboard-response","66","211943","0.0-4.0-0.9","","img/purple.png","null","trial","null","true","0.2,0.8","2:nogo_b","",""
"null","","html-keyboard-response","67","212945","0.0-4.0-1.9","","<img src=""img/purple-n.png"">","null","trial","null","","0.2,0.8","2:nogo_b","0",""
"null","","html-keyboard-response","68","213946","0.0-4.0-2.9","","<div style=""font-size:60px;"">+</div>","null","","","","","","",""
"null","","image-keyboard-response","69","215447","0.0-4.0-0.10","","img/purple.png","null","trial","null","true","0.2,0.8","2:nogo_b","",""
"null","","html-keyboard-response","70","216450","0.0-4.0-1.10","","<img src=""img/purple-r.png"">","null","trial","null","","0.2,0.8","2:nogo_b","1",""
"null","","html-keyboard-response","71","217451","0.0-4.0-2.10","","<div style=""font-size:60px;"">+</div>","null","","","","","","",""
"505","","image-keyboard-response","72","217957","0.0-4.0-0.11","","img/blue.png","32","trial","32","true","0.8,0.2","1:go_a","",""
"null","","html-keyboard-response","73","218960","0.0-4.0-1.11","","<img src=""img/blue-n.png"" border=""10"">","null","trial","32","","0.8,0.2","1:go_a","0",""
"null","","html-keyboard-response","74","219961","0.0-4.0-2.11","","<div style=""font-size:60px;"">+</div>","null","","","","","","",""
"null","","image-keyboard-response","75","221463","0.0-4.0-0.12","","img/purple.png","null","trial","null","true","0.2,0.8","2:nogo_b","",""
"null","","html-keyboard-response","76","222468","0.0-4.0-1.12","","<img src=""img/purple-r.png"">","null","trial","null","","0.2,0.8","2:nogo_b","1",""
"null","","html-keyboard-response","77","223468","0.0-4.0-2.12","","<div style=""font-size:60px;"">+</div>","null","","","","","","",""
"456","","image-keyboard-response","78","223925","0.0-4.0-0.13","","img/blue.png","32","trial","32","true","0.8,0.2","1:go_a","",""
"null","","html-keyboard-response","79","224927","0.0-4.0-1.13","","<img src=""img/blue-r.png"" border=""10"">","null","trial","32","","0.8,0.2","1:go_a","1",""
"null","","html-keyboard-response","80","225927","0.0-4.0-2.13","","<div style=""font-size:60px;"">+</div>","null","","","","","","",""
"null","","image-keyboard-response","81","227428","0.0-4.0-0.14","","img/purple.png","null","trial","null","true","0.2,0.8","2:nogo_b","",""
"null","","html-keyboard-response","82","228429","0.0-4.0-1.14","","<img src=""img/purple-n.png"">","null","trial","null","","0.2,0.8","2:nogo_b","0",""
"null","","html-keyboard-response","83","229431","0.0-4.0-2.14","","<div style=""font-size:60px;"">+</div>","null","","","","","","",""
"405","","image-keyboard-response","84","229838","0.0-4.0-0.15","","img/blue.png","32","trial","32","true","0.8,0.2","1:go_a","",""
"null","","html-keyboard-response","85","230838","0.0-4.0-1.15","","<img src=""img/blue-r.png"" border=""10"">","null","trial","32","","0.8,0.2","1:go_a","1",""
"null","","html-keyboard-response","86","231839","0.0-4.0-2.15","","<div style=""font-size:60px;"">+</div>","null","","","","","","",""
"484","","image-keyboard-response","87","232324","0.0-4.0-0.16","","img/blue.png","32","trial","32","true","0.8,0.2","1:go_a","",""
"null","","html-keyboard-response","88","233327","0.0-4.0-1.16","","<img src=""img/blue-r.png"" border=""10"">","null","trial","32","","0.8,0.2","1:go_a","1",""
"null","","html-keyboard-response","89","234328","0.0-4.0-2.16","","<div style=""font-size:60px;"">+</div>","null","","","","","","",""
"null","","image-keyboard-response","90","235830","0.0-4.0-0.17","","img/purple.png","null","trial","null","true","0.2,0.8","2:nogo_b","",""
"null","","html-keyboard-response","91","236832","0.0-4.0-1.17","","<img src=""img/purple-r.png"">","null","trial","null","","0.2,0.8","2:nogo_b","1",""
"null","","html-keyboard-response","92","237834","0.0-4.0-2.17","","<div style=""font-size:60px;"">+</div>","null","","","","","","",""
"null","","image-keyboard-response","93","239337","0.0-4.0-0.18","","img/purple.png","null","trial","null","true","0.2,0.8","2:nogo_b","",""
"null","","html-keyboard-response","94","240339","0.0-4.0-1.18","","<img src=""img/purple-r.png"">","null","trial","null","","0.2,0.8","2:nogo_b","1",""
"null","","html-keyboard-response","95","241339","0.0-4.0-2.18","","<div style=""font-size:60px;"">+</div>","null","","","","","","",""
"364","","image-keyboard-response","96","241705","0.0-4.0-0.19","","img/blue.png","32","trial","32","true","0.8,0.2","1:go_a","",""
"null","","html-keyboard-response","97","242705","0.0-4.0-1.19","","<img src=""img/blue-r.png"" border=""10"">","null","trial","32","","0.8,0.2","1:go_a","1",""
"null","","html-keyboard-response","98","243706","0.0-4.0-2.19","","<div style=""font-size:60px;"">+</div>","null","","","","","","",""
"494","","image-keyboard-response","99","244201","0.0-4.0-0.20","","img/blue.png","32","trial","32","true","0.8,0.2","1:go_a","",""
"null","","html-keyboard-response","100","245202","0.0-4.0-1.20","","<img src=""img/blue-r.png"" border=""10"">","null","trial","32","","0.8,0.2","1:go_a","1",""
"null","","html-keyboard-response","101","246203","0.0-4.0-2.20","","<div style=""font-size:60px;"">+</div>","null","","","","","","",""
"null","","image-keyboard-response","102","247707","0.0-4.0-0.21","","img/purple.png","null","trial","null","true","0.2,0.8","2:nogo_b","",""
"null","","html-keyboard-response","103","248710","0.0-4.0-1.21","","<img src=""img/purple-n.png"">","null","trial","null","","0.2,0.8","2:nogo_b","0",""
"null","","html-keyboard-response","104","249710","0.0-4.0-2.21","","<div style=""font-size:60px;"">+</div>","null","","","","","","",""
"null","","image-keyboard-response","105","251211","0.0-4.0-0.22","","img/purple.png","null","trial","null","true","0.2,0.8","2:nogo_b","",""
"null","","html-keyboard-response","106","252213","0.0-4.0-1.22","","<img src=""img/purple-r.png"">","null","trial","null","","0.2,0.8","2:nogo_b","1",""
"null","","html-keyboard-response","107","253213","0.0-4.0-2.22","","<div style=""font-size:60px;"">+</div>","null","","","","","","",""
"410","","image-keyboard-response","108","253624","0.0-4.0-0.23","","img/blue.png","32","trial","32","true","0.8,0.2","1:go_a","",""
"null","","html-keyboard-response","109","254625","0.0-4.0-1.23","","<img src=""img/blue-r.png"" border=""10"">","null","trial","32","","0.8,0.2","1:go_a","1",""
"null","","html-keyboard-response","110","255626","0.0-4.0-2.23","","<div style=""font-size:60px;"">+</div>","null","","","","","","",""
"null","","image-keyboard-response","111","257127","0.0-4.0-0.24","","img/purple.png","null","trial","null","true","0.2,0.8","2:nogo_b","",""
"null","","html-keyboard-response","112","258128","0.0-4.0-1.24","","<img src=""img/purple-r.png"">","null","trial","null","","0.2,0.8","2:nogo_b","1",""
"null","","html-keyboard-response","113","259129","0.0-4.0-2.24","","<div style=""font-size:60px;"">+</div>","null","","","","","","",""
"440","","image-keyboard-response","114","259571","0.0-4.0-0.25","","img/blue.png","32","trial","32","true","0.8,0.2","1:go_a","",""
"null","","html-keyboard-response","115","260578","0.0-4.0-1.25","","<img src=""img/blue-r.png"" border=""10"">","null","trial","32","","0.8,0.2","1:go_a","1",""
"null","","html-keyboard-response","116","261583","0.0-4.0-2.25","","<div style=""font-size:60px;"">+</div>","null","","","","","","",""
"606","","image-keyboard-response","117","262191","0.0-4.0-0.26","","img/blue.png","32","trial","32","true","0.8,0.2","1:go_a","",""
"null","","html-keyboard-response","118","263192","0.0-4.0-1.26","","<img src=""img/blue-r.png"" border=""10"">","null","trial","32","","0.8,0.2","1:go_a","1",""
"null","","html-keyboard-response","119","264192","0.0-4.0-2.26","","<div style=""font-size:60px;"">+</div>","null","","","","","","",""
"null","","image-keyboard-response","120","265693","0.0-4.0-0.27","","img/purple.png","null","trial","null","true","0.2,0.8","2:nogo_b","",""
"null","","html-keyboard-response","121","266695","0.0-4.0-1.27","","<img src=""img/purple-r.png"">","null","trial","null","","0.2,0.8","2:nogo_b","1",""
"null","","html-keyboard-response","122","267695","0.0-4.0-2.27","","<div style=""font-size:60px;"">+</div>","null","","","","","","",""
"null","","image-keyboard-response","123","269197","0.0-4.0-0.28","","img/purple.png","null","trial","null","true","0.2,0.8","2:nogo_b","",""
"null","","html-keyboard-response","124","270198","0.0-4.0-1.28","","<img src=""img/purple-n.png"">","null","trial","null","","0.2,0.8","2:nogo_b","0",""
"null","","html-keyboard-response","125","271200","0.0-4.0-2.28","","<div style=""font-size:60px;"">+</div>","null","","","","","","",""
"441","","image-keyboard-response","126","271641","0.0-4.0-0.29","","img/blue.png","32","trial","32","true","0.8,0.2","1:go_a","",""
"null","","html-keyboard-response","127","272643","0.0-4.0-1.29","","<img src=""img/blue-r.png"" border=""10"">","null","trial","32","","0.8,0.2","1:go_a","1",""
"null","","html-keyboard-response","128","273643","0.0-4.0-2.29","","<div style=""font-size:60px;"">+</div>","null","","","","","","",""
"435","","image-keyboard-response","129","274079","0.0-4.0-0.30","","img/blue.png","32","trial","32","true","0.8,0.2","1:go_a","",""
"null","","html-keyboard-response","130","275080","0.0-4.0-1.30","","<img src=""img/blue-n.png"" border=""10"">","null","trial","32","","0.8,0.2","1:go_a","0",""
"null","","html-keyboard-response","131","276082","0.0-4.0-2.30","","<div style=""font-size:60px;"">+</div>","null","","","","","","",""
"null","","image-keyboard-response","132","277586","0.0-4.0-0.31","","img/purple.png","null","trial","null","true","0.2,0.8","2:nogo_b","",""
"null","","html-keyboard-response","133","278588","0.0-4.0-1.31","","<img src=""img/purple-r.png"">","null","trial","null","","0.2,0.8","2:nogo_b","1",""
"null","","html-keyboard-response","134","279590","0.0-4.0-2.31","","<div style=""font-size:60px;"">+</div>","null","","","","","","",""
"402","","image-keyboard-response","135","279991","0.0-4.0-0.32","","img/blue.png","32","trial","32","true","0.8,0.2","1:go_a","",""
"null","","html-keyboard-response","136","280993","0.0-4.0-1.32","","<img src=""img/blue-r.png"" border=""10"">","null","trial","32","","0.8,0.2","1:go_a","1",""
"null","","html-keyboard-response","137","281993","0.0-4.0-2.32","","<div style=""font-size:60px;"">+</div>","null","","","","","","",""
"null","","image-keyboard-response","138","283494","0.0-4.0-0.33","","img/purple.png","null","trial","null","true","0.2,0.8","2:nogo_b","",""
"null","","html-keyboard-response","139","284496","0.0-4.0-1.33","","<img src=""img/purple-r.png"">","null","trial","null","","0.2,0.8","2:nogo_b","1",""
"null","","html-keyboard-response","140","285497","0.0-4.0-2.33","","<div style=""font-size:60px;"">+</div>","null","","","","","","",""
"372","","image-keyboard-response","141","285871","0.0-4.0-0.34","","img/blue.png","32","trial","32","true","0.8,0.2","1:go_a","",""
"null","","html-keyboard-response","142","286873","0.0-4.0-1.34","","<img src=""img/blue-r.png"" border=""10"">","null","trial","32","","0.8,0.2","1:go_a","1",""
"null","","html-keyboard-response","143","287873","0.0-4.0-2.34","","<div style=""font-size:60px;"">+</div>","null","","","","","","",""
"null","","image-keyboard-response","144","289375","0.0-4.0-0.35","","img/purple.png","null","trial","null","true","0.2,0.8","2:nogo_b","",""
"null","","html-keyboard-response","145","290376","0.0-4.0-1.35","","<img src=""img/purple-r.png"">","null","trial","null","","0.2,0.8","2:nogo_b","1",""
"null","","html-keyboard-response","146","291377","0.0-4.0-2.35","","<div style=""font-size:60px;"">+</div>","null","","","","","","",""
"null","","image-keyboard-response","147","292877","0.0-4.0-0.36","","img/purple.png","null","trial","null","true","0.2,0.8","2:nogo_b","",""
"null","","html-keyboard-response","148","293879","0.0-4.0-1.36","","<img src=""img/purple-r.png"">","null","trial","null","","0.2,0.8","2:nogo_b","1",""
"null","","html-keyboard-response","149","294880","0.0-4.0-2.36","","<div style=""font-size:60px;"">+</div>","null","","","","","","",""
"590","","image-keyboard-response","150","295471","0.0-4.0-0.37","","img/blue.png","32","trial","32","true","0.8,0.2","1:go_a","",""
"null","","html-keyboard-response","151","296472","0.0-4.0-1.37","","<img src=""img/blue-r.png"" border=""10"">","null","trial","32","","0.8,0.2","1:go_a","1",""
"null","","html-keyboard-response","152","297473","0.0-4.0-2.37","","<div style=""font-size:60px;"">+</div>","null","","","","","","",""
"null","","image-keyboard-response","153","298975","0.0-4.0-0.38","","img/purple.png","null","trial","null","true","0.2,0.8","2:nogo_b","",""
"null","","html-keyboard-response","154","299975","0.0-4.0-1.38","","<img src=""img/purple-r.png"">","null","trial","null","","0.2,0.8","2:nogo_b","1",""
"null","","html-keyboard-response","155","300976","0.0-4.0-2.38","","<div style=""font-size:60px;"">+</div>","null","","","","","","",""
"567","","image-keyboard-response","156","301543","0.0-4.0-0.39","","img/blue.png","32","trial","32","true","0.8,0.2","1:go_a","",""
"null","","html-keyboard-response","157","302547","0.0-4.0-1.39","","<img src=""img/blue-r.png"" border=""10"">","null","trial","32","","0.8,0.2","1:go_a","1",""
"null","","html-keyboard-response","158","303549","0.0-4.0-2.39","","<div style=""font-size:60px;"">+</div>","null","","","","","","",""
"null","","image-keyboard-response","159","305051","0.0-4.0-0.40","","img/purple.png","null","trial","null","true","0.2,0.8","2:nogo_b","",""
"null","","html-keyboard-response","160","306054","0.0-4.0-1.40","","<img src=""img/purple-r.png"">","null","trial","null","","0.2,0.8","2:nogo_b","1",""
"null","","html-keyboard-response","161","307055","0.0-4.0-2.40","","<div style=""font-size:60px;"">+</div>","null","","","","","","",""
"501","","image-keyboard-response","162","307557","0.0-4.0-0.41","","img/blue.png","32","trial","32","true","0.8,0.2","1:go_a","",""
"null","","html-keyboard-response","163","308560","0.0-4.0-1.41","","<img src=""img/blue-r.png"" border=""10"">","null","trial","32","","0.8,0.2","1:go_a","1",""
"null","","html-keyboard-response","164","309560","0.0-4.0-2.41","","<div style=""font-size:60px;"">+</div>","null","","","","","","",""
"null","","image-keyboard-response","165","311062","0.0-4.0-0.42","","img/purple.png","null","trial","null","true","0.2,0.8","2:nogo_b","",""
"null","","html-keyboard-response","166","312065","0.0-4.0-1.42","","<img src=""img/purple-r.png"">","null","trial","null","","0.2,0.8","2:nogo_b","1",""
"null","","html-keyboard-response","167","313066","0.0-4.0-2.42","","<div style=""font-size:60px;"">+</div>","null","","","","","","",""
"409","","image-keyboard-response","168","313475","0.0-4.0-0.43","","img/blue.png","32","trial","32","true","0.8,0.2","1:go_a","",""
"null","","html-keyboard-response","169","314477","0.0-4.0-1.43","","<img src=""img/blue-r.png"" border=""10"">","null","trial","32","","0.8,0.2","1:go_a","1",""
"null","","html-keyboard-response","170","315477","0.0-4.0-2.43","","<div style=""font-size:60px;"">+</div>","null","","","","","","",""
"null","","image-keyboard-response","171","316978","0.0-4.0-0.44","","img/purple.png","null","trial","null","true","0.2,0.8","2:nogo_b","",""
"null","","html-keyboard-response","172","317979","0.0-4.0-1.44","","<img src=""img/purple-n.png"">","null","trial","null","","0.2,0.8","2:nogo_b","0",""
"null","","html-keyboard-response","173","318981","0.0-4.0-2.44","","<div style=""font-size:60px;"">+</div>","null","","","","","","",""
"428","","image-keyboard-response","174","319408","0.0-4.0-0.45","","img/blue.png","32","trial","32","true","0.8,0.2","1:go_a","",""
"null","","html-keyboard-response","175","320410","0.0-4.0-1.45","","<img src=""img/blue-r.png"" border=""10"">","null","trial","32","","0.8,0.2","1:go_a","1",""
"null","","html-keyboard-response","176","321411","0.0-4.0-2.45","","<div style=""font-size:60px;"">+</div>","null","","","","","","",""
"459","","image-keyboard-response","177","321871","0.0-4.0-0.46","","img/blue.png","32","trial","32","true","0.8,0.2","1:go_a","",""
"null","","html-keyboard-response","178","322872","0.0-4.0-1.46","","<img src=""img/blue-r.png"" border=""10"">","null","trial","32","","0.8,0.2","1:go_a","1",""
"null","","html-keyboard-response","179","323873","0.0-4.0-2.46","","<div style=""font-size:60px;"">+</div>","null","","","","","","",""
"null","","image-keyboard-response","180","325373","0.0-4.0-0.47","","img/purple.png","null","trial","null","true","0.2,0.8","2:nogo_b","",""
"null","","html-keyboard-response","181","326375","0.0-4.0-1.47","","<img src=""img/purple-n.png"">","null","trial","null","","0.2,0.8","2:nogo_b","0",""
"null","","html-keyboard-response","182","327375","0.0-4.0-2.47","","<div style=""font-size:60px;"">+</div>","null","","","","","","",""
"null","","image-keyboard-response","183","328877","0.0-4.0-0.48","","img/purple.png","null","trial","null","true","0.2,0.8","2:nogo_b","",""
"null","","html-keyboard-response","184","329880","0.0-4.0-1.48","","<img src=""img/purple-r.png"">","null","trial","null","","0.2,0.8","2:nogo_b","1",""
"null","","html-keyboard-response","185","330882","0.0-4.0-2.48","","<div style=""font-size:60px;"">+</div>","null","","","","","","",""
"416","","image-keyboard-response","186","331299","0.0-4.0-0.49","","img/blue.png","32","trial","32","true","0.8,0.2","1:go_a","",""
"null","","html-keyboard-response","187","332300","0.0-4.0-1.49","","<img src=""img/blue-n.png"" border=""10"">","null","trial","32","","0.8,0.2","1:go_a","0",""
"null","","html-keyboard-response","188","333301","0.0-4.0-2.49","","<div style=""font-size:60px;"">+</div>","null","","","","","","",""
"456","","image-keyboard-response","189","333759","0.0-4.0-0.50","","img/blue.png","32","trial","32","true","0.8,0.2","1:go_a","",""
"null","","html-keyboard-response","190","334764","0.0-4.0-1.50","","<img src=""img/blue-n.png"" border=""10"">","null","trial","32","","0.8,0.2","1:go_a","0",""
"null","","html-keyboard-response","191","335765","0.0-4.0-2.50","","<div style=""font-size:60px;"">+</div>","null","","","","","","",""
"null","","image-keyboard-response","192","337273","0.0-4.0-0.51","","img/purple.png","null","trial","null","true","0.2,0.8","2:nogo_b","",""
"null","","html-keyboard-response","193","338277","0.0-4.0-1.51","","<img src=""img/purple-r.png"">","null","trial","null","","0.2,0.8","2:nogo_b","1",""
"null","","html-keyboard-response","194","339278","0.0-4.0-2.51","","<div style=""font-size:60px;"">+</div>","null","","","","","","",""
"389","","image-keyboard-response","195","339668","0.0-4.0-0.52","","img/blue.png","32","trial","32","true","0.8,0.2","1:go_a","",""
"null","","html-keyboard-response","196","340670","0.0-4.0-1.52","","<img src=""img/blue-n.png"" border=""10"">","null","trial","32","","0.8,0.2","1:go_a","0",""
"null","","html-keyboard-response","197","341670","0.0-4.0-2.52","","<div style=""font-size:60px;"">+</div>","null","","","","","","",""
"null","","image-keyboard-response","198","343172","0.0-4.0-0.53","","img/purple.png","null","trial","null","true","0.2,0.8","2:nogo_b","",""
"null","","html-keyboard-response","199","344176","0.0-4.0-1.53","","<img src=""img/purple-r.png"">","null","trial","null","","0.2,0.8","2:nogo_b","1",""
"null","","html-keyboard-response","200","345177","0.0-4.0-2.53","","<div style=""font-size:60px;"">+</div>","null","","","","","","",""
"null","","image-keyboard-response","201","346679","0.0-4.0-0.54","","img/purple.png","null","trial","null","true","0.2,0.8","2:nogo_b","",""
"null","","html-keyboard-response","202","347682","0.0-4.0-1.54","","<img src=""img/purple-n.png"">","null","trial","null","","0.2,0.8","2:nogo_b","0",""
"null","","html-keyboard-response","203","348684","0.0-4.0-2.54","","<div style=""font-size:60px;"">+</div>","null","","","","","","",""
"395","","image-keyboard-response","204","349079","0.0-4.0-0.55","","img/blue.png","32","trial","32","true","0.8,0.2","1:go_a","",""
"null","","html-keyboard-response","205","350081","0.0-4.0-1.55","","<img src=""img/blue-n.png"" border=""10"">","null","trial","32","","0.8,0.2","1:go_a","0",""
"null","","html-keyboard-response","206","351082","0.0-4.0-2.55","","<div style=""font-size:60px;"">+</div>","null","","","","","","",""
"594","","image-keyboard-response","207","351676","0.0-4.0-0.56","","img/blue.png","32","trial","32","true","0.8,0.2","1:go_a","",""
"null","","html-keyboard-response","208","352678","0.0-4.0-1.56","","<img src=""img/blue-n.png"" border=""10"">","null","trial","32","","0.8,0.2","1:go_a","0",""
"null","","html-keyboard-response","209","353679","0.0-4.0-2.56","","<div style=""font-size:60px;"">+</div>","null","","","","","","",""
"null","","image-keyboard-response","210","355180","0.0-4.0-0.57","","img/purple.png","null","trial","null","true","0.2,0.8","2:nogo_b","",""
"null","","html-keyboard-response","211","356181","0.0-4.0-1.57","","<img src=""img/purple-r.png"">","null","trial","null","","0.2,0.8","2:nogo_b","1",""
"null","","html-keyboard-response","212","357182","0.0-4.0-2.57","","<div style=""font-size:60px;"">+</div>","null","","","","","","",""
"null","","image-keyboard-response","213","358685","0.0-4.0-0.58","","img/purple.png","null","trial","null","true","0.2,0.8","2:nogo_b","",""
"null","","html-keyboard-response","214","359688","0.0-4.0-1.58","","<img src=""img/purple-r.png"">","null","trial","null","","0.2,0.8","2:nogo_b","1",""
"null","","html-keyboard-response","215","360689","0.0-4.0-2.58","","<div style=""font-size:60px;"">+</div>","null","","","","","","",""
"541","","image-keyboard-response","216","361231","0.0-4.0-0.59","","img/blue.png","32","trial","32","true","0.8,0.2","1:go_a","",""
"null","","html-keyboard-response","217","362232","0.0-4.0-1.59","","<img src=""img/blue-r.png"" border=""10"">","null","trial","32","","0.8,0.2","1:go_a","1",""
"null","","html-keyboard-response","218","363233","0.0-4.0-2.59","","<div style=""font-size:60px;"">+</div>","null","","","","","","",""
"27465","","instructions","219","390698","0.0-5.0","[{""page_index"":0,""viewing_time"":27464}]","","","","","","","","",""
"676","","image-keyboard-response","220","391376","0.0-6.0-0.0","","img/blue.png","32","trial","32","true","0.6,0.4","3:go_c","",""
"null","","html-keyboard-response","221","392377","0.0-6.0-1.0","","<img src=""img/blue-r.png"" border=""10"">","null","trial","32","","0.6,0.4","3:go_c","1",""
"null","","html-keyboard-response","222","393378","0.0-6.0-2.0","","<div style=""font-size:60px;"">+</div>","null","","","","","","",""
"null","","image-keyboard-response","223","394880","0.0-6.0-0.1","","img/grey.png","null","trial","null","true","0.4,0.6","4:nogo_d","",""
"null","","html-keyboard-response","224","395881","0.0-6.0-1.1","","<img src=""img/grey-r.png"">","null","trial","null","","0.4,0.6","4:nogo_d","1",""
"null","","html-keyboard-response","225","396883","0.0-6.0-2.1","","<div style=""font-size:60px;"">+</div>","null","","","","","","",""
"null","","image-keyboard-response","226","398385","0.0-6.0-0.2","","img/orange.png","null","trial","null","true","0.4,0.6","2:nogo_b","",""
"null","","html-keyboard-response","227","399387","0.0-6.0-1.2","","<img src=""img/orange-n.png"">","null","trial","null","","0.4,0.6","2:nogo_b","0",""
"null","","html-keyboard-response","228","400388","0.0-6.0-2.2","","<div style=""font-size:60px;"">+</div>","null","","","","","","",""
"932","","image-keyboard-response","229","401320","0.0-6.0-0.3","","img/red.png","32","trial","32","true","0.6,0.4","1:go_a","",""
"null","","html-keyboard-response","230","402322","0.0-6.0-1.3","","<img src=""img/red-r.png"" border=""10"">","null","trial","32","","0.6,0.4","1:go_a","1",""
"null","","html-keyboard-response","231","403323","0.0-6.0-2.3","","<div style=""font-size:60px;"">+</div>","null","","","","","","",""
"588","","image-keyboard-response","232","403912","0.0-6.0-0.4","","img/blue.png","32","trial","32","true","0.6,0.4","3:go_c","",""
"null","","html-keyboard-response","233","404913","0.0-6.0-1.4","","<img src=""img/blue-r.png"" border=""10"">","null","trial","32","","0.6,0.4","3:go_c","1",""
"null","","html-keyboard-response","234","405914","0.0-6.0-2.4","","<div style=""font-size:60px;"">+</div>","null","","","","","","",""
"null","","image-keyboard-response","235","407415","0.0-6.0-0.5","","img/grey.png","null","trial","null","true","0.4,0.6","4:nogo_d","",""
"null","","html-keyboard-response","236","408418","0.0-6.0-1.5","","<img src=""img/grey-r.png"">","null","trial","null","","0.4,0.6","4:nogo_d","1",""
"null","","html-keyboard-response","237","409419","0.0-6.0-2.5","","<div style=""font-size:60px;"">+</div>","null","","","","","","",""
"489","","image-keyboard-response","238","409909","0.0-6.0-0.6","","img/red.png","32","trial","32","true","0.6,0.4","1:go_a","",""
"null","","html-keyboard-response","239","410910","0.0-6.0-1.6","","<img src=""img/red-n.png"" border=""10"">","null","trial","32","","0.6,0.4","1:go_a","0",""
"null","","html-keyboard-response","240","411911","0.0-6.0-2.6","","<div style=""font-size:60px;"">+</div>","null","","","","","","",""
"710","","image-keyboard-response","241","412622","0.0-6.0-0.7","","img/orange.png","32","trial","null","false","0.4,0.6","2:nogo_b","",""
"null","","html-keyboard-response","242","413623","0.0-6.0-1.7","","<img src=""img/orange-r.png"" border=""10"">","null","trial","null","","0.4,0.6","2:nogo_b","1",""
"null","","html-keyboard-response","243","414625","0.0-6.0-2.7","","<div style=""font-size:60px;"">+</div>","null","","","","","","",""
"null","","image-keyboard-response","244","416126","0.0-6.0-0.8","","img/grey.png","null","trial","null","true","0.4,0.6","4:nogo_d","",""
"null","","html-keyboard-response","245","417128","0.0-6.0-1.8","","<img src=""img/grey-r.png"">","null","trial","null","","0.4,0.6","4:nogo_d","1",""
"null","","html-keyboard-response","246","418128","0.0-6.0-2.8","","<div style=""font-size:60px;"">+</div>","null","","","","","","",""
"450","","image-keyboard-response","247","418578","0.0-6.0-0.9","","img/blue.png","32","trial","32","true","0.6,0.4","3:go_c","",""
"null","","html-keyboard-response","248","419580","0.0-6.0-1.9","","<img src=""img/blue-n.png"" border=""10"">","null","trial","32","","0.6,0.4","3:go_c","0",""
"null","","html-keyboard-response","249","420580","0.0-6.0-2.9","","<div style=""font-size:60px;"">+</div>","null","","","","","","",""
"534","","image-keyboard-response","250","421115","0.0-6.0-0.10","","img/orange.png","32","trial","null","false","0.4,0.6","2:nogo_b","",""
"null","","html-keyboard-response","251","422117","0.0-6.0-1.10","","<img src=""img/orange-r.png"" border=""10"">","null","trial","null","","0.4,0.6","2:nogo_b","1",""
"null","","html-keyboard-response","252","423118","0.0-6.0-2.10","","<div style=""font-size:60px;"">+</div>","null","","","","","","",""
"487","","image-keyboard-response","253","423605","0.0-6.0-0.11","","img/red.png","32","trial","32","true","0.6,0.4","1:go_a","",""
"null","","html-keyboard-response","254","424606","0.0-6.0-1.11","","<img src=""img/red-n.png"" border=""10"">","null","trial","32","","0.6,0.4","1:go_a","0",""
"null","","html-keyboard-response","255","425607","0.0-6.0-2.11","","<div style=""font-size:60px;"">+</div>","null","","","","","","",""
"null","","image-keyboard-response","256","427108","0.0-6.0-0.12","","img/grey.png","null","trial","null","true","0.4,0.6","4:nogo_d","",""
"null","","html-keyboard-response","257","428110","0.0-6.0-1.12","","<img src=""img/grey-n.png"">","null","trial","null","","0.4,0.6","4:nogo_d","0",""
"null","","html-keyboard-response","258","429110","0.0-6.0-2.12","","<div style=""font-size:60px;"">+</div>","null","","","","","","",""
"564","","image-keyboard-response","259","429677","0.0-6.0-0.13","","img/orange.png","32","trial","null","false","0.4,0.6","2:nogo_b","",""
"null","","html-keyboard-response","260","430678","0.0-6.0-1.13","","<img src=""img/orange-r.png"" border=""10"">","null","trial","null","","0.4,0.6","2:nogo_b","1",""
"null","","html-keyboard-response","261","431679","0.0-6.0-2.13","","<div style=""font-size:60px;"">+</div>","null","","","","","","",""
"424","","image-keyboard-response","262","432103","0.0-6.0-0.14","","img/blue.png","32","trial","32","true","0.6,0.4","3:go_c","",""
"null","","html-keyboard-response","263","433104","0.0-6.0-1.14","","<img src=""img/blue-r.png"" border=""10"">","null","trial","32","","0.6,0.4","3:go_c","1",""
"null","","html-keyboard-response","264","434105","0.0-6.0-2.14","","<div style=""font-size:60px;"">+</div>","null","","","","","","",""
"null","","image-keyboard-response","265","435607","0.0-6.0-0.15","","img/red.png","null","trial","32","false","0.6,0.4","1:go_a","",""
"null","","html-keyboard-response","266","436609","0.0-6.0-1.15","","<img src=""img/red-r.png"">","null","trial","32","","0.6,0.4","1:go_a","1",""
"null","","html-keyboard-response","267","437609","0.0-6.0-2.15","","<div style=""font-size:60px;"">+</div>","null","","","","","","",""
"677","","image-keyboard-response","268","438288","0.0-6.0-0.16","","img/orange.png","32","trial","null","false","0.4,0.6","2:nogo_b","",""
"null","","html-keyboard-response","269","439289","0.0-6.0-1.16","","<img src=""img/orange-r.png"" border=""10"">","null","trial","null","","0.4,0.6","2:nogo_b","1",""
"null","","html-keyboard-response","270","440290","0.0-6.0-2.16","","<div style=""font-size:60px;"">+</div>","null","","","","","","",""
"556","","image-keyboard-response","271","440847","0.0-6.0-0.17","","img/blue.png","32","trial","32","true","0.6,0.4","3:go_c","",""
"null","","html-keyboard-response","272","441849","0.0-6.0-1.17","","<img src=""img/blue-n.png"" border=""10"">","null","trial","32","","0.6,0.4","3:go_c","0",""
"null","","html-keyboard-response","273","442849","0.0-6.0-2.17","","<div style=""font-size:60px;"">+</div>","null","","","","","","",""
"null","","image-keyboard-response","274","444351","0.0-6.0-0.18","","img/red.png","null","trial","32","false","0.6,0.4","1:go_a","",""
"null","","html-keyboard-response","275","445352","0.0-6.0-1.18","","<img src=""img/red-n.png"">","null","trial","32","","0.6,0.4","1:go_a","0",""
"null","","html-keyboard-response","276","446352","0.0-6.0-2.18","","<div style=""font-size:60px;"">+</div>","null","","","","","","",""
"null","","image-keyboard-response","277","447854","0.0-6.0-0.19","","img/grey.png","null","trial","null","true","0.4,0.6","4:nogo_d","",""
"null","","html-keyboard-response","278","448856","0.0-6.0-1.19","","<img src=""img/grey-r.png"">","null","trial","null","","0.4,0.6","4:nogo_d","1",""
"null","","html-keyboard-response","279","449858","0.0-6.0-2.19","","<div style=""font-size:60px;"">+</div>","null","","","","","","",""
"null","","image-keyboard-response","280","451360","0.0-6.0-0.20","","img/grey.png","null","trial","null","true","0.4,0.6","4:nogo_d","",""
"null","","html-keyboard-response","281","452361","0.0-6.0-1.20","","<img src=""img/grey-r.png"">","null","trial","null","","0.4,0.6","4:nogo_d","1",""
"null","","html-keyboard-response","282","453363","0.0-6.0-2.20","","<div style=""font-size:60px;"">+</div>","null","","","","","","",""
"597","","image-keyboard-response","283","453960","0.0-6.0-0.21","","img/orange.png","32","trial","null","false","0.4,0.6","2:nogo_b","",""
"null","","html-keyboard-response","284","454963","0.0-6.0-1.21","","<img src=""img/orange-r.png"" border=""10"">","null","trial","null","","0.4,0.6","2:nogo_b","1",""
"null","","html-keyboard-response","285","455963","0.0-6.0-2.21","","<div style=""font-size:60px;"">+</div>","null","","","","","","",""
"null","","image-keyboard-response","286","457465","0.0-6.0-0.22","","img/blue.png","null","trial","32","false","0.6,0.4","3:go_c","",""
"null","","html-keyboard-response","287","458466","0.0-6.0-1.22","","<img src=""img/blue-r.png"">","null","trial","32","","0.6,0.4","3:go_c","1",""
"null","","html-keyboard-response","288","459467","0.0-6.0-2.22","","<div style=""font-size:60px;"">+</div>","null","","","","","","",""
"474","","image-keyboard-response","289","459943","0.0-6.0-0.23","","img/red.png","32","trial","32","true","0.6,0.4","1:go_a","",""
"null","","html-keyboard-response","290","460946","0.0-6.0-1.23","","<img src=""img/red-r.png"" border=""10"">","null","trial","32","","0.6,0.4","1:go_a","1",""
"null","","html-keyboard-response","291","461947","0.0-6.0-2.23","","<div style=""font-size:60px;"">+</div>","null","","","","","","",""
"605","","image-keyboard-response","292","462552","0.0-6.0-0.24","","img/red.png","32","trial","32","true","0.6,0.4","1:go_a","",""
"null","","html-keyboard-response","293","463554","0.0-6.0-1.24","","<img src=""img/red-r.png"" border=""10"">","null","trial","32","","0.6,0.4","1:go_a","1",""
"null","","html-keyboard-response","294","464555","0.0-6.0-2.24","","<div style=""font-size:60px;"">+</div>","null","","","","","","",""
"null","","image-keyboard-response","295","466055","0.0-6.0-0.25","","img/grey.png","null","trial","null","true","0.4,0.6","4:nogo_d","",""
"null","","html-keyboard-response","296","467057","0.0-6.0-1.25","","<img src=""img/grey-r.png"">","null","trial","null","","0.4,0.6","4:nogo_d","1",""
"null","","html-keyboard-response","297","468057","0.0-6.0-2.25","","<div style=""font-size:60px;"">+</div>","null","","","","","","",""
"560","","image-keyboard-response","298","468618","0.0-6.0-0.26","","img/orange.png","32","trial","null","false","0.4,0.6","2:nogo_b","",""
"null","","html-keyboard-response","299","469623","0.0-6.0-1.26","","<img src=""img/orange-n.png"" border=""10"">","null","trial","null","","0.4,0.6","2:nogo_b","0",""
"null","","html-keyboard-response","300","470623","0.0-6.0-2.26","","<div style=""font-size:60px;"">+</div>","null","","","","","","",""
"526","","image-keyboard-response","301","471150","0.0-6.0-0.27","","img/blue.png","32","trial","32","true","0.6,0.4","3:go_c","",""
"null","","html-keyboard-response","302","472152","0.0-6.0-1.27","","<img src=""img/blue-n.png"" border=""10"">","null","trial","32","","0.6,0.4","3:go_c","0",""
"null","","html-keyboard-response","303","473153","0.0-6.0-2.27","","<div style=""font-size:60px;"">+</div>","null","","","","","","",""
"694","","image-keyboard-response","304","473848","0.0-6.0-0.28","","img/orange.png","32","trial","null","false","0.4,0.6","2:nogo_b","",""
"null","","html-keyboard-response","305","474850","0.0-6.0-1.28","","<img src=""img/orange-n.png"" border=""10"">","null","trial","null","","0.4,0.6","2:nogo_b","0",""
"null","","html-keyboard-response","306","475851","0.0-6.0-2.28","","<div style=""font-size:60px;"">+</div>","null","","","","","","",""
"576","","image-keyboard-response","307","476427","0.0-6.0-0.29","","img/red.png","32","trial","32","true","0.6,0.4","1:go_a","",""
"null","","html-keyboard-response","308","477429","0.0-6.0-1.29","","<img src=""img/red-n.png"" border=""10"">","null","trial","32","","0.6,0.4","1:go_a","0",""
"null","","html-keyboard-response","309","478431","0.0-6.0-2.29","","<div style=""font-size:60px;"">+</div>","null","","","","","","",""
"null","","image-keyboard-response","310","479932","0.0-6.0-0.30","","img/blue.png","null","trial","32","false","0.6,0.4","3:go_c","",""
"null","","html-keyboard-response","311","480933","0.0-6.0-1.30","","<img src=""img/blue-n.png"">","null","trial","32","","0.6,0.4","3:go_c","0",""
"null","","html-keyboard-response","312","481934","0.0-6.0-2.30","","<div style=""font-size:60px;"">+</div>","null","","","","","","",""
"null","","image-keyboard-response","313","483435","0.0-6.0-0.31","","img/grey.png","null","trial","null","true","0.4,0.6","4:nogo_d","",""
"null","","html-keyboard-response","314","484438","0.0-6.0-1.31","","<img src=""img/grey-n.png"">","null","trial","null","","0.4,0.6","4:nogo_d","0",""
"null","","html-keyboard-response","315","485439","0.0-6.0-2.31","","<div style=""font-size:60px;"">+</div>","null","","","","","","",""
"null","","image-keyboard-response","316","486940","0.0-6.0-0.32","","img/grey.png","null","trial","null","true","0.4,0.6","4:nogo_d","",""
"null","","html-keyboard-response","317","487941","0.0-6.0-1.32","","<img src=""img/grey-r.png"">","null","trial","null","","0.4,0.6","4:nogo_d","1",""
"null","","html-keyboard-response","318","488943","0.0-6.0-2.32","","<div style=""font-size:60px;"">+</div>","null","","","","","","",""
"571","","image-keyboard-response","319","489519","0.0-6.0-0.33","","img/orange.png","32","trial","null","false","0.4,0.6","2:nogo_b","",""
"null","","html-keyboard-response","320","490522","0.0-6.0-1.33","","<img src=""img/orange-r.png"" border=""10"">","null","trial","null","","0.4,0.6","2:nogo_b","1",""
"null","","html-keyboard-response","321","491524","0.0-6.0-2.33","","<div style=""font-size:60px;"">+</div>","null","","","","","","",""
"null","","image-keyboard-response","322","493025","0.0-6.0-0.34","","img/blue.png","null","trial","32","false","0.6,0.4","3:go_c","",""
"null","","html-keyboard-response","323","494028","0.0-6.0-1.34","","<img src=""img/blue-r.png"">","null","trial","32","","0.6,0.4","3:go_c","1",""
"null","","html-keyboard-response","324","495030","0.0-6.0-2.34","","<div style=""font-size:60px;"">+</div>","null","","","","","","",""
"null","","image-keyboard-response","325","496533","0.0-6.0-0.35","","img/red.png","null","trial","32","false","0.6,0.4","1:go_a","",""
"null","","html-keyboard-response","326","497535","0.0-6.0-1.35","","<img src=""img/red-n.png"">","null","trial","32","","0.6,0.4","1:go_a","0",""
"null","","html-keyboard-response","327","498536","0.0-6.0-2.35","","<div style=""font-size:60px;"">+</div>","null","","","","","","",""
"811","","image-keyboard-response","328","499348","0.0-6.0-0.36","","img/blue.png","32","trial","32","true","0.6,0.4","3:go_c","",""
"null","","html-keyboard-response","329","500350","0.0-6.0-1.36","","<img src=""img/blue-r.png"" border=""10"">","null","trial","32","","0.6,0.4","3:go_c","1",""
"null","","html-keyboard-response","330","501351","0.0-6.0-2.36","","<div style=""font-size:60px;"">+</div>","null","","","","","","",""
"853","","image-keyboard-response","331","502205","0.0-6.0-0.37","","img/red.png","32","trial","32","true","0.6,0.4","1:go_a","",""
"null","","html-keyboard-response","332","503206","0.0-6.0-1.37","","<img src=""img/red-n.png"" border=""10"">","null","trial","32","","0.6,0.4","1:go_a","0",""
"null","","html-keyboard-response","333","504207","0.0-6.0-2.37","","<div style=""font-size:60px;"">+</div>","null","","","","","","",""
"445","","image-keyboard-response","334","504652","0.0-6.0-0.38","","img/orange.png","32","trial","null","false","0.4,0.6","2:nogo_b","",""
"null","","html-keyboard-response","335","505655","0.0-6.0-1.38","","<img src=""img/orange-n.png"" border=""10"">","null","trial","null","","0.4,0.6","2:nogo_b","0",""
"null","","html-keyboard-response","336","506656","0.0-6.0-2.38","","<div style=""font-size:60px;"">+</div>","null","","","","","","",""
"null","","image-keyboard-response","337","508157","0.0-6.0-0.39","","img/grey.png","null","trial","null","true","0.4,0.6","4:nogo_d","",""
"null","","html-keyboard-response","338","509158","0.0-6.0-1.39","","<img src=""img/grey-r.png"">","null","trial","null","","0.4,0.6","4:nogo_d","1",""
"null","","html-keyboard-response","339","510160","0.0-6.0-2.39","","<div style=""font-size:60px;"">+</div>","null","","","","","","",""
"584","","image-keyboard-response","340","510745","0.0-6.0-0.40","","img/orange.png","32","trial","null","false","0.4,0.6","2:nogo_b","",""
"null","","html-keyboard-response","341","511746","0.0-6.0-1.40","","<img src=""img/orange-r.png"" border=""10"">","null","trial","null","","0.4,0.6","2:nogo_b","1",""
"null","","html-keyboard-response","342","512747","0.0-6.0-2.40","","<div style=""font-size:60px;"">+</div>","null","","","","","","",""
"null","","image-keyboard-response","343","514247","0.0-6.0-0.41","","img/red.png","null","trial","32","false","0.6,0.4","1:go_a","",""
"null","","html-keyboard-response","344","515248","0.0-6.0-1.41","","<img src=""img/red-n.png"">","null","trial","32","","0.6,0.4","1:go_a","0",""
"null","","html-keyboard-response","345","516249","0.0-6.0-2.41","","<div style=""font-size:60px;"">+</div>","null","","","","","","",""
"null","","image-keyboard-response","346","517750","0.0-6.0-0.42","","img/grey.png","null","trial","null","true","0.4,0.6","4:nogo_d","",""
"null","","html-keyboard-response","347","518751","0.0-6.0-1.42","","<img src=""img/grey-r.png"">","null","trial","null","","0.4,0.6","4:nogo_d","1",""
"null","","html-keyboard-response","348","519753","0.0-6.0-2.42","","<div style=""font-size:60px;"">+</div>","null","","","","","","",""
"883","","image-keyboard-response","349","520637","0.0-6.0-0.43","","img/blue.png","32","trial","32","true","0.6,0.4","3:go_c","",""
"null","","html-keyboard-response","350","521638","0.0-6.0-1.43","","<img src=""img/blue-r.png"" border=""10"">","null","trial","32","","0.6,0.4","3:go_c","1",""
"null","","html-keyboard-response","351","522639","0.0-6.0-2.43","","<div style=""font-size:60px;"">+</div>","null","","","","","","",""
"null","","image-keyboard-response","352","524141","0.0-6.0-0.44","","img/red.png","null","trial","32","false","0.6,0.4","1:go_a","",""
"null","","html-keyboard-response","353","525142","0.0-6.0-1.44","","<img src=""img/red-n.png"">","null","trial","32","","0.6,0.4","1:go_a","0",""
"null","","html-keyboard-response","354","526144","0.0-6.0-2.44","","<div style=""font-size:60px;"">+</div>","null","","","","","","",""
"936","","image-keyboard-response","355","527082","0.0-6.0-0.45","","img/orange.png","32","trial","null","false","0.4,0.6","2:nogo_b","",""
"null","","html-keyboard-response","356","528084","0.0-6.0-1.45","","<img src=""img/orange-n.png"" border=""10"">","null","trial","null","","0.4,0.6","2:nogo_b","0",""
"null","","html-keyboard-response","357","529085","0.0-6.0-2.45","","<div style=""font-size:60px;"">+</div>","null","","","","","","",""
"598","","image-keyboard-response","358","529684","0.0-6.0-0.46","","img/blue.png","32","trial","32","true","0.6,0.4","3:go_c","",""
"null","","html-keyboard-response","359","530686","0.0-6.0-1.46","","<img src=""img/blue-r.png"" border=""10"">","null","trial","32","","0.6,0.4","3:go_c","1",""
"null","","html-keyboard-response","360","531687","0.0-6.0-2.46","","<div style=""font-size:60px;"">+</div>","null","","","","","","",""
"null","","image-keyboard-response","361","533189","0.0-6.0-0.47","","img/grey.png","null","trial","null","true","0.4,0.6","4:nogo_d","",""
"null","","html-keyboard-response","362","534191","0.0-6.0-1.47","","<img src=""img/grey-r.png"">","null","trial","null","","0.4,0.6","4:nogo_d","1",""
"null","","html-keyboard-response","363","535192","0.0-6.0-2.47","","<div style=""font-size:60px;"">+</div>","null","","","","","","",""
"457","","image-keyboard-response","364","535651","0.0-6.0-0.48","","img/red.png","32","trial","32","true","0.6,0.4","1:go_a","",""
"null","","html-keyboard-response","365","536652","0.0-6.0-1.48","","<img src=""img/red-r.png"" border=""10"">","null","trial","32","","0.6,0.4","1:go_a","1",""
"null","","html-keyboard-response","366","537653","0.0-6.0-2.48","","<div style=""font-size:60px;"">+</div>","null","","","","","","",""
"652","","image-keyboard-response","367","538308","0.0-6.0-0.49","","img/orange.png","32","trial","null","false","0.4,0.6","2:nogo_b","",""
"null","","html-keyboard-response","368","539308","0.0-6.0-1.49","","<img src=""img/orange-r.png"" border=""10"">","null","trial","null","","0.4,0.6","2:nogo_b","1",""
"null","","html-keyboard-response","369","540311","0.0-6.0-2.49","","<div style=""font-size:60px;"">+</div>","null","","","","","","",""
"null","","image-keyboard-response","370","541812","0.0-6.0-0.50","","img/blue.png","null","trial","32","false","0.6,0.4","3:go_c","",""
"null","","html-keyboard-response","371","542816","0.0-6.0-1.50","","<img src=""img/blue-n.png"">","null","trial","32","","0.6,0.4","3:go_c","0",""
"null","","html-keyboard-response","372","543818","0.0-6.0-2.50","","<div style=""font-size:60px;"">+</div>","null","","","","","","",""
"null","","image-keyboard-response","373","545321","0.0-6.0-0.51","","img/grey.png","null","trial","null","true","0.4,0.6","4:nogo_d","",""
"null","","html-keyboard-response","374","546323","0.0-6.0-1.51","","<img src=""img/grey-r.png"">","null","trial","null","","0.4,0.6","4:nogo_d","1",""
"null","","html-keyboard-response","375","547324","0.0-6.0-2.51","","<div style=""font-size:60px;"">+</div>","null","","","","","","",""
"752","","image-keyboard-response","376","548078","0.0-6.0-0.52","","img/red.png","32","trial","32","true","0.6,0.4","1:go_a","",""
"null","","html-keyboard-response","377","549080","0.0-6.0-1.52","","<img src=""img/red-r.png"" border=""10"">","null","trial","32","","0.6,0.4","1:go_a","1",""
"null","","html-keyboard-response","378","550080","0.0-6.0-2.52","","<div style=""font-size:60px;"">+</div>","null","","","","","","",""
"622","","image-keyboard-response","379","550703","0.0-6.0-0.53","","img/blue.png","32","trial","32","true","0.6,0.4","3:go_c","",""
"null","","html-keyboard-response","380","551705","0.0-6.0-1.53","","<img src=""img/blue-r.png"" border=""10"">","null","trial","32","","0.6,0.4","3:go_c","1",""
"null","","html-keyboard-response","381","552705","0.0-6.0-2.53","","<div style=""font-size:60px;"">+</div>","null","","","","","","",""
"null","","image-keyboard-response","382","554206","0.0-6.0-0.54","","img/grey.png","null","trial","null","true","0.4,0.6","4:nogo_d","",""
"null","","html-keyboard-response","383","555208","0.0-6.0-1.54","","<img src=""img/grey-r.png"">","null","trial","null","","0.4,0.6","4:nogo_d","1",""
"null","","html-keyboard-response","384","556208","0.0-6.0-2.54","","<div style=""font-size:60px;"">+</div>","null","","","","","","",""
"544","","image-keyboard-response","385","556753","0.0-6.0-0.55","","img/orange.png","32","trial","null","false","0.4,0.6","2:nogo_b","",""
"null","","html-keyboard-response","386","557757","0.0-6.0-1.55","","<img src=""img/orange-n.png"" border=""10"">","null","trial","null","","0.4,0.6","2:nogo_b","0",""
"null","","html-keyboard-response","387","558758","0.0-6.0-2.55","","<div style=""font-size:60px;"">+</div>","null","","","","","","",""
"null","","image-keyboard-response","388","560260","0.0-6.0-0.56","","img/grey.png","null","trial","null","true","0.4,0.6","4:nogo_d","",""
"null","","html-keyboard-response","389","561261","0.0-6.0-1.56","","<img src=""img/grey-n.png"">","null","trial","null","","0.4,0.6","4:nogo_d","0",""
"null","","html-keyboard-response","390","562262","0.0-6.0-2.56","","<div style=""font-size:60px;"">+</div>","null","","","","","","",""
"560","","image-keyboard-response","391","562824","0.0-6.0-0.57","","img/orange.png","32","trial","null","false","0.4,0.6","2:nogo_b","",""
"null","","html-keyboard-response","392","563826","0.0-6.0-1.57","","<img src=""img/orange-r.png"" border=""10"">","null","trial","null","","0.4,0.6","2:nogo_b","1",""
"null","","html-keyboard-response","393","564827","0.0-6.0-2.57","","<div style=""font-size:60px;"">+</div>","null","","","","","","",""
"null","","image-keyboard-response","394","566328","0.0-6.0-0.58","","img/blue.png","null","trial","32","false","0.6,0.4","3:go_c","",""
"null","","html-keyboard-response","395","567332","0.0-6.0-1.58","","<img src=""img/blue-n.png"">","null","trial","32","","0.6,0.4","3:go_c","0",""
"null","","html-keyboard-response","396","568334","0.0-6.0-2.58","","<div style=""font-size:60px;"">+</div>","null","","","","","","",""
"424","","image-keyboard-response","397","568757","0.0-6.0-0.59","","img/red.png","32","trial","32","true","0.6,0.4","1:go_a","",""
"null","","html-keyboard-response","398","569758","0.0-6.0-1.59","","<img src=""img/red-r.png"" border=""10"">","null","trial","32","","0.6,0.4","1:go_a","1",""
"null","","html-keyboard-response","399","570759","0.0-6.0-2.59","","<div style=""font-size:60px;"">+</div>","null","","","","","","",""
"null","","image-keyboard-response","400","572261","0.0-6.0-0.60","","img/grey.png","null","trial","null","true","0.4,0.6","4:nogo_d","",""
"null","","html-keyboard-response","401","573262","0.0-6.0-1.60","","<img src=""img/grey-n.png"">","null","trial","null","","0.4,0.6","4:nogo_d","0",""
"null","","html-keyboard-response","402","574263","0.0-6.0-2.60","","<div style=""font-size:60px;"">+</div>","null","","","","","","",""
"558","","image-keyboard-response","403","574821","0.0-6.0-0.61","","img/orange.png","32","trial","null","false","0.4,0.6","2:nogo_b","",""
"null","","html-keyboard-response","404","575822","0.0-6.0-1.61","","<img src=""img/orange-n.png"" border=""10"">","null","trial","null","","0.4,0.6","2:nogo_b","0",""
"null","","html-keyboard-response","405","576823","0.0-6.0-2.61","","<div style=""font-size:60px;"">+</div>","null","","","","","","",""
"765","","image-keyboard-response","406","577589","0.0-6.0-0.62","","img/red.png","32","trial","32","true","0.6,0.4","1:go_a","",""
"null","","html-keyboard-response","407","578595","0.0-6.0-1.62","","<img src=""img/red-n.png"" border=""10"">","null","trial","32","","0.6,0.4","1:go_a","0",""
"null","","html-keyboard-response","408","579596","0.0-6.0-2.62","","<div style=""font-size:60px;"">+</div>","null","","","","","","",""
"null","","image-keyboard-response","409","581097","0.0-6.0-0.63","","img/blue.png","null","trial","32","false","0.6,0.4","3:go_c","",""
"null","","html-keyboard-response","410","582098","0.0-6.0-1.63","","<img src=""img/blue-n.png"">","null","trial","32","","0.6,0.4","3:go_c","0",""
"null","","html-keyboard-response","411","583099","0.0-6.0-2.63","","<div style=""font-size:60px;"">+</div>","null","","","","","","",""
"null","","image-keyboard-response","412","584600","0.0-6.0-0.64","","img/grey.png","null","trial","null","true","0.4,0.6","4:nogo_d","",""
"null","","html-keyboard-response","413","585603","0.0-6.0-1.64","","<img src=""img/grey-n.png"">","null","trial","null","","0.4,0.6","4:nogo_d","0",""
"null","","html-keyboard-response","414","586603","0.0-6.0-2.64","","<div style=""font-size:60px;"">+</div>","null","","","","","","",""
"null","","image-keyboard-response","415","588105","0.0-6.0-0.65","","img/red.png","null","trial","32","false","0.6,0.4","1:go_a","",""
"null","","html-keyboard-response","416","589107","0.0-6.0-1.65","","<img src=""img/red-n.png"">","null","trial","32","","0.6,0.4","1:go_a","0",""
"null","","html-keyboard-response","417","590110","0.0-6.0-2.65","","<div style=""font-size:60px;"">+</div>","null","","","","","","",""
"498","","image-keyboard-response","418","590610","0.0-6.0-0.66","","img/blue.png","32","trial","32","true","0.6,0.4","3:go_c","",""
"null","","html-keyboard-response","419","591612","0.0-6.0-1.66","","<img src=""img/blue-r.png"" border=""10"">","null","trial","32","","0.6,0.4","3:go_c","1",""
"null","","html-keyboard-response","420","592613","0.0-6.0-2.66","","<div style=""font-size:60px;"">+</div>","null","","","","","","",""
"499","","image-keyboard-response","421","593113","0.0-6.0-0.67","","img/orange.png","32","trial","null","false","0.4,0.6","2:nogo_b","",""
"null","","html-keyboard-response","422","594115","0.0-6.0-1.67","","<img src=""img/orange-r.png"" border=""10"">","null","trial","null","","0.4,0.6","2:nogo_b","1",""
"null","","html-keyboard-response","423","595116","0.0-6.0-2.67","","<div style=""font-size:60px;"">+</div>","null","","","","","","",""
"null","","image-keyboard-response","424","596618","0.0-6.0-0.68","","img/red.png","null","trial","32","false","0.6,0.4","1:go_a","",""
"null","","html-keyboard-response","425","597619","0.0-6.0-1.68","","<img src=""img/red-r.png"">","null","trial","32","","0.6,0.4","1:go_a","1",""
"null","","html-keyboard-response","426","598622","0.0-6.0-2.68","","<div style=""font-size:60px;"">+</div>","null","","","","","","",""
"492","","image-keyboard-response","427","599116","0.0-6.0-0.69","","img/orange.png","32","trial","null","false","0.4,0.6","2:nogo_b","",""
"null","","html-keyboard-response","428","600120","0.0-6.0-1.69","","<img src=""img/orange-r.png"" border=""10"">","null","trial","null","","0.4,0.6","2:nogo_b","1",""
"null","","html-keyboard-response","429","601121","0.0-6.0-2.69","","<div style=""font-size:60px;"">+</div>","null","","","","","","",""
"null","","image-keyboard-response","430","602624","0.0-6.0-0.70","","img/grey.png","null","trial","null","true","0.4,0.6","4:nogo_d","",""
"null","","html-keyboard-response","431","603624","0.0-6.0-1.70","","<img src=""img/grey-r.png"">","null","trial","null","","0.4,0.6","4:nogo_d","1",""
"null","","html-keyboard-response","432","604625","0.0-6.0-2.70","","<div style=""font-size:60px;"">+</div>","null","","","","","","",""
"445","","image-keyboard-response","433","605072","0.0-6.0-0.71","","img/blue.png","32","trial","32","true","0.6,0.4","3:go_c","",""
"null","","html-keyboard-response","434","606072","0.0-6.0-1.71","","<img src=""img/blue-r.png"" border=""10"">","null","trial","32","","0.6,0.4","3:go_c","1",""
"null","","html-keyboard-response","435","607073","0.0-6.0-2.71","","<div style=""font-size:60px;"">+</div>","null","","","","","","",""
"636","","image-keyboard-response","436","607710","0.0-6.0-0.72","","img/blue.png","32","trial","32","true","0.6,0.4","3:go_c","",""
"null","","html-keyboard-response","437","608714","0.0-6.0-1.72","","<img src=""img/blue-n.png"" border=""10"">","null","trial","32","","0.6,0.4","3:go_c","0",""
"null","","html-keyboard-response","438","609715","0.0-6.0-2.72","","<div style=""font-size:60px;"">+</div>","null","","","","","","",""
"null","","image-keyboard-response","439","611216","0.0-6.0-0.73","","img/red.png","null","trial","32","false","0.6,0.4","1:go_a","",""
"null","","html-keyboard-response","440","612218","0.0-6.0-1.73","","<img src=""img/red-n.png"">","null","trial","32","","0.6,0.4","1:go_a","0",""
"null","","html-keyboard-response","441","613221","0.0-6.0-2.73","","<div style=""font-size:60px;"">+</div>","null","","","","","","",""
"null","","image-keyboard-response","442","614722","0.0-6.0-0.74","","img/grey.png","null","trial","null","true","0.4,0.6","4:nogo_d","",""
"null","","html-keyboard-response","443","615723","0.0-6.0-1.74","","<img src=""img/grey-r.png"">","null","trial","null","","0.4,0.6","4:nogo_d","1",""
"null","","html-keyboard-response","444","616725","0.0-6.0-2.74","","<div style=""font-size:60px;"">+</div>","null","","","","","","",""
"554","","image-keyboard-response","445","617280","0.0-6.0-0.75","","img/orange.png","32","trial","null","false","0.4,0.6","2:nogo_b","",""
"null","","html-keyboard-response","446","618281","0.0-6.0-1.75","","<img src=""img/orange-n.png"" border=""10"">","null","trial","null","","0.4,0.6","2:nogo_b","0",""
"null","","html-keyboard-response","447","619282","0.0-6.0-2.75","","<div style=""font-size:60px;"">+</div>","null","","","","","","",""
"null","","image-keyboard-response","448","620783","0.0-6.0-0.76","","img/grey.png","null","trial","null","true","0.4,0.6","4:nogo_d","",""
"null","","html-keyboard-response","449","621792","0.0-6.0-1.76","","<img src=""img/grey-r.png"">","null","trial","null","","0.4,0.6","4:nogo_d","1",""
"null","","html-keyboard-response","450","622792","0.0-6.0-2.76","","<div style=""font-size:60px;"">+</div>","null","","","","","","",""
"619","","image-keyboard-response","451","623413","0.0-6.0-0.77","","img/blue.png","32","trial","32","true","0.6,0.4","3:go_c","",""
"null","","html-keyboard-response","452","624414","0.0-6.0-1.77","","<img src=""img/blue-n.png"" border=""10"">","null","trial","32","","0.6,0.4","3:go_c","0",""
"null","","html-keyboard-response","453","625415","0.0-6.0-2.77","","<div style=""font-size:60px;"">+</div>","null","","","","","","",""
"642","","image-keyboard-response","454","626058","0.0-6.0-0.78","","img/red.png","32","trial","32","true","0.6,0.4","1:go_a","",""
"null","","html-keyboard-response","455","627059","0.0-6.0-1.78","","<img src=""img/red-n.png"" border=""10"">","null","trial","32","","0.6,0.4","1:go_a","0",""
"null","","html-keyboard-response","456","628060","0.0-6.0-2.78","","<div style=""font-size:60px;"">+</div>","null","","","","","","",""
"null","","image-keyboard-response","457","629562","0.0-6.0-0.79","","img/orange.png","null","trial","null","true","0.4,0.6","2:nogo_b","",""
"null","","html-keyboard-response","458","630562","0.0-6.0-1.79","","<img src=""img/orange-r.png"">","null","trial","null","","0.4,0.6","2:nogo_b","1",""
"null","","html-keyboard-response","459","631564","0.0-6.0-2.79","","<div style=""font-size:60px;"">+</div>","null","","","","","","",""
"null","","image-keyboard-response","460","633066","0.0-6.0-0.80","","img/orange.png","null","trial","null","true","0.4,0.6","2:nogo_b","",""
"null","","html-keyboard-response","461","634068","0.0-6.0-1.80","","<img src=""img/orange-r.png"">","null","trial","null","","0.4,0.6","2:nogo_b","1",""
"null","","html-keyboard-response","462","635071","0.0-6.0-2.80","","<div style=""font-size:60px;"">+</div>","null","","","","","","",""
"783","","image-keyboard-response","463","635856","0.0-6.0-0.81","","img/red.png","32","trial","32","true","0.6,0.4","1:go_a","",""
"null","","html-keyboard-response","464","636858","0.0-6.0-1.81","","<img src=""img/red-n.png"" border=""10"">","null","trial","32","","0.6,0.4","1:go_a","0",""
"null","","html-keyboard-response","465","637860","0.0-6.0-2.81","","<div style=""font-size:60px;"">+</div>","null","","","","","","",""
"null","","image-keyboard-response","466","639360","0.0-6.0-0.82","","img/grey.png","null","trial","null","true","0.4,0.6","4:nogo_d","",""
"null","","html-keyboard-response","467","640362","0.0-6.0-1.82","","<img src=""img/grey-r.png"">","null","trial","null","","0.4,0.6","4:nogo_d","1",""
"null","","html-keyboard-response","468","641363","0.0-6.0-2.82","","<div style=""font-size:60px;"">+</div>","null","","","","","","",""
"661","","image-keyboard-response","469","642027","0.0-6.0-0.83","","img/blue.png","32","trial","32","true","0.6,0.4","3:go_c","",""
"null","","html-keyboard-response","470","643029","0.0-6.0-1.83","","<img src=""img/blue-n.png"" border=""10"">","null","trial","32","","0.6,0.4","3:go_c","0",""
"null","","html-keyboard-response","471","644030","0.0-6.0-2.83","","<div style=""font-size:60px;"">+</div>","null","","","","","","",""
"null","","image-keyboard-response","472","645532","0.0-6.0-0.84","","img/blue.png","null","trial","32","false","0.6,0.4","3:go_c","",""
"null","","html-keyboard-response","473","646534","0.0-6.0-1.84","","<img src=""img/blue-r.png"">","null","trial","32","","0.6,0.4","3:go_c","1",""
"null","","html-keyboard-response","474","647535","0.0-6.0-2.84","","<div style=""font-size:60px;"">+</div>","null","","","","","","",""
"null","","image-keyboard-response","475","649036","0.0-6.0-0.85","","img/orange.png","null","trial","null","true","0.4,0.6","2:nogo_b","",""
"null","","html-keyboard-response","476","650038","0.0-6.0-1.85","","<img src=""img/orange-n.png"">","null","trial","null","","0.4,0.6","2:nogo_b","0",""
"null","","html-keyboard-response","477","651039","0.0-6.0-2.85","","<div style=""font-size:60px;"">+</div>","null","","","","","","",""
"null","","image-keyboard-response","478","652540","0.0-6.0-0.86","","img/red.png","null","trial","32","false","0.6,0.4","1:go_a","",""
"null","","html-keyboard-response","479","653541","0.0-6.0-1.86","","<img src=""img/red-n.png"">","null","trial","32","","0.6,0.4","1:go_a","0",""
"null","","html-keyboard-response","480","654542","0.0-6.0-2.86","","<div style=""font-size:60px;"">+</div>","null","","","","","","",""
"null","","image-keyboard-response","481","656043","0.0-6.0-0.87","","img/grey.png","null","trial","null","true","0.4,0.6","4:nogo_d","",""
"null","","html-keyboard-response","482","657044","0.0-6.0-1.87","","<img src=""img/grey-r.png"">","null","trial","null","","0.4,0.6","4:nogo_d","1",""
"null","","html-keyboard-response","483","658045","0.0-6.0-2.87","","<div style=""font-size:60px;"">+</div>","null","","","","","","",""
"714","","image-keyboard-response","484","658759","0.0-6.0-0.88","","img/red.png","32","trial","32","true","0.6,0.4","1:go_a","",""
"null","","html-keyboard-response","485","659760","0.0-6.0-1.88","","<img src=""img/red-n.png"" border=""10"">","null","trial","32","","0.6,0.4","1:go_a","0",""
"null","","html-keyboard-response","486","660761","0.0-6.0-2.88","","<div style=""font-size:60px;"">+</div>","null","","","","","","",""
"684","","image-keyboard-response","487","661447","0.0-6.0-0.89","","img/blue.png","32","trial","32","true","0.6,0.4","3:go_c","",""
"null","","html-keyboard-response","488","662453","0.0-6.0-1.89","","<img src=""img/blue-n.png"" border=""10"">","null","trial","32","","0.6,0.4","3:go_c","0",""
"null","","html-keyboard-response","489","663454","0.0-6.0-2.89","","<div style=""font-size:60px;"">+</div>","null","","","","","","",""
"454","","image-keyboard-response","490","663910","0.0-6.0-0.90","","img/orange.png","32","trial","null","false","0.4,0.6","2:nogo_b","",""
"null","","html-keyboard-response","491","664911","0.0-6.0-1.90","","<img src=""img/orange-r.png"" border=""10"">","null","trial","null","","0.4,0.6","2:nogo_b","1",""
"null","","html-keyboard-response","492","665912","0.0-6.0-2.90","","<div style=""font-size:60px;"">+</div>","null","","","","","","",""
"null","","image-keyboard-response","493","667412","0.0-6.0-0.91","","img/grey.png","null","trial","null","true","0.4,0.6","4:nogo_d","",""
"null","","html-keyboard-response","494","668414","0.0-6.0-1.91","","<img src=""img/grey-n.png"">","null","trial","null","","0.4,0.6","4:nogo_d","0",""
"null","","html-keyboard-response","495","669415","0.0-6.0-2.91","","<div style=""font-size:60px;"">+</div>","null","","","","","","",""
"null","","image-keyboard-response","496","670915","0.0-6.0-0.92","","img/blue.png","null","trial","32","false","0.6,0.4","3:go_c","",""
"null","","html-keyboard-response","497","671917","0.0-6.0-1.92","","<img src=""img/blue-n.png"">","null","trial","32","","0.6,0.4","3:go_c","0",""
"null","","html-keyboard-response","498","672919","0.0-6.0-2.92","","<div style=""font-size:60px;"">+</div>","null","","","","","","",""
"559","","image-keyboard-response","499","673479","0.0-6.0-0.93","","img/orange.png","32","trial","null","false","0.4,0.6","2:nogo_b","",""
"null","","html-keyboard-response","500","674480","0.0-6.0-1.93","","<img src=""img/orange-n.png"" border=""10"">","null","trial","null","","0.4,0.6","2:nogo_b","0",""
"null","","html-keyboard-response","501","675480","0.0-6.0-2.93","","<div style=""font-size:60px;"">+</div>","null","","","","","","",""
"null","","image-keyboard-response","502","676982","0.0-6.0-0.94","","img/grey.png","null","trial","null","true","0.4,0.6","4:nogo_d","",""
"null","","html-keyboard-response","503","677984","0.0-6.0-1.94","","<img src=""img/grey-n.png"">","null","trial","null","","0.4,0.6","4:nogo_d","0",""
"null","","html-keyboard-response","504","678986","0.0-6.0-2.94","","<div style=""font-size:60px;"">+</div>","null","","","","","","",""
"null","","image-keyboard-response","505","680487","0.0-6.0-0.95","","img/red.png","null","trial","32","false","0.6,0.4","1:go_a","",""
"null","","html-keyboard-response","506","681488","0.0-6.0-1.95","","<img src=""img/red-r.png"">","null","trial","32","","0.6,0.4","1:go_a","1",""
"null","","html-keyboard-response","507","682491","0.0-6.0-2.95","","<div style=""font-size:60px;"">+</div>","null","","","","","","",""
"null","","image-keyboard-response","508","683991","0.0-6.0-0.96","","img/red.png","null","trial","32","false","0.6,0.4","1:go_a","",""
"null","","html-keyboard-response","509","684993","0.0-6.0-1.96","","<img src=""img/red-r.png"">","null","trial","32","","0.6,0.4","1:go_a","1",""
"null","","html-keyboard-response","510","685994","0.0-6.0-2.96","","<div style=""font-size:60px;"">+</div>","null","","","","","","",""
"null","","image-keyboard-response","511","687495","0.0-6.0-0.97","","img/orange.png","null","trial","null","true","0.4,0.6","2:nogo_b","",""
"null","","html-keyboard-response","512","688497","0.0-6.0-1.97","","<img src=""img/orange-n.png"">","null","trial","null","","0.4,0.6","2:nogo_b","0",""
"null","","html-keyboard-response","513","689498","0.0-6.0-2.97","","<div style=""font-size:60px;"">+</div>","null","","","","","","",""
"423","","image-keyboard-response","514","689922","0.0-6.0-0.98","","img/grey.png","32","trial","null","false","0.4,0.6","4:nogo_d","",""
"null","","html-keyboard-response","515","690923","0.0-6.0-1.98","","<img src=""img/grey-n.png"" border=""10"">","null","trial","null","","0.4,0.6","4:nogo_d","0",""
"null","","html-keyboard-response","516","691924","0.0-6.0-2.98","","<div style=""font-size:60px;"">+</div>","null","","","","","","",""
"700","","image-keyboard-response","517","692625","0.0-6.0-0.99","","img/blue.png","32","trial","32","true","0.6,0.4","3:go_c","",""
"null","","html-keyboard-response","518","693627","0.0-6.0-1.99","","<img src=""img/blue-r.png"" border=""10"">","null","trial","32","","0.6,0.4","3:go_c","1",""
"null","","html-keyboard-response","519","694629","0.0-6.0-2.99","","<div style=""font-size:60px;"">+</div>","null","","","","","","",""
"null","","image-keyboard-response","520","696129","0.0-6.0-0.100","","img/red.png","null","trial","32","false","0.6,0.4","1:go_a","",""
"null","","html-keyboard-response","521","697130","0.0-6.0-1.100","","<img src=""img/red-n.png"">","null","trial","32","","0.6,0.4","1:go_a","0",""
"null","","html-keyboard-response","522","698131","0.0-6.0-2.100","","<div style=""font-size:60px;"">+</div>","null","","","","","","",""
"587","","image-keyboard-response","523","698719","0.0-6.0-0.101","","img/orange.png","32","trial","null","false","0.4,0.6","2:nogo_b","",""
"null","","html-keyboard-response","524","699721","0.0-6.0-1.101","","<img src=""img/orange-r.png"" border=""10"">","null","trial","null","","0.4,0.6","2:nogo_b","1",""
"null","","html-keyboard-response","525","700722","0.0-6.0-2.101","","<div style=""font-size:60px;"">+</div>","null","","","","","","",""
"773","","image-keyboard-response","526","701496","0.0-6.0-0.102","","img/blue.png","32","trial","32","true","0.6,0.4","3:go_c","",""
"null","","html-keyboard-response","527","702497","0.0-6.0-1.102","","<img src=""img/blue-r.png"" border=""10"">","null","trial","32","","0.6,0.4","3:go_c","1",""
"null","","html-keyboard-response","528","703498","0.0-6.0-2.102","","<div style=""font-size:60px;"">+</div>","null","","","","","","",""
"null","","image-keyboard-response","529","704999","0.0-6.0-0.103","","img/grey.png","null","trial","null","true","0.4,0.6","4:nogo_d","",""
"null","","html-keyboard-response","530","706002","0.0-6.0-1.103","","<img src=""img/grey-n.png"">","null","trial","null","","0.4,0.6","4:nogo_d","0",""
"null","","html-keyboard-response","531","707003","0.0-6.0-2.103","","<div style=""font-size:60px;"">+</div>","null","","","","","","",""
"657","","image-keyboard-response","532","707662","0.0-6.0-0.104","","img/orange.png","32","trial","null","false","0.4,0.6","2:nogo_b","",""
"null","","html-keyboard-response","533","708663","0.0-6.0-1.104","","<img src=""img/orange-r.png"" border=""10"">","null","trial","null","","0.4,0.6","2:nogo_b","1",""
"null","","html-keyboard-response","534","709664","0.0-6.0-2.104","","<div style=""font-size:60px;"">+</div>","null","","","","","","",""
"null","","image-keyboard-response","535","711166","0.0-6.0-0.105","","img/grey.png","null","trial","null","true","0.4,0.6","4:nogo_d","",""
"null","","html-keyboard-response","536","712168","0.0-6.0-1.105","","<img src=""img/grey-r.png"">","null","trial","null","","0.4,0.6","4:nogo_d","1",""
"null","","html-keyboard-response","537","713169","0.0-6.0-2.105","","<div style=""font-size:60px;"">+</div>","null","","","","","","",""
"693","","image-keyboard-response","538","713862","0.0-6.0-0.106","","img/red.png","32","trial","32","true","0.6,0.4","1:go_a","",""
"null","","html-keyboard-response","539","714863","0.0-6.0-1.106","","<img src=""img/red-r.png"" border=""10"">","null","trial","32","","0.6,0.4","1:go_a","1",""
"null","","html-keyboard-response","540","715864","0.0-6.0-2.106","","<div style=""font-size:60px;"">+</div>","null","","","","","","",""
"null","","image-keyboard-response","541","717367","0.0-6.0-0.107","","img/blue.png","null","trial","32","false","0.6,0.4","3:go_c","",""
"null","","html-keyboard-response","542","718369","0.0-6.0-1.107","","<img src=""img/blue-n.png"">","null","trial","32","","0.6,0.4","3:go_c","0",""
"null","","html-keyboard-response","543","719371","0.0-6.0-2.107","","<div style=""font-size:60px;"">+</div>","null","","","","","","",""
"510","","image-keyboard-response","544","719884","0.0-6.0-0.108","","img/orange.png","32","trial","null","false","0.4,0.6","2:nogo_b","",""
"null","","html-keyboard-response","545","720885","0.0-6.0-1.108","","<img src=""img/orange-n.png"" border=""10"">","null","trial","null","","0.4,0.6","2:nogo_b","0",""
"null","","html-keyboard-response","546","721887","0.0-6.0-2.108","","<div style=""font-size:60px;"">+</div>","null","","","","","","",""
"null","","image-keyboard-response","547","723388","0.0-6.0-0.109","","img/grey.png","null","trial","null","true","0.4,0.6","4:nogo_d","",""
"null","","html-keyboard-response","548","724389","0.0-6.0-1.109","","<img src=""img/grey-r.png"">","null","trial","null","","0.4,0.6","4:nogo_d","1",""
"null","","html-keyboard-response","549","725390","0.0-6.0-2.109","","<div style=""font-size:60px;"">+</div>","null","","","","","","",""
"613","","image-keyboard-response","550","726004","0.0-6.0-0.110","","img/red.png","32","trial","32","true","0.6,0.4","1:go_a","",""
"null","","html-keyboard-response","551","727006","0.0-6.0-1.110","","<img src=""img/red-r.png"" border=""10"">","null","trial","32","","0.6,0.4","1:go_a","1",""
"null","","html-keyboard-response","552","728006","0.0-6.0-2.110","","<div style=""font-size:60px;"">+</div>","null","","","","","","",""
"null","","image-keyboard-response","553","729509","0.0-6.0-0.111","","img/blue.png","null","trial","32","false","0.6,0.4","3:go_c","",""
"null","","html-keyboard-response","554","730512","0.0-6.0-1.111","","<img src=""img/blue-r.png"">","null","trial","32","","0.6,0.4","3:go_c","1",""
"null","","html-keyboard-response","555","731513","0.0-6.0-2.111","","<div style=""font-size:60px;"">+</div>","null","","","","","","",""
"null","","image-keyboard-response","556","733014","0.0-6.0-0.112","","img/grey.png","null","trial","null","true","0.4,0.6","4:nogo_d","",""
"null","","html-keyboard-response","557","734016","0.0-6.0-1.112","","<img src=""img/grey-r.png"">","null","trial","null","","0.4,0.6","4:nogo_d","1",""
"null","","html-keyboard-response","558","735017","0.0-6.0-2.112","","<div style=""font-size:60px;"">+</div>","null","","","","","","",""
"739","","image-keyboard-response","559","735758","0.0-6.0-0.113","","img/red.png","32","trial","32","true","0.6,0.4","1:go_a","",""
"null","","html-keyboard-response","560","736758","0.0-6.0-1.113","","<img src=""img/red-n.png"" border=""10"">","null","trial","32","","0.6,0.4","1:go_a","0",""
"null","","html-keyboard-response","561","737760","0.0-6.0-2.113","","<div style=""font-size:60px;"">+</div>","null","","","","","","",""
"null","","image-keyboard-response","562","739261","0.0-6.0-0.114","","img/blue.png","null","trial","32","false","0.6,0.4","3:go_c","",""
"null","","html-keyboard-response","563","740263","0.0-6.0-1.114","","<img src=""img/blue-n.png"">","null","trial","32","","0.6,0.4","3:go_c","0",""
"null","","html-keyboard-response","564","741263","0.0-6.0-2.114","","<div style=""font-size:60px;"">+</div>","null","","","","","","",""
"638","","image-keyboard-response","565","741903","0.0-6.0-0.115","","img/orange.png","32","trial","null","false","0.4,0.6","2:nogo_b","",""
"null","","html-keyboard-response","566","742912","0.0-6.0-1.115","","<img src=""img/orange-r.png"" border=""10"">","null","trial","null","","0.4,0.6","2:nogo_b","1",""
"null","","html-keyboard-response","567","743914","0.0-6.0-2.115","","<div style=""font-size:60px;"">+</div>","null","","","","","","",""
"null","","image-keyboard-response","568","745415","0.0-6.0-0.116","","img/red.png","null","trial","32","false","0.6,0.4","1:go_a","",""
"null","","html-keyboard-response","569","746417","0.0-6.0-1.116","","<img src=""img/red-n.png"">","null","trial","32","","0.6,0.4","1:go_a","0",""
"null","","html-keyboard-response","570","747418","0.0-6.0-2.116","","<div style=""font-size:60px;"">+</div>","null","","","","","","",""
"502","","image-keyboard-response","571","747922","0.0-6.0-0.117","","img/blue.png","32","trial","32","true","0.6,0.4","3:go_c","",""
"null","","html-keyboard-response","572","748925","0.0-6.0-1.117","","<img src=""img/blue-r.png"" border=""10"">","null","trial","32","","0.6,0.4","3:go_c","1",""
"null","","html-keyboard-response","573","749926","0.0-6.0-2.117","","<div style=""font-size:60px;"">+</div>","null","","","","","","",""
"null","","image-keyboard-response","574","751427","0.0-6.0-0.118","","img/grey.png","null","trial","null","true","0.4,0.6","4:nogo_d","",""
"null","","html-keyboard-response","575","752429","0.0-6.0-1.118","","<img src=""img/grey-r.png"">","null","trial","null","","0.4,0.6","4:nogo_d","1",""
"null","","html-keyboard-response","576","753431","0.0-6.0-2.118","","<div style=""font-size:60px;"">+</div>","null","","","","","","",""
"696","","image-keyboard-response","577","754129","0.0-6.0-0.119","","img/orange.png","32","trial","null","false","0.4,0.6","2:nogo_b","",""
"null","","html-keyboard-response","578","755131","0.0-6.0-1.119","","<img src=""img/orange-n.png"" border=""10"">","null","trial","null","","0.4,0.6","2:nogo_b","0",""
"null","","html-keyboard-response","579","756132","0.0-6.0-2.119","","<div style=""font-size:60px;"">+</div>","null","","","","","","",""
"4625","","instructions","580","760758","0.0-7.0","[{""page_index"":0,""viewing_time"":4625}]","","","","","","","","",""
"910","","image-keyboard-response","581","761670","0.0-8.0-0.0","","img/orange.png","32","trial","null","false","0.2,0.8","2:nogo_b","",""
"null","","html-keyboard-response","582","762672","0.0-8.0-1.0","","<img src=""img/orange-n.png"" border=""10"">","null","trial","null","","0.2,0.8","2:nogo_b","0",""
"null","","html-keyboard-response","583","763672","0.0-8.0-2.0","","<div style=""font-size:60px;"">+</div>","null","","","","","","",""
"495","","image-keyboard-response","584","764169","0.0-8.0-0.1","","img/grey.png","32","trial","32","true","0.8,0.2","1:go_a","",""
"null","","html-keyboard-response","585","765170","0.0-8.0-1.1","","<img src=""img/grey-r.png"" border=""10"">","null","trial","32","","0.8,0.2","1:go_a","1",""
"null","","html-keyboard-response","586","766170","0.0-8.0-2.1","","<div style=""font-size:60px;"">+</div>","null","","","","","","",""
"509","","image-keyboard-response","587","766681","0.0-8.0-0.2","","img/pink.png","32","trial","32","true","1,0","3:go_c","",""
"null","","html-keyboard-response","588","767685","0.0-8.0-1.2","","<img src=""img/pink-r.png"" border=""10"">","null","trial","32","","1,0","3:go_c","1",""
"null","","html-keyboard-response","589","768687","0.0-8.0-2.2","","<div style=""font-size:60px;"">+</div>","null","","","","","","",""
"589","","image-keyboard-response","590","769277","0.0-8.0-0.3","","img/purple.png","32","trial","null","false","0,1","4:nogo_d","",""
"null","","html-keyboard-response","591","770278","0.0-8.0-1.3","","<img src=""img/purple-n.png"" border=""10"">","null","trial","null","","0,1","4:nogo_d","0",""
"null","","html-keyboard-response","592","771279","0.0-8.0-2.3","","<div style=""font-size:60px;"">+</div>","null","","","","","","",""
"505","","image-keyboard-response","593","771786","0.0-8.0-0.4","","img/pink.png","32","trial","32","true","1,0","3:go_c","",""
"null","","html-keyboard-response","594","772788","0.0-8.0-1.4","","<img src=""img/pink-r.png"" border=""10"">","null","trial","32","","1,0","3:go_c","1",""
"null","","html-keyboard-response","595","773789","0.0-8.0-2.4","","<div style=""font-size:60px;"">+</div>","null","","","","","","",""
"null","","image-keyboard-response","596","775291","0.0-8.0-0.5","","img/purple.png","null","trial","null","true","0,1","4:nogo_d","",""
"null","","html-keyboard-response","597","776295","0.0-8.0-1.5","","<img src=""img/purple-r.png"">","null","trial","null","","0,1","4:nogo_d","1",""
"null","","html-keyboard-response","598","777297","0.0-8.0-2.5","","<div style=""font-size:60px;"">+</div>","null","","","","","","",""
"null","","image-keyboard-response","599","778799","0.0-8.0-0.6","","img/orange.png","null","trial","null","true","0.2,0.8","2:nogo_b","",""
"null","","html-keyboard-response","600","779801","0.0-8.0-1.6","","<img src=""img/orange-r.png"">","null","trial","null","","0.2,0.8","2:nogo_b","1",""
"null","","html-keyboard-response","601","780808","0.0-8.0-2.6","","<div style=""font-size:60px;"">+</div>","null","","","","","","",""
"406","","image-keyboard-response","602","781214","0.0-8.0-0.7","","img/grey.png","32","trial","32","true","0.8,0.2","1:go_a","",""
"null","","html-keyboard-response","603","782217","0.0-8.0-1.7","","<img src=""img/grey-r.png"" border=""10"">","null","trial","32","","0.8,0.2","1:go_a","1",""
"null","","html-keyboard-response","604","783218","0.0-8.0-2.7","","<div style=""font-size:60px;"">+</div>","null","","","","","","",""
"null","","image-keyboard-response","605","784720","0.0-8.0-0.8","","img/orange.png","null","trial","null","true","0.2,0.8","2:nogo_b","",""
"null","","html-keyboard-response","606","785723","0.0-8.0-1.8","","<img src=""img/orange-r.png"">","null","trial","null","","0.2,0.8","2:nogo_b","1",""
"null","","html-keyboard-response","607","786724","0.0-8.0-2.8","","<div style=""font-size:60px;"">+</div>","null","","","","","","",""
"null","","image-keyboard-response","608","788226","0.0-8.0-0.9","","img/purple.png","null","trial","null","true","0,1","4:nogo_d","",""
"null","","html-keyboard-response","609","789228","0.0-8.0-1.9","","<img src=""img/purple-r.png"">","null","trial","null","","0,1","4:nogo_d","1",""
"null","","html-keyboard-response","610","790230","0.0-8.0-2.9","","<div style=""font-size:60px;"">+</div>","null","","","","","","",""
"456","","image-keyboard-response","611","790687","0.0-8.0-0.10","","img/pink.png","32","trial","32","true","1,0","3:go_c","",""
"null","","html-keyboard-response","612","791689","0.0-8.0-1.10","","<img src=""img/pink-r.png"" border=""10"">","null","trial","32","","1,0","3:go_c","1",""
"null","","html-keyboard-response","613","792691","0.0-8.0-2.10","","<div style=""font-size:60px;"">+</div>","null","","","","","","",""
"778","","image-keyboard-response","614","793469","0.0-8.0-0.11","","img/grey.png","32","trial","32","true","0.8,0.2","1:go_a","",""
"null","","html-keyboard-response","615","794470","0.0-8.0-1.11","","<img src=""img/grey-n.png"" border=""10"">","null","trial","32","","0.8,0.2","1:go_a","0",""
"null","","html-keyboard-response","616","795472","0.0-8.0-2.11","","<div style=""font-size:60px;"">+</div>","null","","","","","","",""
"633","","image-keyboard-response","617","796108","0.0-8.0-0.12","","img/grey.png","32","trial","32","true","0.8,0.2","1:go_a","",""
"null","","html-keyboard-response","618","797109","0.0-8.0-1.12","","<img src=""img/grey-r.png"" border=""10"">","null","trial","32","","0.8,0.2","1:go_a","1",""
"null","","html-keyboard-response","619","798112","0.0-8.0-2.12","","<div style=""font-size:60px;"">+</div>","null","","","","","","",""
"null","","image-keyboard-response","620","799613","0.0-8.0-0.13","","img/purple.png","null","trial","null","true","0,1","4:nogo_d","",""
"null","","html-keyboard-response","621","800615","0.0-8.0-1.13","","<img src=""img/purple-r.png"">","null","trial","null","","0,1","4:nogo_d","1",""
"null","","html-keyboard-response","622","801617","0.0-8.0-2.13","","<div style=""font-size:60px;"">+</div>","null","","","","","","",""
"499","","image-keyboard-response","623","802118","0.0-8.0-0.14","","img/pink.png","32","trial","32","true","1,0","3:go_c","",""
"null","","html-keyboard-response","624","803120","0.0-8.0-1.14","","<img src=""img/pink-r.png"" border=""10"">","null","trial","32","","1,0","3:go_c","1",""
"null","","html-keyboard-response","625","804121","0.0-8.0-2.14","","<div style=""font-size:60px;"">+</div>","null","","","","","","",""
"null","","image-keyboard-response","626","805622","0.0-8.0-0.15","","img/orange.png","null","trial","null","true","0.2,0.8","2:nogo_b","",""
"null","","html-keyboard-response","627","806623","0.0-8.0-1.15","","<img src=""img/orange-r.png"">","null","trial","null","","0.2,0.8","2:nogo_b","1",""
"null","","html-keyboard-response","628","807629","0.0-8.0-2.15","","<div style=""font-size:60px;"">+</div>","null","","","","","","",""
"null","","image-keyboard-response","629","809131","0.0-8.0-0.16","","img/orange.png","null","trial","null","true","0.2,0.8","2:nogo_b","",""
"null","","html-keyboard-response","630","810132","0.0-8.0-1.16","","<img src=""img/orange-r.png"">","null","trial","null","","0.2,0.8","2:nogo_b","1",""
"null","","html-keyboard-response","631","811135","0.0-8.0-2.16","","<div style=""font-size:60px;"">+</div>","null","","","","","","",""
"null","","image-keyboard-response","632","812636","0.0-8.0-0.17","","img/purple.png","null","trial","null","true","0,1","4:nogo_d","",""
"null","","html-keyboard-response","633","813639","0.0-8.0-1.17","","<img src=""img/purple-r.png"">","null","trial","null","","0,1","4:nogo_d","1",""
"null","","html-keyboard-response","634","814641","0.0-8.0-2.17","","<div style=""font-size:60px;"">+</div>","null","","","","","","",""
"625","","image-keyboard-response","635","815268","0.0-8.0-0.18","","img/grey.png","32","trial","32","true","0.8,0.2","1:go_a","",""
"null","","html-keyboard-response","636","816269","0.0-8.0-1.18","","<img src=""img/grey-r.png"" border=""10"">","null","trial","32","","0.8,0.2","1:go_a","1",""
"null","","html-keyboard-response","637","817270","0.0-8.0-2.18","","<div style=""font-size:60px;"">+</div>","null","","","","","","",""
"413","","image-keyboard-response","638","817685","0.0-8.0-0.19","","img/pink.png","32","trial","32","true","1,0","3:go_c","",""
"null","","html-keyboard-response","639","818686","0.0-8.0-1.19","","<img src=""img/pink-r.png"" border=""10"">","null","trial","32","","1,0","3:go_c","1",""
"null","","html-keyboard-response","640","819687","0.0-8.0-2.19","","<div style=""font-size:60px;"">+</div>","null","","","","","","",""
"null","","image-keyboard-response","641","821188","0.0-8.0-0.20","","img/orange.png","null","trial","null","true","0.2,0.8","2:nogo_b","",""
"null","","html-keyboard-response","642","822189","0.0-8.0-1.20","","<img src=""img/orange-r.png"">","null","trial","null","","0.2,0.8","2:nogo_b","1",""
"null","","html-keyboard-response","643","823190","0.0-8.0-2.20","","<div style=""font-size:60px;"">+</div>","null","","","","","","",""
"null","","image-keyboard-response","644","824691","0.0-8.0-0.21","","img/purple.png","null","trial","null","true","0,1","4:nogo_d","",""
"null","","html-keyboard-response","645","825692","0.0-8.0-1.21","","<img src=""img/purple-r.png"">","null","trial","null","","0,1","4:nogo_d","1",""
"null","","html-keyboard-response","646","826693","0.0-8.0-2.21","","<div style=""font-size:60px;"">+</div>","null","","","","","","",""
"613","","image-keyboard-response","647","827306","0.0-8.0-0.22","","img/pink.png","32","trial","32","true","1,0","3:go_c","",""
"null","","html-keyboard-response","648","828307","0.0-8.0-1.22","","<img src=""img/pink-r.png"" border=""10"">","null","trial","32","","1,0","3:go_c","1",""
"null","","html-keyboard-response","649","829308","0.0-8.0-2.22","","<div style=""font-size:60px;"">+</div>","null","","","","","","",""
"405","","image-keyboard-response","650","829713","0.0-8.0-0.23","","img/grey.png","32","trial","32","true","0.8,0.2","1:go_a","",""
"null","","html-keyboard-response","651","830715","0.0-8.0-1.23","","<img src=""img/grey-r.png"" border=""10"">","null","trial","32","","0.8,0.2","1:go_a","1",""
"null","","html-keyboard-response","652","831717","0.0-8.0-2.23","","<div style=""font-size:60px;"">+</div>","null","","","","","","",""
"448","","image-keyboard-response","653","832167","0.0-8.0-0.24","","img/grey.png","32","trial","32","true","0.8,0.2","1:go_a","",""
"null","","html-keyboard-response","654","833168","0.0-8.0-1.24","","<img src=""img/grey-r.png"" border=""10"">","null","trial","32","","0.8,0.2","1:go_a","1",""
"null","","html-keyboard-response","655","834169","0.0-8.0-2.24","","<div style=""font-size:60px;"">+</div>","null","","","","","","",""
"null","","image-keyboard-response","656","835670","0.0-8.0-0.25","","img/purple.png","null","trial","null","true","0,1","4:nogo_d","",""
"null","","html-keyboard-response","657","836671","0.0-8.0-1.25","","<img src=""img/purple-r.png"">","null","trial","null","","0,1","4:nogo_d","1",""
"null","","html-keyboard-response","658","837672","0.0-8.0-2.25","","<div style=""font-size:60px;"">+</div>","null","","","","","","",""
"null","","image-keyboard-response","659","839174","0.0-8.0-0.26","","img/orange.png","null","trial","null","true","0.2,0.8","2:nogo_b","",""
"null","","html-keyboard-response","660","840179","0.0-8.0-1.26","","<img src=""img/orange-r.png"">","null","trial","null","","0.2,0.8","2:nogo_b","1",""
"null","","html-keyboard-response","661","841180","0.0-8.0-2.26","","<div style=""font-size:60px;"">+</div>","null","","","","","","",""
"571","","image-keyboard-response","662","841753","0.0-8.0-0.27","","img/pink.png","32","trial","32","true","1,0","3:go_c","",""
"null","","html-keyboard-response","663","842759","0.0-8.0-1.27","","<img src=""img/pink-r.png"" border=""10"">","null","trial","32","","1,0","3:go_c","1",""
"null","","html-keyboard-response","664","843761","0.0-8.0-2.27","","<div style=""font-size:60px;"">+</div>","null","","","","","","",""
"null","","image-keyboard-response","665","845263","0.0-8.0-0.28","","img/orange.png","null","trial","null","true","0.2,0.8","2:nogo_b","",""
"null","","html-keyboard-response","666","846265","0.0-8.0-1.28","","<img src=""img/orange-r.png"">","null","trial","null","","0.2,0.8","2:nogo_b","1",""
"null","","html-keyboard-response","667","847267","0.0-8.0-2.28","","<div style=""font-size:60px;"">+</div>","null","","","","","","",""
"null","","image-keyboard-response","668","848769","0.0-8.0-0.29","","img/purple.png","null","trial","null","true","0,1","4:nogo_d","",""
"null","","html-keyboard-response","669","849775","0.0-8.0-1.29","","<img src=""img/purple-r.png"">","null","trial","null","","0,1","4:nogo_d","1",""
"null","","html-keyboard-response","670","850776","0.0-8.0-2.29","","<div style=""font-size:60px;"">+</div>","null","","","","","","",""
"507","","image-keyboard-response","671","851285","0.0-8.0-0.30","","img/pink.png","32","trial","32","true","1,0","3:go_c","",""
"null","","html-keyboard-response","672","852288","0.0-8.0-1.30","","<img src=""img/pink-r.png"" border=""10"">","null","trial","32","","1,0","3:go_c","1",""
"null","","html-keyboard-response","673","853291","0.0-8.0-2.30","","<div style=""font-size:60px;"">+</div>","null","","","","","","",""
"559","","image-keyboard-response","674","853850","0.0-8.0-0.31","","img/grey.png","32","trial","32","true","0.8,0.2","1:go_a","",""
"null","","html-keyboard-response","675","854851","0.0-8.0-1.31","","<img src=""img/grey-r.png"" border=""10"">","null","trial","32","","0.8,0.2","1:go_a","1",""
"null","","html-keyboard-response","676","855853","0.0-8.0-2.31","","<div style=""font-size:60px;"">+</div>","null","","","","","","",""
"582","","image-keyboard-response","677","856436","0.0-8.0-0.32","","img/grey.png","32","trial","32","true","0.8,0.2","1:go_a","",""
"null","","html-keyboard-response","678","857439","0.0-8.0-1.32","","<img src=""img/grey-r.png"" border=""10"">","null","trial","32","","0.8,0.2","1:go_a","1",""
"null","","html-keyboard-response","679","858442","0.0-8.0-2.32","","<div style=""font-size:60px;"">+</div>","null","","","","","","",""
"666","","image-keyboard-response","680","859110","0.0-8.0-0.33","","img/pink.png","32","trial","32","true","1,0","3:go_c","",""
"null","","html-keyboard-response","681","860112","0.0-8.0-1.33","","<img src=""img/pink-r.png"" border=""10"">","null","trial","32","","1,0","3:go_c","1",""
"null","","html-keyboard-response","682","861116","0.0-8.0-2.33","","<div style=""font-size:60px;"">+</div>","null","","","","","","",""
"null","","image-keyboard-response","683","862617","0.0-8.0-0.34","","img/orange.png","null","trial","null","true","0.2,0.8","2:nogo_b","",""
"null","","html-keyboard-response","684","863618","0.0-8.0-1.34","","<img src=""img/orange-r.png"">","null","trial","null","","0.2,0.8","2:nogo_b","1",""
"null","","html-keyboard-response","685","864619","0.0-8.0-2.34","","<div style=""font-size:60px;"">+</div>","null","","","","","","",""
"null","","image-keyboard-response","686","866120","0.0-8.0-0.35","","img/purple.png","null","trial","null","true","0,1","4:nogo_d","",""
"null","","html-keyboard-response","687","867125","0.0-8.0-1.35","","<img src=""img/purple-r.png"">","null","trial","null","","0,1","4:nogo_d","1",""
"null","","html-keyboard-response","688","868126","0.0-8.0-2.35","","<div style=""font-size:60px;"">+</div>","null","","","","","","",""
"null","","image-keyboard-response","689","869628","0.0-8.0-0.36","","img/orange.png","null","trial","null","true","0.2,0.8","2:nogo_b","",""
"null","","html-keyboard-response","690","870631","0.0-8.0-1.36","","<img src=""img/orange-r.png"">","null","trial","null","","0.2,0.8","2:nogo_b","1",""
"null","","html-keyboard-response","691","871633","0.0-8.0-2.36","","<div style=""font-size:60px;"">+</div>","null","","","","","","",""
"680","","image-keyboard-response","692","872312","0.0-8.0-0.37","","img/grey.png","32","trial","32","true","0.8,0.2","1:go_a","",""
"null","","html-keyboard-response","693","873315","0.0-8.0-1.37","","<img src=""img/grey-r.png"" border=""10"">","null","trial","32","","0.8,0.2","1:go_a","1",""
"null","","html-keyboard-response","694","874317","0.0-8.0-2.37","","<div style=""font-size:60px;"">+</div>","null","","","","","","",""
"554","","image-keyboard-response","695","874872","0.0-8.0-0.38","","img/pink.png","32","trial","32","true","1,0","3:go_c","",""
