"rt","url","trial_type","trial_index","time_elapsed","internal_node_id","view_history","stimulus","key_press","test_part","correct_response","correct","use_rew","which_stim","reward","responses"
"4678.444999968633","consent.html","external-html","0","4761","0.0-0.0","","","","","","","","","",""
"79732.63500002213","","instructions","1","84500","0.0-1.0","[{""page_index"":0,""viewing_time"":4153.754999861121},{""page_index"":1,""viewing_time"":16550.329999998212},{""page_index"":2,""viewing_time"":8473.675000015646},{""page_index"":3,""viewing_time"":19608.385000145063},{""page_index"":4,""viewing_time"":15485.415000002831},{""page_index"":5,""viewing_time"":7648.0849999934435},{""page_index"":6,""viewing_time"":7812.290000030771}]","","","","","","","","",""
"373.43999999575317","","image-keyboard-response","2","84875","0.0-2.0-0.0","","img/test1.PNG","32","practice","32","true","","","",""
"null","","html-keyboard-response","3","85884","0.0-2.0-1.0","","<img src=""img/test1-reward.PNG"" border=""10px; grey"">","null","","","","","","",""
"null","","html-keyboard-response","4","86900","0.0-2.0-2.0","","<div style=""font-size:60px;"">+</div>","null","","","","","","",""
"null","","image-keyboard-response","5","88403","0.0-2.0-0.1","","img/test3.PNG","null","practice","null","true","","","",""
"null","","html-keyboard-response","6","89418","0.0-2.0-1.1","","<img src=""img/test3-reward.PNG"">","null","","","","","","",""
"null","","html-keyboard-response","7","90433","0.0-2.0-2.1","","<div style=""font-size:60px;"">+</div>","null","","","","","","",""
"null","","image-keyboard-response","8","91948","0.0-2.0-0.2","","img/test2.PNG","null","practice","null","true","","","",""
"null","","html-keyboard-response","9","92962","0.0-2.0-1.2","","<img src=""img/test2-reward.PNG"">","null","","","","","","",""
"null","","html-keyboard-response","10","93976","0.0-2.0-2.2","","<div style=""font-size:60px;"">+</div>","null","","","","","","",""
"null","","image-keyboard-response","11","95488","0.0-2.0-0.3","","img/test3.PNG","null","practice","null","true","","","",""
"null","","html-keyboard-response","12","96500","0.0-2.0-1.3","","<img src=""img/test3-reward.PNG"">","null","","","","","","",""
"null","","html-keyboard-response","13","97514","0.0-2.0-2.3","","<div style=""font-size:60px;"">+</div>","null","","","","","","",""
"750.5349998828024","","image-keyboard-response","14","98266","0.0-2.0-0.4","","img/test1.PNG","32","practice","32","true","","","",""
"null","","html-keyboard-response","15","99272","0.0-2.0-1.4","","<img src=""img/test1-reward.PNG"" border=""10px; grey"">","null","","","","","","",""
"null","","html-keyboard-response","16","100287","0.0-2.0-2.4","","<div style=""font-size:60px;"">+</div>","null","","","","","","",""
"null","","image-keyboard-response","17","101789","0.0-2.0-0.5","","img/test2.PNG","null","practice","null","true","","","",""
"null","","html-keyboard-response","18","102791","0.0-2.0-1.5","","<img src=""img/test2-reward.PNG"">","null","","","","","","",""
"null","","html-keyboard-response","19","103793","0.0-2.0-2.5","","<div style=""font-size:60px;"">+</div>","null","","","","","","",""
"null","","image-keyboard-response","20","105295","0.0-2.0-0.6","","img/test2.PNG","null","practice","null","true","","","",""
"null","","html-keyboard-response","21","106296","0.0-2.0-1.6","","<img src=""img/test2-reward.PNG"">","null","","","","","","",""
"null","","html-keyboard-response","22","107307","0.0-2.0-2.6","","<div style=""font-size:60px;"">+</div>","null","","","","","","",""
"261.87000004574656","","image-keyboard-response","23","107570","0.0-2.0-0.7","","img/test1.PNG","32","practice","32","true","","","",""
"null","","html-keyboard-response","24","108572","0.0-2.0-1.7","","<img src=""img/test1-reward.PNG"" border=""10px; grey"">","null","","","","","","",""
"null","","html-keyboard-response","25","109587","0.0-2.0-2.7","","<div style=""font-size:60px;"">+</div>","null","","","","","","",""
"null","","image-keyboard-response","26","111098","0.0-2.0-0.8","","img/test3.PNG","null","practice","null","true","","","",""
"null","","html-keyboard-response","27","112112","0.0-2.0-1.8","","<img src=""img/test3-reward.PNG"">","null","","","","","","",""
"null","","html-keyboard-response","28","113118","0.0-2.0-2.8","","<div style=""font-size:60px;"">+</div>","null","","","","","","",""
"null","","image-keyboard-response","29","114632","0.0-2.0-0.9","","img/test3.PNG","null","practice","null","true","","","",""
"null","","html-keyboard-response","30","115638","0.0-2.0-1.9","","<img src=""img/test3-reward.PNG"">","null","","","","","","",""
"null","","html-keyboard-response","31","116653","0.0-2.0-2.9","","<div style=""font-size:60px;"">+</div>","null","","","","","","",""
"null","","image-keyboard-response","32","118154","0.0-2.0-0.10","","img/test2.PNG","null","practice","null","true","","","",""
"null","","html-keyboard-response","33","119167","0.0-2.0-1.10","","<img src=""img/test2-reward.PNG"">","null","","","","","","",""
"null","","html-keyboard-response","34","120171","0.0-2.0-2.10","","<div style=""font-size:60px;"">+</div>","null","","","","","","",""
"277.7400000486523","","image-keyboard-response","35","120450","0.0-2.0-0.11","","img/test1.PNG","32","practice","32","true","","","",""
"null","","html-keyboard-response","36","121455","0.0-2.0-1.11","","<img src=""img/test1-reward.PNG"" border=""10px; grey"">","null","","","","","","",""
"null","","html-keyboard-response","37","122471","0.0-2.0-2.11","","<div style=""font-size:60px;"">+</div>","null","","","","","","",""
"2269.209999823943","","instructions","38","124741","0.0-3.0","[{""page_index"":0,""viewing_time"":2268.6850000172853}]","","","","","","","","",""
"964.3250000663102","","image-keyboard-response","39","125706","0.0-4.0-0.0","","img/yellow.png","32","trial","32","true","0.8,0.2","go_a","",""
"null","","html-keyboard-response","40","126721","0.0-4.0-1.0","","<img src=""img/yellow-r.png"" border=""10"">","null","trial","32","","0.8,0.2","go_a","1",""
"null","","html-keyboard-response","41","127723","0.0-4.0-2.0","","<div style=""font-size:60px;"">+</div>","null","","","","","","",""
"393.63500010222197","","image-keyboard-response","42","128118","0.0-4.0-0.1","","img/red.png","32","trial","null","false","0.2,0.8","nogo_b","",""
"null","","html-keyboard-response","43","129128","0.0-4.0-1.1","","<img src=""img/red-n.png"" border=""10"">","null","trial","null","","0.2,0.8","nogo_b","0",""
"null","","html-keyboard-response","44","130133","0.0-4.0-2.1","","<div style=""font-size:60px;"">+</div>","null","","","","","","",""
"null","","image-keyboard-response","45","131644","0.0-4.0-0.2","","img/red.png","null","trial","null","true","0.2,0.8","nogo_b","",""
"null","","html-keyboard-response","46","132654","0.0-4.0-1.2","","<img src=""img/red-r.png"">","null","trial","null","","0.2,0.8","nogo_b","1",""
"null","","html-keyboard-response","47","133666","0.0-4.0-2.2","","<div style=""font-size:60px;"">+</div>","null","","","","","","",""
"701.8499998375773","","image-keyboard-response","48","134368","0.0-4.0-0.3","","img/yellow.png","32","trial","32","true","0.8,0.2","go_a","",""
"null","","html-keyboard-response","49","135374","0.0-4.0-1.3","","<img src=""img/yellow-r.png"" border=""10"">","null","trial","32","","0.8,0.2","go_a","1",""
"null","","html-keyboard-response","50","136388","0.0-4.0-2.3","","<div style=""font-size:60px;"">+</div>","null","","","","","","",""
"null","","image-keyboard-response","51","137903","0.0-4.0-0.4","","img/red.png","null","trial","null","true","0.2,0.8","nogo_b","",""
"null","","html-keyboard-response","52","138906","0.0-4.0-1.4","","<img src=""img/red-r.png"">","null","trial","null","","0.2,0.8","nogo_b","1",""
"null","","html-keyboard-response","53","139921","0.0-4.0-2.4","","<div style=""font-size:60px;"">+</div>","null","","","","","","",""
"435.5599998962134","","image-keyboard-response","54","140357","0.0-4.0-0.5","","img/yellow.png","32","trial","32","true","0.8,0.2","go_a","",""
"null","","html-keyboard-response","55","141361","0.0-4.0-1.5","","<img src=""img/yellow-r.png"" border=""10"">","null","trial","32","","0.8,0.2","go_a","1",""
"null","","html-keyboard-response","56","142366","0.0-4.0-2.5","","<div style=""font-size:60px;"">+</div>","null","","","","","","",""
"326.33500010706484","","image-keyboard-response","57","142693","0.0-4.0-0.6","","img/red.png","32","trial","null","false","0.2,0.8","nogo_b","",""
"null","","html-keyboard-response","58","143710","0.0-4.0-1.6","","<img src=""img/red-n.png"" border=""10"">","null","trial","null","","0.2,0.8","nogo_b","0",""
"null","","html-keyboard-response","59","144718","0.0-4.0-2.6","","<div style=""font-size:60px;"">+</div>","null","","","","","","",""
"296.1200000718236","","image-keyboard-response","60","145015","0.0-4.0-0.7","","img/yellow.png","32","trial","32","true","0.8,0.2","go_a","",""
"null","","html-keyboard-response","61","146021","0.0-4.0-1.7","","<img src=""img/yellow-r.png"" border=""10"">","null","trial","32","","0.8,0.2","go_a","1",""
"null","","html-keyboard-response","62","147032","0.0-4.0-2.7","","<div style=""font-size:60px;"">+</div>","null","","","","","","",""
"288.0750000476837","","image-keyboard-response","63","147321","0.0-4.0-0.8","","img/yellow.png","32","trial","32","true","0.8,0.2","go_a","",""
"null","","html-keyboard-response","64","148323","0.0-4.0-1.8","","<img src=""img/yellow-r.png"" border=""10"">","null","trial","32","","0.8,0.2","go_a","1",""
"null","","html-keyboard-response","65","149325","0.0-4.0-2.8","","<div style=""font-size:60px;"">+</div>","null","","","","","","",""
"375.2999999560416","","image-keyboard-response","66","149701","0.0-4.0-0.9","","img/red.png","32","trial","null","false","0.2,0.8","nogo_b","",""
"null","","html-keyboard-response","67","150714","0.0-4.0-1.9","","<img src=""img/red-n.png"" border=""10"">","null","trial","null","","0.2,0.8","nogo_b","0",""
"null","","html-keyboard-response","68","151729","0.0-4.0-2.9","","<div style=""font-size:60px;"">+</div>","null","","","","","","",""
"null","","image-keyboard-response","69","153232","0.0-4.0-0.10","","img/red.png","null","trial","null","true","0.2,0.8","nogo_b","",""
"null","","html-keyboard-response","70","154233","0.0-4.0-1.10","","<img src=""img/red-r.png"">","null","trial","null","","0.2,0.8","nogo_b","1",""
"null","","html-keyboard-response","71","155243","0.0-4.0-2.10","","<div style=""font-size:60px;"">+</div>","null","","","","","","",""
"359.96500006876886","","image-keyboard-response","72","155604","0.0-4.0-0.11","","img/yellow.png","32","trial","32","true","0.8,0.2","go_a","",""
"null","","html-keyboard-response","73","156615","0.0-4.0-1.11","","<img src=""img/yellow-r.png"" border=""10"">","null","trial","32","","0.8,0.2","go_a","1",""
"null","","html-keyboard-response","74","157628","0.0-4.0-2.11","","<div style=""font-size:60px;"">+</div>","null","","","","","","",""
"341.4349998347461","","image-keyboard-response","75","157970","0.0-4.0-0.12","","img/yellow.png","32","trial","32","true","0.8,0.2","go_a","",""
"null","","html-keyboard-response","76","158985","0.0-4.0-1.12","","<img src=""img/yellow-n.png"" border=""10"">","null","trial","32","","0.8,0.2","go_a","0",""
"null","","html-keyboard-response","77","160000","0.0-4.0-2.12","","<div style=""font-size:60px;"">+</div>","null","","","","","","",""
"453.074999852106","","image-keyboard-response","78","160453","0.0-4.0-0.13","","img/red.png","32","trial","null","false","0.2,0.8","nogo_b","",""
"null","","html-keyboard-response","79","161466","0.0-4.0-1.13","","<img src=""img/red-n.png"" border=""10"">","null","trial","null","","0.2,0.8","nogo_b","0",""
"null","","html-keyboard-response","80","162477","0.0-4.0-2.13","","<div style=""font-size:60px;"">+</div>","null","","","","","","",""
"null","","image-keyboard-response","81","163979","0.0-4.0-0.14","","img/red.png","null","trial","null","true","0.2,0.8","nogo_b","",""
"null","","html-keyboard-response","82","164995","0.0-4.0-1.14","","<img src=""img/red-n.png"">","null","trial","null","","0.2,0.8","nogo_b","0",""
"null","","html-keyboard-response","83","165999","0.0-4.0-2.14","","<div style=""font-size:60px;"">+</div>","null","","","","","","",""
"286.53500019572675","","image-keyboard-response","84","166286","0.0-4.0-0.15","","img/yellow.png","32","trial","32","true","0.8,0.2","go_a","",""
"null","","html-keyboard-response","85","167297","0.0-4.0-1.15","","<img src=""img/yellow-r.png"" border=""10"">","null","trial","32","","0.8,0.2","go_a","1",""
"null","","html-keyboard-response","86","168309","0.0-4.0-2.15","","<div style=""font-size:60px;"">+</div>","null","","","","","","",""
"453.2699999399483","","image-keyboard-response","87","168762","0.0-4.0-0.16","","img/red.png","32","trial","null","false","0.2,0.8","nogo_b","",""
"null","","html-keyboard-response","88","169776","0.0-4.0-1.16","","<img src=""img/red-n.png"" border=""10"">","null","trial","null","","0.2,0.8","nogo_b","0",""
"null","","html-keyboard-response","89","170792","0.0-4.0-2.16","","<div style=""font-size:60px;"">+</div>","null","","","","","","",""
"344.939999980852","","image-keyboard-response","90","171138","0.0-4.0-0.17","","img/yellow.png","32","trial","32","true","0.8,0.2","go_a","",""
"null","","html-keyboard-response","91","172154","0.0-4.0-1.17","","<img src=""img/yellow-n.png"" border=""10"">","null","trial","32","","0.8,0.2","go_a","0",""
"null","","html-keyboard-response","92","173168","0.0-4.0-2.17","","<div style=""font-size:60px;"">+</div>","null","","","","","","",""
"363.5599999688566","","image-keyboard-response","93","173533","0.0-4.0-0.18","","img/yellow.png","32","trial","32","true","0.8,0.2","go_a","",""
"null","","html-keyboard-response","94","174546","0.0-4.0-1.18","","<img src=""img/yellow-r.png"" border=""10"">","null","trial","32","","0.8,0.2","go_a","1",""
"null","","html-keyboard-response","95","175563","0.0-4.0-2.18","","<div style=""font-size:60px;"">+</div>","null","","","","","","",""
"328.3150000497699","","image-keyboard-response","96","175891","0.0-4.0-0.19","","img/red.png","32","trial","null","false","0.2,0.8","nogo_b","",""
"null","","html-keyboard-response","97","176901","0.0-4.0-1.19","","<img src=""img/red-r.png"" border=""10"">","null","trial","null","","0.2,0.8","nogo_b","1",""
"null","","html-keyboard-response","98","177912","0.0-4.0-2.19","","<div style=""font-size:60px;"">+</div>","null","","","","","","",""
"365.9399999305606","","image-keyboard-response","99","178278","0.0-4.0-0.20","","img/yellow.png","32","trial","32","true","0.8,0.2","go_a","",""
"null","","html-keyboard-response","100","179290","0.0-4.0-1.20","","<img src=""img/yellow-n.png"" border=""10"">","null","trial","32","","0.8,0.2","go_a","0",""
"null","","html-keyboard-response","101","180306","0.0-4.0-2.20","","<div style=""font-size:60px;"">+</div>","null","","","","","","",""
"null","","image-keyboard-response","102","181822","0.0-4.0-0.21","","img/red.png","null","trial","null","true","0.2,0.8","nogo_b","",""
"null","","html-keyboard-response","103","182825","0.0-4.0-1.21","","<img src=""img/red-n.png"">","null","trial","null","","0.2,0.8","nogo_b","0",""
"null","","html-keyboard-response","104","183828","0.0-4.0-2.21","","<div style=""font-size:60px;"">+</div>","null","","","","","","",""
"297.3549999296665","","image-keyboard-response","105","184126","0.0-4.0-0.22","","img/yellow.png","32","trial","32","true","0.8,0.2","go_a","",""
"null","","html-keyboard-response","106","185140","0.0-4.0-1.22","","<img src=""img/yellow-r.png"" border=""10"">","null","trial","32","","0.8,0.2","go_a","1",""
"null","","html-keyboard-response","107","186152","0.0-4.0-2.22","","<div style=""font-size:60px;"">+</div>","null","","","","","","",""
"null","","image-keyboard-response","108","187656","0.0-4.0-0.23","","img/red.png","null","trial","null","true","0.2,0.8","nogo_b","",""
"null","","html-keyboard-response","109","188658","0.0-4.0-1.23","","<img src=""img/red-r.png"">","null","trial","null","","0.2,0.8","nogo_b","1",""
"null","","html-keyboard-response","110","189673","0.0-4.0-2.23","","<div style=""font-size:60px;"">+</div>","null","","","","","","",""
"283.38999999687076","","image-keyboard-response","111","189957","0.0-4.0-0.24","","img/yellow.png","32","trial","32","true","0.8,0.2","go_a","",""
"null","","html-keyboard-response","112","190967","0.0-4.0-1.24","","<img src=""img/yellow-r.png"" border=""10"">","null","trial","32","","0.8,0.2","go_a","1",""
"null","","html-keyboard-response","113","191979","0.0-4.0-2.24","","<div style=""font-size:60px;"">+</div>","null","","","","","","",""
"null","","image-keyboard-response","114","193488","0.0-4.0-0.25","","img/red.png","null","trial","null","true","0.2,0.8","nogo_b","",""
"null","","html-keyboard-response","115","194490","0.0-4.0-1.25","","<img src=""img/red-r.png"">","null","trial","null","","0.2,0.8","nogo_b","1",""
"null","","html-keyboard-response","116","195492","0.0-4.0-2.25","","<div style=""font-size:60px;"">+</div>","null","","","","","","",""
"null","","image-keyboard-response","117","197002","0.0-4.0-0.26","","img/red.png","null","trial","null","true","0.2,0.8","nogo_b","",""
"null","","html-keyboard-response","118","198005","0.0-4.0-1.26","","<img src=""img/red-n.png"">","null","trial","null","","0.2,0.8","nogo_b","0",""
"null","","html-keyboard-response","119","199011","0.0-4.0-2.26","","<div style=""font-size:60px;"">+</div>","null","","","","","","",""
"337.4799999874085","","image-keyboard-response","120","199349","0.0-4.0-0.27","","img/yellow.png","32","trial","32","true","0.8,0.2","go_a","",""
"null","","html-keyboard-response","121","200358","0.0-4.0-1.27","","<img src=""img/yellow-r.png"" border=""10"">","null","trial","32","","0.8,0.2","go_a","1",""
"null","","html-keyboard-response","122","201372","0.0-4.0-2.27","","<div style=""font-size:60px;"">+</div>","null","","","","","","",""
"355.31000001356006","","image-keyboard-response","123","201728","0.0-4.0-0.28","","img/yellow.png","32","trial","32","true","0.8,0.2","go_a","",""
"null","","html-keyboard-response","124","202730","0.0-4.0-1.28","","<img src=""img/yellow-r.png"" border=""10"">","null","trial","32","","0.8,0.2","go_a","1",""
"null","","html-keyboard-response","125","203743","0.0-4.0-2.28","","<div style=""font-size:60px;"">+</div>","null","","","","","","",""
"null","","image-keyboard-response","126","205256","0.0-4.0-0.29","","img/red.png","null","trial","null","true","0.2,0.8","nogo_b","",""
"null","","html-keyboard-response","127","206260","0.0-4.0-1.29","","<img src=""img/red-r.png"">","null","trial","null","","0.2,0.8","nogo_b","1",""
"null","","html-keyboard-response","128","207266","0.0-4.0-2.29","","<div style=""font-size:60px;"">+</div>","null","","","","","","",""
"null","","image-keyboard-response","129","208769","0.0-4.0-0.30","","img/red.png","null","trial","null","true","0.2,0.8","nogo_b","",""
"null","","html-keyboard-response","130","209781","0.0-4.0-1.30","","<img src=""img/red-r.png"">","null","trial","null","","0.2,0.8","nogo_b","1",""
"null","","html-keyboard-response","131","210796","0.0-4.0-2.30","","<div style=""font-size:60px;"">+</div>","null","","","","","","",""
"337.0499999728054","","image-keyboard-response","132","211133","0.0-4.0-0.31","","img/yellow.png","32","trial","32","true","0.8,0.2","go_a","",""
"null","","html-keyboard-response","133","212149","0.0-4.0-1.31","","<img src=""img/yellow-r.png"" border=""10"">","null","trial","32","","0.8,0.2","go_a","1",""
"null","","html-keyboard-response","134","213156","0.0-4.0-2.31","","<div style=""font-size:60px;"">+</div>","null","","","","","","",""
"348.14999997615814","","image-keyboard-response","135","213505","0.0-4.0-0.32","","img/yellow.png","32","trial","32","true","0.8,0.2","go_a","",""
"null","","html-keyboard-response","136","214507","0.0-4.0-1.32","","<img src=""img/yellow-r.png"" border=""10"">","null","trial","32","","0.8,0.2","go_a","1",""
"null","","html-keyboard-response","137","215508","0.0-4.0-2.32","","<div style=""font-size:60px;"">+</div>","null","","","","","","",""
"null","","image-keyboard-response","138","217023","0.0-4.0-0.33","","img/red.png","null","trial","null","true","0.2,0.8","nogo_b","",""
"null","","html-keyboard-response","139","218030","0.0-4.0-1.33","","<img src=""img/red-r.png"">","null","trial","null","","0.2,0.8","nogo_b","1",""
"null","","html-keyboard-response","140","219035","0.0-4.0-2.33","","<div style=""font-size:60px;"">+</div>","null","","","","","","",""
"326.02000003680587","","image-keyboard-response","141","219362","0.0-4.0-0.34","","img/yellow.png","32","trial","32","true","0.8,0.2","go_a","",""
"null","","html-keyboard-response","142","220375","0.0-4.0-1.34","","<img src=""img/yellow-r.png"" border=""10"">","null","trial","32","","0.8,0.2","go_a","1",""
"null","","html-keyboard-response","143","221379","0.0-4.0-2.34","","<div style=""font-size:60px;"">+</div>","null","","","","","","",""
"null","","image-keyboard-response","144","222884","0.0-4.0-0.35","","img/red.png","null","trial","null","true","0.2,0.8","nogo_b","",""
"null","","html-keyboard-response","145","223895","0.0-4.0-1.35","","<img src=""img/red-r.png"">","null","trial","null","","0.2,0.8","nogo_b","1",""
"null","","html-keyboard-response","146","224896","0.0-4.0-2.35","","<div style=""font-size:60px;"">+</div>","null","","","","","","",""
"272.27999991737306","","image-keyboard-response","147","225169","0.0-4.0-0.36","","img/yellow.png","32","trial","32","true","0.8,0.2","go_a","",""
"null","","html-keyboard-response","148","226172","0.0-4.0-1.36","","<img src=""img/yellow-n.png"" border=""10"">","null","trial","32","","0.8,0.2","go_a","0",""
"null","","html-keyboard-response","149","227186","0.0-4.0-2.36","","<div style=""font-size:60px;"">+</div>","null","","","","","","",""
"null","","image-keyboard-response","150","228702","0.0-4.0-0.37","","img/red.png","null","trial","null","true","0.2,0.8","nogo_b","",""
"null","","html-keyboard-response","151","229704","0.0-4.0-1.37","","<img src=""img/red-r.png"">","null","trial","null","","0.2,0.8","nogo_b","1",""
"null","","html-keyboard-response","152","230714","0.0-4.0-2.37","","<div style=""font-size:60px;"">+</div>","null","","","","","","",""
"281.22000000439584","","image-keyboard-response","153","230996","0.0-4.0-0.38","","img/yellow.png","32","trial","32","true","0.8,0.2","go_a","",""
"null","","html-keyboard-response","154","232013","0.0-4.0-1.38","","<img src=""img/yellow-r.png"" border=""10"">","null","trial","32","","0.8,0.2","go_a","1",""
"null","","html-keyboard-response","155","233029","0.0-4.0-2.38","","<div style=""font-size:60px;"">+</div>","null","","","","","","",""
"null","","image-keyboard-response","156","234544","0.0-4.0-0.39","","img/red.png","null","trial","null","true","0.2,0.8","nogo_b","",""
"null","","html-keyboard-response","157","235556","0.0-4.0-1.39","","<img src=""img/red-n.png"">","null","trial","null","","0.2,0.8","nogo_b","0",""
"null","","html-keyboard-response","158","236571","0.0-4.0-2.39","","<div style=""font-size:60px;"">+</div>","null","","","","","","",""
"null","","image-keyboard-response","159","238078","0.0-4.0-0.40","","img/red.png","null","trial","null","true","0.2,0.8","nogo_b","",""
"null","","html-keyboard-response","160","239091","0.0-4.0-1.40","","<img src=""img/red-r.png"">","null","trial","null","","0.2,0.8","nogo_b","1",""
"null","","html-keyboard-response","161","240094","0.0-4.0-2.40","","<div style=""font-size:60px;"">+</div>","null","","","","","","",""
"296.3950000703335","","image-keyboard-response","162","240391","0.0-4.0-0.41","","img/yellow.png","32","trial","32","true","0.8,0.2","go_a","",""
"null","","html-keyboard-response","163","241403","0.0-4.0-1.41","","<img src=""img/yellow-r.png"" border=""10"">","null","trial","32","","0.8,0.2","go_a","1",""
"null","","html-keyboard-response","164","242417","0.0-4.0-2.41","","<div style=""font-size:60px;"">+</div>","null","","","","","","",""
"null","","image-keyboard-response","165","243927","0.0-4.0-0.42","","img/red.png","null","trial","null","true","0.2,0.8","nogo_b","",""
"null","","html-keyboard-response","166","244933","0.0-4.0-1.42","","<img src=""img/red-n.png"">","null","trial","null","","0.2,0.8","nogo_b","0",""
"null","","html-keyboard-response","167","245943","0.0-4.0-2.42","","<div style=""font-size:60px;"">+</div>","null","","","","","","",""
"292.1100000385195","","image-keyboard-response","168","246235","0.0-4.0-0.43","","img/yellow.png","32","trial","32","true","0.8,0.2","go_a","",""
"null","","html-keyboard-response","169","247237","0.0-4.0-1.43","","<img src=""img/yellow-n.png"" border=""10"">","null","trial","32","","0.8,0.2","go_a","0",""
"null","","html-keyboard-response","170","248241","0.0-4.0-2.43","","<div style=""font-size:60px;"">+</div>","null","","","","","","",""
"null","","image-keyboard-response","171","249750","0.0-4.0-0.44","","img/red.png","null","trial","null","true","0.2,0.8","nogo_b","",""
"null","","html-keyboard-response","172","250761","0.0-4.0-1.44","","<img src=""img/red-r.png"">","null","trial","null","","0.2,0.8","nogo_b","1",""
"null","","html-keyboard-response","173","251775","0.0-4.0-2.44","","<div style=""font-size:60px;"">+</div>","null","","","","","","",""
"331.8600000347942","","image-keyboard-response","174","252108","0.0-4.0-0.45","","img/yellow.png","32","trial","32","true","0.8,0.2","go_a","",""
"null","","html-keyboard-response","175","253119","0.0-4.0-1.45","","<img src=""img/yellow-r.png"" border=""10"">","null","trial","32","","0.8,0.2","go_a","1",""
"null","","html-keyboard-response","176","254136","0.0-4.0-2.45","","<div style=""font-size:60px;"">+</div>","null","","","","","","",""
"null","","image-keyboard-response","177","255640","0.0-4.0-0.46","","img/red.png","null","trial","null","true","0.2,0.8","nogo_b","",""
"null","","html-keyboard-response","178","256651","0.0-4.0-1.46","","<img src=""img/red-r.png"">","null","trial","null","","0.2,0.8","nogo_b","1",""
"null","","html-keyboard-response","179","257654","0.0-4.0-2.46","","<div style=""font-size:60px;"">+</div>","null","","","","","","",""
"336.00999996997416","","image-keyboard-response","180","257991","0.0-4.0-0.47","","img/yellow.png","32","trial","32","true","0.8,0.2","go_a","",""
"null","","html-keyboard-response","181","259006","0.0-4.0-1.47","","<img src=""img/yellow-r.png"" border=""10"">","null","trial","32","","0.8,0.2","go_a","1",""
"null","","html-keyboard-response","182","260021","0.0-4.0-2.47","","<div style=""font-size:60px;"">+</div>","null","","","","","","",""
"311.4549999590963","","image-keyboard-response","183","260333","0.0-4.0-0.48","","img/yellow.png","32","trial","32","true","0.8,0.2","go_a","",""
"null","","html-keyboard-response","184","261349","0.0-4.0-1.48","","<img src=""img/yellow-r.png"" border=""10"">","null","trial","32","","0.8,0.2","go_a","1",""
"null","","html-keyboard-response","185","262358","0.0-4.0-2.48","","<div style=""font-size:60px;"">+</div>","null","","","","","","",""
"null","","image-keyboard-response","186","263860","0.0-4.0-0.49","","img/red.png","null","trial","null","true","0.2,0.8","nogo_b","",""
"null","","html-keyboard-response","187","264872","0.0-4.0-1.49","","<img src=""img/red-r.png"">","null","trial","null","","0.2,0.8","nogo_b","1",""
"null","","html-keyboard-response","188","265875","0.0-4.0-2.49","","<div style=""font-size:60px;"">+</div>","null","","","","","","",""
"329.3249998241663","","image-keyboard-response","189","266205","0.0-4.0-0.50","","img/yellow.png","32","trial","32","true","0.8,0.2","go_a","",""
"null","","html-keyboard-response","190","267215","0.0-4.0-1.50","","<img src=""img/yellow-r.png"" border=""10"">","null","trial","32","","0.8,0.2","go_a","1",""
"null","","html-keyboard-response","191","268218","0.0-4.0-2.50","","<div style=""font-size:60px;"">+</div>","null","","","","","","",""
"null","","image-keyboard-response","192","269729","0.0-4.0-0.51","","img/red.png","null","trial","null","true","0.2,0.8","nogo_b","",""
"null","","html-keyboard-response","193","270745","0.0-4.0-1.51","","<img src=""img/red-n.png"">","null","trial","null","","0.2,0.8","nogo_b","0",""
"null","","html-keyboard-response","194","271757","0.0-4.0-2.51","","<div style=""font-size:60px;"">+</div>","null","","","","","","",""
"300.67499983124435","","image-keyboard-response","195","272059","0.0-4.0-0.52","","img/yellow.png","32","trial","32","true","0.8,0.2","go_a","",""
"null","","html-keyboard-response","196","273062","0.0-4.0-1.52","","<img src=""img/yellow-r.png"" border=""10"">","null","trial","32","","0.8,0.2","go_a","1",""
"null","","html-keyboard-response","197","274068","0.0-4.0-2.52","","<div style=""font-size:60px;"">+</div>","null","","","","","","",""
"null","","image-keyboard-response","198","275583","0.0-4.0-0.53","","img/red.png","null","trial","null","true","0.2,0.8","nogo_b","",""
"null","","html-keyboard-response","199","276594","0.0-4.0-1.53","","<img src=""img/red-r.png"">","null","trial","null","","0.2,0.8","nogo_b","1",""
"null","","html-keyboard-response","200","277603","0.0-4.0-2.53","","<div style=""font-size:60px;"">+</div>","null","","","","","","",""
"296.6299999970943","","image-keyboard-response","201","277900","0.0-4.0-0.54","","img/yellow.png","32","trial","32","true","0.8,0.2","go_a","",""
"null","","html-keyboard-response","202","278909","0.0-4.0-1.54","","<img src=""img/yellow-r.png"" border=""10"">","null","trial","32","","0.8,0.2","go_a","1",""
"null","","html-keyboard-response","203","279917","0.0-4.0-2.54","","<div style=""font-size:60px;"">+</div>","null","","","","","","",""
"null","","image-keyboard-response","204","281420","0.0-4.0-0.55","","img/red.png","null","trial","null","true","0.2,0.8","nogo_b","",""
"null","","html-keyboard-response","205","282421","0.0-4.0-1.55","","<img src=""img/red-r.png"">","null","trial","null","","0.2,0.8","nogo_b","1",""
"null","","html-keyboard-response","206","283430","0.0-4.0-2.55","","<div style=""font-size:60px;"">+</div>","null","","","","","","",""
"260.40499983355403","","image-keyboard-response","207","283691","0.0-4.0-0.56","","img/yellow.png","32","trial","32","true","0.8,0.2","go_a","",""
"null","","html-keyboard-response","208","284706","0.0-4.0-1.56","","<img src=""img/yellow-r.png"" border=""10"">","null","trial","32","","0.8,0.2","go_a","1",""
"null","","html-keyboard-response","209","285717","0.0-4.0-2.56","","<div style=""font-size:60px;"">+</div>","null","","","","","","",""
"null","","image-keyboard-response","210","287219","0.0-4.0-0.57","","img/red.png","null","trial","null","true","0.2,0.8","nogo_b","",""
"null","","html-keyboard-response","211","288235","0.0-4.0-1.57","","<img src=""img/red-r.png"">","null","trial","null","","0.2,0.8","nogo_b","1",""
"null","","html-keyboard-response","212","289239","0.0-4.0-2.57","","<div style=""font-size:60px;"">+</div>","null","","","","","","",""
"null","","image-keyboard-response","213","290741","0.0-4.0-0.58","","img/red.png","null","trial","null","true","0.2,0.8","nogo_b","",""
"null","","html-keyboard-response","214","291756","0.0-4.0-1.58","","<img src=""img/red-r.png"">","null","trial","null","","0.2,0.8","nogo_b","1",""
"null","","html-keyboard-response","215","292758","0.0-4.0-2.58","","<div style=""font-size:60px;"">+</div>","null","","","","","","",""
"266.0650000907481","","image-keyboard-response","216","293025","0.0-4.0-0.59","","img/yellow.png","32","trial","32","true","0.8,0.2","go_a","",""
"null","","html-keyboard-response","217","294031","0.0-4.0-1.59","","<img src=""img/yellow-n.png"" border=""10"">","null","trial","32","","0.8,0.2","go_a","0",""
"null","","html-keyboard-response","218","295041","0.0-4.0-2.59","","<div style=""font-size:60px;"">+</div>","null","","","","","","",""
"21057.685000123456","","instructions","219","316099","0.0-5.0","[{""page_index"":0,""viewing_time"":21057.48499999754}]","","","","","","","","",""
"645.2599999029189","","image-keyboard-response","220","316745","0.0-6.0-0.0","","img/green.png","32","trial","32","true","0.6,0.4","go_a","",""
"null","","html-keyboard-response","221","317762","0.0-6.0-1.0","","<img src=""img/green-r.png"" border=""10"">","null","trial","32","","0.6,0.4","go_a","1",""
"null","","html-keyboard-response","222","318767","0.0-6.0-2.0","","<div style=""font-size:60px;"">+</div>","null","","","","","","",""
"341.58500004559755","","image-keyboard-response","223","319109","0.0-6.0-0.1","","img/pink.png","32","trial","null","false","0.4,0.6","nogo_d","",""
"null","","html-keyboard-response","224","320112","0.0-6.0-1.1","","<img src=""img/pink-n.png"" border=""10"">","null","trial","null","","0.4,0.6","nogo_d","0",""
"null","","html-keyboard-response","225","321123","0.0-6.0-2.1","","<div style=""font-size:60px;"">+</div>","null","","","","","","",""
"510.3550001513213","","image-keyboard-response","226","321634","0.0-6.0-0.2","","img/grey.png","32","trial","null","false","0.4,0.6","nogo_b","",""
"null","","html-keyboard-response","227","322650","0.0-6.0-1.2","","<img src=""img/grey-r.png"" border=""10"">","null","trial","null","","0.4,0.6","nogo_b","1",""
"null","","html-keyboard-response","228","323653","0.0-6.0-2.2","","<div style=""font-size:60px;"">+</div>","null","","","","","","",""
"576.6449999064207","","image-keyboard-response","229","324230","0.0-6.0-0.3","","img/red.png","32","trial","32","true","0.6,0.4","go_c","",""
"null","","html-keyboard-response","230","325233","0.0-6.0-1.3","","<img src=""img/red-r.png"" border=""10"">","null","trial","32","","0.6,0.4","go_c","1",""
"null","","html-keyboard-response","231","326249","0.0-6.0-2.3","","<div style=""font-size:60px;"">+</div>","null","","","","","","",""
"null","","image-keyboard-response","232","327752","0.0-6.0-0.4","","img/pink.png","null","trial","null","true","0.4,0.6","nogo_d","",""
"null","","html-keyboard-response","233","328763","0.0-6.0-1.4","","<img src=""img/pink-n.png"">","null","trial","null","","0.4,0.6","nogo_d","0",""
"null","","html-keyboard-response","234","329768","0.0-6.0-2.4","","<div style=""font-size:60px;"">+</div>","null","","","","","","",""
"305.6699999142438","","image-keyboard-response","235","330074","0.0-6.0-0.5","","img/green.png","32","trial","32","true","0.6,0.4","go_a","",""
"null","","html-keyboard-response","236","331083","0.0-6.0-1.5","","<img src=""img/green-n.png"" border=""10"">","null","trial","32","","0.6,0.4","go_a","0",""
"null","","html-keyboard-response","237","332094","0.0-6.0-2.5","","<div style=""font-size:60px;"">+</div>","null","","","","","","",""
"350.24499986320734","","image-keyboard-response","238","332444","0.0-6.0-0.6","","img/grey.png","32","trial","null","false","0.4,0.6","nogo_b","",""
"null","","html-keyboard-response","239","333456","0.0-6.0-1.6","","<img src=""img/grey-n.png"" border=""10"">","null","trial","null","","0.4,0.6","nogo_b","0",""
"null","","html-keyboard-response","240","334470","0.0-6.0-2.6","","<div style=""font-size:60px;"">+</div>","null","","","","","","",""
"285.0099999923259","","image-keyboard-response","241","334756","0.0-6.0-0.7","","img/red.png","32","trial","32","true","0.6,0.4","go_c","",""
"null","","html-keyboard-response","242","335761","0.0-6.0-1.7","","<img src=""img/red-n.png"" border=""10"">","null","trial","32","","0.6,0.4","go_c","0",""
"null","","html-keyboard-response","243","336765","0.0-6.0-2.7","","<div style=""font-size:60px;"">+</div>","null","","","","","","",""
"688.8749999925494","","image-keyboard-response","244","337455","0.0-6.0-0.8","","img/green.png","32","trial","32","true","0.6,0.4","go_a","",""
"null","","html-keyboard-response","245","338460","0.0-6.0-1.8","","<img src=""img/green-r.png"" border=""10"">","null","trial","32","","0.6,0.4","go_a","1",""
"null","","html-keyboard-response","246","339461","0.0-6.0-2.8","","<div style=""font-size:60px;"">+</div>","null","","","","","","",""
"598.8799999468029","","image-keyboard-response","247","340060","0.0-6.0-0.9","","img/red.png","32","trial","32","true","0.6,0.4","go_c","",""
"null","","html-keyboard-response","248","341077","0.0-6.0-1.9","","<img src=""img/red-r.png"" border=""10"">","null","trial","32","","0.6,0.4","go_c","1",""
"null","","html-keyboard-response","249","342083","0.0-6.0-2.9","","<div style=""font-size:60px;"">+</div>","null","","","","","","",""
"null","","image-keyboard-response","250","343597","0.0-6.0-0.10","","img/grey.png","null","trial","null","true","0.4,0.6","nogo_b","",""
"null","","html-keyboard-response","251","344611","0.0-6.0-1.10","","<img src=""img/grey-n.png"">","null","trial","null","","0.4,0.6","nogo_b","0",""
"null","","html-keyboard-response","252","345611","0.0-6.0-2.10","","<div style=""font-size:60px;"">+</div>","null","","","","","","",""
"null","","image-keyboard-response","253","347124","0.0-6.0-0.11","","img/pink.png","null","trial","null","true","0.4,0.6","nogo_d","",""
"null","","html-keyboard-response","254","348127","0.0-6.0-1.11","","<img src=""img/pink-n.png"">","null","trial","null","","0.4,0.6","nogo_d","0",""
"null","","html-keyboard-response","255","349141","0.0-6.0-2.11","","<div style=""font-size:60px;"">+</div>","null","","","","","","",""
"807.6049999799579","","image-keyboard-response","256","349949","0.0-6.0-0.12","","img/grey.png","32","trial","null","false","0.4,0.6","nogo_b","",""
"null","","html-keyboard-response","257","350958","0.0-6.0-1.12","","<img src=""img/grey-n.png"" border=""10"">","null","trial","null","","0.4,0.6","nogo_b","0",""
"null","","html-keyboard-response","258","351969","0.0-6.0-2.12","","<div style=""font-size:60px;"">+</div>","null","","","","","","",""
"null","","image-keyboard-response","259","353486","0.0-6.0-0.13","","img/pink.png","null","trial","null","true","0.4,0.6","nogo_d","",""
"null","","html-keyboard-response","260","354497","0.0-6.0-1.13","","<img src=""img/pink-n.png"">","null","trial","null","","0.4,0.6","nogo_d","0",""
"null","","html-keyboard-response","261","355499","0.0-6.0-2.13","","<div style=""font-size:60px;"">+</div>","null","","","","","","",""
"860.2750001009554","","image-keyboard-response","262","356360","0.0-6.0-0.14","","img/red.png","32","trial","32","true","0.6,0.4","go_c","",""
"null","","html-keyboard-response","263","357370","0.0-6.0-1.14","","<img src=""img/red-r.png"" border=""10"">","null","trial","32","","0.6,0.4","go_c","1",""
"null","","html-keyboard-response","264","358382","0.0-6.0-2.14","","<div style=""font-size:60px;"">+</div>","null","","","","","","",""
"318.544999929145","","image-keyboard-response","265","358701","0.0-6.0-0.15","","img/green.png","32","trial","32","true","0.6,0.4","go_a","",""
"null","","html-keyboard-response","266","359714","0.0-6.0-1.15","","<img src=""img/green-r.png"" border=""10"">","null","trial","32","","0.6,0.4","go_a","1",""
"null","","html-keyboard-response","267","360718","0.0-6.0-2.15","","<div style=""font-size:60px;"">+</div>","null","","","","","","",""
"483.69999998249114","","image-keyboard-response","268","361202","0.0-6.0-0.16","","img/red.png","32","trial","32","true","0.6,0.4","go_c","",""
"null","","html-keyboard-response","269","362212","0.0-6.0-1.16","","<img src=""img/red-n.png"" border=""10"">","null","trial","32","","0.6,0.4","go_c","0",""
"null","","html-keyboard-response","270","363221","0.0-6.0-2.16","","<div style=""font-size:60px;"">+</div>","null","","","","","","",""
"346.39999992214143","","image-keyboard-response","271","363568","0.0-6.0-0.17","","img/green.png","32","trial","32","true","0.6,0.4","go_a","",""
"null","","html-keyboard-response","272","364578","0.0-6.0-1.17","","<img src=""img/green-n.png"" border=""10"">","null","trial","32","","0.6,0.4","go_a","0",""
"null","","html-keyboard-response","273","365593","0.0-6.0-2.17","","<div style=""font-size:60px;"">+</div>","null","","","","","","",""
"null","","image-keyboard-response","274","367094","0.0-6.0-0.18","","img/grey.png","null","trial","null","true","0.4,0.6","nogo_b","",""
"null","","html-keyboard-response","275","368105","0.0-6.0-1.18","","<img src=""img/grey-r.png"">","null","trial","null","","0.4,0.6","nogo_b","1",""
"null","","html-keyboard-response","276","369119","0.0-6.0-2.18","","<div style=""font-size:60px;"">+</div>","null","","","","","","",""
"null","","image-keyboard-response","277","370622","0.0-6.0-0.19","","img/pink.png","null","trial","null","true","0.4,0.6","nogo_d","",""
"null","","html-keyboard-response","278","371637","0.0-6.0-1.19","","<img src=""img/pink-r.png"">","null","trial","null","","0.4,0.6","nogo_d","1",""
"null","","html-keyboard-response","279","372638","0.0-6.0-2.19","","<div style=""font-size:60px;"">+</div>","null","","","","","","",""
"399.8350000474602","","image-keyboard-response","280","373038","0.0-6.0-0.20","","img/red.png","32","trial","32","true","0.6,0.4","go_c","",""
"null","","html-keyboard-response","281","374048","0.0-6.0-1.20","","<img src=""img/red-r.png"" border=""10"">","null","trial","32","","0.6,0.4","go_c","1",""
"null","","html-keyboard-response","282","375051","0.0-6.0-2.20","","<div style=""font-size:60px;"">+</div>","null","","","","","","",""
"null","","image-keyboard-response","283","376556","0.0-6.0-0.21","","img/grey.png","null","trial","null","true","0.4,0.6","nogo_b","",""
"null","","html-keyboard-response","284","377560","0.0-6.0-1.21","","<img src=""img/grey-n.png"">","null","trial","null","","0.4,0.6","nogo_b","0",""
"null","","html-keyboard-response","285","378565","0.0-6.0-2.21","","<div style=""font-size:60px;"">+</div>","null","","","","","","",""
"336.30999992601573","","image-keyboard-response","286","378902","0.0-6.0-0.22","","img/green.png","32","trial","32","true","0.6,0.4","go_a","",""
"null","","html-keyboard-response","287","379917","0.0-6.0-1.22","","<img src=""img/green-r.png"" border=""10"">","null","trial","32","","0.6,0.4","go_a","1",""
"null","","html-keyboard-response","288","380922","0.0-6.0-2.22","","<div style=""font-size:60px;"">+</div>","null","","","","","","",""
"null","","image-keyboard-response","289","382426","0.0-6.0-0.23","","img/pink.png","null","trial","null","true","0.4,0.6","nogo_d","",""
"null","","html-keyboard-response","290","383433","0.0-6.0-1.23","","<img src=""img/pink-n.png"">","null","trial","null","","0.4,0.6","nogo_d","0",""
"null","","html-keyboard-response","291","384437","0.0-6.0-2.23","","<div style=""font-size:60px;"">+</div>","null","","","","","","",""
"null","","image-keyboard-response","292","385940","0.0-6.0-0.24","","img/grey.png","null","trial","null","true","0.4,0.6","nogo_b","",""
"null","","html-keyboard-response","293","386943","0.0-6.0-1.24","","<img src=""img/grey-n.png"">","null","trial","null","","0.4,0.6","nogo_b","0",""
"null","","html-keyboard-response","294","387944","0.0-6.0-2.24","","<div style=""font-size:60px;"">+</div>","null","","","","","","",""
"null","","image-keyboard-response","295","389448","0.0-6.0-0.25","","img/pink.png","null","trial","null","true","0.4,0.6","nogo_d","",""
"null","","html-keyboard-response","296","390464","0.0-6.0-1.25","","<img src=""img/pink-r.png"">","null","trial","null","","0.4,0.6","nogo_d","1",""
"null","","html-keyboard-response","297","391470","0.0-6.0-2.25","","<div style=""font-size:60px;"">+</div>","null","","","","","","",""
"316.5299999527633","","image-keyboard-response","298","391787","0.0-6.0-0.26","","img/red.png","32","trial","32","true","0.6,0.4","go_c","",""
"null","","html-keyboard-response","299","392800","0.0-6.0-1.26","","<img src=""img/red-r.png"" border=""10"">","null","trial","32","","0.6,0.4","go_c","1",""
"null","","html-keyboard-response","300","393815","0.0-6.0-2.26","","<div style=""font-size:60px;"">+</div>","null","","","","","","",""
"396.4350000023842","","image-keyboard-response","301","394212","0.0-6.0-0.27","","img/green.png","32","trial","32","true","0.6,0.4","go_a","",""
"null","","html-keyboard-response","302","395215","0.0-6.0-1.27","","<img src=""img/green-n.png"" border=""10"">","null","trial","32","","0.6,0.4","go_a","0",""
"null","","html-keyboard-response","303","396230","0.0-6.0-2.27","","<div style=""font-size:60px;"">+</div>","null","","","","","","",""
"null","","image-keyboard-response","304","397743","0.0-6.0-0.28","","img/grey.png","null","trial","null","true","0.4,0.6","nogo_b","",""
"null","","html-keyboard-response","305","398744","0.0-6.0-1.28","","<img src=""img/grey-n.png"">","null","trial","null","","0.4,0.6","nogo_b","0",""
"null","","html-keyboard-response","306","399753","0.0-6.0-2.28","","<div style=""font-size:60px;"">+</div>","null","","","","","","",""
"404.2899999767542","","image-keyboard-response","307","400158","0.0-6.0-0.29","","img/red.png","32","trial","32","true","0.6,0.4","go_c","",""
"null","","html-keyboard-response","308","401162","0.0-6.0-1.29","","<img src=""img/red-r.png"" border=""10"">","null","trial","32","","0.6,0.4","go_c","1",""
"null","","html-keyboard-response","309","402178","0.0-6.0-2.29","","<div style=""font-size:60px;"">+</div>","null","","","","","","",""
"null","","image-keyboard-response","310","403686","0.0-6.0-0.30","","img/pink.png","null","trial","null","true","0.4,0.6","nogo_d","",""
"null","","html-keyboard-response","311","404694","0.0-6.0-1.30","","<img src=""img/pink-r.png"">","null","trial","null","","0.4,0.6","nogo_d","1",""
"null","","html-keyboard-response","312","405695","0.0-6.0-2.30","","<div style=""font-size:60px;"">+</div>","null","","","","","","",""
"376.189999980852","","image-keyboard-response","313","406072","0.0-6.0-0.31","","img/green.png","32","trial","32","true","0.6,0.4","go_a","",""
"null","","html-keyboard-response","314","407077","0.0-6.0-1.31","","<img src=""img/green-r.png"" border=""10"">","null","trial","32","","0.6,0.4","go_a","1",""
"null","","html-keyboard-response","315","408090","0.0-6.0-2.31","","<div style=""font-size:60px;"">+</div>","null","","","","","","",""
"null","","image-keyboard-response","316","409598","0.0-6.0-0.32","","img/pink.png","null","trial","null","true","0.4,0.6","nogo_d","",""
"null","","html-keyboard-response","317","410614","0.0-6.0-1.32","","<img src=""img/pink-n.png"">","null","trial","null","","0.4,0.6","nogo_d","0",""
"null","","html-keyboard-response","318","411627","0.0-6.0-2.32","","<div style=""font-size:60px;"">+</div>","null","","","","","","",""
"null","","image-keyboard-response","319","413128","0.0-6.0-0.33","","img/grey.png","null","trial","null","true","0.4,0.6","nogo_b","",""
"null","","html-keyboard-response","320","414130","0.0-6.0-1.33","","<img src=""img/grey-r.png"">","null","trial","null","","0.4,0.6","nogo_b","1",""
"null","","html-keyboard-response","321","415138","0.0-6.0-2.33","","<div style=""font-size:60px;"">+</div>","null","","","","","","",""
"325.39500016719103","","image-keyboard-response","322","415464","0.0-6.0-0.34","","img/red.png","32","trial","32","true","0.6,0.4","go_c","",""
"null","","html-keyboard-response","323","416474","0.0-6.0-1.34","","<img src=""img/red-r.png"" border=""10"">","null","trial","32","","0.6,0.4","go_c","1",""
"null","","html-keyboard-response","324","417488","0.0-6.0-2.34","","<div style=""font-size:60px;"">+</div>","null","","","","","","",""
"379.8800001386553","","image-keyboard-response","325","417869","0.0-6.0-0.35","","img/green.png","32","trial","32","true","0.6,0.4","go_a","",""
"null","","html-keyboard-response","326","418872","0.0-6.0-1.35","","<img src=""img/green-r.png"" border=""10"">","null","trial","32","","0.6,0.4","go_a","1",""
"null","","html-keyboard-response","327","419875","0.0-6.0-2.35","","<div style=""font-size:60px;"">+</div>","null","","","","","","",""
"null","","image-keyboard-response","328","421386","0.0-6.0-0.36","","img/pink.png","null","trial","null","true","0.4,0.6","nogo_d","",""
"null","","html-keyboard-response","329","422392","0.0-6.0-1.36","","<img src=""img/pink-r.png"">","null","trial","null","","0.4,0.6","nogo_d","1",""
"null","","html-keyboard-response","330","423402","0.0-6.0-2.36","","<div style=""font-size:60px;"">+</div>","null","","","","","","",""
"355.5900000501424","","image-keyboard-response","331","423758","0.0-6.0-0.37","","img/green.png","32","trial","32","true","0.6,0.4","go_a","",""
"null","","html-keyboard-response","332","424767","0.0-6.0-1.37","","<img src=""img/green-r.png"" border=""10"">","null","trial","32","","0.6,0.4","go_a","1",""
"null","","html-keyboard-response","333","425780","0.0-6.0-2.37","","<div style=""font-size:60px;"">+</div>","null","","","","","","",""
"433.10000002384186","","image-keyboard-response","334","426214","0.0-6.0-0.38","","img/red.png","32","trial","32","true","0.6,0.4","go_c","",""
"null","","html-keyboard-response","335","427216","0.0-6.0-1.38","","<img src=""img/red-r.png"" border=""10"">","null","trial","32","","0.6,0.4","go_c","1",""
"null","","html-keyboard-response","336","428221","0.0-6.0-2.38","","<div style=""font-size:60px;"">+</div>","null","","","","","","",""
"null","","image-keyboard-response","337","429733","0.0-6.0-0.39","","img/grey.png","null","trial","null","true","0.4,0.6","nogo_b","",""
"null","","html-keyboard-response","338","430735","0.0-6.0-1.39","","<img src=""img/grey-r.png"">","null","trial","null","","0.4,0.6","nogo_b","1",""
"null","","html-keyboard-response","339","431750","0.0-6.0-2.39","","<div style=""font-size:60px;"">+</div>","null","","","","","","",""
"155.09000001475215","","image-keyboard-response","340","431905","0.0-6.0-0.40","","img/green.png","32","trial","32","true","0.6,0.4","go_a","",""
"null","","html-keyboard-response","341","432919","0.0-6.0-1.40","","<img src=""img/green-r.png"" border=""10"">","null","trial","32","","0.6,0.4","go_a","1",""
"null","","html-keyboard-response","342","433933","0.0-6.0-2.40","","<div style=""font-size:60px;"">+</div>","null","","","","","","",""
"null","","image-keyboard-response","343","435437","0.0-6.0-0.41","","img/pink.png","null","trial","null","true","0.4,0.6","nogo_d","",""
"null","","html-keyboard-response","344","436441","0.0-6.0-1.41","","<img src=""img/pink-r.png"">","null","trial","null","","0.4,0.6","nogo_d","1",""
"null","","html-keyboard-response","345","437456","0.0-6.0-2.41","","<div style=""font-size:60px;"">+</div>","null","","","","","","",""
"320.25999994948506","","image-keyboard-response","346","437777","0.0-6.0-0.42","","img/red.png","32","trial","32","true","0.6,0.4","go_c","",""
"null","","html-keyboard-response","347","438793","0.0-6.0-1.42","","<img src=""img/red-r.png"" border=""10"">","null","trial","32","","0.6,0.4","go_c","1",""
"null","","html-keyboard-response","348","439801","0.0-6.0-2.42","","<div style=""font-size:60px;"">+</div>","null","","","","","","",""
"null","","image-keyboard-response","349","441317","0.0-6.0-0.43","","img/grey.png","null","trial","null","true","0.4,0.6","nogo_b","",""
"null","","html-keyboard-response","350","442333","0.0-6.0-1.43","","<img src=""img/grey-r.png"">","null","trial","null","","0.4,0.6","nogo_b","1",""
"null","","html-keyboard-response","351","443335","0.0-6.0-2.43","","<div style=""font-size:60px;"">+</div>","null","","","","","","",""
"337.1749999932945","","image-keyboard-response","352","443673","0.0-6.0-0.44","","img/red.png","32","trial","32","true","0.6,0.4","go_c","",""
"null","","html-keyboard-response","353","444678","0.0-6.0-1.44","","<img src=""img/red-r.png"" border=""10"">","null","trial","32","","0.6,0.4","go_c","1",""
"null","","html-keyboard-response","354","445692","0.0-6.0-2.44","","<div style=""font-size:60px;"">+</div>","null","","","","","","",""
"412.6249998807907","","image-keyboard-response","355","446105","0.0-6.0-0.45","","img/green.png","32","trial","32","true","0.6,0.4","go_a","",""
"null","","html-keyboard-response","356","447113","0.0-6.0-1.45","","<img src=""img/green-r.png"" border=""10"">","null","trial","32","","0.6,0.4","go_a","1",""
"null","","html-keyboard-response","357","448128","0.0-6.0-2.45","","<div style=""font-size:60px;"">+</div>","null","","","","","","",""
"null","","image-keyboard-response","358","449641","0.0-6.0-0.46","","img/grey.png","null","trial","null","true","0.4,0.6","nogo_b","",""
"null","","html-keyboard-response","359","450643","0.0-6.0-1.46","","<img src=""img/grey-n.png"">","null","trial","null","","0.4,0.6","nogo_b","0",""
"null","","html-keyboard-response","360","451656","0.0-6.0-2.46","","<div style=""font-size:60px;"">+</div>","null","","","","","","",""
"null","","image-keyboard-response","361","453172","0.0-6.0-0.47","","img/pink.png","null","trial","null","true","0.4,0.6","nogo_d","",""
"null","","html-keyboard-response","362","454174","0.0-6.0-1.47","","<img src=""img/pink-r.png"">","null","trial","null","","0.4,0.6","nogo_d","1",""
"null","","html-keyboard-response","363","455187","0.0-6.0-2.47","","<div style=""font-size:60px;"">+</div>","null","","","","","","",""
"279.2699998244643","","image-keyboard-response","364","455467","0.0-6.0-0.48","","img/red.png","32","trial","32","true","0.6,0.4","go_c","",""
"null","","html-keyboard-response","365","456469","0.0-6.0-1.48","","<img src=""img/red-n.png"" border=""10"">","null","trial","32","","0.6,0.4","go_c","0",""
"null","","html-keyboard-response","366","457483","0.0-6.0-2.48","","<div style=""font-size:60px;"">+</div>","null","","","","","","",""
"null","","image-keyboard-response","367","458996","0.0-6.0-0.49","","img/grey.png","null","trial","null","true","0.4,0.6","nogo_b","",""
"null","","html-keyboard-response","368","460012","0.0-6.0-1.49","","<img src=""img/grey-r.png"">","null","trial","null","","0.4,0.6","nogo_b","1",""
"null","","html-keyboard-response","369","461015","0.0-6.0-2.49","","<div style=""font-size:60px;"">+</div>","null","","","","","","",""
"329.9150001257658","","image-keyboard-response","370","461346","0.0-6.0-0.50","","img/green.png","32","trial","32","true","0.6,0.4","go_a","",""
"null","","html-keyboard-response","371","462356","0.0-6.0-1.50","","<img src=""img/green-n.png"" border=""10"">","null","trial","32","","0.6,0.4","go_a","0",""
"null","","html-keyboard-response","372","463358","0.0-6.0-2.50","","<div style=""font-size:60px;"">+</div>","null","","","","","","",""
"null","","image-keyboard-response","373","464874","0.0-6.0-0.51","","img/pink.png","null","trial","null","true","0.4,0.6","nogo_d","",""
"null","","html-keyboard-response","374","465888","0.0-6.0-1.51","","<img src=""img/pink-n.png"">","null","trial","null","","0.4,0.6","nogo_d","0",""
"null","","html-keyboard-response","375","466897","0.0-6.0-2.51","","<div style=""font-size:60px;"">+</div>","null","","","","","","",""
"287.3299999628216","","image-keyboard-response","376","467187","0.0-6.0-0.52","","img/green.png","32","trial","32","true","0.6,0.4","go_a","",""
"null","","html-keyboard-response","377","468203","0.0-6.0-1.52","","<img src=""img/green-n.png"" border=""10"">","null","trial","32","","0.6,0.4","go_a","0",""
"null","","html-keyboard-response","378","469207","0.0-6.0-2.52","","<div style=""font-size:60px;"">+</div>","null","","","","","","",""
"392.03500002622604","","image-keyboard-response","379","469599","0.0-6.0-0.53","","img/red.png","32","trial","32","true","0.6,0.4","go_c","",""
"null","","html-keyboard-response","380","470616","0.0-6.0-1.53","","<img src=""img/red-r.png"" border=""10"">","null","trial","32","","0.6,0.4","go_c","1",""
"null","","html-keyboard-response","381","471617","0.0-6.0-2.53","","<div style=""font-size:60px;"">+</div>","null","","","","","","",""
"null","","image-keyboard-response","382","473120","0.0-6.0-0.54","","img/pink.png","null","trial","null","true","0.4,0.6","nogo_d","",""
"null","","html-keyboard-response","383","474130","0.0-6.0-1.54","","<img src=""img/pink-n.png"">","null","trial","null","","0.4,0.6","nogo_d","0",""
"null","","html-keyboard-response","384","475144","0.0-6.0-2.54","","<div style=""font-size:60px;"">+</div>","null","","","","","","",""
"null","","image-keyboard-response","385","476656","0.0-6.0-0.55","","img/grey.png","null","trial","null","true","0.4,0.6","nogo_b","",""
"null","","html-keyboard-response","386","477672","0.0-6.0-1.55","","<img src=""img/grey-n.png"">","null","trial","null","","0.4,0.6","nogo_b","0",""
"null","","html-keyboard-response","387","478673","0.0-6.0-2.55","","<div style=""font-size:60px;"">+</div>","null","","","","","","",""
"null","","image-keyboard-response","388","480188","0.0-6.0-0.56","","img/pink.png","null","trial","null","true","0.4,0.6","nogo_d","",""
"null","","html-keyboard-response","389","481204","0.0-6.0-1.56","","<img src=""img/pink-r.png"">","null","trial","null","","0.4,0.6","nogo_d","1",""
"null","","html-keyboard-response","390","482219","0.0-6.0-2.56","","<div style=""font-size:60px;"">+</div>","null","","","","","","",""
"null","","image-keyboard-response","391","483723","0.0-6.0-0.57","","img/grey.png","null","trial","null","true","0.4,0.6","nogo_b","",""
"null","","html-keyboard-response","392","484726","0.0-6.0-1.57","","<img src=""img/grey-n.png"">","null","trial","null","","0.4,0.6","nogo_b","0",""
"null","","html-keyboard-response","393","485730","0.0-6.0-2.57","","<div style=""font-size:60px;"">+</div>","null","","","","","","",""
"401.9899999257177","","image-keyboard-response","394","486132","0.0-6.0-0.58","","img/red.png","32","trial","32","true","0.6,0.4","go_c","",""
"null","","html-keyboard-response","395","487145","0.0-6.0-1.58","","<img src=""img/red-r.png"" border=""10"">","null","trial","32","","0.6,0.4","go_c","1",""
"null","","html-keyboard-response","396","488159","0.0-6.0-2.58","","<div style=""font-size:60px;"">+</div>","null","","","","","","",""
"434.099999954924","","image-keyboard-response","397","488594","0.0-6.0-0.59","","img/green.png","32","trial","32","true","0.6,0.4","go_a","",""
"null","","html-keyboard-response","398","489607","0.0-6.0-1.59","","<img src=""img/green-n.png"" border=""10"">","null","trial","32","","0.6,0.4","go_a","0",""
"null","","html-keyboard-response","399","490617","0.0-6.0-2.59","","<div style=""font-size:60px;"">+</div>","null","","","","","","",""
"416.22000001370907","","image-keyboard-response","400","491034","0.0-6.0-0.60","","img/red.png","32","trial","32","true","0.6,0.4","go_c","",""
"null","","html-keyboard-response","401","492049","0.0-6.0-1.60","","<img src=""img/red-r.png"" border=""10"">","null","trial","32","","0.6,0.4","go_c","1",""
"null","","html-keyboard-response","402","493065","0.0-6.0-2.60","","<div style=""font-size:60px;"">+</div>","null","","","","","","",""
"397.0899998676032","","image-keyboard-response","403","493462","0.0-6.0-0.61","","img/green.png","32","trial","32","true","0.6,0.4","go_a","",""
"null","","html-keyboard-response","404","494466","0.0-6.0-1.61","","<img src=""img/green-r.png"" border=""10"">","null","trial","32","","0.6,0.4","go_a","1",""
"null","","html-keyboard-response","405","495468","0.0-6.0-2.61","","<div style=""font-size:60px;"">+</div>","null","","","","","","",""
"null","","image-keyboard-response","406","496983","0.0-6.0-0.62","","img/pink.png","null","trial","null","true","0.4,0.6","nogo_d","",""
"null","","html-keyboard-response","407","497997","0.0-6.0-1.62","","<img src=""img/pink-n.png"">","null","trial","null","","0.4,0.6","nogo_d","0",""
"null","","html-keyboard-response","408","499010","0.0-6.0-2.62","","<div style=""font-size:60px;"">+</div>","null","","","","","","",""
"null","","image-keyboard-response","409","500524","0.0-6.0-0.63","","img/grey.png","null","trial","null","true","0.4,0.6","nogo_b","",""
"null","","html-keyboard-response","410","501540","0.0-6.0-1.63","","<img src=""img/grey-r.png"">","null","trial","null","","0.4,0.6","nogo_b","1",""
"null","","html-keyboard-response","411","502546","0.0-6.0-2.63","","<div style=""font-size:60px;"">+</div>","null","","","","","","",""
"348.2800000347197","","image-keyboard-response","412","502895","0.0-6.0-0.64","","img/red.png","32","trial","32","true","0.6,0.4","go_c","",""
"null","","html-keyboard-response","413","503900","0.0-6.0-1.64","","<img src=""img/red-r.png"" border=""10"">","null","trial","32","","0.6,0.4","go_c","1",""
"null","","html-keyboard-response","414","504908","0.0-6.0-2.64","","<div style=""font-size:60px;"">+</div>","null","","","","","","",""
"null","","image-keyboard-response","415","506422","0.0-6.0-0.65","","img/pink.png","null","trial","null","true","0.4,0.6","nogo_d","",""
"null","","html-keyboard-response","416","507436","0.0-6.0-1.65","","<img src=""img/pink-r.png"">","null","trial","null","","0.4,0.6","nogo_d","1",""
"null","","html-keyboard-response","417","508438","0.0-6.0-2.65","","<div style=""font-size:60px;"">+</div>","null","","","","","","",""
"567.9899998940527","","image-keyboard-response","418","509007","0.0-6.0-0.66","","img/grey.png","32","trial","null","false","0.4,0.6","nogo_b","",""
"null","","html-keyboard-response","419","510014","0.0-6.0-1.66","","<img src=""img/grey-r.png"" border=""10"">","null","trial","null","","0.4,0.6","nogo_b","1",""
"null","","html-keyboard-response","420","511030","0.0-6.0-2.66","","<div style=""font-size:60px;"">+</div>","null","","","","","","",""
"370.8049999549985","","image-keyboard-response","421","511402","0.0-6.0-0.67","","img/green.png","32","trial","32","true","0.6,0.4","go_a","",""
"null","","html-keyboard-response","422","512410","0.0-6.0-1.67","","<img src=""img/green-r.png"" border=""10"">","null","trial","32","","0.6,0.4","go_a","1",""
"null","","html-keyboard-response","423","513422","0.0-6.0-2.67","","<div style=""font-size:60px;"">+</div>","null","","","","","","",""
"577.2550001274794","","image-keyboard-response","424","514000","0.0-6.0-0.68","","img/grey.png","32","trial","null","false","0.4,0.6","nogo_b","",""
"null","","html-keyboard-response","425","515016","0.0-6.0-1.68","","<img src=""img/grey-n.png"" border=""10"">","null","trial","null","","0.4,0.6","nogo_b","0",""
"null","","html-keyboard-response","426","516019","0.0-6.0-2.68","","<div style=""font-size:60px;"">+</div>","null","","","","","","",""
"275.5550001747906","","image-keyboard-response","427","516295","0.0-6.0-0.69","","img/red.png","32","trial","32","true","0.6,0.4","go_c","",""
"null","","html-keyboard-response","428","517301","0.0-6.0-1.69","","<img src=""img/red-r.png"" border=""10"">","null","trial","32","","0.6,0.4","go_c","1",""
"null","","html-keyboard-response","429","518307","0.0-6.0-2.69","","<div style=""font-size:60px;"">+</div>","null","","","","","","",""
"null","","image-keyboard-response","430","519814","0.0-6.0-0.70","","img/pink.png","null","trial","null","true","0.4,0.6","nogo_d","",""
"null","","html-keyboard-response","431","520824","0.0-6.0-1.70","","<img src=""img/pink-n.png"">","null","trial","null","","0.4,0.6","nogo_d","0",""
"null","","html-keyboard-response","432","521827","0.0-6.0-2.70","","<div style=""font-size:60px;"">+</div>","null","","","","","","",""
"384.59999999031425","","image-keyboard-response","433","522212","0.0-6.0-0.71","","img/green.png","32","trial","32","true","0.6,0.4","go_a","",""
"null","","html-keyboard-response","434","523229","0.0-6.0-1.71","","<img src=""img/green-r.png"" border=""10"">","null","trial","32","","0.6,0.4","go_a","1",""
"null","","html-keyboard-response","435","524240","0.0-6.0-2.71","","<div style=""font-size:60px;"">+</div>","null","","","","","","",""
"null","","image-keyboard-response","436","525754","0.0-6.0-0.72","","img/pink.png","null","trial","null","true","0.4,0.6","nogo_d","",""
"null","","html-keyboard-response","437","526767","0.0-6.0-1.72","","<img src=""img/pink-r.png"">","null","trial","null","","0.4,0.6","nogo_d","1",""
"null","","html-keyboard-response","438","527770","0.0-6.0-2.72","","<div style=""font-size:60px;"">+</div>","null","","","","","","",""
"331.6750000230968","","image-keyboard-response","439","528102","0.0-6.0-0.73","","img/green.png","32","trial","32","true","0.6,0.4","go_a","",""
"null","","html-keyboard-response","440","529109","0.0-6.0-1.73","","<img src=""img/green-r.png"" border=""10"">","null","trial","32","","0.6,0.4","go_a","1",""
"null","","html-keyboard-response","441","530113","0.0-6.0-2.73","","<div style=""font-size:60px;"">+</div>","null","","","","","","",""
"709.5850000623614","","image-keyboard-response","442","530823","0.0-6.0-0.74","","img/red.png","32","trial","32","true","0.6,0.4","go_c","",""
"null","","html-keyboard-response","443","531832","0.0-6.0-1.74","","<img src=""img/red-n.png"" border=""10"">","null","trial","32","","0.6,0.4","go_c","0",""
"null","","html-keyboard-response","444","532848","0.0-6.0-2.74","","<div style=""font-size:60px;"">+</div>","null","","","","","","",""
"null","","image-keyboard-response","445","534353","0.0-6.0-0.75","","img/grey.png","null","trial","null","true","0.4,0.6","nogo_b","",""
"null","","html-keyboard-response","446","535367","0.0-6.0-1.75","","<img src=""img/grey-r.png"">","null","trial","null","","0.4,0.6","nogo_b","1",""
"null","","html-keyboard-response","447","536369","0.0-6.0-2.75","","<div style=""font-size:60px;"">+</div>","null","","","","","","",""
"277.7750000823289","","image-keyboard-response","448","536647","0.0-6.0-0.76","","img/red.png","32","trial","32","true","0.6,0.4","go_c","",""
"null","","html-keyboard-response","449","537663","0.0-6.0-1.76","","<img src=""img/red-n.png"" border=""10"">","null","trial","32","","0.6,0.4","go_c","0",""
"null","","html-keyboard-response","450","538676","0.0-6.0-2.76","","<div style=""font-size:60px;"">+</div>","null","","","","","","",""
"385.465000057593","","image-keyboard-response","451","539062","0.0-6.0-0.77","","img/green.png","32","trial","32","true","0.6,0.4","go_a","",""
"null","","html-keyboard-response","452","540075","0.0-6.0-1.77","","<img src=""img/green-r.png"" border=""10"">","null","trial","32","","0.6,0.4","go_a","1",""
"null","","html-keyboard-response","453","541082","0.0-6.0-2.77","","<div style=""font-size:60px;"">+</div>","null","","","","","","",""
"null","","image-keyboard-response","454","542587","0.0-6.0-0.78","","img/grey.png","null","trial","null","true","0.4,0.6","nogo_b","",""
"null","","html-keyboard-response","455","543592","0.0-6.0-1.78","","<img src=""img/grey-n.png"">","null","trial","null","","0.4,0.6","nogo_b","0",""
"null","","html-keyboard-response","456","544600","0.0-6.0-2.78","","<div style=""font-size:60px;"">+</div>","null","","","","","","",""
"300.56000011973083","","image-keyboard-response","457","544901","0.0-6.0-0.79","","img/pink.png","32","trial","null","false","0.4,0.6","nogo_d","",""
"null","","html-keyboard-response","458","545916","0.0-6.0-1.79","","<img src=""img/pink-n.png"" border=""10"">","null","trial","null","","0.4,0.6","nogo_d","0",""
"null","","html-keyboard-response","459","546920","0.0-6.0-2.79","","<div style=""font-size:60px;"">+</div>","null","","","","","","",""
"null","","image-keyboard-response","460","548425","0.0-6.0-0.80","","img/grey.png","null","trial","null","true","0.4,0.6","nogo_b","",""
"null","","html-keyboard-response","461","549437","0.0-6.0-1.80","","<img src=""img/grey-r.png"">","null","trial","null","","0.4,0.6","nogo_b","1",""
"null","","html-keyboard-response","462","550439","0.0-6.0-2.80","","<div style=""font-size:60px;"">+</div>","null","","","","","","",""
"null","","image-keyboard-response","463","551943","0.0-6.0-0.81","","img/pink.png","null","trial","null","true","0.4,0.6","nogo_d","",""
"null","","html-keyboard-response","464","552947","0.0-6.0-1.81","","<img src=""img/pink-n.png"">","null","trial","null","","0.4,0.6","nogo_d","0",""
"null","","html-keyboard-response","465","553954","0.0-6.0-2.81","","<div style=""font-size:60px;"">+</div>","null","","","","","","",""
"402.5399999227375","","image-keyboard-response","466","554357","0.0-6.0-0.82","","img/red.png","32","trial","32","true","0.6,0.4","go_c","",""
"null","","html-keyboard-response","467","555363","0.0-6.0-1.82","","<img src=""img/red-n.png"" border=""10"">","null","trial","32","","0.6,0.4","go_c","0",""
"null","","html-keyboard-response","468","556378","0.0-6.0-2.82","","<div style=""font-size:60px;"">+</div>","null","","","","","","",""
"334.3799998983741","","image-keyboard-response","469","556713","0.0-6.0-0.83","","img/green.png","32","trial","32","true","0.6,0.4","go_a","",""
"null","","html-keyboard-response","470","557721","0.0-6.0-1.83","","<img src=""img/green-r.png"" border=""10"">","null","trial","32","","0.6,0.4","go_a","1",""
"null","","html-keyboard-response","471","558724","0.0-6.0-2.83","","<div style=""font-size:60px;"">+</div>","null","","","","","","",""
"null","","image-keyboard-response","472","560238","0.0-6.0-0.84","","img/grey.png","null","trial","null","true","0.4,0.6","nogo_b","",""
"null","","html-keyboard-response","473","561244","0.0-6.0-1.84","","<img src=""img/grey-r.png"">","null","trial","null","","0.4,0.6","nogo_b","1",""
"null","","html-keyboard-response","474","562253","0.0-6.0-2.84","","<div style=""font-size:60px;"">+</div>","null","","","","","","",""
"248.05499985814095","","image-keyboard-response","475","562502","0.0-6.0-0.85","","img/red.png","32","trial","32","true","0.6,0.4","go_c","",""
"null","","html-keyboard-response","476","563505","0.0-6.0-1.85","","<img src=""img/red-r.png"" border=""10"">","null","trial","32","","0.6,0.4","go_c","1",""
"null","","html-keyboard-response","477","564514","0.0-6.0-2.85","","<div style=""font-size:60px;"">+</div>","null","","","","","","",""
"null","","image-keyboard-response","478","566020","0.0-6.0-0.86","","img/pink.png","null","trial","null","true","0.4,0.6","nogo_d","",""
"null","","html-keyboard-response","479","567031","0.0-6.0-1.86","","<img src=""img/pink-r.png"">","null","trial","null","","0.4,0.6","nogo_d","1",""
"null","","html-keyboard-response","480","568042","0.0-6.0-2.86","","<div style=""font-size:60px;"">+</div>","null","","","","","","",""
"332.2949998546392","","image-keyboard-response","481","568375","0.0-6.0-0.87","","img/green.png","32","trial","32","true","0.6,0.4","go_a","",""
"null","","html-keyboard-response","482","569386","0.0-6.0-1.87","","<img src=""img/green-r.png"" border=""10"">","null","trial","32","","0.6,0.4","go_a","1",""
"null","","html-keyboard-response","483","570400","0.0-6.0-2.87","","<div style=""font-size:60px;"">+</div>","null","","","","","","",""
"338.24000018648803","","image-keyboard-response","484","570739","0.0-6.0-0.88","","img/green.png","32","trial","32","true","0.6,0.4","go_a","",""
"null","","html-keyboard-response","485","571746","0.0-6.0-1.88","","<img src=""img/green-r.png"" border=""10"">","null","trial","32","","0.6,0.4","go_a","1",""
"null","","html-keyboard-response","486","572748","0.0-6.0-2.88","","<div style=""font-size:60px;"">+</div>","null","","","","","","",""
"346.11500008031726","","image-keyboard-response","487","573095","0.0-6.0-0.89","","img/red.png","32","trial","32","true","0.6,0.4","go_c","",""
"null","","html-keyboard-response","488","574107","0.0-6.0-1.89","","<img src=""img/red-r.png"" border=""10"">","null","trial","32","","0.6,0.4","go_c","1",""
"null","","html-keyboard-response","489","575120","0.0-6.0-2.89","","<div style=""font-size:60px;"">+</div>","null","","","","","","",""
"null","","image-keyboard-response","490","576623","0.0-6.0-0.90","","img/pink.png","null","trial","null","true","0.4,0.6","nogo_d","",""
"null","","html-keyboard-response","491","577639","0.0-6.0-1.90","","<img src=""img/pink-r.png"">","null","trial","null","","0.4,0.6","nogo_d","1",""
"null","","html-keyboard-response","492","578640","0.0-6.0-2.90","","<div style=""font-size:60px;"">+</div>","null","","","","","","",""
"null","","image-keyboard-response","493","580143","0.0-6.0-0.91","","img/grey.png","null","trial","null","true","0.4,0.6","nogo_b","",""
"null","","html-keyboard-response","494","581146","0.0-6.0-1.91","","<img src=""img/grey-n.png"">","null","trial","null","","0.4,0.6","nogo_b","0",""
"null","","html-keyboard-response","495","582162","0.0-6.0-2.91","","<div style=""font-size:60px;"">+</div>","null","","","","","","",""
"296.3149999268353","","image-keyboard-response","496","582459","0.0-6.0-0.92","","img/green.png","32","trial","32","true","0.6,0.4","go_a","",""
"null","","html-keyboard-response","497","583463","0.0-6.0-1.92","","<img src=""img/green-n.png"" border=""10"">","null","trial","32","","0.6,0.4","go_a","0",""
"null","","html-keyboard-response","498","584474","0.0-6.0-2.92","","<div style=""font-size:60px;"">+</div>","null","","","","","","",""
"386.655000038445","","image-keyboard-response","499","584862","0.0-6.0-0.93","","img/red.png","32","trial","32","true","0.6,0.4","go_c","",""
"null","","html-keyboard-response","500","585868","0.0-6.0-1.93","","<img src=""img/red-r.png"" border=""10"">","null","trial","32","","0.6,0.4","go_c","1",""
"null","","html-keyboard-response","501","586871","0.0-6.0-2.93","","<div style=""font-size:60px;"">+</div>","null","","","","","","",""
"null","","image-keyboard-response","502","588387","0.0-6.0-0.94","","img/pink.png","null","trial","null","true","0.4,0.6","nogo_d","",""
"null","","html-keyboard-response","503","589388","0.0-6.0-1.94","","<img src=""img/pink-r.png"">","null","trial","null","","0.4,0.6","nogo_d","1",""
"null","","html-keyboard-response","504","590393","0.0-6.0-2.94","","<div style=""font-size:60px;"">+</div>","null","","","","","","",""
"null","","image-keyboard-response","505","591895","0.0-6.0-0.95","","img/grey.png","null","trial","null","true","0.4,0.6","nogo_b","",""
"null","","html-keyboard-response","506","592908","0.0-6.0-1.95","","<img src=""img/grey-r.png"">","null","trial","null","","0.4,0.6","nogo_b","1",""
"null","","html-keyboard-response","507","593922","0.0-6.0-2.95","","<div style=""font-size:60px;"">+</div>","null","","","","","","",""
"309.06999995931983","","image-keyboard-response","508","594231","0.0-6.0-0.96","","img/red.png","32","trial","32","true","0.6,0.4","go_c","",""
"null","","html-keyboard-response","509","595234","0.0-6.0-1.96","","<img src=""img/red-n.png"" border=""10"">","null","trial","32","","0.6,0.4","go_c","0",""
"null","","html-keyboard-response","510","596243","0.0-6.0-2.96","","<div style=""font-size:60px;"">+</div>","null","","","","","","",""
"360.5549999047071","","image-keyboard-response","511","596605","0.0-6.0-0.97","","img/green.png","32","trial","32","true","0.6,0.4","go_a","",""
"null","","html-keyboard-response","512","597606","0.0-6.0-1.97","","<img src=""img/green-n.png"" border=""10"">","null","trial","32","","0.6,0.4","go_a","0",""
"null","","html-keyboard-response","513","598620","0.0-6.0-2.97","","<div style=""font-size:60px;"">+</div>","null","","","","","","",""
"null","","image-keyboard-response","514","600134","0.0-6.0-0.98","","img/pink.png","null","trial","null","true","0.4,0.6","nogo_d","",""
"null","","html-keyboard-response","515","601146","0.0-6.0-1.98","","<img src=""img/pink-r.png"">","null","trial","null","","0.4,0.6","nogo_d","1",""
"null","","html-keyboard-response","516","602155","0.0-6.0-2.98","","<div style=""font-size:60px;"">+</div>","null","","","","","","",""
"null","","image-keyboard-response","517","603658","0.0-6.0-0.99","","img/grey.png","null","trial","null","true","0.4,0.6","nogo_b","",""
"null","","html-keyboard-response","518","604666","0.0-6.0-1.99","","<img src=""img/grey-n.png"">","null","trial","null","","0.4,0.6","nogo_b","0",""
"null","","html-keyboard-response","519","605682","0.0-6.0-2.99","","<div style=""font-size:60px;"">+</div>","null","","","","","","",""
"304.50500012375414","","image-keyboard-response","520","605987","0.0-6.0-0.100","","img/pink.png","32","trial","null","false","0.4,0.6","nogo_d","",""
"null","","html-keyboard-response","521","607003","0.0-6.0-1.100","","<img src=""img/pink-r.png"" border=""10"">","null","trial","null","","0.4,0.6","nogo_d","1",""
"null","","html-keyboard-response","522","608011","0.0-6.0-2.100","","<div style=""font-size:60px;"">+</div>","null","","","","","","",""
"384.2549999244511","","image-keyboard-response","523","608396","0.0-6.0-0.101","","img/green.png","32","trial","32","true","0.6,0.4","go_a","",""
"null","","html-keyboard-response","524","609407","0.0-6.0-1.101","","<img src=""img/green-r.png"" border=""10"">","null","trial","32","","0.6,0.4","go_a","1",""
"null","","html-keyboard-response","525","610422","0.0-6.0-2.101","","<div style=""font-size:60px;"">+</div>","null","","","","","","",""
"355.6399999652058","","image-keyboard-response","526","610778","0.0-6.0-0.102","","img/red.png","32","trial","32","true","0.6,0.4","go_c","",""
"null","","html-keyboard-response","527","611786","0.0-6.0-1.102","","<img src=""img/red-n.png"" border=""10"">","null","trial","32","","0.6,0.4","go_c","0",""
"null","","html-keyboard-response","528","612790","0.0-6.0-2.102","","<div style=""font-size:60px;"">+</div>","null","","","","","","",""
"null","","image-keyboard-response","529","614305","0.0-6.0-0.103","","img/grey.png","null","trial","null","true","0.4,0.6","nogo_b","",""
"null","","html-keyboard-response","530","615321","0.0-6.0-1.103","","<img src=""img/grey-r.png"">","null","trial","null","","0.4,0.6","nogo_b","1",""
"null","","html-keyboard-response","531","616324","0.0-6.0-2.103","","<div style=""font-size:60px;"">+</div>","null","","","","","","",""
"320.9599999245256","","image-keyboard-response","532","616645","0.0-6.0-0.104","","img/red.png","32","trial","32","true","0.6,0.4","go_c","",""
"null","","html-keyboard-response","533","617659","0.0-6.0-1.104","","<img src=""img/red-r.png"" border=""10"">","null","trial","32","","0.6,0.4","go_c","1",""
"null","","html-keyboard-response","534","618663","0.0-6.0-2.104","","<div style=""font-size:60px;"">+</div>","null","","","","","","",""
"null","","image-keyboard-response","535","620175","0.0-6.0-0.105","","img/grey.png","null","trial","null","true","0.4,0.6","nogo_b","",""
"null","","html-keyboard-response","536","621191","0.0-6.0-1.105","","<img src=""img/grey-r.png"">","null","trial","null","","0.4,0.6","nogo_b","1",""
"null","","html-keyboard-response","537","622206","0.0-6.0-2.105","","<div style=""font-size:60px;"">+</div>","null","","","","","","",""
"null","","image-keyboard-response","538","623717","0.0-6.0-0.106","","img/pink.png","null","trial","null","true","0.4,0.6","nogo_d","",""
"null","","html-keyboard-response","539","624718","0.0-6.0-1.106","","<img src=""img/pink-r.png"">","null","trial","null","","0.4,0.6","nogo_d","1",""
"null","","html-keyboard-response","540","625732","0.0-6.0-2.106","","<div style=""font-size:60px;"">+</div>","null","","","","","","",""
"305.80500001087785","","image-keyboard-response","541","626039","0.0-6.0-0.107","","img/green.png","32","trial","32","true","0.6,0.4","go_a","",""
"null","","html-keyboard-response","542","627045","0.0-6.0-1.107","","<img src=""img/green-r.png"" border=""10"">","null","trial","32","","0.6,0.4","go_a","1",""
"null","","html-keyboard-response","543","628056","0.0-6.0-2.107","","<div style=""font-size:60px;"">+</div>","null","","","","","","",""
"null","","image-keyboard-response","544","629570","0.0-6.0-0.108","","img/pink.png","null","trial","null","true","0.4,0.6","nogo_d","",""
"null","","html-keyboard-response","545","630581","0.0-6.0-1.108","","<img src=""img/pink-r.png"">","null","trial","null","","0.4,0.6","nogo_d","1",""
"null","","html-keyboard-response","546","631586","0.0-6.0-2.108","","<div style=""font-size:60px;"">+</div>","null","","","","","","",""
"305.9099998790771","","image-keyboard-response","547","631893","0.0-6.0-0.109","","img/red.png","32","trial","32","true","0.6,0.4","go_c","",""
"null","","html-keyboard-response","548","632905","0.0-6.0-1.109","","<img src=""img/red-n.png"" border=""10"">","null","trial","32","","0.6,0.4","go_c","0",""
"null","","html-keyboard-response","549","633920","0.0-6.0-2.109","","<div style=""font-size:60px;"">+</div>","null","","","","","","",""
"432.255000108853","","image-keyboard-response","550","634353","0.0-6.0-0.110","","img/green.png","32","trial","32","true","0.6,0.4","go_a","",""
"null","","html-keyboard-response","551","635355","0.0-6.0-1.110","","<img src=""img/green-r.png"" border=""10"">","null","trial","32","","0.6,0.4","go_a","1",""
"null","","html-keyboard-response","552","636371","0.0-6.0-2.110","","<div style=""font-size:60px;"">+</div>","null","","","","","","",""
"null","","image-keyboard-response","553","637880","0.0-6.0-0.111","","img/grey.png","null","trial","null","true","0.4,0.6","nogo_b","",""
"null","","html-keyboard-response","554","638897","0.0-6.0-1.111","","<img src=""img/grey-r.png"">","null","trial","null","","0.4,0.6","nogo_b","1",""
"null","","html-keyboard-response","555","639906","0.0-6.0-2.111","","<div style=""font-size:60px;"">+</div>","null","","","","","","",""
"null","","image-keyboard-response","556","641423","0.0-6.0-0.112","","img/pink.png","null","trial","null","true","0.4,0.6","nogo_d","",""
"null","","html-keyboard-response","557","642426","0.0-6.0-1.112","","<img src=""img/pink-r.png"">","null","trial","null","","0.4,0.6","nogo_d","1",""
"null","","html-keyboard-response","558","643435","0.0-6.0-2.112","","<div style=""font-size:60px;"">+</div>","null","","","","","","",""
"null","","image-keyboard-response","559","644942","0.0-6.0-0.113","","img/grey.png","null","trial","null","true","0.4,0.6","nogo_b","",""
"null","","html-keyboard-response","560","645958","0.0-6.0-1.113","","<img src=""img/grey-n.png"">","null","trial","null","","0.4,0.6","nogo_b","0",""
"null","","html-keyboard-response","561","646965","0.0-6.0-2.113","","<div style=""font-size:60px;"">+</div>","null","","","","","","",""
"341.62500011734664","","image-keyboard-response","562","647307","0.0-6.0-0.114","","img/green.png","32","trial","32","true","0.6,0.4","go_a","",""
"null","","html-keyboard-response","563","648312","0.0-6.0-1.114","","<img src=""img/green-r.png"" border=""10"">","null","trial","32","","0.6,0.4","go_a","1",""
"null","","html-keyboard-response","564","649317","0.0-6.0-2.114","","<div style=""font-size:60px;"">+</div>","null","","","","","","",""
"418.51499979384243","","image-keyboard-response","565","649736","0.0-6.0-0.115","","img/red.png","32","trial","32","true","0.6,0.4","go_c","",""
"null","","html-keyboard-response","566","650743","0.0-6.0-1.115","","<img src=""img/red-r.png"" border=""10"">","null","trial","32","","0.6,0.4","go_c","1",""
"null","","html-keyboard-response","567","651746","0.0-6.0-2.115","","<div style=""font-size:60px;"">+</div>","null","","","","","","",""
"319.8450000490993","","image-keyboard-response","568","652067","0.0-6.0-0.116","","img/red.png","32","trial","32","true","0.6,0.4","go_c","",""
"null","","html-keyboard-response","569","653080","0.0-6.0-1.116","","<img src=""img/red-r.png"" border=""10"">","null","trial","32","","0.6,0.4","go_c","1",""
"null","","html-keyboard-response","570","654082","0.0-6.0-2.116","","<div style=""font-size:60px;"">+</div>","null","","","","","","",""
"null","","image-keyboard-response","571","655596","0.0-6.0-0.117","","img/pink.png","null","trial","null","true","0.4,0.6","nogo_d","",""
"null","","html-keyboard-response","572","656607","0.0-6.0-1.117","","<img src=""img/pink-r.png"">","null","trial","null","","0.4,0.6","nogo_d","1",""
"null","","html-keyboard-response","573","657610","0.0-6.0-2.117","","<div style=""font-size:60px;"">+</div>","null","","","","","","",""
"null","","image-keyboard-response","574","659123","0.0-6.0-0.118","","img/grey.png","null","trial","null","true","0.4,0.6","nogo_b","",""
"null","","html-keyboard-response","575","660139","0.0-6.0-1.118","","<img src=""img/grey-n.png"">","null","trial","null","","0.4,0.6","nogo_b","0",""
"null","","html-keyboard-response","576","661153","0.0-6.0-2.118","","<div style=""font-size:60px;"">+</div>","null","","","","","","",""
"324.290000135079","","image-keyboard-response","577","661478","0.0-6.0-0.119","","img/green.png","32","trial","32","true","0.6,0.4","go_a","",""
"null","","html-keyboard-response","578","662483","0.0-6.0-1.119","","<img src=""img/green-r.png"" border=""10"">","null","trial","32","","0.6,0.4","go_a","1",""
"null","","html-keyboard-response","579","663499","0.0-6.0-2.119","","<div style=""font-size:60px;"">+</div>","null","","","","","","",""
"3152.9949998948723","","instructions","580","666652","0.0-7.0","[{""page_index"":0,""viewing_time"":3152.8049998451024}]","","","","","","","","",""
"632.4400000739843","","image-keyboard-response","581","667286","0.0-8.0-0.0","","img/blue.png","32","trial","null","false","0.2,0.8","nogo_b","",""
"null","","html-keyboard-response","582","668297","0.0-8.0-1.0","","<img src=""img/blue-n.png"" border=""10"">","null","trial","null","","0.2,0.8","nogo_b","0",""
"null","","html-keyboard-response","583","669298","0.0-8.0-2.0","","<div style=""font-size:60px;"">+</div>","null","","","","","","",""
"596.140000037849","","image-keyboard-response","584","669895","0.0-8.0-0.1","","img/pink.png","32","trial","null","false","0.2,0.8","nogo_d","",""
"null","","html-keyboard-response","585","670908","0.0-8.0-1.1","","<img src=""img/pink-n.png"" border=""10"">","null","trial","null","","0.2,0.8","nogo_d","0",""
"null","","html-keyboard-response","586","671910","0.0-8.0-2.1","","<div style=""font-size:60px;"">+</div>","null","","","","","","",""
"424.21500012278557","","image-keyboard-response","587","672335","0.0-8.0-0.2","","img/purple.png","32","trial","32","true","0.8,0.2","go_a","",""
"null","","html-keyboard-response","588","673344","0.0-8.0-1.2","","<img src=""img/purple-r.png"" border=""10"">","null","trial","32","","0.8,0.2","go_a","1",""
"null","","html-keyboard-response","589","674360","0.0-8.0-2.2","","<div style=""font-size:60px;"">+</div>","null","","","","","","",""
"367.3900000285357","","image-keyboard-response","590","674728","0.0-8.0-0.3","","img/green.png","32","trial","32","true","0.8,0.2","go_c","",""
"null","","html-keyboard-response","591","675736","0.0-8.0-1.3","","<img src=""img/green-r.png"" border=""10"">","null","trial","32","","0.8,0.2","go_c","1",""
"null","","html-keyboard-response","592","676738","0.0-8.0-2.3","","<div style=""font-size:60px;"">+</div>","null","","","","","","",""
"486.0650000628084","","image-keyboard-response","593","677225","0.0-8.0-0.4","","img/blue.png","32","trial","null","false","0.2,0.8","nogo_b","",""
"null","","html-keyboard-response","594","678229","0.0-8.0-1.4","","<img src=""img/blue-n.png"" border=""10"">","null","trial","null","","0.2,0.8","nogo_b","0",""
"null","","html-keyboard-response","595","679238","0.0-8.0-2.4","","<div style=""font-size:60px;"">+</div>","null","","","","","","",""
"393.2799999602139","","image-keyboard-response","596","679632","0.0-8.0-0.5","","img/purple.png","32","trial","32","true","0.8,0.2","go_a","",""
"null","","html-keyboard-response","597","680646","0.0-8.0-1.5","","<img src=""img/purple-n.png"" border=""10"">","null","trial","32","","0.8,0.2","go_a","0",""
"null","","html-keyboard-response","598","681661","0.0-8.0-2.5","","<div style=""font-size:60px;"">+</div>","null","","","","","","",""
"null","","image-keyboard-response","599","683163","0.0-8.0-0.6","","img/pink.png","null","trial","null","true","0.2,0.8","nogo_d","",""
"null","","html-keyboard-response","600","684180","0.0-8.0-1.6","","<img src=""img/pink-r.png"">","null","trial","null","","0.2,0.8","nogo_d","1",""
"null","","html-keyboard-response","601","685190","0.0-8.0-2.6","","<div style=""font-size:60px;"">+</div>","null","","","","","","",""
"451.3050001114607","","image-keyboard-response","602","685642","0.0-8.0-0.7","","img/green.png","32","trial","32","true","0.8,0.2","go_c","",""
"null","","html-keyboard-response","603","686654","0.0-8.0-1.7","","<img src=""img/green-r.png"" border=""10"">","null","trial","32","","0.8,0.2","go_c","1",""
"null","","html-keyboard-response","604","687663","0.0-8.0-2.7","","<div style=""font-size:60px;"">+</div>","null","","","","","","",""
"null","","image-keyboard-response","605","689167","0.0-8.0-0.8","","img/pink.png","null","trial","null","true","0.2,0.8","nogo_d","",""
"null","","html-keyboard-response","606","690172","0.0-8.0-1.8","","<img src=""img/pink-r.png"">","null","trial","null","","0.2,0.8","nogo_d","1",""
"null","","html-keyboard-response","607","691183","0.0-8.0-2.8","","<div style=""font-size:60px;"">+</div>","null","","","","","","",""
"null","","image-keyboard-response","608","692697","0.0-8.0-0.9","","img/blue.png","null","trial","null","true","0.2,0.8","nogo_b","",""
"null","","html-keyboard-response","609","693700","0.0-8.0-1.9","","<img src=""img/blue-r.png"">","null","trial","null","","0.2,0.8","nogo_b","1",""
"null","","html-keyboard-response","610","694712","0.0-8.0-2.9","","<div style=""font-size:60px;"">+</div>","null","","","","","","",""
"441.8450000230223","","image-keyboard-response","611","695155","0.0-8.0-0.10","","img/purple.png","32","trial","32","true","0.8,0.2","go_a","",""
"null","","html-keyboard-response","612","696158","0.0-8.0-1.10","","<img src=""img/purple-r.png"" border=""10"">","null","trial","32","","0.8,0.2","go_a","1",""
"null","","html-keyboard-response","613","697166","0.0-8.0-2.10","","<div style=""font-size:60px;"">+</div>","null","","","","","","",""
"382.3450000490993","","image-keyboard-response","614","697549","0.0-8.0-0.11","","img/green.png","32","trial","32","true","0.8,0.2","go_c","",""
"null","","html-keyboard-response","615","698560","0.0-8.0-1.11","","<img src=""img/green-r.png"" border=""10"">","null","trial","32","","0.8,0.2","go_c","1",""
"null","","html-keyboard-response","616","699561","0.0-8.0-2.11","","<div style=""font-size:60px;"">+</div>","null","","","","","","",""
"511.58499997109175","","image-keyboard-response","617","700074","0.0-8.0-0.12","","img/green.png","32","trial","32","true","0.8,0.2","go_c","",""
"null","","html-keyboard-response","618","701086","0.0-8.0-1.12","","<img src=""img/green-r.png"" border=""10"">","null","trial","32","","0.8,0.2","go_c","1",""
"null","","html-keyboard-response","619","702093","0.0-8.0-2.12","","<div style=""font-size:60px;"">+</div>","null","","","","","","",""
"422.1699999179691","","image-keyboard-response","620","702516","0.0-8.0-0.13","","img/purple.png","32","trial","32","true","0.8,0.2","go_a","",""
"null","","html-keyboard-response","621","703530","0.0-8.0-1.13","","<img src=""img/purple-r.png"" border=""10"">","null","trial","32","","0.8,0.2","go_a","1",""
"null","","html-keyboard-response","622","704534","0.0-8.0-2.13","","<div style=""font-size:60px;"">+</div>","null","","","","","","",""
"394.64000007137656","","image-keyboard-response","623","704930","0.0-8.0-0.14","","img/pink.png","32","trial","null","false","0.2,0.8","nogo_d","",""
"null","","html-keyboard-response","624","705945","0.0-8.0-1.14","","<img src=""img/pink-n.png"" border=""10"">","null","trial","null","","0.2,0.8","nogo_d","0",""
"null","","html-keyboard-response","625","706960","0.0-8.0-2.14","","<div style=""font-size:60px;"">+</div>","null","","","","","","",""
"null","","image-keyboard-response","626","708461","0.0-8.0-0.15","","img/blue.png","null","trial","null","true","0.2,0.8","nogo_b","",""
"null","","html-keyboard-response","627","709464","0.0-8.0-1.15","","<img src=""img/blue-r.png"">","null","trial","null","","0.2,0.8","nogo_b","1",""
"null","","html-keyboard-response","628","710469","0.0-8.0-2.15","","<div style=""font-size:60px;"">+</div>","null","","","","","","",""
"447.2200002055615","","image-keyboard-response","629","710917","0.0-8.0-0.16","","img/purple.png","32","trial","32","true","0.8,0.2","go_a","",""
"null","","html-keyboard-response","630","711927","0.0-8.0-1.16","","<img src=""img/purple-r.png"" border=""10"">","null","trial","32","","0.8,0.2","go_a","1",""
"null","","html-keyboard-response","631","712931","0.0-8.0-2.16","","<div style=""font-size:60px;"">+</div>","null","","","","","","",""
"null","","image-keyboard-response","632","714437","0.0-8.0-0.17","","img/blue.png","null","trial","null","true","0.2,0.8","nogo_b","",""
"null","","html-keyboard-response","633","715445","0.0-8.0-1.17","","<img src=""img/blue-r.png"">","null","trial","null","","0.2,0.8","nogo_b","1",""
"null","","html-keyboard-response","634","716449","0.0-8.0-2.17","","<div style=""font-size:60px;"">+</div>","null","","","","","","",""
"null","","image-keyboard-response","635","717963","0.0-8.0-0.18","","img/pink.png","null","trial","null","true","0.2,0.8","nogo_d","",""
"null","","html-keyboard-response","636","718975","0.0-8.0-1.18","","<img src=""img/pink-n.png"">","null","trial","null","","0.2,0.8","nogo_d","0",""
"null","","html-keyboard-response","637","719981","0.0-8.0-2.18","","<div style=""font-size:60px;"">+</div>","null","","","","","","",""
"567.174999974668","","image-keyboard-response","638","720549","0.0-8.0-0.19","","img/green.png","32","trial","32","true","0.8,0.2","go_c","",""
"null","","html-keyboard-response","639","721564","0.0-8.0-1.19","","<img src=""img/green-r.png"" border=""10"">","null","trial","32","","0.8,0.2","go_c","1",""
"null","","html-keyboard-response","640","722567","0.0-8.0-2.19","","<div style=""font-size:60px;"">+</div>","null","","","","","","",""
"400.5400000605732","","image-keyboard-response","641","722968","0.0-8.0-0.20","","img/blue.png","32","trial","null","false","0.2,0.8","nogo_b","",""
"null","","html-keyboard-response","642","723971","0.0-8.0-1.20","","<img src=""img/blue-n.png"" border=""10"">","null","trial","null","","0.2,0.8","nogo_b","0",""
"null","","html-keyboard-response","643","724986","0.0-8.0-2.20","","<div style=""font-size:60px;"">+</div>","null","","","","","","",""
"322.0600001513958","","image-keyboard-response","644","725309","0.0-8.0-0.21","","img/purple.png","32","trial","32","true","0.8,0.2","go_a","",""
"null","","html-keyboard-response","645","726315","0.0-8.0-1.21","","<img src=""img/purple-r.png"" border=""10"">","null","trial","32","","0.8,0.2","go_a","1",""
"null","","html-keyboard-response","646","727330","0.0-8.0-2.21","","<div style=""font-size:60px;"">+</div>","null","","","","","","",""
"318.71500005945563","","image-keyboard-response","647","727650","0.0-8.0-0.22","","img/green.png","32","trial","32","true","0.8,0.2","go_c","",""
"null","","html-keyboard-response","648","728652","0.0-8.0-1.22","","<img src=""img/green-r.png"" border=""10"">","null","trial","32","","0.8,0.2","go_c","1",""
"null","","html-keyboard-response","649","729658","0.0-8.0-2.22","","<div style=""font-size:60px;"">+</div>","null","","","","","","",""
"null","","image-keyboard-response","650","731162","0.0-8.0-0.23","","img/pink.png","null","trial","null","true","0.2,0.8","nogo_d","",""
"null","","html-keyboard-response","651","732178","0.0-8.0-1.23","","<img src=""img/pink-r.png"">","null","trial","null","","0.2,0.8","nogo_d","1",""
"null","","html-keyboard-response","652","733193","0.0-8.0-2.23","","<div style=""font-size:60px;"">+</div>","null","","","","","","",""
"511.29499985836446","","image-keyboard-response","653","733705","0.0-8.0-0.24","","img/green.png","32","trial","32","true","0.8,0.2","go_c","",""
"null","","html-keyboard-response","654","734721","0.0-8.0-1.24","","<img src=""img/green-n.png"" border=""10"">","null","trial","32","","0.8,0.2","go_c","0",""
"null","","html-keyboard-response","655","735727","0.0-8.0-2.24","","<div style=""font-size:60px;"">+</div>","null","","","","","","",""
"349.4199998676777","","image-keyboard-response","656","736077","0.0-8.0-0.25","","img/purple.png","32","trial","32","true","0.8,0.2","go_a","",""
"null","","html-keyboard-response","657","737086","0.0-8.0-1.25","","<img src=""img/purple-r.png"" border=""10"">","null","trial","32","","0.8,0.2","go_a","1",""
"null","","html-keyboard-response","658","738098","0.0-8.0-2.25","","<div style=""font-size:60px;"">+</div>","null","","","","","","",""
"null","","image-keyboard-response","659","739611","0.0-8.0-0.26","","img/pink.png","null","trial","null","true","0.2,0.8","nogo_d","",""
"null","","html-keyboard-response","660","740625","0.0-8.0-1.26","","<img src=""img/pink-r.png"">","null","trial","null","","0.2,0.8","nogo_d","1",""
"null","","html-keyboard-response","661","741626","0.0-8.0-2.26","","<div style=""font-size:60px;"">+</div>","null","","","","","","",""
"1192.6899999380112","","image-keyboard-response","662","742820","0.0-8.0-0.27","","img/blue.png","32","trial","null","false","0.2,0.8","nogo_b","",""
"null","","html-keyboard-response","663","743834","0.0-8.0-1.27","","<img src=""img/blue-r.png"" border=""10"">","null","trial","null","","0.2,0.8","nogo_b","1",""
"null","","html-keyboard-response","664","744838","0.0-8.0-2.27","","<div style=""font-size:60px;"">+</div>","null","","","","","","",""
"288.9199999626726","","image-keyboard-response","665","745128","0.0-8.0-0.28","","img/purple.png","32","trial","32","true","0.8,0.2","go_a","",""
"null","","html-keyboard-response","666","746137","0.0-8.0-1.28","","<img src=""img/purple-n.png"" border=""10"">","null","trial","32","","0.8,0.2","go_a","0",""
"null","","html-keyboard-response","667","747141","0.0-8.0-2.28","","<div style=""font-size:60px;"">+</div>","null","","","","","","",""
"307.7750001102686","","image-keyboard-response","668","747449","0.0-8.0-0.29","","img/green.png","32","trial","32","true","0.8,0.2","go_c","",""
"null","","html-keyboard-response","669","748459","0.0-8.0-1.29","","<img src=""img/green-r.png"" border=""10"">","null","trial","32","","0.8,0.2","go_c","1",""
"null","","html-keyboard-response","670","749462","0.0-8.0-2.29","","<div style=""font-size:60px;"">+</div>","null","","","","","","",""
"null","","image-keyboard-response","671","750964","0.0-8.0-0.30","","img/blue.png","null","trial","null","true","0.2,0.8","nogo_b","",""
"null","","html-keyboard-response","672","751967","0.0-8.0-1.30","","<img src=""img/blue-r.png"">","null","trial","null","","0.2,0.8","nogo_b","1",""
"null","","html-keyboard-response","673","752981","0.0-8.0-2.30","","<div style=""font-size:60px;"">+</div>","null","","","","","","",""
"null","","image-keyboard-response","674","754495","0.0-8.0-0.31","","img/pink.png","null","trial","null","true","0.2,0.8","nogo_d","",""
"null","","html-keyboard-response","675","755509","0.0-8.0-1.31","","<img src=""img/pink-r.png"">","null","trial","null","","0.2,0.8","nogo_d","1",""
"null","","html-keyboard-response","676","756524","0.0-8.0-2.31","","<div style=""font-size:60px;"">+</div>","null","","","","","","",""
"1025.9849999565631","","image-keyboard-response","677","757551","0.0-8.0-0.32","","img/blue.png","32","trial","null","false","0.2,0.8","nogo_b","",""
"null","","html-keyboard-response","678","758552","0.0-8.0-1.32","","<img src=""img/blue-n.png"" border=""10"">","null","trial","null","","0.2,0.8","nogo_b","0",""
"null","","html-keyboard-response","679","759566","0.0-8.0-2.32","","<div style=""font-size:60px;"">+</div>","null","","","","","","",""
"297.1499999985099","","image-keyboard-response","680","759864","0.0-8.0-0.33","","img/purple.png","32","trial","32","true","0.8,0.2","go_a","",""
"null","","html-keyboard-response","681","760872","0.0-8.0-1.33","","<img src=""img/purple-r.png"" border=""10"">","null","trial","32","","0.8,0.2","go_a","1",""
"null","","html-keyboard-response","682","761888","0.0-8.0-2.33","","<div style=""font-size:60px;"">+</div>","null","","","","","","",""
"391.74499991349876","","image-keyboard-response","683","762281","0.0-8.0-0.34","","img/green.png","32","trial","32","true","0.8,0.2","go_c","",""
"null","","html-keyboard-response","684","763288","0.0-8.0-1.34","","<img src=""img/green-r.png"" border=""10"">","null","trial","32","","0.8,0.2","go_c","1",""
"null","","html-keyboard-response","685","764297","0.0-8.0-2.34","","<div style=""font-size:60px;"">+</div>","null","","","","","","",""
"null","","image-keyboard-response","686","765811","0.0-8.0-0.35","","img/pink.png","null","trial","null","true","0.2,0.8","nogo_d","",""
