"rt","url","trial_type","trial_index","time_elapsed","internal_node_id","view_history","stimulus","key_press","test_part","correct_response","correct","use_rew","which_stim","reward","responses"
"293506.0100000119","consent.html","external-html","0","293598","0.0-0.0","","","","","","","","","",""
"63280.6649999693","","instructions","1","356880","0.0-1.0","[{""page_index"":0,""viewing_time"":2980.214999988675},{""page_index"":1,""viewing_time"":19950.714999984484},{""page_index"":2,""viewing_time"":3469.425000017509},{""page_index"":3,""viewing_time"":18610.094999952707},{""page_index"":4,""viewing_time"":5173.280000046361},{""page_index"":5,""viewing_time"":6137.234999972861},{""page_index"":6,""viewing_time"":6959.130000032019}]","","","","","","","","",""
"null","","image-keyboard-response","2","358383","0.0-2.0-0.0","","img/test2.PNG","null","practice","null","true","","","",""
"null","","html-keyboard-response","3","359386","0.0-2.0-1.0","","<img src=""img/test2-reward.PNG"">","null","","","","","","",""
"null","","html-keyboard-response","4","360388","0.0-2.0-2.0","","<div style=""font-size:60px;"">+</div>","null","","","","","","",""
"null","","image-keyboard-response","5","361890","0.0-2.0-0.1","","img/test3.PNG","null","practice","null","true","","","",""
"null","","html-keyboard-response","6","362892","0.0-2.0-1.1","","<img src=""img/test3-reward.PNG"">","null","","","","","","",""
"null","","html-keyboard-response","7","363894","0.0-2.0-2.1","","<div style=""font-size:60px;"">+</div>","null","","","","","","",""
"668.0749999941327","","image-keyboard-response","8","364564","0.0-2.0-0.2","","img/test1.PNG","32","practice","32","true","","","",""
"null","","html-keyboard-response","9","365565","0.0-2.0-1.2","","<img src=""img/test1-reward.PNG"" border=""10px; grey"">","null","","","","","","",""
"null","","html-keyboard-response","10","366566","0.0-2.0-2.2","","<div style=""font-size:60px;"">+</div>","null","","","","","","",""
"null","","image-keyboard-response","11","368068","0.0-2.0-0.3","","img/test2.PNG","null","practice","null","true","","","",""
"null","","html-keyboard-response","12","369071","0.0-2.0-1.3","","<img src=""img/test2-reward.PNG"">","null","","","","","","",""
"null","","html-keyboard-response","13","370072","0.0-2.0-2.3","","<div style=""font-size:60px;"">+</div>","null","","","","","","",""
"425.905000010971","","image-keyboard-response","14","370499","0.0-2.0-0.4","","img/test1.PNG","32","practice","32","true","","","",""
"null","","html-keyboard-response","15","371501","0.0-2.0-1.4","","<img src=""img/test1-reward.PNG"" border=""10px; grey"">","null","","","","","","",""
"null","","html-keyboard-response","16","372503","0.0-2.0-2.4","","<div style=""font-size:60px;"">+</div>","null","","","","","","",""
"null","","image-keyboard-response","17","374005","0.0-2.0-0.5","","img/test3.PNG","null","practice","null","true","","","",""
"null","","html-keyboard-response","18","375007","0.0-2.0-1.5","","<img src=""img/test3-reward.PNG"">","null","","","","","","",""
"null","","html-keyboard-response","19","376009","0.0-2.0-2.5","","<div style=""font-size:60px;"">+</div>","null","","","","","","",""
"369.16499998187646","","image-keyboard-response","20","376379","0.0-2.0-0.6","","img/test1.PNG","32","practice","32","true","","","",""
"null","","html-keyboard-response","21","377382","0.0-2.0-1.6","","<img src=""img/test1-reward.PNG"" border=""10px; grey"">","null","","","","","","",""
"null","","html-keyboard-response","22","378384","0.0-2.0-2.6","","<div style=""font-size:60px;"">+</div>","null","","","","","","",""
"null","","image-keyboard-response","23","379885","0.0-2.0-0.7","","img/test3.PNG","null","practice","null","true","","","",""
"null","","html-keyboard-response","24","380887","0.0-2.0-1.7","","<img src=""img/test3-reward.PNG"">","null","","","","","","",""
"null","","html-keyboard-response","25","381888","0.0-2.0-2.7","","<div style=""font-size:60px;"">+</div>","null","","","","","","",""
"null","","image-keyboard-response","26","383390","0.0-2.0-0.8","","img/test2.PNG","null","practice","null","true","","","",""
"null","","html-keyboard-response","27","384392","0.0-2.0-1.8","","<img src=""img/test2-reward.PNG"">","null","","","","","","",""
"null","","html-keyboard-response","28","385392","0.0-2.0-2.8","","<div style=""font-size:60px;"">+</div>","null","","","","","","",""
"649.840000027325","","image-keyboard-response","29","386044","0.0-2.0-0.9","","img/test1.PNG","32","practice","32","true","","","",""
"null","","html-keyboard-response","30","387046","0.0-2.0-1.9","","<img src=""img/test1-reward.PNG"" border=""10px; grey"">","null","","","","","","",""
"null","","html-keyboard-response","31","388047","0.0-2.0-2.9","","<div style=""font-size:60px;"">+</div>","null","","","","","","",""
"null","","image-keyboard-response","32","389549","0.0-2.0-0.10","","img/test2.PNG","null","practice","null","true","","","",""
"null","","html-keyboard-response","33","390550","0.0-2.0-1.10","","<img src=""img/test2-reward.PNG"">","null","","","","","","",""
"null","","html-keyboard-response","34","391552","0.0-2.0-2.10","","<div style=""font-size:60px;"">+</div>","null","","","","","","",""
"null","","image-keyboard-response","35","393055","0.0-2.0-0.11","","img/test3.PNG","null","practice","null","true","","","",""
"null","","html-keyboard-response","36","394058","0.0-2.0-1.11","","<img src=""img/test3-reward.PNG"">","null","","","","","","",""
"null","","html-keyboard-response","37","395059","0.0-2.0-2.11","","<div style=""font-size:60px;"">+</div>","null","","","","","","",""
"83491.68999999529","","instructions","38","478552","0.0-3.0","[{""page_index"":0,""viewing_time"":83491.54499999713}]","","","","","","","","",""
"1106.5250000101514","","image-keyboard-response","39","479660","0.0-4.0-0.0","","img/grey.png","32","trial","null","false","0.2,0.8","2:nogo_b","",""
"null","","html-keyboard-response","40","480664","0.0-4.0-1.0","","<img src=""img/grey-n.png"" border=""10"">","null","trial","null","","0.2,0.8","2:nogo_b","0",""
"null","","html-keyboard-response","41","481665","0.0-4.0-2.0","","<div style=""font-size:60px;"">+</div>","null","","","","","","",""
"402.00000000186265","","image-keyboard-response","42","482068","0.0-4.0-0.1","","img/orange.png","32","trial","32","true","0.8,0.2","1:go_a","",""
"null","","html-keyboard-response","43","483070","0.0-4.0-1.1","","<img src=""img/orange-r.png"" border=""10"">","null","trial","32","","0.8,0.2","1:go_a","1",""
"null","","html-keyboard-response","44","484072","0.0-4.0-2.1","","<div style=""font-size:60px;"">+</div>","null","","","","","","",""
"null","","image-keyboard-response","45","485574","0.0-4.0-0.2","","img/grey.png","null","trial","null","true","0.2,0.8","2:nogo_b","",""
"null","","html-keyboard-response","46","486590","0.0-4.0-1.2","","<img src=""img/grey-r.png"">","null","trial","null","","0.2,0.8","2:nogo_b","1",""
"null","","html-keyboard-response","47","487592","0.0-4.0-2.2","","<div style=""font-size:60px;"">+</div>","null","","","","","","",""
"386.995000008028","","image-keyboard-response","48","487980","0.0-4.0-0.3","","img/orange.png","32","trial","32","true","0.8,0.2","1:go_a","",""
"null","","html-keyboard-response","49","488983","0.0-4.0-1.3","","<img src=""img/orange-r.png"" border=""10"">","null","trial","32","","0.8,0.2","1:go_a","1",""
"null","","html-keyboard-response","50","489985","0.0-4.0-2.3","","<div style=""font-size:60px;"">+</div>","null","","","","","","",""
"null","","image-keyboard-response","51","491487","0.0-4.0-0.4","","img/grey.png","null","trial","null","true","0.2,0.8","2:nogo_b","",""
"null","","html-keyboard-response","52","492489","0.0-4.0-1.4","","<img src=""img/grey-n.png"">","null","trial","null","","0.2,0.8","2:nogo_b","0",""
"null","","html-keyboard-response","53","493491","0.0-4.0-2.4","","<div style=""font-size:60px;"">+</div>","null","","","","","","",""
"368.7999999965541","","image-keyboard-response","54","493861","0.0-4.0-0.5","","img/orange.png","32","trial","32","true","0.8,0.2","1:go_a","",""
"null","","html-keyboard-response","55","494863","0.0-4.0-1.5","","<img src=""img/orange-r.png"" border=""10"">","null","trial","32","","0.8,0.2","1:go_a","1",""
"null","","html-keyboard-response","56","495866","0.0-4.0-2.5","","<div style=""font-size:60px;"">+</div>","null","","","","","","",""
"601.3549999915995","","image-keyboard-response","57","496468","0.0-4.0-0.6","","img/orange.png","32","trial","32","true","0.8,0.2","1:go_a","",""
"null","","html-keyboard-response","58","497474","0.0-4.0-1.6","","<img src=""img/orange-n.png"" border=""10"">","null","trial","32","","0.8,0.2","1:go_a","0",""
"null","","html-keyboard-response","59","498476","0.0-4.0-2.6","","<div style=""font-size:60px;"">+</div>","null","","","","","","",""
"null","","image-keyboard-response","60","499978","0.0-4.0-0.7","","img/grey.png","null","trial","null","true","0.2,0.8","2:nogo_b","",""
"null","","html-keyboard-response","61","500981","0.0-4.0-1.7","","<img src=""img/grey-n.png"">","null","trial","null","","0.2,0.8","2:nogo_b","0",""
"null","","html-keyboard-response","62","501982","0.0-4.0-2.7","","<div style=""font-size:60px;"">+</div>","null","","","","","","",""
"357.90999996243045","","image-keyboard-response","63","502341","0.0-4.0-0.8","","img/orange.png","32","trial","32","true","0.8,0.2","1:go_a","",""
"null","","html-keyboard-response","64","503344","0.0-4.0-1.8","","<img src=""img/orange-r.png"" border=""10"">","null","trial","32","","0.8,0.2","1:go_a","1",""
"null","","html-keyboard-response","65","504345","0.0-4.0-2.8","","<div style=""font-size:60px;"">+</div>","null","","","","","","",""
"null","","image-keyboard-response","66","505847","0.0-4.0-0.9","","img/grey.png","null","trial","null","true","0.2,0.8","2:nogo_b","",""
"null","","html-keyboard-response","67","506850","0.0-4.0-1.9","","<img src=""img/grey-r.png"">","null","trial","null","","0.2,0.8","2:nogo_b","1",""
"null","","html-keyboard-response","68","507851","0.0-4.0-2.9","","<div style=""font-size:60px;"">+</div>","null","","","","","","",""
"null","","image-keyboard-response","69","509354","0.0-4.0-0.10","","img/grey.png","null","trial","null","true","0.2,0.8","2:nogo_b","",""
"null","","html-keyboard-response","70","510359","0.0-4.0-1.10","","<img src=""img/grey-n.png"">","null","trial","null","","0.2,0.8","2:nogo_b","0",""
"null","","html-keyboard-response","71","511360","0.0-4.0-2.10","","<div style=""font-size:60px;"">+</div>","null","","","","","","",""
"563.3699999889359","","image-keyboard-response","72","511925","0.0-4.0-0.11","","img/orange.png","32","trial","32","true","0.8,0.2","1:go_a","",""
"null","","html-keyboard-response","73","512927","0.0-4.0-1.11","","<img src=""img/orange-r.png"" border=""10"">","null","trial","32","","0.8,0.2","1:go_a","1",""
"null","","html-keyboard-response","74","513930","0.0-4.0-2.11","","<div style=""font-size:60px;"">+</div>","null","","","","","","",""
"null","","image-keyboard-response","75","515432","0.0-4.0-0.12","","img/grey.png","null","trial","null","true","0.2,0.8","2:nogo_b","",""
"null","","html-keyboard-response","76","516434","0.0-4.0-1.12","","<img src=""img/grey-n.png"">","null","trial","null","","0.2,0.8","2:nogo_b","0",""
"null","","html-keyboard-response","77","517435","0.0-4.0-2.12","","<div style=""font-size:60px;"">+</div>","null","","","","","","",""
"496.73000001348555","","image-keyboard-response","78","517932","0.0-4.0-0.13","","img/orange.png","32","trial","32","true","0.8,0.2","1:go_a","",""
"null","","html-keyboard-response","79","518936","0.0-4.0-1.13","","<img src=""img/orange-r.png"" border=""10"">","null","trial","32","","0.8,0.2","1:go_a","1",""
"null","","html-keyboard-response","80","519937","0.0-4.0-2.13","","<div style=""font-size:60px;"">+</div>","null","","","","","","",""
"null","","image-keyboard-response","81","521439","0.0-4.0-0.14","","img/orange.png","null","trial","32","false","0.8,0.2","1:go_a","",""
"null","","html-keyboard-response","82","522442","0.0-4.0-1.14","","<img src=""img/orange-n.png"">","null","trial","32","","0.8,0.2","1:go_a","0",""
"null","","html-keyboard-response","83","523442","0.0-4.0-2.14","","<div style=""font-size:60px;"">+</div>","null","","","","","","",""
"null","","image-keyboard-response","84","524949","0.0-4.0-0.15","","img/grey.png","null","trial","null","true","0.2,0.8","2:nogo_b","",""
"null","","html-keyboard-response","85","525952","0.0-4.0-1.15","","<img src=""img/grey-r.png"">","null","trial","null","","0.2,0.8","2:nogo_b","1",""
"null","","html-keyboard-response","86","526954","0.0-4.0-2.15","","<div style=""font-size:60px;"">+</div>","null","","","","","","",""
"null","","image-keyboard-response","87","528456","0.0-4.0-0.16","","img/grey.png","null","trial","null","true","0.2,0.8","2:nogo_b","",""
"null","","html-keyboard-response","88","529458","0.0-4.0-1.16","","<img src=""img/grey-r.png"">","null","trial","null","","0.2,0.8","2:nogo_b","1",""
"null","","html-keyboard-response","89","530459","0.0-4.0-2.16","","<div style=""font-size:60px;"">+</div>","null","","","","","","",""
"383.7599999969825","","image-keyboard-response","90","530844","0.0-4.0-0.17","","img/orange.png","32","trial","32","true","0.8,0.2","1:go_a","",""
"null","","html-keyboard-response","91","531847","0.0-4.0-1.17","","<img src=""img/orange-r.png"" border=""10"">","null","trial","32","","0.8,0.2","1:go_a","1",""
"null","","html-keyboard-response","92","532849","0.0-4.0-2.17","","<div style=""font-size:60px;"">+</div>","null","","","","","","",""
"594.0750000299886","","image-keyboard-response","93","533444","0.0-4.0-0.18","","img/orange.png","32","trial","32","true","0.8,0.2","1:go_a","",""
"null","","html-keyboard-response","94","534447","0.0-4.0-1.18","","<img src=""img/orange-n.png"" border=""10"">","null","trial","32","","0.8,0.2","1:go_a","0",""
"null","","html-keyboard-response","95","535448","0.0-4.0-2.18","","<div style=""font-size:60px;"">+</div>","null","","","","","","",""
"null","","image-keyboard-response","96","536949","0.0-4.0-0.19","","img/grey.png","null","trial","null","true","0.2,0.8","2:nogo_b","",""
"null","","html-keyboard-response","97","537951","0.0-4.0-1.19","","<img src=""img/grey-r.png"">","null","trial","null","","0.2,0.8","2:nogo_b","1",""
"null","","html-keyboard-response","98","538953","0.0-4.0-2.19","","<div style=""font-size:60px;"">+</div>","null","","","","","","",""
"402.4349999963306","","image-keyboard-response","99","539356","0.0-4.0-0.20","","img/orange.png","32","trial","32","true","0.8,0.2","1:go_a","",""
"null","","html-keyboard-response","100","540359","0.0-4.0-1.20","","<img src=""img/orange-r.png"" border=""10"">","null","trial","32","","0.8,0.2","1:go_a","1",""
"null","","html-keyboard-response","101","541360","0.0-4.0-2.20","","<div style=""font-size:60px;"">+</div>","null","","","","","","",""
"null","","image-keyboard-response","102","542862","0.0-4.0-0.21","","img/grey.png","null","trial","null","true","0.2,0.8","2:nogo_b","",""
"null","","html-keyboard-response","103","543864","0.0-4.0-1.21","","<img src=""img/grey-r.png"">","null","trial","null","","0.2,0.8","2:nogo_b","1",""
"null","","html-keyboard-response","104","544865","0.0-4.0-2.21","","<div style=""font-size:60px;"">+</div>","null","","","","","","",""
"null","","image-keyboard-response","105","546368","0.0-4.0-0.22","","img/grey.png","null","trial","null","true","0.2,0.8","2:nogo_b","",""
"null","","html-keyboard-response","106","547370","0.0-4.0-1.22","","<img src=""img/grey-n.png"">","null","trial","null","","0.2,0.8","2:nogo_b","0",""
"null","","html-keyboard-response","107","548371","0.0-4.0-2.22","","<div style=""font-size:60px;"">+</div>","null","","","","","","",""
"344.5300000021234","","image-keyboard-response","108","548716","0.0-4.0-0.23","","img/orange.png","32","trial","32","true","0.8,0.2","1:go_a","",""
"null","","html-keyboard-response","109","549719","0.0-4.0-1.23","","<img src=""img/orange-r.png"" border=""10"">","null","trial","32","","0.8,0.2","1:go_a","1",""
"null","","html-keyboard-response","110","550732","0.0-4.0-2.23","","<div style=""font-size:60px;"">+</div>","null","","","","","","",""
"542.9299999959767","","image-keyboard-response","111","551276","0.0-4.0-0.24","","img/orange.png","32","trial","32","true","0.8,0.2","1:go_a","",""
"null","","html-keyboard-response","112","552279","0.0-4.0-1.24","","<img src=""img/orange-r.png"" border=""10"">","null","trial","32","","0.8,0.2","1:go_a","1",""
"null","","html-keyboard-response","113","553281","0.0-4.0-2.24","","<div style=""font-size:60px;"">+</div>","null","","","","","","",""
"null","","image-keyboard-response","114","554783","0.0-4.0-0.25","","img/grey.png","null","trial","null","true","0.2,0.8","2:nogo_b","",""
"null","","html-keyboard-response","115","555785","0.0-4.0-1.25","","<img src=""img/grey-r.png"">","null","trial","null","","0.2,0.8","2:nogo_b","1",""
"null","","html-keyboard-response","116","556787","0.0-4.0-2.25","","<div style=""font-size:60px;"">+</div>","null","","","","","","",""
"392.24999997531995","","image-keyboard-response","117","557180","0.0-4.0-0.26","","img/orange.png","32","trial","32","true","0.8,0.2","1:go_a","",""
"null","","html-keyboard-response","118","558191","0.0-4.0-1.26","","<img src=""img/orange-r.png"" border=""10"">","null","trial","32","","0.8,0.2","1:go_a","1",""
"null","","html-keyboard-response","119","559193","0.0-4.0-2.26","","<div style=""font-size:60px;"">+</div>","null","","","","","","",""
"null","","image-keyboard-response","120","560694","0.0-4.0-0.27","","img/grey.png","null","trial","null","true","0.2,0.8","2:nogo_b","",""
"null","","html-keyboard-response","121","561697","0.0-4.0-1.27","","<img src=""img/grey-r.png"">","null","trial","null","","0.2,0.8","2:nogo_b","1",""
"null","","html-keyboard-response","122","562699","0.0-4.0-2.27","","<div style=""font-size:60px;"">+</div>","null","","","","","","",""
"null","","image-keyboard-response","123","564201","0.0-4.0-0.28","","img/grey.png","null","trial","null","true","0.2,0.8","2:nogo_b","",""
"null","","html-keyboard-response","124","565203","0.0-4.0-1.28","","<img src=""img/grey-r.png"">","null","trial","null","","0.2,0.8","2:nogo_b","1",""
"null","","html-keyboard-response","125","566204","0.0-4.0-2.28","","<div style=""font-size:60px;"">+</div>","null","","","","","","",""
"535.1050000172108","","image-keyboard-response","126","566740","0.0-4.0-0.29","","img/orange.png","32","trial","32","true","0.8,0.2","1:go_a","",""
"null","","html-keyboard-response","127","567743","0.0-4.0-1.29","","<img src=""img/orange-n.png"" border=""10"">","null","trial","32","","0.8,0.2","1:go_a","0",""
"null","","html-keyboard-response","128","568745","0.0-4.0-2.29","","<div style=""font-size:60px;"">+</div>","null","","","","","","",""
"null","","image-keyboard-response","129","570246","0.0-4.0-0.30","","img/grey.png","null","trial","null","true","0.2,0.8","2:nogo_b","",""
"null","","html-keyboard-response","130","571248","0.0-4.0-1.30","","<img src=""img/grey-r.png"">","null","trial","null","","0.2,0.8","2:nogo_b","1",""
"null","","html-keyboard-response","131","572250","0.0-4.0-2.30","","<div style=""font-size:60px;"">+</div>","null","","","","","","",""
"737.2550000436604","","image-keyboard-response","132","572988","0.0-4.0-0.31","","img/orange.png","32","trial","32","true","0.8,0.2","1:go_a","",""
"null","","html-keyboard-response","133","573991","0.0-4.0-1.31","","<img src=""img/orange-r.png"" border=""10"">","null","trial","32","","0.8,0.2","1:go_a","1",""
"null","","html-keyboard-response","134","574993","0.0-4.0-2.31","","<div style=""font-size:60px;"">+</div>","null","","","","","","",""
"null","","image-keyboard-response","135","576496","0.0-4.0-0.32","","img/grey.png","null","trial","null","true","0.2,0.8","2:nogo_b","",""
"null","","html-keyboard-response","136","577499","0.0-4.0-1.32","","<img src=""img/grey-r.png"">","null","trial","null","","0.2,0.8","2:nogo_b","1",""
"null","","html-keyboard-response","137","578501","0.0-4.0-2.32","","<div style=""font-size:60px;"">+</div>","null","","","","","","",""
"406.7500000237487","","image-keyboard-response","138","578909","0.0-4.0-0.33","","img/orange.png","32","trial","32","true","0.8,0.2","1:go_a","",""
"null","","html-keyboard-response","139","579911","0.0-4.0-1.33","","<img src=""img/orange-r.png"" border=""10"">","null","trial","32","","0.8,0.2","1:go_a","1",""
"null","","html-keyboard-response","140","580912","0.0-4.0-2.33","","<div style=""font-size:60px;"">+</div>","null","","","","","","",""
"546.9549999688752","","image-keyboard-response","141","581460","0.0-4.0-0.34","","img/orange.png","32","trial","32","true","0.8,0.2","1:go_a","",""
"null","","html-keyboard-response","142","582462","0.0-4.0-1.34","","<img src=""img/orange-r.png"" border=""10"">","null","trial","32","","0.8,0.2","1:go_a","1",""
"null","","html-keyboard-response","143","583464","0.0-4.0-2.34","","<div style=""font-size:60px;"">+</div>","null","","","","","","",""
"null","","image-keyboard-response","144","584966","0.0-4.0-0.35","","img/grey.png","null","trial","null","true","0.2,0.8","2:nogo_b","",""
"null","","html-keyboard-response","145","585969","0.0-4.0-1.35","","<img src=""img/grey-n.png"">","null","trial","null","","0.2,0.8","2:nogo_b","0",""
"null","","html-keyboard-response","146","586971","0.0-4.0-2.35","","<div style=""font-size:60px;"">+</div>","null","","","","","","",""
"792.5849999883212","","image-keyboard-response","147","587764","0.0-4.0-0.36","","img/orange.png","32","trial","32","true","0.8,0.2","1:go_a","",""
"null","","html-keyboard-response","148","588766","0.0-4.0-1.36","","<img src=""img/orange-n.png"" border=""10"">","null","trial","32","","0.8,0.2","1:go_a","0",""
"null","","html-keyboard-response","149","589768","0.0-4.0-2.36","","<div style=""font-size:60px;"">+</div>","null","","","","","","",""
"null","","image-keyboard-response","150","591270","0.0-4.0-0.37","","img/grey.png","null","trial","null","true","0.2,0.8","2:nogo_b","",""
"null","","html-keyboard-response","151","592273","0.0-4.0-1.37","","<img src=""img/grey-r.png"">","null","trial","null","","0.2,0.8","2:nogo_b","1",""
"null","","html-keyboard-response","152","593275","0.0-4.0-2.37","","<div style=""font-size:60px;"">+</div>","null","","","","","","",""
"368.929999996908","","image-keyboard-response","153","593645","0.0-4.0-0.38","","img/orange.png","32","trial","32","true","0.8,0.2","1:go_a","",""
"null","","html-keyboard-response","154","594647","0.0-4.0-1.38","","<img src=""img/orange-r.png"" border=""10"">","null","trial","32","","0.8,0.2","1:go_a","1",""
"null","","html-keyboard-response","155","595650","0.0-4.0-2.38","","<div style=""font-size:60px;"">+</div>","null","","","","","","",""
"null","","image-keyboard-response","156","597152","0.0-4.0-0.39","","img/grey.png","null","trial","null","true","0.2,0.8","2:nogo_b","",""
"null","","html-keyboard-response","157","598155","0.0-4.0-1.39","","<img src=""img/grey-r.png"">","null","trial","null","","0.2,0.8","2:nogo_b","1",""
"null","","html-keyboard-response","158","599157","0.0-4.0-2.39","","<div style=""font-size:60px;"">+</div>","null","","","","","","",""
"null","","image-keyboard-response","159","600659","0.0-4.0-0.40","","img/grey.png","null","trial","null","true","0.2,0.8","2:nogo_b","",""
"null","","html-keyboard-response","160","601661","0.0-4.0-1.40","","<img src=""img/grey-r.png"">","null","trial","null","","0.2,0.8","2:nogo_b","1",""
"null","","html-keyboard-response","161","602674","0.0-4.0-2.40","","<div style=""font-size:60px;"">+</div>","null","","","","","","",""
"480.66499998094514","","image-keyboard-response","162","603156","0.0-4.0-0.41","","img/orange.png","32","trial","32","true","0.8,0.2","1:go_a","",""
"null","","html-keyboard-response","163","604158","0.0-4.0-1.41","","<img src=""img/orange-r.png"" border=""10"">","null","trial","32","","0.8,0.2","1:go_a","1",""
"null","","html-keyboard-response","164","605159","0.0-4.0-2.41","","<div style=""font-size:60px;"">+</div>","null","","","","","","",""
"644.510000012815","","image-keyboard-response","165","605805","0.0-4.0-0.42","","img/orange.png","32","trial","32","true","0.8,0.2","1:go_a","",""
"null","","html-keyboard-response","166","606808","0.0-4.0-1.42","","<img src=""img/orange-r.png"" border=""10"">","null","trial","32","","0.8,0.2","1:go_a","1",""
"null","","html-keyboard-response","167","607809","0.0-4.0-2.42","","<div style=""font-size:60px;"">+</div>","null","","","","","","",""
"null","","image-keyboard-response","168","609311","0.0-4.0-0.43","","img/grey.png","null","trial","null","true","0.2,0.8","2:nogo_b","",""
"null","","html-keyboard-response","169","610314","0.0-4.0-1.43","","<img src=""img/grey-r.png"">","null","trial","null","","0.2,0.8","2:nogo_b","1",""
"null","","html-keyboard-response","170","611316","0.0-4.0-2.43","","<div style=""font-size:60px;"">+</div>","null","","","","","","",""
"567.6499999826774","","image-keyboard-response","171","611884","0.0-4.0-0.44","","img/orange.png","32","trial","32","true","0.8,0.2","1:go_a","",""
"null","","html-keyboard-response","172","612887","0.0-4.0-1.44","","<img src=""img/orange-r.png"" border=""10"">","null","trial","32","","0.8,0.2","1:go_a","1",""
"null","","html-keyboard-response","173","613889","0.0-4.0-2.44","","<div style=""font-size:60px;"">+</div>","null","","","","","","",""
"null","","image-keyboard-response","174","615391","0.0-4.0-0.45","","img/grey.png","null","trial","null","true","0.2,0.8","2:nogo_b","",""
"null","","html-keyboard-response","175","616394","0.0-4.0-1.45","","<img src=""img/grey-r.png"">","null","trial","null","","0.2,0.8","2:nogo_b","1",""
"null","","html-keyboard-response","176","617395","0.0-4.0-2.45","","<div style=""font-size:60px;"">+</div>","null","","","","","","",""
"336.1550000263378","","image-keyboard-response","177","617732","0.0-4.0-0.46","","img/orange.png","32","trial","32","true","0.8,0.2","1:go_a","",""
"null","","html-keyboard-response","178","618734","0.0-4.0-1.46","","<img src=""img/orange-r.png"" border=""10"">","null","trial","32","","0.8,0.2","1:go_a","1",""
"null","","html-keyboard-response","179","619736","0.0-4.0-2.46","","<div style=""font-size:60px;"">+</div>","null","","","","","","",""
"null","","image-keyboard-response","180","621238","0.0-4.0-0.47","","img/grey.png","null","trial","null","true","0.2,0.8","2:nogo_b","",""
"null","","html-keyboard-response","181","622247","0.0-4.0-1.47","","<img src=""img/grey-r.png"">","null","trial","null","","0.2,0.8","2:nogo_b","1",""
"null","","html-keyboard-response","182","623248","0.0-4.0-2.47","","<div style=""font-size:60px;"">+</div>","null","","","","","","",""
"null","","image-keyboard-response","183","624750","0.0-4.0-0.48","","img/grey.png","null","trial","null","true","0.2,0.8","2:nogo_b","",""
"null","","html-keyboard-response","184","625752","0.0-4.0-1.48","","<img src=""img/grey-n.png"">","null","trial","null","","0.2,0.8","2:nogo_b","0",""
"null","","html-keyboard-response","185","626753","0.0-4.0-2.48","","<div style=""font-size:60px;"">+</div>","null","","","","","","",""
"425.53499998757616","","image-keyboard-response","186","627181","0.0-4.0-0.49","","img/orange.png","32","trial","32","true","0.8,0.2","1:go_a","",""
"null","","html-keyboard-response","187","628183","0.0-4.0-1.49","","<img src=""img/orange-r.png"" border=""10"">","null","trial","32","","0.8,0.2","1:go_a","1",""
"null","","html-keyboard-response","188","629185","0.0-4.0-2.49","","<div style=""font-size:60px;"">+</div>","null","","","","","","",""
"706.7449999740347","","image-keyboard-response","189","629892","0.0-4.0-0.50","","img/orange.png","32","trial","32","true","0.8,0.2","1:go_a","",""
"null","","html-keyboard-response","190","630895","0.0-4.0-1.50","","<img src=""img/orange-r.png"" border=""10"">","null","trial","32","","0.8,0.2","1:go_a","1",""
"null","","html-keyboard-response","191","631897","0.0-4.0-2.50","","<div style=""font-size:60px;"">+</div>","null","","","","","","",""
"null","","image-keyboard-response","192","633399","0.0-4.0-0.51","","img/grey.png","null","trial","null","true","0.2,0.8","2:nogo_b","",""
"null","","html-keyboard-response","193","634402","0.0-4.0-1.51","","<img src=""img/grey-r.png"">","null","trial","null","","0.2,0.8","2:nogo_b","1",""
"null","","html-keyboard-response","194","635404","0.0-4.0-2.51","","<div style=""font-size:60px;"">+</div>","null","","","","","","",""
"null","","image-keyboard-response","195","636906","0.0-4.0-0.52","","img/grey.png","null","trial","null","true","0.2,0.8","2:nogo_b","",""
"null","","html-keyboard-response","196","637908","0.0-4.0-1.52","","<img src=""img/grey-r.png"">","null","trial","null","","0.2,0.8","2:nogo_b","1",""
"null","","html-keyboard-response","197","638909","0.0-4.0-2.52","","<div style=""font-size:60px;"">+</div>","null","","","","","","",""
"599.0650000167079","","image-keyboard-response","198","639509","0.0-4.0-0.53","","img/orange.png","32","trial","32","true","0.8,0.2","1:go_a","",""
"null","","html-keyboard-response","199","640511","0.0-4.0-1.53","","<img src=""img/orange-r.png"" border=""10"">","null","trial","32","","0.8,0.2","1:go_a","1",""
"null","","html-keyboard-response","200","641512","0.0-4.0-2.53","","<div style=""font-size:60px;"">+</div>","null","","","","","","",""
"null","","image-keyboard-response","201","643014","0.0-4.0-0.54","","img/grey.png","null","trial","null","true","0.2,0.8","2:nogo_b","",""
"null","","html-keyboard-response","202","644016","0.0-4.0-1.54","","<img src=""img/grey-r.png"">","null","trial","null","","0.2,0.8","2:nogo_b","1",""
"null","","html-keyboard-response","203","645018","0.0-4.0-2.54","","<div style=""font-size:60px;"">+</div>","null","","","","","","",""
"466.74499998334795","","image-keyboard-response","204","645486","0.0-4.0-0.55","","img/orange.png","32","trial","32","true","0.8,0.2","1:go_a","",""
"null","","html-keyboard-response","205","646488","0.0-4.0-1.55","","<img src=""img/orange-n.png"" border=""10"">","null","trial","32","","0.8,0.2","1:go_a","0",""
"null","","html-keyboard-response","206","647489","0.0-4.0-2.55","","<div style=""font-size:60px;"">+</div>","null","","","","","","",""
"null","","image-keyboard-response","207","648992","0.0-4.0-0.56","","img/grey.png","null","trial","null","true","0.2,0.8","2:nogo_b","",""
"null","","html-keyboard-response","208","649994","0.0-4.0-1.56","","<img src=""img/grey-r.png"">","null","trial","null","","0.2,0.8","2:nogo_b","1",""
"null","","html-keyboard-response","209","650995","0.0-4.0-2.56","","<div style=""font-size:60px;"">+</div>","null","","","","","","",""
"null","","image-keyboard-response","210","652497","0.0-4.0-0.57","","img/orange.png","null","trial","32","false","0.8,0.2","1:go_a","",""
"null","","html-keyboard-response","211","653499","0.0-4.0-1.57","","<img src=""img/orange-r.png"">","null","trial","32","","0.8,0.2","1:go_a","1",""
"null","","html-keyboard-response","212","654500","0.0-4.0-2.57","","<div style=""font-size:60px;"">+</div>","null","","","","","","",""
"647.3300000070594","","image-keyboard-response","213","655149","0.0-4.0-0.58","","img/orange.png","32","trial","32","true","0.8,0.2","1:go_a","",""
"null","","html-keyboard-response","214","656150","0.0-4.0-1.58","","<img src=""img/orange-r.png"" border=""10"">","null","trial","32","","0.8,0.2","1:go_a","1",""
"null","","html-keyboard-response","215","657152","0.0-4.0-2.58","","<div style=""font-size:60px;"">+</div>","null","","","","","","",""
"null","","image-keyboard-response","216","658654","0.0-4.0-0.59","","img/grey.png","null","trial","null","true","0.2,0.8","2:nogo_b","",""
"null","","html-keyboard-response","217","659656","0.0-4.0-1.59","","<img src=""img/grey-r.png"">","null","trial","null","","0.2,0.8","2:nogo_b","1",""
"null","","html-keyboard-response","218","660657","0.0-4.0-2.59","","<div style=""font-size:60px;"">+</div>","null","","","","","","",""
"3086.7200000211596","","instructions","219","663745","0.0-5.0","[{""page_index"":0,""viewing_time"":3086.5800000028685}]","","","","","","","","",""
"634.7749999840744","","image-keyboard-response","220","664380","0.0-6.0-0.0","","img/red.png","32","trial","32","true","0.8,0.2","1:go_a","",""
"null","","html-keyboard-response","221","665383","0.0-6.0-1.0","","<img src=""img/red-r.png"" border=""10"">","null","trial","32","","0.8,0.2","1:go_a","1",""
"null","","html-keyboard-response","222","666385","0.0-6.0-2.0","","<div style=""font-size:60px;"">+</div>","null","","","","","","",""
"null","","image-keyboard-response","223","667886","0.0-6.0-0.1","","img/pink.png","null","trial","32","false","0.8,0.2","3:go_c","",""
"null","","html-keyboard-response","224","668888","0.0-6.0-1.1","","<img src=""img/pink-n.png"">","null","trial","32","","0.8,0.2","3:go_c","0",""
"null","","html-keyboard-response","225","669890","0.0-6.0-2.1","","<div style=""font-size:60px;"">+</div>","null","","","","","","",""
"497.6449999958277","","image-keyboard-response","226","670388","0.0-6.0-0.2","","img/green.png","32","trial","null","false","0.2,0.8","2:nogo_b","",""
"null","","html-keyboard-response","227","671391","0.0-6.0-1.2","","<img src=""img/green-r.png"" border=""10"">","null","trial","null","","0.2,0.8","2:nogo_b","1",""
"null","","html-keyboard-response","228","672392","0.0-6.0-2.2","","<div style=""font-size:60px;"">+</div>","null","","","","","","",""
"null","","image-keyboard-response","229","673894","0.0-6.0-0.3","","img/purple.png","null","trial","null","true","0.2,0.8","4:nogo_d","",""
"null","","html-keyboard-response","230","674897","0.0-6.0-1.3","","<img src=""img/purple-n.png"">","null","trial","null","","0.2,0.8","4:nogo_d","0",""
"null","","html-keyboard-response","231","675902","0.0-6.0-2.3","","<div style=""font-size:60px;"">+</div>","null","","","","","","",""
"494.2700000246987","","image-keyboard-response","232","676397","0.0-6.0-0.4","","img/green.png","32","trial","null","false","0.2,0.8","2:nogo_b","",""
"null","","html-keyboard-response","233","677401","0.0-6.0-1.4","","<img src=""img/green-n.png"" border=""10"">","null","trial","null","","0.2,0.8","2:nogo_b","0",""
"null","","html-keyboard-response","234","678402","0.0-6.0-2.4","","<div style=""font-size:60px;"">+</div>","null","","","","","","",""
"null","","image-keyboard-response","235","679904","0.0-6.0-0.5","","img/pink.png","null","trial","32","false","0.8,0.2","3:go_c","",""
"null","","html-keyboard-response","236","680907","0.0-6.0-1.5","","<img src=""img/pink-n.png"">","null","trial","32","","0.8,0.2","3:go_c","0",""
"null","","html-keyboard-response","237","681908","0.0-6.0-2.5","","<div style=""font-size:60px;"">+</div>","null","","","","","","",""
"334.9750000052154","","image-keyboard-response","238","682244","0.0-6.0-0.6","","img/red.png","32","trial","32","true","0.8,0.2","1:go_a","",""
"null","","html-keyboard-response","239","683247","0.0-6.0-1.6","","<img src=""img/red-r.png"" border=""10"">","null","trial","32","","0.8,0.2","1:go_a","1",""
"null","","html-keyboard-response","240","684248","0.0-6.0-2.6","","<div style=""font-size:60px;"">+</div>","null","","","","","","",""
"null","","image-keyboard-response","241","685749","0.0-6.0-0.7","","img/purple.png","null","trial","null","true","0.2,0.8","4:nogo_d","",""
"null","","html-keyboard-response","242","686751","0.0-6.0-1.7","","<img src=""img/purple-r.png"">","null","trial","null","","0.2,0.8","4:nogo_d","1",""
"null","","html-keyboard-response","243","687752","0.0-6.0-2.7","","<div style=""font-size:60px;"">+</div>","null","","","","","","",""
"475.7300000055693","","image-keyboard-response","244","688229","0.0-6.0-0.8","","img/pink.png","32","trial","32","true","0.8,0.2","3:go_c","",""
"null","","html-keyboard-response","245","689232","0.0-6.0-1.8","","<img src=""img/pink-n.png"" border=""10"">","null","trial","32","","0.8,0.2","3:go_c","0",""
"null","","html-keyboard-response","246","690233","0.0-6.0-2.8","","<div style=""font-size:60px;"">+</div>","null","","","","","","",""
"null","","image-keyboard-response","247","691736","0.0-6.0-0.9","","img/green.png","null","trial","null","true","0.2,0.8","2:nogo_b","",""
"null","","html-keyboard-response","248","692738","0.0-6.0-1.9","","<img src=""img/green-r.png"">","null","trial","null","","0.2,0.8","2:nogo_b","1",""
"null","","html-keyboard-response","249","693739","0.0-6.0-2.9","","<div style=""font-size:60px;"">+</div>","null","","","","","","",""
"728.7600000272505","","image-keyboard-response","250","694468","0.0-6.0-0.10","","img/red.png","32","trial","32","true","0.8,0.2","1:go_a","",""
"null","","html-keyboard-response","251","695469","0.0-6.0-1.10","","<img src=""img/red-r.png"" border=""10"">","null","trial","32","","0.8,0.2","1:go_a","1",""
"null","","html-keyboard-response","252","696477","0.0-6.0-2.10","","<div style=""font-size:60px;"">+</div>","null","","","","","","",""
"null","","image-keyboard-response","253","697978","0.0-6.0-0.11","","img/purple.png","null","trial","null","true","0.2,0.8","4:nogo_d","",""
"null","","html-keyboard-response","254","698982","0.0-6.0-1.11","","<img src=""img/purple-r.png"">","null","trial","null","","0.2,0.8","4:nogo_d","1",""
"null","","html-keyboard-response","255","699984","0.0-6.0-2.11","","<div style=""font-size:60px;"">+</div>","null","","","","","","",""
"612.8449999960139","","image-keyboard-response","256","700597","0.0-6.0-0.12","","img/green.png","32","trial","null","false","0.2,0.8","2:nogo_b","",""
"null","","html-keyboard-response","257","701600","0.0-6.0-1.12","","<img src=""img/green-r.png"" border=""10"">","null","trial","null","","0.2,0.8","2:nogo_b","1",""
"null","","html-keyboard-response","258","702602","0.0-6.0-2.12","","<div style=""font-size:60px;"">+</div>","null","","","","","","",""
"null","","image-keyboard-response","259","704104","0.0-6.0-0.13","","img/purple.png","null","trial","null","true","0.2,0.8","4:nogo_d","",""
"null","","html-keyboard-response","260","705107","0.0-6.0-1.13","","<img src=""img/purple-r.png"">","null","trial","null","","0.2,0.8","4:nogo_d","1",""
"null","","html-keyboard-response","261","706108","0.0-6.0-2.13","","<div style=""font-size:60px;"">+</div>","null","","","","","","",""
"455.80499997595325","","image-keyboard-response","262","706565","0.0-6.0-0.14","","img/red.png","32","trial","32","true","0.8,0.2","1:go_a","",""
"null","","html-keyboard-response","263","707568","0.0-6.0-1.14","","<img src=""img/red-r.png"" border=""10"">","null","trial","32","","0.8,0.2","1:go_a","1",""
"null","","html-keyboard-response","264","708569","0.0-6.0-2.14","","<div style=""font-size:60px;"">+</div>","null","","","","","","",""
"null","","image-keyboard-response","265","710071","0.0-6.0-0.15","","img/pink.png","null","trial","32","false","0.8,0.2","3:go_c","",""
"null","","html-keyboard-response","266","711086","0.0-6.0-1.15","","<img src=""img/pink-n.png"">","null","trial","32","","0.8,0.2","3:go_c","0",""
"null","","html-keyboard-response","267","712088","0.0-6.0-2.15","","<div style=""font-size:60px;"">+</div>","null","","","","","","",""
"null","","image-keyboard-response","268","713590","0.0-6.0-0.16","","img/purple.png","null","trial","null","true","0.2,0.8","4:nogo_d","",""
"null","","html-keyboard-response","269","714592","0.0-6.0-1.16","","<img src=""img/purple-n.png"">","null","trial","null","","0.2,0.8","4:nogo_d","0",""
"null","","html-keyboard-response","270","715594","0.0-6.0-2.16","","<div style=""font-size:60px;"">+</div>","null","","","","","","",""
"369.5999999763444","","image-keyboard-response","271","715965","0.0-6.0-0.17","","img/green.png","32","trial","null","false","0.2,0.8","2:nogo_b","",""
"null","","html-keyboard-response","272","716967","0.0-6.0-1.17","","<img src=""img/green-n.png"" border=""10"">","null","trial","null","","0.2,0.8","2:nogo_b","0",""
"null","","html-keyboard-response","273","717969","0.0-6.0-2.17","","<div style=""font-size:60px;"">+</div>","null","","","","","","",""
"null","","image-keyboard-response","274","719471","0.0-6.0-0.18","","img/pink.png","null","trial","32","false","0.8,0.2","3:go_c","",""
"null","","html-keyboard-response","275","720474","0.0-6.0-1.18","","<img src=""img/pink-n.png"">","null","trial","32","","0.8,0.2","3:go_c","0",""
"null","","html-keyboard-response","276","721475","0.0-6.0-2.18","","<div style=""font-size:60px;"">+</div>","null","","","","","","",""
"360.05499999737367","","image-keyboard-response","277","721836","0.0-6.0-0.19","","img/red.png","32","trial","32","true","0.8,0.2","1:go_a","",""
"null","","html-keyboard-response","278","722840","0.0-6.0-1.19","","<img src=""img/red-r.png"" border=""10"">","null","trial","32","","0.8,0.2","1:go_a","1",""
"null","","html-keyboard-response","279","723841","0.0-6.0-2.19","","<div style=""font-size:60px;"">+</div>","null","","","","","","",""
"426.2350000208244","","image-keyboard-response","280","724268","0.0-6.0-0.20","","img/green.png","32","trial","null","false","0.2,0.8","2:nogo_b","",""
"null","","html-keyboard-response","281","725271","0.0-6.0-1.20","","<img src=""img/green-n.png"" border=""10"">","null","trial","null","","0.2,0.8","2:nogo_b","0",""
"null","","html-keyboard-response","282","726273","0.0-6.0-2.20","","<div style=""font-size:60px;"">+</div>","null","","","","","","",""
"null","","image-keyboard-response","283","727775","0.0-6.0-0.21","","img/purple.png","null","trial","null","true","0.2,0.8","4:nogo_d","",""
"null","","html-keyboard-response","284","728778","0.0-6.0-1.21","","<img src=""img/purple-r.png"">","null","trial","null","","0.2,0.8","4:nogo_d","1",""
"null","","html-keyboard-response","285","729780","0.0-6.0-2.21","","<div style=""font-size:60px;"">+</div>","null","","","","","","",""
"527.9699999955483","","image-keyboard-response","286","730309","0.0-6.0-0.22","","img/red.png","32","trial","32","true","0.8,0.2","1:go_a","",""
"null","","html-keyboard-response","287","731311","0.0-6.0-1.22","","<img src=""img/red-r.png"" border=""10"">","null","trial","32","","0.8,0.2","1:go_a","1",""
"null","","html-keyboard-response","288","732312","0.0-6.0-2.22","","<div style=""font-size:60px;"">+</div>","null","","","","","","",""
"363.7149999849498","","image-keyboard-response","289","732676","0.0-6.0-0.23","","img/pink.png","32","trial","32","true","0.8,0.2","3:go_c","",""
"null","","html-keyboard-response","290","733680","0.0-6.0-1.23","","<img src=""img/pink-r.png"" border=""10"">","null","trial","32","","0.8,0.2","3:go_c","1",""
"null","","html-keyboard-response","291","734681","0.0-6.0-2.23","","<div style=""font-size:60px;"">+</div>","null","","","","","","",""
"null","","image-keyboard-response","292","736183","0.0-6.0-0.24","","img/green.png","null","trial","null","true","0.2,0.8","2:nogo_b","",""
"null","","html-keyboard-response","293","737185","0.0-6.0-1.24","","<img src=""img/green-n.png"">","null","trial","null","","0.2,0.8","2:nogo_b","0",""
"null","","html-keyboard-response","294","738186","0.0-6.0-2.24","","<div style=""font-size:60px;"">+</div>","null","","","","","","",""
"561.8400000385009","","image-keyboard-response","295","738748","0.0-6.0-0.25","","img/red.png","32","trial","32","true","0.8,0.2","1:go_a","",""
"null","","html-keyboard-response","296","739750","0.0-6.0-1.25","","<img src=""img/red-r.png"" border=""10"">","null","trial","32","","0.8,0.2","1:go_a","1",""
"null","","html-keyboard-response","297","740752","0.0-6.0-2.25","","<div style=""font-size:60px;"">+</div>","null","","","","","","",""
"null","","image-keyboard-response","298","742254","0.0-6.0-0.26","","img/pink.png","null","trial","32","false","0.8,0.2","3:go_c","",""
"null","","html-keyboard-response","299","743256","0.0-6.0-1.26","","<img src=""img/pink-r.png"">","null","trial","32","","0.8,0.2","3:go_c","1",""
"null","","html-keyboard-response","300","744258","0.0-6.0-2.26","","<div style=""font-size:60px;"">+</div>","null","","","","","","",""
"null","","image-keyboard-response","301","745760","0.0-6.0-0.27","","img/purple.png","null","trial","null","true","0.2,0.8","4:nogo_d","",""
"null","","html-keyboard-response","302","746762","0.0-6.0-1.27","","<img src=""img/purple-n.png"">","null","trial","null","","0.2,0.8","4:nogo_d","0",""
"null","","html-keyboard-response","303","747763","0.0-6.0-2.27","","<div style=""font-size:60px;"">+</div>","null","","","","","","",""
"null","","image-keyboard-response","304","749265","0.0-6.0-0.28","","img/purple.png","null","trial","null","true","0.2,0.8","4:nogo_d","",""
"null","","html-keyboard-response","305","750266","0.0-6.0-1.28","","<img src=""img/purple-r.png"">","null","trial","null","","0.2,0.8","4:nogo_d","1",""
"null","","html-keyboard-response","306","751268","0.0-6.0-2.28","","<div style=""font-size:60px;"">+</div>","null","","","","","","",""
"1079.8499999800697","","image-keyboard-response","307","752349","0.0-6.0-0.29","","img/green.png","32","trial","null","false","0.2,0.8","2:nogo_b","",""
"null","","html-keyboard-response","308","753352","0.0-6.0-1.29","","<img src=""img/green-n.png"" border=""10"">","null","trial","null","","0.2,0.8","2:nogo_b","0",""
"null","","html-keyboard-response","309","754354","0.0-6.0-2.29","","<div style=""font-size:60px;"">+</div>","null","","","","","","",""
"null","","image-keyboard-response","310","755857","0.0-6.0-0.30","","img/pink.png","null","trial","32","false","0.8,0.2","3:go_c","",""
"null","","html-keyboard-response","311","756864","0.0-6.0-1.30","","<img src=""img/pink-r.png"">","null","trial","32","","0.8,0.2","3:go_c","1",""
"null","","html-keyboard-response","312","757865","0.0-6.0-2.30","","<div style=""font-size:60px;"">+</div>","null","","","","","","",""
"466.3799999980256","","image-keyboard-response","313","758333","0.0-6.0-0.31","","img/red.png","32","trial","32","true","0.8,0.2","1:go_a","",""
"null","","html-keyboard-response","314","759335","0.0-6.0-1.31","","<img src=""img/red-r.png"" border=""10"">","null","trial","32","","0.8,0.2","1:go_a","1",""
"null","","html-keyboard-response","315","760337","0.0-6.0-2.31","","<div style=""font-size:60px;"">+</div>","null","","","","","","",""
"null","","image-keyboard-response","316","761839","0.0-6.0-0.32","","img/green.png","null","trial","null","true","0.2,0.8","2:nogo_b","",""
"null","","html-keyboard-response","317","762842","0.0-6.0-1.32","","<img src=""img/green-n.png"">","null","trial","null","","0.2,0.8","2:nogo_b","0",""
"null","","html-keyboard-response","318","763844","0.0-6.0-2.32","","<div style=""font-size:60px;"">+</div>","null","","","","","","",""
"null","","image-keyboard-response","319","765345","0.0-6.0-0.33","","img/pink.png","null","trial","32","false","0.8,0.2","3:go_c","",""
"null","","html-keyboard-response","320","766348","0.0-6.0-1.33","","<img src=""img/pink-n.png"">","null","trial","32","","0.8,0.2","3:go_c","0",""
"null","","html-keyboard-response","321","767362","0.0-6.0-2.33","","<div style=""font-size:60px;"">+</div>","null","","","","","","",""
"null","","image-keyboard-response","322","768864","0.0-6.0-0.34","","img/purple.png","null","trial","null","true","0.2,0.8","4:nogo_d","",""
"null","","html-keyboard-response","323","769866","0.0-6.0-1.34","","<img src=""img/purple-r.png"">","null","trial","null","","0.2,0.8","4:nogo_d","1",""
"null","","html-keyboard-response","324","770868","0.0-6.0-2.34","","<div style=""font-size:60px;"">+</div>","null","","","","","","",""
"432.31000000378117","","image-keyboard-response","325","771301","0.0-6.0-0.35","","img/red.png","32","trial","32","true","0.8,0.2","1:go_a","",""
"null","","html-keyboard-response","326","772304","0.0-6.0-1.35","","<img src=""img/red-r.png"" border=""10"">","null","trial","32","","0.8,0.2","1:go_a","1",""
"null","","html-keyboard-response","327","773306","0.0-6.0-2.35","","<div style=""font-size:60px;"">+</div>","null","","","","","","",""
"745.0950000202283","","image-keyboard-response","328","774052","0.0-6.0-0.36","","img/green.png","32","trial","null","false","0.2,0.8","2:nogo_b","",""
"null","","html-keyboard-response","329","775055","0.0-6.0-1.36","","<img src=""img/green-n.png"" border=""10"">","null","trial","null","","0.2,0.8","2:nogo_b","0",""
"null","","html-keyboard-response","330","776057","0.0-6.0-2.36","","<div style=""font-size:60px;"">+</div>","null","","","","","","",""
"null","","image-keyboard-response","331","777559","0.0-6.0-0.37","","img/red.png","null","trial","32","false","0.8,0.2","1:go_a","",""
"null","","html-keyboard-response","332","778561","0.0-6.0-1.37","","<img src=""img/red-n.png"">","null","trial","32","","0.8,0.2","1:go_a","0",""
"null","","html-keyboard-response","333","779564","0.0-6.0-2.37","","<div style=""font-size:60px;"">+</div>","null","","","","","","",""
"null","","image-keyboard-response","334","781065","0.0-6.0-0.38","","img/purple.png","null","trial","null","true","0.2,0.8","4:nogo_d","",""
"null","","html-keyboard-response","335","782068","0.0-6.0-1.38","","<img src=""img/purple-r.png"">","null","trial","null","","0.2,0.8","4:nogo_d","1",""
"null","","html-keyboard-response","336","783069","0.0-6.0-2.38","","<div style=""font-size:60px;"">+</div>","null","","","","","","",""
"null","","image-keyboard-response","337","784572","0.0-6.0-0.39","","img/pink.png","null","trial","32","false","0.8,0.2","3:go_c","",""
"null","","html-keyboard-response","338","785574","0.0-6.0-1.39","","<img src=""img/pink-n.png"">","null","trial","32","","0.8,0.2","3:go_c","0",""
"null","","html-keyboard-response","339","786576","0.0-6.0-2.39","","<div style=""font-size:60px;"">+</div>","null","","","","","","",""
"null","","image-keyboard-response","340","788078","0.0-6.0-0.40","","img/green.png","null","trial","null","true","0.2,0.8","2:nogo_b","",""
"null","","html-keyboard-response","341","789080","0.0-6.0-1.40","","<img src=""img/green-r.png"">","null","trial","null","","0.2,0.8","2:nogo_b","1",""
"null","","html-keyboard-response","342","790082","0.0-6.0-2.40","","<div style=""font-size:60px;"">+</div>","null","","","","","","",""
"null","","image-keyboard-response","343","791583","0.0-6.0-0.41","","img/purple.png","null","trial","null","true","0.2,0.8","4:nogo_d","",""
"null","","html-keyboard-response","344","792586","0.0-6.0-1.41","","<img src=""img/purple-r.png"">","null","trial","null","","0.2,0.8","4:nogo_d","1",""
"null","","html-keyboard-response","345","793587","0.0-6.0-2.41","","<div style=""font-size:60px;"">+</div>","null","","","","","","",""
"328.9500000537373","","image-keyboard-response","346","793917","0.0-6.0-0.42","","img/red.png","32","trial","32","true","0.8,0.2","1:go_a","",""
"null","","html-keyboard-response","347","794919","0.0-6.0-1.42","","<img src=""img/red-r.png"" border=""10"">","null","trial","32","","0.8,0.2","1:go_a","1",""
"null","","html-keyboard-response","348","795921","0.0-6.0-2.42","","<div style=""font-size:60px;"">+</div>","null","","","","","","",""
"null","","image-keyboard-response","349","797422","0.0-6.0-0.43","","img/pink.png","null","trial","32","false","0.8,0.2","3:go_c","",""
"null","","html-keyboard-response","350","798425","0.0-6.0-1.43","","<img src=""img/pink-r.png"">","null","trial","32","","0.8,0.2","3:go_c","1",""
"null","","html-keyboard-response","351","799427","0.0-6.0-2.43","","<div style=""font-size:60px;"">+</div>","null","","","","","","",""
"null","","image-keyboard-response","352","800929","0.0-6.0-0.44","","img/purple.png","null","trial","null","true","0.2,0.8","4:nogo_d","",""
"null","","html-keyboard-response","353","801932","0.0-6.0-1.44","","<img src=""img/purple-r.png"">","null","trial","null","","0.2,0.8","4:nogo_d","1",""
"null","","html-keyboard-response","354","802933","0.0-6.0-2.44","","<div style=""font-size:60px;"">+</div>","null","","","","","","",""
"694.7500000242144","","image-keyboard-response","355","803629","0.0-6.0-0.45","","img/red.png","32","trial","32","true","0.8,0.2","1:go_a","",""
"null","","html-keyboard-response","356","804632","0.0-6.0-1.45","","<img src=""img/red-r.png"" border=""10"">","null","trial","32","","0.8,0.2","1:go_a","1",""
"null","","html-keyboard-response","357","805633","0.0-6.0-2.45","","<div style=""font-size:60px;"">+</div>","null","","","","","","",""
"null","","image-keyboard-response","358","807135","0.0-6.0-0.46","","img/green.png","null","trial","null","true","0.2,0.8","2:nogo_b","",""
"null","","html-keyboard-response","359","808140","0.0-6.0-1.46","","<img src=""img/green-r.png"">","null","trial","null","","0.2,0.8","2:nogo_b","1",""
"null","","html-keyboard-response","360","809142","0.0-6.0-2.46","","<div style=""font-size:60px;"">+</div>","null","","","","","","",""
"null","","image-keyboard-response","361","810644","0.0-6.0-0.47","","img/pink.png","null","trial","32","false","0.8,0.2","3:go_c","",""
"null","","html-keyboard-response","362","811646","0.0-6.0-1.47","","<img src=""img/pink-n.png"">","null","trial","32","","0.8,0.2","3:go_c","0",""
"null","","html-keyboard-response","363","812647","0.0-6.0-2.47","","<div style=""font-size:60px;"">+</div>","null","","","","","","",""
"null","","image-keyboard-response","364","814149","0.0-6.0-0.48","","img/green.png","null","trial","null","true","0.2,0.8","2:nogo_b","",""
"null","","html-keyboard-response","365","815151","0.0-6.0-1.48","","<img src=""img/green-r.png"">","null","trial","null","","0.2,0.8","2:nogo_b","1",""
"null","","html-keyboard-response","366","816153","0.0-6.0-2.48","","<div style=""font-size:60px;"">+</div>","null","","","","","","",""
"386.72999996924773","","image-keyboard-response","367","816541","0.0-6.0-0.49","","img/red.png","32","trial","32","true","0.8,0.2","1:go_a","",""
"null","","html-keyboard-response","368","817544","0.0-6.0-1.49","","<img src=""img/red-r.png"" border=""10"">","null","trial","32","","0.8,0.2","1:go_a","1",""
"null","","html-keyboard-response","369","818546","0.0-6.0-2.49","","<div style=""font-size:60px;"">+</div>","null","","","","","","",""
"null","","image-keyboard-response","370","820049","0.0-6.0-0.50","","img/pink.png","null","trial","32","false","0.8,0.2","3:go_c","",""
"null","","html-keyboard-response","371","821059","0.0-6.0-1.50","","<img src=""img/pink-n.png"">","null","trial","32","","0.8,0.2","3:go_c","0",""
"null","","html-keyboard-response","372","822061","0.0-6.0-2.50","","<div style=""font-size:60px;"">+</div>","null","","","","","","",""
"null","","image-keyboard-response","373","823562","0.0-6.0-0.51","","img/purple.png","null","trial","null","true","0.2,0.8","4:nogo_d","",""
"null","","html-keyboard-response","374","824564","0.0-6.0-1.51","","<img src=""img/purple-r.png"">","null","trial","null","","0.2,0.8","4:nogo_d","1",""
"null","","html-keyboard-response","375","825566","0.0-6.0-2.51","","<div style=""font-size:60px;"">+</div>","null","","","","","","",""
"null","","image-keyboard-response","376","827069","0.0-6.0-0.52","","img/green.png","null","trial","null","true","0.2,0.8","2:nogo_b","",""
"null","","html-keyboard-response","377","828081","0.0-6.0-1.52","","<img src=""img/green-r.png"">","null","trial","null","","0.2,0.8","2:nogo_b","1",""
"null","","html-keyboard-response","378","829083","0.0-6.0-2.52","","<div style=""font-size:60px;"">+</div>","null","","","","","","",""
"null","","image-keyboard-response","379","830584","0.0-6.0-0.53","","img/purple.png","null","trial","null","true","0.2,0.8","4:nogo_d","",""
"null","","html-keyboard-response","380","831586","0.0-6.0-1.53","","<img src=""img/purple-r.png"">","null","trial","null","","0.2,0.8","4:nogo_d","1",""
"null","","html-keyboard-response","381","832588","0.0-6.0-2.53","","<div style=""font-size:60px;"">+</div>","null","","","","","","",""
"392.4049999914132","","image-keyboard-response","382","832981","0.0-6.0-0.54","","img/red.png","32","trial","32","true","0.8,0.2","1:go_a","",""
"null","","html-keyboard-response","383","833984","0.0-6.0-1.54","","<img src=""img/red-r.png"" border=""10"">","null","trial","32","","0.8,0.2","1:go_a","1",""
"null","","html-keyboard-response","384","834985","0.0-6.0-2.54","","<div style=""font-size:60px;"">+</div>","null","","","","","","",""
"null","","image-keyboard-response","385","836487","0.0-6.0-0.55","","img/pink.png","null","trial","32","false","0.8,0.2","3:go_c","",""
"null","","html-keyboard-response","386","837490","0.0-6.0-1.55","","<img src=""img/pink-n.png"">","null","trial","32","","0.8,0.2","3:go_c","0",""
"null","","html-keyboard-response","387","838492","0.0-6.0-2.55","","<div style=""font-size:60px;"">+</div>","null","","","","","","",""
"null","","image-keyboard-response","388","839994","0.0-6.0-0.56","","img/green.png","null","trial","null","true","0.2,0.8","2:nogo_b","",""
"null","","html-keyboard-response","389","840997","0.0-6.0-1.56","","<img src=""img/green-r.png"">","null","trial","null","","0.2,0.8","2:nogo_b","1",""
"null","","html-keyboard-response","390","841998","0.0-6.0-2.56","","<div style=""font-size:60px;"">+</div>","null","","","","","","",""
"653.2800000277348","","image-keyboard-response","391","842653","0.0-6.0-0.57","","img/pink.png","32","trial","32","true","0.8,0.2","3:go_c","",""
"null","","html-keyboard-response","392","843666","0.0-6.0-1.57","","<img src=""img/pink-r.png"" border=""10"">","null","trial","32","","0.8,0.2","3:go_c","1",""
"null","","html-keyboard-response","393","844667","0.0-6.0-2.57","","<div style=""font-size:60px;"">+</div>","null","","","","","","",""
"null","","image-keyboard-response","394","846170","0.0-6.0-0.58","","img/purple.png","null","trial","null","true","0.2,0.8","4:nogo_d","",""
"null","","html-keyboard-response","395","847171","0.0-6.0-1.58","","<img src=""img/purple-r.png"">","null","trial","null","","0.2,0.8","4:nogo_d","1",""
"null","","html-keyboard-response","396","848173","0.0-6.0-2.58","","<div style=""font-size:60px;"">+</div>","null","","","","","","",""
"1063.1649999995716","","image-keyboard-response","397","849237","0.0-6.0-0.59","","img/red.png","32","trial","32","true","0.8,0.2","1:go_a","",""
"null","","html-keyboard-response","398","850239","0.0-6.0-1.59","","<img src=""img/red-r.png"" border=""10"">","null","trial","32","","0.8,0.2","1:go_a","1",""
"null","","html-keyboard-response","399","851240","0.0-6.0-2.59","","<div style=""font-size:60px;"">+</div>","null","","","","","","",""
"null","","image-keyboard-response","400","852743","0.0-6.0-0.60","","img/pink.png","null","trial","32","false","0.8,0.2","3:go_c","",""
"null","","html-keyboard-response","401","853746","0.0-6.0-1.60","","<img src=""img/pink-r.png"">","null","trial","32","","0.8,0.2","3:go_c","1",""
"null","","html-keyboard-response","402","854747","0.0-6.0-2.60","","<div style=""font-size:60px;"">+</div>","null","","","","","","",""
"456.6050000139512","","image-keyboard-response","403","855205","0.0-6.0-0.61","","img/red.png","32","trial","32","true","0.8,0.2","1:go_a","",""
"null","","html-keyboard-response","404","856207","0.0-6.0-1.61","","<img src=""img/red-r.png"" border=""10"">","null","trial","32","","0.8,0.2","1:go_a","1",""
"null","","html-keyboard-response","405","857208","0.0-6.0-2.61","","<div style=""font-size:60px;"">+</div>","null","","","","","","",""
"null","","image-keyboard-response","406","858714","0.0-6.0-0.62","","img/purple.png","null","trial","null","true","0.2,0.8","4:nogo_d","",""
"null","","html-keyboard-response","407","859717","0.0-6.0-1.62","","<img src=""img/purple-r.png"">","null","trial","null","","0.2,0.8","4:nogo_d","1",""
"null","","html-keyboard-response","408","860718","0.0-6.0-2.62","","<div style=""font-size:60px;"">+</div>","null","","","","","","",""
"null","","image-keyboard-response","409","862220","0.0-6.0-0.63","","img/green.png","null","trial","null","true","0.2,0.8","2:nogo_b","",""
"null","","html-keyboard-response","410","863235","0.0-6.0-1.63","","<img src=""img/green-r.png"">","null","trial","null","","0.2,0.8","2:nogo_b","1",""
"null","","html-keyboard-response","411","864236","0.0-6.0-2.63","","<div style=""font-size:60px;"">+</div>","null","","","","","","",""
"null","","image-keyboard-response","412","865738","0.0-6.0-0.64","","img/green.png","null","trial","null","true","0.2,0.8","2:nogo_b","",""
"null","","html-keyboard-response","413","866752","0.0-6.0-1.64","","<img src=""img/green-r.png"">","null","trial","null","","0.2,0.8","2:nogo_b","1",""
"null","","html-keyboard-response","414","867756","0.0-6.0-2.64","","<div style=""font-size:60px;"">+</div>","null","","","","","","",""
"null","","image-keyboard-response","415","869257","0.0-6.0-0.65","","img/purple.png","null","trial","null","true","0.2,0.8","4:nogo_d","",""
"null","","html-keyboard-response","416","870259","0.0-6.0-1.65","","<img src=""img/purple-n.png"">","null","trial","null","","0.2,0.8","4:nogo_d","0",""
"null","","html-keyboard-response","417","871262","0.0-6.0-2.65","","<div style=""font-size:60px;"">+</div>","null","","","","","","",""
"null","","image-keyboard-response","418","872764","0.0-6.0-0.66","","img/pink.png","null","trial","32","false","0.8,0.2","3:go_c","",""
"null","","html-keyboard-response","419","873766","0.0-6.0-1.66","","<img src=""img/pink-r.png"">","null","trial","32","","0.8,0.2","3:go_c","1",""
"null","","html-keyboard-response","420","874767","0.0-6.0-2.66","","<div style=""font-size:60px;"">+</div>","null","","","","","","",""
"421.12000001361594","","image-keyboard-response","421","875189","0.0-6.0-0.67","","img/red.png","32","trial","32","true","0.8,0.2","1:go_a","",""
"null","","html-keyboard-response","422","876193","0.0-6.0-1.67","","<img src=""img/red-r.png"" border=""10"">","null","trial","32","","0.8,0.2","1:go_a","1",""
"null","","html-keyboard-response","423","877195","0.0-6.0-2.67","","<div style=""font-size:60px;"">+</div>","null","","","","","","",""
"null","","image-keyboard-response","424","878698","0.0-6.0-0.68","","img/purple.png","null","trial","null","true","0.2,0.8","4:nogo_d","",""
"null","","html-keyboard-response","425","879700","0.0-6.0-1.68","","<img src=""img/purple-r.png"">","null","trial","null","","0.2,0.8","4:nogo_d","1",""
"null","","html-keyboard-response","426","880703","0.0-6.0-2.68","","<div style=""font-size:60px;"">+</div>","null","","","","","","",""
"null","","image-keyboard-response","427","882205","0.0-6.0-0.69","","img/green.png","null","trial","null","true","0.2,0.8","2:nogo_b","",""
"null","","html-keyboard-response","428","883207","0.0-6.0-1.69","","<img src=""img/green-r.png"">","null","trial","null","","0.2,0.8","2:nogo_b","1",""
"null","","html-keyboard-response","429","884208","0.0-6.0-2.69","","<div style=""font-size:60px;"">+</div>","null","","","","","","",""
"null","","image-keyboard-response","430","885722","0.0-6.0-0.70","","img/pink.png","null","trial","32","false","0.8,0.2","3:go_c","",""
"null","","html-keyboard-response","431","886725","0.0-6.0-1.70","","<img src=""img/pink-n.png"">","null","trial","32","","0.8,0.2","3:go_c","0",""
"null","","html-keyboard-response","432","887726","0.0-6.0-2.70","","<div style=""font-size:60px;"">+</div>","null","","","","","","",""
"508.99499998195097","","image-keyboard-response","433","888237","0.0-6.0-0.71","","img/red.png","32","trial","32","true","0.8,0.2","1:go_a","",""
"null","","html-keyboard-response","434","889239","0.0-6.0-1.71","","<img src=""img/red-r.png"" border=""10"">","null","trial","32","","0.8,0.2","1:go_a","1",""
"null","","html-keyboard-response","435","890241","0.0-6.0-2.71","","<div style=""font-size:60px;"">+</div>","null","","","","","","",""
"null","","image-keyboard-response","436","891742","0.0-6.0-0.72","","img/green.png","null","trial","null","true","0.2,0.8","2:nogo_b","",""
"null","","html-keyboard-response","437","892744","0.0-6.0-1.72","","<img src=""img/green-r.png"">","null","trial","null","","0.2,0.8","2:nogo_b","1",""
"null","","html-keyboard-response","438","893746","0.0-6.0-2.72","","<div style=""font-size:60px;"">+</div>","null","","","","","","",""
"null","","image-keyboard-response","439","895248","0.0-6.0-0.73","","img/pink.png","null","trial","32","false","0.8,0.2","3:go_c","",""
"null","","html-keyboard-response","440","896251","0.0-6.0-1.73","","<img src=""img/pink-r.png"">","null","trial","32","","0.8,0.2","3:go_c","1",""
"null","","html-keyboard-response","441","897252","0.0-6.0-2.73","","<div style=""font-size:60px;"">+</div>","null","","","","","","",""
"null","","image-keyboard-response","442","898754","0.0-6.0-0.74","","img/red.png","null","trial","32","false","0.8,0.2","1:go_a","",""
"null","","html-keyboard-response","443","899756","0.0-6.0-1.74","","<img src=""img/red-r.png"">","null","trial","32","","0.8,0.2","1:go_a","1",""
"null","","html-keyboard-response","444","900757","0.0-6.0-2.74","","<div style=""font-size:60px;"">+</div>","null","","","","","","",""
"null","","image-keyboard-response","445","902260","0.0-6.0-0.75","","img/purple.png","null","trial","null","true","0.2,0.8","4:nogo_d","",""
"null","","html-keyboard-response","446","903262","0.0-6.0-1.75","","<img src=""img/purple-r.png"">","null","trial","null","","0.2,0.8","4:nogo_d","1",""
"null","","html-keyboard-response","447","904264","0.0-6.0-2.75","","<div style=""font-size:60px;"">+</div>","null","","","","","","",""
"null","","image-keyboard-response","448","905766","0.0-6.0-0.76","","img/pink.png","null","trial","32","false","0.8,0.2","3:go_c","",""
"null","","html-keyboard-response","449","906769","0.0-6.0-1.76","","<img src=""img/pink-n.png"">","null","trial","32","","0.8,0.2","3:go_c","0",""
"null","","html-keyboard-response","450","907770","0.0-6.0-2.76","","<div style=""font-size:60px;"">+</div>","null","","","","","","",""
"null","","image-keyboard-response","451","909272","0.0-6.0-0.77","","img/purple.png","null","trial","null","true","0.2,0.8","4:nogo_d","",""
"null","","html-keyboard-response","452","910275","0.0-6.0-1.77","","<img src=""img/purple-r.png"">","null","trial","null","","0.2,0.8","4:nogo_d","1",""
"null","","html-keyboard-response","453","911282","0.0-6.0-2.77","","<div style=""font-size:60px;"">+</div>","null","","","","","","",""
"466.454999987036","","image-keyboard-response","454","911749","0.0-6.0-0.78","","img/red.png","32","trial","32","true","0.8,0.2","1:go_a","",""
"null","","html-keyboard-response","455","912752","0.0-6.0-1.78","","<img src=""img/red-r.png"" border=""10"">","null","trial","32","","0.8,0.2","1:go_a","1",""
"null","","html-keyboard-response","456","913754","0.0-6.0-2.78","","<div style=""font-size:60px;"">+</div>","null","","","","","","",""
"null","","image-keyboard-response","457","915255","0.0-6.0-0.79","","img/green.png","null","trial","null","true","0.2,0.8","2:nogo_b","",""
"null","","html-keyboard-response","458","916257","0.0-6.0-1.79","","<img src=""img/green-r.png"">","null","trial","null","","0.2,0.8","2:nogo_b","1",""
"null","","html-keyboard-response","459","917259","0.0-6.0-2.79","","<div style=""font-size:60px;"">+</div>","null","","","","","","",""
"745.0599999865517","","image-keyboard-response","460","918005","0.0-6.0-0.80","","img/green.png","32","trial","null","false","0.2,0.8","2:nogo_b","",""
"null","","html-keyboard-response","461","919008","0.0-6.0-1.80","","<img src=""img/green-n.png"" border=""10"">","null","trial","null","","0.2,0.8","2:nogo_b","0",""
"null","","html-keyboard-response","462","920010","0.0-6.0-2.80","","<div style=""font-size:60px;"">+</div>","null","","","","","","",""
"914.2549999523908","","image-keyboard-response","463","920925","0.0-6.0-0.81","","img/red.png","32","trial","32","true","0.8,0.2","1:go_a","",""
"null","","html-keyboard-response","464","921928","0.0-6.0-1.81","","<img src=""img/red-r.png"" border=""10"">","null","trial","32","","0.8,0.2","1:go_a","1",""
"null","","html-keyboard-response","465","922930","0.0-6.0-2.81","","<div style=""font-size:60px;"">+</div>","null","","","","","","",""
"null","","image-keyboard-response","466","924432","0.0-6.0-0.82","","img/pink.png","null","trial","32","false","0.8,0.2","3:go_c","",""
"null","","html-keyboard-response","467","925434","0.0-6.0-1.82","","<img src=""img/pink-n.png"">","null","trial","32","","0.8,0.2","3:go_c","0",""
"null","","html-keyboard-response","468","926436","0.0-6.0-2.82","","<div style=""font-size:60px;"">+</div>","null","","","","","","",""
"null","","image-keyboard-response","469","927939","0.0-6.0-0.83","","img/purple.png","null","trial","null","true","0.2,0.8","4:nogo_d","",""
"null","","html-keyboard-response","470","928942","0.0-6.0-1.83","","<img src=""img/purple-r.png"">","null","trial","null","","0.2,0.8","4:nogo_d","1",""
"null","","html-keyboard-response","471","929944","0.0-6.0-2.83","","<div style=""font-size:60px;"">+</div>","null","","","","","","",""
"null","","image-keyboard-response","472","931446","0.0-6.0-0.84","","img/green.png","null","trial","null","true","0.2,0.8","2:nogo_b","",""
"null","","html-keyboard-response","473","932448","0.0-6.0-1.84","","<img src=""img/green-r.png"">","null","trial","null","","0.2,0.8","2:nogo_b","1",""
"null","","html-keyboard-response","474","933460","0.0-6.0-2.84","","<div style=""font-size:60px;"">+</div>","null","","","","","","",""
"null","","image-keyboard-response","475","934963","0.0-6.0-0.85","","img/pink.png","null","trial","32","false","0.8,0.2","3:go_c","",""
"null","","html-keyboard-response","476","935966","0.0-6.0-1.85","","<img src=""img/pink-n.png"">","null","trial","32","","0.8,0.2","3:go_c","0",""
"null","","html-keyboard-response","477","936967","0.0-6.0-2.85","","<div style=""font-size:60px;"">+</div>","null","","","","","","",""
"677.4949999526143","","image-keyboard-response","478","937645","0.0-6.0-0.86","","img/red.png","32","trial","32","true","0.8,0.2","1:go_a","",""
"null","","html-keyboard-response","479","938648","0.0-6.0-1.86","","<img src=""img/red-r.png"" border=""10"">","null","trial","32","","0.8,0.2","1:go_a","1",""
"null","","html-keyboard-response","480","939649","0.0-6.0-2.86","","<div style=""font-size:60px;"">+</div>","null","","","","","","",""
"null","","image-keyboard-response","481","941151","0.0-6.0-0.87","","img/purple.png","null","trial","null","true","0.2,0.8","4:nogo_d","",""
"null","","html-keyboard-response","482","942153","0.0-6.0-1.87","","<img src=""img/purple-r.png"">","null","trial","null","","0.2,0.8","4:nogo_d","1",""
"null","","html-keyboard-response","483","943155","0.0-6.0-2.87","","<div style=""font-size:60px;"">+</div>","null","","","","","","",""
"832.8800000017509","","image-keyboard-response","484","943989","0.0-6.0-0.88","","img/red.png","32","trial","32","true","0.8,0.2","1:go_a","",""
"null","","html-keyboard-response","485","944992","0.0-6.0-1.88","","<img src=""img/red-r.png"" border=""10"">","null","trial","32","","0.8,0.2","1:go_a","1",""
"null","","html-keyboard-response","486","945994","0.0-6.0-2.88","","<div style=""font-size:60px;"">+</div>","null","","","","","","",""
"null","","image-keyboard-response","487","947496","0.0-6.0-0.89","","img/pink.png","null","trial","32","false","0.8,0.2","3:go_c","",""
"null","","html-keyboard-response","488","948499","0.0-6.0-1.89","","<img src=""img/pink-n.png"">","null","trial","32","","0.8,0.2","3:go_c","0",""
"null","","html-keyboard-response","489","949500","0.0-6.0-2.89","","<div style=""font-size:60px;"">+</div>","null","","","","","","",""
"null","","image-keyboard-response","490","951002","0.0-6.0-0.90","","img/green.png","null","trial","null","true","0.2,0.8","2:nogo_b","",""
"null","","html-keyboard-response","491","952005","0.0-6.0-1.90","","<img src=""img/green-n.png"">","null","trial","null","","0.2,0.8","2:nogo_b","0",""
"null","","html-keyboard-response","492","953014","0.0-6.0-2.90","","<div style=""font-size:60px;"">+</div>","null","","","","","","",""
"null","","image-keyboard-response","493","954516","0.0-6.0-0.91","","img/purple.png","null","trial","null","true","0.2,0.8","4:nogo_d","",""
"null","","html-keyboard-response","494","955518","0.0-6.0-1.91","","<img src=""img/purple-r.png"">","null","trial","null","","0.2,0.8","4:nogo_d","1",""
"null","","html-keyboard-response","495","956521","0.0-6.0-2.91","","<div style=""font-size:60px;"">+</div>","null","","","","","","",""
"null","","image-keyboard-response","496","958022","0.0-6.0-0.92","","img/purple.png","null","trial","null","true","0.2,0.8","4:nogo_d","",""
"null","","html-keyboard-response","497","959024","0.0-6.0-1.92","","<img src=""img/purple-r.png"">","null","trial","null","","0.2,0.8","4:nogo_d","1",""
"null","","html-keyboard-response","498","960025","0.0-6.0-2.92","","<div style=""font-size:60px;"">+</div>","null","","","","","","",""
"403.4300000057556","","image-keyboard-response","499","960430","0.0-6.0-0.93","","img/red.png","32","trial","32","true","0.8,0.2","1:go_a","",""
"null","","html-keyboard-response","500","961433","0.0-6.0-1.93","","<img src=""img/red-r.png"" border=""10"">","null","trial","32","","0.8,0.2","1:go_a","1",""
"null","","html-keyboard-response","501","962434","0.0-6.0-2.93","","<div style=""font-size:60px;"">+</div>","null","","","","","","",""
"null","","image-keyboard-response","502","963936","0.0-6.0-0.94","","img/pink.png","null","trial","32","false","0.8,0.2","3:go_c","",""
"null","","html-keyboard-response","503","964938","0.0-6.0-1.94","","<img src=""img/pink-n.png"">","null","trial","32","","0.8,0.2","3:go_c","0",""
"null","","html-keyboard-response","504","965939","0.0-6.0-2.94","","<div style=""font-size:60px;"">+</div>","null","","","","","","",""
"null","","image-keyboard-response","505","967441","0.0-6.0-0.95","","img/green.png","null","trial","null","true","0.2,0.8","2:nogo_b","",""
"null","","html-keyboard-response","506","968445","0.0-6.0-1.95","","<img src=""img/green-r.png"">","null","trial","null","","0.2,0.8","2:nogo_b","1",""
"null","","html-keyboard-response","507","969447","0.0-6.0-2.95","","<div style=""font-size:60px;"">+</div>","null","","","","","","",""
"542.6549999974668","","image-keyboard-response","508","969991","0.0-6.0-0.96","","img/red.png","32","trial","32","true","0.8,0.2","1:go_a","",""
"null","","html-keyboard-response","509","970994","0.0-6.0-1.96","","<img src=""img/red-r.png"" border=""10"">","null","trial","32","","0.8,0.2","1:go_a","1",""
"null","","html-keyboard-response","510","971995","0.0-6.0-2.96","","<div style=""font-size:60px;"">+</div>","null","","","","","","",""
"null","","image-keyboard-response","511","973497","0.0-6.0-0.97","","img/purple.png","null","trial","null","true","0.2,0.8","4:nogo_d","",""
"null","","html-keyboard-response","512","974499","0.0-6.0-1.97","","<img src=""img/purple-r.png"">","null","trial","null","","0.2,0.8","4:nogo_d","1",""
"null","","html-keyboard-response","513","975501","0.0-6.0-2.97","","<div style=""font-size:60px;"">+</div>","null","","","","","","",""
"null","","image-keyboard-response","514","977002","0.0-6.0-0.98","","img/green.png","null","trial","null","true","0.2,0.8","2:nogo_b","",""
"null","","html-keyboard-response","515","978004","0.0-6.0-1.98","","<img src=""img/green-r.png"">","null","trial","null","","0.2,0.8","2:nogo_b","1",""
"null","","html-keyboard-response","516","979006","0.0-6.0-2.98","","<div style=""font-size:60px;"">+</div>","null","","","","","","",""
"null","","image-keyboard-response","517","980508","0.0-6.0-0.99","","img/pink.png","null","trial","32","false","0.8,0.2","3:go_c","",""
"null","","html-keyboard-response","518","981510","0.0-6.0-1.99","","<img src=""img/pink-n.png"">","null","trial","32","","0.8,0.2","3:go_c","0",""
"null","","html-keyboard-response","519","982525","0.0-6.0-2.99","","<div style=""font-size:60px;"">+</div>","null","","","","","","",""
"687.3650000197813","","image-keyboard-response","520","983214","0.0-6.0-0.100","","img/red.png","32","trial","32","true","0.8,0.2","1:go_a","",""
"null","","html-keyboard-response","521","984217","0.0-6.0-1.100","","<img src=""img/red-n.png"" border=""10"">","null","trial","32","","0.8,0.2","1:go_a","0",""
"null","","html-keyboard-response","522","985219","0.0-6.0-2.100","","<div style=""font-size:60px;"">+</div>","null","","","","","","",""
"913.5349999996834","","image-keyboard-response","523","986133","0.0-6.0-0.101","","img/pink.png","32","trial","32","true","0.8,0.2","3:go_c","",""
"null","","html-keyboard-response","524","987135","0.0-6.0-1.101","","<img src=""img/pink-r.png"" border=""10"">","null","trial","32","","0.8,0.2","3:go_c","1",""
"null","","html-keyboard-response","525","988137","0.0-6.0-2.101","","<div style=""font-size:60px;"">+</div>","null","","","","","","",""
"null","","image-keyboard-response","526","989639","0.0-6.0-0.102","","img/green.png","null","trial","null","true","0.2,0.8","2:nogo_b","",""
"null","","html-keyboard-response","527","990643","0.0-6.0-1.102","","<img src=""img/green-r.png"">","null","trial","null","","0.2,0.8","2:nogo_b","1",""
"null","","html-keyboard-response","528","991644","0.0-6.0-2.102","","<div style=""font-size:60px;"">+</div>","null","","","","","","",""
"null","","image-keyboard-response","529","993146","0.0-6.0-0.103","","img/purple.png","null","trial","null","true","0.2,0.8","4:nogo_d","",""
"null","","html-keyboard-response","530","994148","0.0-6.0-1.103","","<img src=""img/purple-r.png"">","null","trial","null","","0.2,0.8","4:nogo_d","1",""
"null","","html-keyboard-response","531","995149","0.0-6.0-2.103","","<div style=""font-size:60px;"">+</div>","null","","","","","","",""
"null","","image-keyboard-response","532","996651","0.0-6.0-0.104","","img/green.png","null","trial","null","true","0.2,0.8","2:nogo_b","",""
"null","","html-keyboard-response","533","997654","0.0-6.0-1.104","","<img src=""img/green-r.png"">","null","trial","null","","0.2,0.8","2:nogo_b","1",""
"null","","html-keyboard-response","534","998655","0.0-6.0-2.104","","<div style=""font-size:60px;"">+</div>","null","","","","","","",""
"373.3650000067428","","image-keyboard-response","535","999030","0.0-6.0-0.105","","img/red.png","32","trial","32","true","0.8,0.2","1:go_a","",""
"null","","html-keyboard-response","536","1000033","0.0-6.0-1.105","","<img src=""img/red-n.png"" border=""10"">","null","trial","32","","0.8,0.2","1:go_a","0",""
"null","","html-keyboard-response","537","1001034","0.0-6.0-2.105","","<div style=""font-size:60px;"">+</div>","null","","","","","","",""
"null","","image-keyboard-response","538","1002536","0.0-6.0-0.106","","img/purple.png","null","trial","null","true","0.2,0.8","4:nogo_d","",""
"null","","html-keyboard-response","539","1003539","0.0-6.0-1.106","","<img src=""img/purple-r.png"">","null","trial","null","","0.2,0.8","4:nogo_d","1",""
"null","","html-keyboard-response","540","1004541","0.0-6.0-2.106","","<div style=""font-size:60px;"">+</div>","null","","","","","","",""
"447.08000001264736","","image-keyboard-response","541","1004989","0.0-6.0-0.107","","img/pink.png","32","trial","32","true","0.8,0.2","3:go_c","",""
"null","","html-keyboard-response","542","1005991","0.0-6.0-1.107","","<img src=""img/pink-r.png"" border=""10"">","null","trial","32","","0.8,0.2","3:go_c","1",""
"null","","html-keyboard-response","543","1006993","0.0-6.0-2.107","","<div style=""font-size:60px;"">+</div>","null","","","","","","",""
"null","","image-keyboard-response","544","1008495","0.0-6.0-0.108","","img/purple.png","null","trial","null","true","0.2,0.8","4:nogo_d","",""
"null","","html-keyboard-response","545","1009497","0.0-6.0-1.108","","<img src=""img/purple-r.png"">","null","trial","null","","0.2,0.8","4:nogo_d","1",""
"null","","html-keyboard-response","546","1010499","0.0-6.0-2.108","","<div style=""font-size:60px;"">+</div>","null","","","","","","",""
"378.00999998580664","","image-keyboard-response","547","1010878","0.0-6.0-0.109","","img/red.png","32","trial","32","true","0.8,0.2","1:go_a","",""
"null","","html-keyboard-response","548","1011880","0.0-6.0-1.109","","<img src=""img/red-r.png"" border=""10"">","null","trial","32","","0.8,0.2","1:go_a","1",""
"null","","html-keyboard-response","549","1012881","0.0-6.0-2.109","","<div style=""font-size:60px;"">+</div>","null","","","","","","",""
"null","","image-keyboard-response","550","1014383","0.0-6.0-0.110","","img/green.png","null","trial","null","true","0.2,0.8","2:nogo_b","",""
"null","","html-keyboard-response","551","1015385","0.0-6.0-1.110","","<img src=""img/green-r.png"">","null","trial","null","","0.2,0.8","2:nogo_b","1",""
"null","","html-keyboard-response","552","1016387","0.0-6.0-2.110","","<div style=""font-size:60px;"">+</div>","null","","","","","","",""
"761.4999999641441","","image-keyboard-response","553","1017149","0.0-6.0-0.111","","img/pink.png","32","trial","32","true","0.8,0.2","3:go_c","",""
"null","","html-keyboard-response","554","1018153","0.0-6.0-1.111","","<img src=""img/pink-n.png"" border=""10"">","null","trial","32","","0.8,0.2","3:go_c","0",""
"null","","html-keyboard-response","555","1019154","0.0-6.0-2.111","","<div style=""font-size:60px;"">+</div>","null","","","","","","",""
"null","","image-keyboard-response","556","1020656","0.0-6.0-0.112","","img/green.png","null","trial","null","true","0.2,0.8","2:nogo_b","",""
"null","","html-keyboard-response","557","1021658","0.0-6.0-1.112","","<img src=""img/green-r.png"">","null","trial","null","","0.2,0.8","2:nogo_b","1",""
"null","","html-keyboard-response","558","1022659","0.0-6.0-2.112","","<div style=""font-size:60px;"">+</div>","null","","","","","","",""
"null","","image-keyboard-response","559","1024162","0.0-6.0-0.113","","img/pink.png","null","trial","32","false","0.8,0.2","3:go_c","",""
"null","","html-keyboard-response","560","1025165","0.0-6.0-1.113","","<img src=""img/pink-n.png"">","null","trial","32","","0.8,0.2","3:go_c","0",""
"null","","html-keyboard-response","561","1026167","0.0-6.0-2.113","","<div style=""font-size:60px;"">+</div>","null","","","","","","",""
"null","","image-keyboard-response","562","1027669","0.0-6.0-0.114","","img/purple.png","null","trial","null","true","0.2,0.8","4:nogo_d","",""
"null","","html-keyboard-response","563","1028672","0.0-6.0-1.114","","<img src=""img/purple-n.png"">","null","trial","null","","0.2,0.8","4:nogo_d","0",""
"null","","html-keyboard-response","564","1029673","0.0-6.0-2.114","","<div style=""font-size:60px;"">+</div>","null","","","","","","",""
"915.244999981951","","image-keyboard-response","565","1030589","0.0-6.0-0.115","","img/red.png","32","trial","32","true","0.8,0.2","1:go_a","",""
"null","","html-keyboard-response","566","1031591","0.0-6.0-1.115","","<img src=""img/red-n.png"" border=""10"">","null","trial","32","","0.8,0.2","1:go_a","0",""
"null","","html-keyboard-response","567","1032593","0.0-6.0-2.115","","<div style=""font-size:60px;"">+</div>","null","","","","","","",""
"null","","image-keyboard-response","568","1034094","0.0-6.0-0.116","","img/pink.png","null","trial","32","false","0.8,0.2","3:go_c","",""
"null","","html-keyboard-response","569","1035097","0.0-6.0-1.116","","<img src=""img/pink-n.png"">","null","trial","32","","0.8,0.2","3:go_c","0",""
"null","","html-keyboard-response","570","1036097","0.0-6.0-2.116","","<div style=""font-size:60px;"">+</div>","null","","","","","","",""
"603.609999991022","","image-keyboard-response","571","1036702","0.0-6.0-0.117","","img/red.png","32","trial","32","true","0.8,0.2","1:go_a","",""
"null","","html-keyboard-response","572","1037705","0.0-6.0-1.117","","<img src=""img/red-r.png"" border=""10"">","null","trial","32","","0.8,0.2","1:go_a","1",""
"null","","html-keyboard-response","573","1038706","0.0-6.0-2.117","","<div style=""font-size:60px;"">+</div>","null","","","","","","",""
"null","","image-keyboard-response","574","1040209","0.0-6.0-0.118","","img/green.png","null","trial","null","true","0.2,0.8","2:nogo_b","",""
"null","","html-keyboard-response","575","1041211","0.0-6.0-1.118","","<img src=""img/green-r.png"">","null","trial","null","","0.2,0.8","2:nogo_b","1",""
"null","","html-keyboard-response","576","1042212","0.0-6.0-2.118","","<div style=""font-size:60px;"">+</div>","null","","","","","","",""
"null","","image-keyboard-response","577","1043715","0.0-6.0-0.119","","img/purple.png","null","trial","null","true","0.2,0.8","4:nogo_d","",""
"null","","html-keyboard-response","578","1044718","0.0-6.0-1.119","","<img src=""img/purple-r.png"">","null","trial","null","","0.2,0.8","4:nogo_d","1",""
"null","","html-keyboard-response","579","1045720","0.0-6.0-2.119","","<div style=""font-size:60px;"">+</div>","null","","","","","","",""
"70406.78000001935","","instructions","580","1116126","0.0-7.0","[{""page_index"":0,""viewing_time"":70406.50000004098}]","","","","","","","","",""
"null","","image-keyboard-response","581","1117629","0.0-8.0-0.0","","img/red.png","null","trial","null","true","0,1","4:nogo_d","",""
"null","","html-keyboard-response","582","1118632","0.0-8.0-1.0","","<img src=""img/red-r.png"">","null","trial","null","","0,1","4:nogo_d","1",""
"null","","html-keyboard-response","583","1119633","0.0-8.0-2.0","","<div style=""font-size:60px;"">+</div>","null","","","","","","",""
"466.6150000412017","","image-keyboard-response","584","1120101","0.0-8.0-0.1","","img/yellow.png","32","trial","null","false","0.2,0.8","2:nogo_b","",""
"null","","html-keyboard-response","585","1121104","0.0-8.0-1.1","","<img src=""img/yellow-n.png"" border=""10"">","null","trial","null","","0.2,0.8","2:nogo_b","0",""
"null","","html-keyboard-response","586","1122105","0.0-8.0-2.1","","<div style=""font-size:60px;"">+</div>","null","","","","","","",""
"570.3249999787658","","image-keyboard-response","587","1122677","0.0-8.0-0.2","","img/blue.png","32","trial","32","true","0.8,0.2","1:go_a","",""
"null","","html-keyboard-response","588","1123680","0.0-8.0-1.2","","<img src=""img/blue-r.png"" border=""10"">","null","trial","32","","0.8,0.2","1:go_a","1",""
"null","","html-keyboard-response","589","1124681","0.0-8.0-2.2","","<div style=""font-size:60px;"">+</div>","null","","","","","","",""
"null","","image-keyboard-response","590","1126183","0.0-8.0-0.3","","img/grey.png","null","trial","32","false","1,0","3:go_c","",""
"null","","html-keyboard-response","591","1127186","0.0-8.0-1.3","","<img src=""img/grey-n.png"">","null","trial","32","","1,0","3:go_c","0",""
"null","","html-keyboard-response","592","1128192","0.0-8.0-2.3","","<div style=""font-size:60px;"">+</div>","null","","","","","","",""
"580.855000007432","","image-keyboard-response","593","1128774","0.0-8.0-0.4","","img/blue.png","32","trial","32","true","0.8,0.2","1:go_a","",""
"null","","html-keyboard-response","594","1129777","0.0-8.0-1.4","","<img src=""img/blue-r.png"" border=""10"">","null","trial","32","","0.8,0.2","1:go_a","1",""
"null","","html-keyboard-response","595","1130779","0.0-8.0-2.4","","<div style=""font-size:60px;"">+</div>","null","","","","","","",""
"null","","image-keyboard-response","596","1132281","0.0-8.0-0.5","","img/yellow.png","null","trial","null","true","0.2,0.8","2:nogo_b","",""
"null","","html-keyboard-response","597","1133283","0.0-8.0-1.5","","<img src=""img/yellow-r.png"">","null","trial","null","","0.2,0.8","2:nogo_b","1",""
"null","","html-keyboard-response","598","1134284","0.0-8.0-2.5","","<div style=""font-size:60px;"">+</div>","null","","","","","","",""
"null","","image-keyboard-response","599","1135787","0.0-8.0-0.6","","img/red.png","null","trial","null","true","0,1","4:nogo_d","",""
"null","","html-keyboard-response","600","1136790","0.0-8.0-1.6","","<img src=""img/red-r.png"">","null","trial","null","","0,1","4:nogo_d","1",""
"null","","html-keyboard-response","601","1137791","0.0-8.0-2.6","","<div style=""font-size:60px;"">+</div>","null","","","","","","",""
"null","","image-keyboard-response","602","1139293","0.0-8.0-0.7","","img/grey.png","null","trial","32","false","1,0","3:go_c","",""
"null","","html-keyboard-response","603","1140296","0.0-8.0-1.7","","<img src=""img/grey-n.png"">","null","trial","32","","1,0","3:go_c","0",""
"null","","html-keyboard-response","604","1141297","0.0-8.0-2.7","","<div style=""font-size:60px;"">+</div>","null","","","","","","",""
"null","","image-keyboard-response","605","1142798","0.0-8.0-0.8","","img/yellow.png","null","trial","null","true","0.2,0.8","2:nogo_b","",""
"null","","html-keyboard-response","606","1143800","0.0-8.0-1.8","","<img src=""img/yellow-r.png"">","null","trial","null","","0.2,0.8","2:nogo_b","1",""
"null","","html-keyboard-response","607","1144801","0.0-8.0-2.8","","<div style=""font-size:60px;"">+</div>","null","","","","","","",""
"483.2049999968149","","image-keyboard-response","608","1145285","0.0-8.0-0.9","","img/blue.png","32","trial","32","true","0.8,0.2","1:go_a","",""
"null","","html-keyboard-response","609","1146288","0.0-8.0-1.9","","<img src=""img/blue-r.png"" border=""10"">","null","trial","32","","0.8,0.2","1:go_a","1",""
"null","","html-keyboard-response","610","1147290","0.0-8.0-2.9","","<div style=""font-size:60px;"">+</div>","null","","","","","","",""
"913.2950000348501","","image-keyboard-response","611","1148205","0.0-8.0-0.10","","img/red.png","32","trial","null","false","0,1","4:nogo_d","",""
"null","","html-keyboard-response","612","1149208","0.0-8.0-1.10","","<img src=""img/red-n.png"" border=""10"">","null","trial","null","","0,1","4:nogo_d","0",""
"null","","html-keyboard-response","613","1150210","0.0-8.0-2.10","","<div style=""font-size:60px;"">+</div>","null","","","","","","",""
"642.4150000093505","","image-keyboard-response","614","1150853","0.0-8.0-0.11","","img/grey.png","32","trial","32","true","1,0","3:go_c","",""
"null","","html-keyboard-response","615","1151856","0.0-8.0-1.11","","<img src=""img/grey-r.png"" border=""10"">","null","trial","32","","1,0","3:go_c","1",""
"null","","html-keyboard-response","616","1152857","0.0-8.0-2.11","","<div style=""font-size:60px;"">+</div>","null","","","","","","",""
"1202.8400000417605","","image-keyboard-response","617","1154061","0.0-8.0-0.12","","img/grey.png","32","trial","32","true","1,0","3:go_c","",""
"null","","html-keyboard-response","618","1155064","0.0-8.0-1.12","","<img src=""img/grey-r.png"" border=""10"">","null","trial","32","","1,0","3:go_c","1",""
"null","","html-keyboard-response","619","1156065","0.0-8.0-2.12","","<div style=""font-size:60px;"">+</div>","null","","","","","","",""
"null","","image-keyboard-response","620","1157568","0.0-8.0-0.13","","img/yellow.png","null","trial","null","true","0.2,0.8","2:nogo_b","",""
"null","","html-keyboard-response","621","1158571","0.0-8.0-1.13","","<img src=""img/yellow-r.png"">","null","trial","null","","0.2,0.8","2:nogo_b","1",""
"null","","html-keyboard-response","622","1159573","0.0-8.0-2.13","","<div style=""font-size:60px;"">+</div>","null","","","","","","",""
"662.4850000371225","","image-keyboard-response","623","1160237","0.0-8.0-0.14","","img/blue.png","32","trial","32","true","0.8,0.2","1:go_a","",""
"null","","html-keyboard-response","624","1161240","0.0-8.0-1.14","","<img src=""img/blue-r.png"" border=""10"">","null","trial","32","","0.8,0.2","1:go_a","1",""
"null","","html-keyboard-response","625","1162243","0.0-8.0-2.14","","<div style=""font-size:60px;"">+</div>","null","","","","","","",""
"null","","image-keyboard-response","626","1163746","0.0-8.0-0.15","","img/red.png","null","trial","null","true","0,1","4:nogo_d","",""
"null","","html-keyboard-response","627","1164748","0.0-8.0-1.15","","<img src=""img/red-r.png"">","null","trial","null","","0,1","4:nogo_d","1",""
"null","","html-keyboard-response","628","1165749","0.0-8.0-2.15","","<div style=""font-size:60px;"">+</div>","null","","","","","","",""
"447.3249999573454","","image-keyboard-response","629","1166198","0.0-8.0-0.16","","img/blue.png","32","trial","32","true","0.8,0.2","1:go_a","",""
"null","","html-keyboard-response","630","1167201","0.0-8.0-1.16","","<img src=""img/blue-r.png"" border=""10"">","null","trial","32","","0.8,0.2","1:go_a","1",""
"null","","html-keyboard-response","631","1168202","0.0-8.0-2.16","","<div style=""font-size:60px;"">+</div>","null","","","","","","",""
"null","","image-keyboard-response","632","1169704","0.0-8.0-0.17","","img/yellow.png","null","trial","null","true","0.2,0.8","2:nogo_b","",""
"null","","html-keyboard-response","633","1170706","0.0-8.0-1.17","","<img src=""img/yellow-n.png"">","null","trial","null","","0.2,0.8","2:nogo_b","0",""
"null","","html-keyboard-response","634","1171708","0.0-8.0-2.17","","<div style=""font-size:60px;"">+</div>","null","","","","","","",""
"null","","image-keyboard-response","635","1173210","0.0-8.0-0.18","","img/red.png","null","trial","null","true","0,1","4:nogo_d","",""
"null","","html-keyboard-response","636","1174212","0.0-8.0-1.18","","<img src=""img/red-r.png"">","null","trial","null","","0,1","4:nogo_d","1",""
"null","","html-keyboard-response","637","1175215","0.0-8.0-2.18","","<div style=""font-size:60px;"">+</div>","null","","","","","","",""
"null","","image-keyboard-response","638","1176717","0.0-8.0-0.19","","img/grey.png","null","trial","32","false","1,0","3:go_c","",""
"null","","html-keyboard-response","639","1177732","0.0-8.0-1.19","","<img src=""img/grey-n.png"">","null","trial","32","","1,0","3:go_c","0",""
"null","","html-keyboard-response","640","1178734","0.0-8.0-2.19","","<div style=""font-size:60px;"">+</div>","null","","","","","","",""
"null","","image-keyboard-response","641","1180236","0.0-8.0-0.20","","img/grey.png","null","trial","32","false","1,0","3:go_c","",""
"null","","html-keyboard-response","642","1181237","0.0-8.0-1.20","","<img src=""img/grey-n.png"">","null","trial","32","","1,0","3:go_c","0",""
"null","","html-keyboard-response","643","1182238","0.0-8.0-2.20","","<div style=""font-size:60px;"">+</div>","null","","","","","","",""
"null","","image-keyboard-response","644","1183740","0.0-8.0-0.21","","img/red.png","null","trial","null","true","0,1","4:nogo_d","",""
"null","","html-keyboard-response","645","1184744","0.0-8.0-1.21","","<img src=""img/red-r.png"">","null","trial","null","","0,1","4:nogo_d","1",""
"null","","html-keyboard-response","646","1185746","0.0-8.0-2.21","","<div style=""font-size:60px;"">+</div>","null","","","","","","",""
"null","","image-keyboard-response","647","1187249","0.0-8.0-0.22","","img/yellow.png","null","trial","null","true","0.2,0.8","2:nogo_b","",""
"null","","html-keyboard-response","648","1188252","0.0-8.0-1.22","","<img src=""img/yellow-r.png"">","null","trial","null","","0.2,0.8","2:nogo_b","1",""
"null","","html-keyboard-response","649","1189253","0.0-8.0-2.22","","<div style=""font-size:60px;"">+</div>","null","","","","","","",""
"367.6800000248477","","image-keyboard-response","650","1189622","0.0-8.0-0.23","","img/blue.png","32","trial","32","true","0.8,0.2","1:go_a","",""
"null","","html-keyboard-response","651","1190624","0.0-8.0-1.23","","<img src=""img/blue-r.png"" border=""10"">","null","trial","32","","0.8,0.2","1:go_a","1",""
"null","","html-keyboard-response","652","1191626","0.0-8.0-2.23","","<div style=""font-size:60px;"">+</div>","null","","","","","","",""
"null","","image-keyboard-response","653","1193128","0.0-8.0-0.24","","img/yellow.png","null","trial","null","true","0.2,0.8","2:nogo_b","",""
"null","","html-keyboard-response","654","1194130","0.0-8.0-1.24","","<img src=""img/yellow-r.png"">","null","trial","null","","0.2,0.8","2:nogo_b","1",""
"null","","html-keyboard-response","655","1195132","0.0-8.0-2.24","","<div style=""font-size:60px;"">+</div>","null","","","","","","",""
"401.8649999634363","","image-keyboard-response","656","1195534","0.0-8.0-0.25","","img/blue.png","32","trial","32","true","0.8,0.2","1:go_a","",""
"null","","html-keyboard-response","657","1196551","0.0-8.0-1.25","","<img src=""img/blue-r.png"" border=""10"">","null","trial","32","","0.8,0.2","1:go_a","1",""
"null","","html-keyboard-response","658","1197552","0.0-8.0-2.25","","<div style=""font-size:60px;"">+</div>","null","","","","","","",""
"null","","image-keyboard-response","659","1199055","0.0-8.0-0.26","","img/grey.png","null","trial","32","false","1,0","3:go_c","",""
"null","","html-keyboard-response","660","1200058","0.0-8.0-1.26","","<img src=""img/grey-n.png"">","null","trial","32","","1,0","3:go_c","0",""
"null","","html-keyboard-response","661","1201060","0.0-8.0-2.26","","<div style=""font-size:60px;"">+</div>","null","","","","","","",""
"null","","image-keyboard-response","662","1202562","0.0-8.0-0.27","","img/red.png","null","trial","null","true","0,1","4:nogo_d","",""
"null","","html-keyboard-response","663","1203563","0.0-8.0-1.27","","<img src=""img/red-r.png"">","null","trial","null","","0,1","4:nogo_d","1",""
"null","","html-keyboard-response","664","1204565","0.0-8.0-2.27","","<div style=""font-size:60px;"">+</div>","null","","","","","","",""
"null","","image-keyboard-response","665","1206067","0.0-8.0-0.28","","img/blue.png","null","trial","32","false","0.8,0.2","1:go_a","",""
"null","","html-keyboard-response","666","1207070","0.0-8.0-1.28","","<img src=""img/blue-n.png"">","null","trial","32","","0.8,0.2","1:go_a","0",""
"null","","html-keyboard-response","667","1208071","0.0-8.0-2.28","","<div style=""font-size:60px;"">+</div>","null","","","","","","",""
"null","","image-keyboard-response","668","1209573","0.0-8.0-0.29","","img/red.png","null","trial","null","true","0,1","4:nogo_d","",""
"null","","html-keyboard-response","669","1210580","0.0-8.0-1.29","","<img src=""img/red-r.png"">","null","trial","null","","0,1","4:nogo_d","1",""
"null","","html-keyboard-response","670","1211582","0.0-8.0-2.29","","<div style=""font-size:60px;"">+</div>","null","","","","","","",""
"null","","image-keyboard-response","671","1213083","0.0-8.0-0.30","","img/yellow.png","null","trial","null","true","0.2,0.8","2:nogo_b","",""
"null","","html-keyboard-response","672","1214085","0.0-8.0-1.30","","<img src=""img/yellow-r.png"">","null","trial","null","","0.2,0.8","2:nogo_b","1",""
"null","","html-keyboard-response","673","1215086","0.0-8.0-2.30","","<div style=""font-size:60px;"">+</div>","null","","","","","","",""
"null","","image-keyboard-response","674","1216588","0.0-8.0-0.31","","img/grey.png","null","trial","32","false","1,0","3:go_c","",""
"null","","html-keyboard-response","675","1217591","0.0-8.0-1.31","","<img src=""img/grey-n.png"">","null","trial","32","","1,0","3:go_c","0",""
"null","","html-keyboard-response","676","1218593","0.0-8.0-2.31","","<div style=""font-size:60px;"">+</div>","null","","","","","","",""
"null","","image-keyboard-response","677","1220095","0.0-8.0-0.32","","img/yellow.png","null","trial","null","true","0.2,0.8","2:nogo_b","",""
"null","","html-keyboard-response","678","1221098","0.0-8.0-1.32","","<img src=""img/yellow-n.png"">","null","trial","null","","0.2,0.8","2:nogo_b","0",""
"null","","html-keyboard-response","679","1222099","0.0-8.0-2.32","","<div style=""font-size:60px;"">+</div>","null","","","","","","",""
"null","","image-keyboard-response","680","1223601","0.0-8.0-0.33","","img/red.png","null","trial","null","true","0,1","4:nogo_d","",""
"null","","html-keyboard-response","681","1224604","0.0-8.0-1.33","","<img src=""img/red-r.png"">","null","trial","null","","0,1","4:nogo_d","1",""
"null","","html-keyboard-response","682","1225606","0.0-8.0-2.33","","<div style=""font-size:60px;"">+</div>","null","","","","","","",""
"678.8950000191107","","image-keyboard-response","683","1226286","0.0-8.0-0.34","","img/blue.png","32","trial","32","true","0.8,0.2","1:go_a","",""
"null","","html-keyboard-response","684","1227289","0.0-8.0-1.34","","<img src=""img/blue-r.png"" border=""10"">","null","trial","32","","0.8,0.2","1:go_a","1",""
"null","","html-keyboard-response","685","1228291","0.0-8.0-2.34","","<div style=""font-size:60px;"">+</div>","null","","","","","","",""
"null","","image-keyboard-response","686","1229793","0.0-8.0-0.35","","img/grey.png","null","trial","32","false","1,0","3:go_c","",""
