"rt","url","trial_type","trial_index","time_elapsed","internal_node_id","view_history","stimulus","key_press","test_part","correct_response","correct","use_rew","which_stim","reward","responses"
"8018.769999995129","consent.html","external-html","0","8109","0.0-0.0","","","","","","","","","",""
"92379.1800000181","","instructions","1","100491","0.0-1.0","[{""page_index"":0,""viewing_time"":4653.170000005048},{""page_index"":1,""viewing_time"":27476.835000008577},{""page_index"":2,""viewing_time"":7714.535000006435},{""page_index"":3,""viewing_time"":15059.689999994589},{""page_index"":4,""viewing_time"":20361.355000000913},{""page_index"":5,""viewing_time"":11043.594999995548},{""page_index"":6,""viewing_time"":6067.145000008168}]","","","","","","","","",""
"null","","image-keyboard-response","2","102004","0.0-2.0-0.0","","img/test1.PNG","null","practice","32","false","","","",""
"null","","html-keyboard-response","3","103016","0.0-2.0-1.0","","<img src=""img/test1-neutral.PNG"">","null","","","","","","",""
"null","","html-keyboard-response","4","104030","0.0-2.0-2.0","","<div style=""font-size:60px;"">+</div>","null","","","","","","",""
"null","","image-keyboard-response","5","105535","0.0-2.0-0.1","","img/test2.PNG","null","practice","null","true","","","",""
"null","","html-keyboard-response","6","106538","0.0-2.0-1.1","","<img src=""img/test2-reward.PNG"">","null","","","","","","",""
"null","","html-keyboard-response","7","107546","0.0-2.0-2.1","","<div style=""font-size:60px;"">+</div>","null","","","","","","",""
"843.189999985043","","image-keyboard-response","8","108391","0.0-2.0-0.2","","img/test3.PNG","32","practice","null","false","","","",""
"null","","html-keyboard-response","9","109401","0.0-2.0-1.2","","<img src=""img/test3-neutral.PNG"" border=""10px; grey"">","null","","","","","","",""
"null","","html-keyboard-response","10","110411","0.0-2.0-2.2","","<div style=""font-size:60px;"">+</div>","null","","","","","","",""
"1141.9450000103097","","image-keyboard-response","11","111555","0.0-2.0-0.3","","img/test1.PNG","32","practice","32","true","","","",""
"null","","html-keyboard-response","12","112563","0.0-2.0-1.3","","<img src=""img/test1-reward.PNG"" border=""10px; grey"">","null","","","","","","",""
"null","","html-keyboard-response","13","113570","0.0-2.0-2.3","","<div style=""font-size:60px;"">+</div>","null","","","","","","",""
"820.4250000126194","","image-keyboard-response","14","114394","0.0-2.0-0.4","","img/test3.PNG","32","practice","null","false","","","",""
"null","","html-keyboard-response","15","115398","0.0-2.0-1.4","","<img src=""img/test3-neutral.PNG"" border=""10px; grey"">","null","","","","","","",""
"null","","html-keyboard-response","16","116406","0.0-2.0-2.4","","<div style=""font-size:60px;"">+</div>","null","","","","","","",""
"1037.624999997206","","image-keyboard-response","17","117446","0.0-2.0-0.5","","img/test2.PNG","32","practice","null","false","","","",""
"null","","html-keyboard-response","18","118457","0.0-2.0-1.5","","<img src=""img/test2-neutral.PNG"" border=""10px; grey"">","null","","","","","","",""
"null","","html-keyboard-response","19","119464","0.0-2.0-2.5","","<div style=""font-size:60px;"">+</div>","null","","","","","","",""
"null","","image-keyboard-response","20","120971","0.0-2.0-0.6","","img/test2.PNG","null","practice","null","true","","","",""
"null","","html-keyboard-response","21","121979","0.0-2.0-1.6","","<img src=""img/test2-reward.PNG"">","null","","","","","","",""
"null","","html-keyboard-response","22","122981","0.0-2.0-2.6","","<div style=""font-size:60px;"">+</div>","null","","","","","","",""
"570.0899999937974","","image-keyboard-response","23","123553","0.0-2.0-0.7","","img/test1.PNG","32","practice","32","true","","","",""
"null","","html-keyboard-response","24","124565","0.0-2.0-1.7","","<img src=""img/test1-reward.PNG"" border=""10px; grey"">","null","","","","","","",""
"null","","html-keyboard-response","25","125571","0.0-2.0-2.7","","<div style=""font-size:60px;"">+</div>","null","","","","","","",""
"798.4149999974761","","image-keyboard-response","26","126371","0.0-2.0-0.8","","img/test3.PNG","32","practice","null","false","","","",""
"null","","html-keyboard-response","27","127381","0.0-2.0-1.8","","<img src=""img/test3-neutral.PNG"" border=""10px; grey"">","null","","","","","","",""
"null","","html-keyboard-response","28","128392","0.0-2.0-2.8","","<div style=""font-size:60px;"">+</div>","null","","","","","","",""
"null","","image-keyboard-response","29","129907","0.0-2.0-0.9","","img/test1.PNG","null","practice","32","false","","","",""
"null","","html-keyboard-response","30","130921","0.0-2.0-1.9","","<img src=""img/test1-neutral.PNG"">","null","","","","","","",""
"null","","html-keyboard-response","31","131928","0.0-2.0-2.9","","<div style=""font-size:60px;"">+</div>","null","","","","","","",""
"472.1949999802746","","image-keyboard-response","32","132404","0.0-2.0-0.10","","img/test2.PNG","32","practice","null","false","","","",""
"null","","html-keyboard-response","33","133408","0.0-2.0-1.10","","<img src=""img/test2-neutral.PNG"" border=""10px; grey"">","null","","","","","","",""
"null","","html-keyboard-response","34","134416","0.0-2.0-2.10","","<div style=""font-size:60px;"">+</div>","null","","","","","","",""
"875.3000000142492","","image-keyboard-response","35","135293","0.0-2.0-0.11","","img/test3.PNG","32","practice","null","false","","","",""
"null","","html-keyboard-response","36","136297","0.0-2.0-1.11","","<img src=""img/test3-neutral.PNG"" border=""10px; grey"">","null","","","","","","",""
"null","","html-keyboard-response","37","137311","0.0-2.0-2.11","","<div style=""font-size:60px;"">+</div>","null","","","","","","",""
"1751.1649999942165","","instructions","38","139063","0.0-3.0","[{""page_index"":0,""viewing_time"":1750.72499999078}]","","","","","","","","",""
"null","","image-keyboard-response","39","140573","0.0-4.0-0.0","","img/red.png","null","trial","32","false","0.8,0.2","1:go_a","",""
"null","","html-keyboard-response","40","141588","0.0-4.0-1.0","","<img src=""img/red-n.png"">","null","trial","32","","0.8,0.2","1:go_a","0",""
"null","","html-keyboard-response","41","142604","0.0-4.0-2.0","","<div style=""font-size:60px;"">+</div>","null","","","","","","",""
"509.30499998503365","","image-keyboard-response","42","143115","0.0-4.0-0.1","","img/pink.png","32","trial","null","false","0.2,0.8","2:nogo_b","",""
"null","","html-keyboard-response","43","144126","0.0-4.0-1.1","","<img src=""img/pink-n.png"" border=""10"">","null","trial","null","","0.2,0.8","2:nogo_b","0",""
"null","","html-keyboard-response","44","145133","0.0-4.0-2.1","","<div style=""font-size:60px;"">+</div>","null","","","","","","",""
"null","","image-keyboard-response","45","146637","0.0-4.0-0.2","","img/pink.png","null","trial","null","true","0.2,0.8","2:nogo_b","",""
"null","","html-keyboard-response","46","147642","0.0-4.0-1.2","","<img src=""img/pink-r.png"">","null","trial","null","","0.2,0.8","2:nogo_b","1",""
"null","","html-keyboard-response","47","148653","0.0-4.0-2.2","","<div style=""font-size:60px;"">+</div>","null","","","","","","",""
"null","","image-keyboard-response","48","150166","0.0-4.0-0.3","","img/red.png","null","trial","32","false","0.8,0.2","1:go_a","",""
"null","","html-keyboard-response","49","151173","0.0-4.0-1.3","","<img src=""img/red-n.png"">","null","trial","32","","0.8,0.2","1:go_a","0",""
"null","","html-keyboard-response","50","152189","0.0-4.0-2.3","","<div style=""font-size:60px;"">+</div>","null","","","","","","",""
"null","","image-keyboard-response","51","153695","0.0-4.0-0.4","","img/pink.png","null","trial","null","true","0.2,0.8","2:nogo_b","",""
"null","","html-keyboard-response","52","154707","0.0-4.0-1.4","","<img src=""img/pink-r.png"">","null","trial","null","","0.2,0.8","2:nogo_b","1",""
"null","","html-keyboard-response","53","155716","0.0-4.0-2.4","","<div style=""font-size:60px;"">+</div>","null","","","","","","",""
"549.845000001369","","image-keyboard-response","54","156268","0.0-4.0-0.5","","img/red.png","32","trial","32","true","0.8,0.2","1:go_a","",""
"null","","html-keyboard-response","55","157272","0.0-4.0-1.5","","<img src=""img/red-n.png"" border=""10"">","null","trial","32","","0.8,0.2","1:go_a","0",""
"null","","html-keyboard-response","56","158282","0.0-4.0-2.5","","<div style=""font-size:60px;"">+</div>","null","","","","","","",""
"611.8800000112969","","image-keyboard-response","57","158896","0.0-4.0-0.6","","img/red.png","32","trial","32","true","0.8,0.2","1:go_a","",""
"null","","html-keyboard-response","58","159917","0.0-4.0-1.6","","<img src=""img/red-n.png"" border=""10"">","null","trial","32","","0.8,0.2","1:go_a","0",""
"null","","html-keyboard-response","59","160922","0.0-4.0-2.6","","<div style=""font-size:60px;"">+</div>","null","","","","","","",""
"474.1300000168849","","image-keyboard-response","60","161398","0.0-4.0-0.7","","img/pink.png","32","trial","null","false","0.2,0.8","2:nogo_b","",""
"null","","html-keyboard-response","61","162409","0.0-4.0-1.7","","<img src=""img/pink-n.png"" border=""10"">","null","trial","null","","0.2,0.8","2:nogo_b","0",""
"null","","html-keyboard-response","62","163411","0.0-4.0-2.7","","<div style=""font-size:60px;"">+</div>","null","","","","","","",""
"451.824999996461","","image-keyboard-response","63","163865","0.0-4.0-0.8","","img/pink.png","32","trial","null","false","0.2,0.8","2:nogo_b","",""
"null","","html-keyboard-response","64","164874","0.0-4.0-1.8","","<img src=""img/pink-n.png"" border=""10"">","null","trial","null","","0.2,0.8","2:nogo_b","0",""
"null","","html-keyboard-response","65","165889","0.0-4.0-2.8","","<div style=""font-size:60px;"">+</div>","null","","","","","","",""
"null","","image-keyboard-response","66","167393","0.0-4.0-0.9","","img/red.png","null","trial","32","false","0.8,0.2","1:go_a","",""
"null","","html-keyboard-response","67","168403","0.0-4.0-1.9","","<img src=""img/red-n.png"">","null","trial","32","","0.8,0.2","1:go_a","0",""
"null","","html-keyboard-response","68","169422","0.0-4.0-2.9","","<div style=""font-size:60px;"">+</div>","null","","","","","","",""
"681.1649999872316","","image-keyboard-response","69","170105","0.0-4.0-0.10","","img/red.png","32","trial","32","true","0.8,0.2","1:go_a","",""
"null","","html-keyboard-response","70","171123","0.0-4.0-1.10","","<img src=""img/red-r.png"" border=""10"">","null","trial","32","","0.8,0.2","1:go_a","1",""
"null","","html-keyboard-response","71","172134","0.0-4.0-2.10","","<div style=""font-size:60px;"">+</div>","null","","","","","","",""
"982.1299999894109","","image-keyboard-response","72","173118","0.0-4.0-0.11","","img/pink.png","32","trial","null","false","0.2,0.8","2:nogo_b","",""
"null","","html-keyboard-response","73","174127","0.0-4.0-1.11","","<img src=""img/pink-n.png"" border=""10"">","null","trial","null","","0.2,0.8","2:nogo_b","0",""
"null","","html-keyboard-response","74","175135","0.0-4.0-2.11","","<div style=""font-size:60px;"">+</div>","null","","","","","","",""
"null","","image-keyboard-response","75","176647","0.0-4.0-0.12","","img/pink.png","null","trial","null","true","0.2,0.8","2:nogo_b","",""
"null","","html-keyboard-response","76","177655","0.0-4.0-1.12","","<img src=""img/pink-r.png"">","null","trial","null","","0.2,0.8","2:nogo_b","1",""
"null","","html-keyboard-response","77","178670","0.0-4.0-2.12","","<div style=""font-size:60px;"">+</div>","null","","","","","","",""
"null","","image-keyboard-response","78","180176","0.0-4.0-0.13","","img/red.png","null","trial","32","false","0.8,0.2","1:go_a","",""
"null","","html-keyboard-response","79","181185","0.0-4.0-1.13","","<img src=""img/red-n.png"">","null","trial","32","","0.8,0.2","1:go_a","0",""
"null","","html-keyboard-response","80","182190","0.0-4.0-2.13","","<div style=""font-size:60px;"">+</div>","null","","","","","","",""
"null","","image-keyboard-response","81","183700","0.0-4.0-0.14","","img/pink.png","null","trial","null","true","0.2,0.8","2:nogo_b","",""
"null","","html-keyboard-response","82","184709","0.0-4.0-1.14","","<img src=""img/pink-r.png"">","null","trial","null","","0.2,0.8","2:nogo_b","1",""
"null","","html-keyboard-response","83","185719","0.0-4.0-2.14","","<div style=""font-size:60px;"">+</div>","null","","","","","","",""
"358.2499999902211","","image-keyboard-response","84","186079","0.0-4.0-0.15","","img/red.png","32","trial","32","true","0.8,0.2","1:go_a","",""
"null","","html-keyboard-response","85","187088","0.0-4.0-1.15","","<img src=""img/red-n.png"" border=""10"">","null","trial","32","","0.8,0.2","1:go_a","0",""
"null","","html-keyboard-response","86","188098","0.0-4.0-2.15","","<div style=""font-size:60px;"">+</div>","null","","","","","","",""
"862.2500000055879","","image-keyboard-response","87","188962","0.0-4.0-0.16","","img/red.png","32","trial","32","true","0.8,0.2","1:go_a","",""
"null","","html-keyboard-response","88","189976","0.0-4.0-1.16","","<img src=""img/red-n.png"" border=""10"">","null","trial","32","","0.8,0.2","1:go_a","0",""
"null","","html-keyboard-response","89","190988","0.0-4.0-2.16","","<div style=""font-size:60px;"">+</div>","null","","","","","","",""
"876.6550000000279","","image-keyboard-response","90","191867","0.0-4.0-0.17","","img/pink.png","32","trial","null","false","0.2,0.8","2:nogo_b","",""
"null","","html-keyboard-response","91","192872","0.0-4.0-1.17","","<img src=""img/pink-n.png"" border=""10"">","null","trial","null","","0.2,0.8","2:nogo_b","0",""
"null","","html-keyboard-response","92","193881","0.0-4.0-2.17","","<div style=""font-size:60px;"">+</div>","null","","","","","","",""
"815.0099999911617","","image-keyboard-response","93","194698","0.0-4.0-0.18","","img/red.png","32","trial","32","true","0.8,0.2","1:go_a","",""
"null","","html-keyboard-response","94","195709","0.0-4.0-1.18","","<img src=""img/red-r.png"" border=""10"">","null","trial","32","","0.8,0.2","1:go_a","1",""
"null","","html-keyboard-response","95","196715","0.0-4.0-2.18","","<div style=""font-size:60px;"">+</div>","null","","","","","","",""
"919.0799999923911","","image-keyboard-response","96","197636","0.0-4.0-0.19","","img/pink.png","32","trial","null","false","0.2,0.8","2:nogo_b","",""
"null","","html-keyboard-response","97","198648","0.0-4.0-1.19","","<img src=""img/pink-n.png"" border=""10"">","null","trial","null","","0.2,0.8","2:nogo_b","0",""
"null","","html-keyboard-response","98","199655","0.0-4.0-2.19","","<div style=""font-size:60px;"">+</div>","null","","","","","","",""
"null","","image-keyboard-response","99","201164","0.0-4.0-0.20","","img/red.png","null","trial","32","false","0.8,0.2","1:go_a","",""
"null","","html-keyboard-response","100","202177","0.0-4.0-1.20","","<img src=""img/red-n.png"">","null","trial","32","","0.8,0.2","1:go_a","0",""
"null","","html-keyboard-response","101","203183","0.0-4.0-2.20","","<div style=""font-size:60px;"">+</div>","null","","","","","","",""
"626.9699999829754","","image-keyboard-response","102","203812","0.0-4.0-0.21","","img/pink.png","32","trial","null","false","0.2,0.8","2:nogo_b","",""
"null","","html-keyboard-response","103","204830","0.0-4.0-1.21","","<img src=""img/pink-n.png"" border=""10"">","null","trial","null","","0.2,0.8","2:nogo_b","0",""
"null","","html-keyboard-response","104","205845","0.0-4.0-2.21","","<div style=""font-size:60px;"">+</div>","null","","","","","","",""
"1019.2599999718368","","image-keyboard-response","105","206866","0.0-4.0-0.22","","img/pink.png","32","trial","null","false","0.2,0.8","2:nogo_b","",""
"null","","html-keyboard-response","106","207875","0.0-4.0-1.22","","<img src=""img/pink-n.png"" border=""10"">","null","trial","null","","0.2,0.8","2:nogo_b","0",""
"null","","html-keyboard-response","107","208891","0.0-4.0-2.22","","<div style=""font-size:60px;"">+</div>","null","","","","","","",""
"520.1600000145845","","image-keyboard-response","108","209413","0.0-4.0-0.23","","img/red.png","32","trial","32","true","0.8,0.2","1:go_a","",""
"null","","html-keyboard-response","109","210421","0.0-4.0-1.23","","<img src=""img/red-r.png"" border=""10"">","null","trial","32","","0.8,0.2","1:go_a","1",""
"null","","html-keyboard-response","110","211428","0.0-4.0-2.23","","<div style=""font-size:60px;"">+</div>","null","","","","","","",""
"null","","image-keyboard-response","111","212942","0.0-4.0-0.24","","img/pink.png","null","trial","null","true","0.2,0.8","2:nogo_b","",""
"null","","html-keyboard-response","112","213949","0.0-4.0-1.24","","<img src=""img/pink-r.png"">","null","trial","null","","0.2,0.8","2:nogo_b","1",""
"null","","html-keyboard-response","113","214953","0.0-4.0-2.24","","<div style=""font-size:60px;"">+</div>","null","","","","","","",""
"null","","image-keyboard-response","114","216462","0.0-4.0-0.25","","img/red.png","null","trial","32","false","0.8,0.2","1:go_a","",""
"null","","html-keyboard-response","115","217477","0.0-4.0-1.25","","<img src=""img/red-n.png"">","null","trial","32","","0.8,0.2","1:go_a","0",""
"null","","html-keyboard-response","116","218490","0.0-4.0-2.25","","<div style=""font-size:60px;"">+</div>","null","","","","","","",""
"null","","image-keyboard-response","117","220005","0.0-4.0-0.26","","img/red.png","null","trial","32","false","0.8,0.2","1:go_a","",""
"null","","html-keyboard-response","118","221020","0.0-4.0-1.26","","<img src=""img/red-n.png"">","null","trial","32","","0.8,0.2","1:go_a","0",""
"null","","html-keyboard-response","119","222031","0.0-4.0-2.26","","<div style=""font-size:60px;"">+</div>","null","","","","","","",""
"1373.0050000012852","","image-keyboard-response","120","223405","0.0-4.0-0.27","","img/pink.png","32","trial","null","false","0.2,0.8","2:nogo_b","",""
"null","","html-keyboard-response","121","224417","0.0-4.0-1.27","","<img src=""img/pink-n.png"" border=""10"">","null","trial","null","","0.2,0.8","2:nogo_b","0",""
"null","","html-keyboard-response","122","225422","0.0-4.0-2.27","","<div style=""font-size:60px;"">+</div>","null","","","","","","",""
"682.9349999898113","","image-keyboard-response","123","226107","0.0-4.0-0.28","","img/red.png","32","trial","32","true","0.8,0.2","1:go_a","",""
"null","","html-keyboard-response","124","227121","0.0-4.0-1.28","","<img src=""img/red-r.png"" border=""10"">","null","trial","32","","0.8,0.2","1:go_a","1",""
"null","","html-keyboard-response","125","228136","0.0-4.0-2.28","","<div style=""font-size:60px;"">+</div>","null","","","","","","",""
"509.0899999777321","","image-keyboard-response","126","228647","0.0-4.0-0.29","","img/pink.png","32","trial","null","false","0.2,0.8","2:nogo_b","",""
"null","","html-keyboard-response","127","229657","0.0-4.0-1.29","","<img src=""img/pink-n.png"" border=""10"">","null","trial","null","","0.2,0.8","2:nogo_b","0",""
"null","","html-keyboard-response","128","230674","0.0-4.0-2.29","","<div style=""font-size:60px;"">+</div>","null","","","","","","",""
"904.7100000025239","","image-keyboard-response","129","231581","0.0-4.0-0.30","","img/pink.png","32","trial","null","false","0.2,0.8","2:nogo_b","",""
"null","","html-keyboard-response","130","232587","0.0-4.0-1.30","","<img src=""img/pink-n.png"" border=""10"">","null","trial","null","","0.2,0.8","2:nogo_b","0",""
"null","","html-keyboard-response","131","233599","0.0-4.0-2.30","","<div style=""font-size:60px;"">+</div>","null","","","","","","",""
"null","","image-keyboard-response","132","235107","0.0-4.0-0.31","","img/red.png","null","trial","32","false","0.8,0.2","1:go_a","",""
"null","","html-keyboard-response","133","236125","0.0-4.0-1.31","","<img src=""img/red-n.png"">","null","trial","32","","0.8,0.2","1:go_a","0",""
"null","","html-keyboard-response","134","237137","0.0-4.0-2.31","","<div style=""font-size:60px;"">+</div>","null","","","","","","",""
"993.0500000191387","","image-keyboard-response","135","238132","0.0-4.0-0.32","","img/pink.png","32","trial","null","false","0.2,0.8","2:nogo_b","",""
"null","","html-keyboard-response","136","239144","0.0-4.0-1.32","","<img src=""img/pink-n.png"" border=""10"">","null","trial","null","","0.2,0.8","2:nogo_b","0",""
"null","","html-keyboard-response","137","240151","0.0-4.0-2.32","","<div style=""font-size:60px;"">+</div>","null","","","","","","",""
"null","","image-keyboard-response","138","241656","0.0-4.0-0.33","","img/red.png","null","trial","32","false","0.8,0.2","1:go_a","",""
"null","","html-keyboard-response","139","242663","0.0-4.0-1.33","","<img src=""img/red-n.png"">","null","trial","32","","0.8,0.2","1:go_a","0",""
"null","","html-keyboard-response","140","243669","0.0-4.0-2.33","","<div style=""font-size:60px;"">+</div>","null","","","","","","",""
"null","","image-keyboard-response","141","245184","0.0-4.0-0.34","","img/red.png","null","trial","32","false","0.8,0.2","1:go_a","",""
"null","","html-keyboard-response","142","246195","0.0-4.0-1.34","","<img src=""img/red-n.png"">","null","trial","32","","0.8,0.2","1:go_a","0",""
"null","","html-keyboard-response","143","247197","0.0-4.0-2.34","","<div style=""font-size:60px;"">+</div>","null","","","","","","",""
"631.8399999872781","","image-keyboard-response","144","247831","0.0-4.0-0.35","","img/pink.png","32","trial","null","false","0.2,0.8","2:nogo_b","",""
"null","","html-keyboard-response","145","248837","0.0-4.0-1.35","","<img src=""img/pink-n.png"" border=""10"">","null","trial","null","","0.2,0.8","2:nogo_b","0",""
"null","","html-keyboard-response","146","249850","0.0-4.0-2.35","","<div style=""font-size:60px;"">+</div>","null","","","","","","",""
"792.7199999976438","","image-keyboard-response","147","250645","0.0-4.0-0.36","","img/red.png","32","trial","32","true","0.8,0.2","1:go_a","",""
"null","","html-keyboard-response","148","251658","0.0-4.0-1.36","","<img src=""img/red-r.png"" border=""10"">","null","trial","32","","0.8,0.2","1:go_a","1",""
"null","","html-keyboard-response","149","252673","0.0-4.0-2.36","","<div style=""font-size:60px;"">+</div>","null","","","","","","",""
"null","","image-keyboard-response","150","254177","0.0-4.0-0.37","","img/pink.png","null","trial","null","true","0.2,0.8","2:nogo_b","",""
"null","","html-keyboard-response","151","255192","0.0-4.0-1.37","","<img src=""img/pink-n.png"">","null","trial","null","","0.2,0.8","2:nogo_b","0",""
"null","","html-keyboard-response","152","256202","0.0-4.0-2.37","","<div style=""font-size:60px;"">+</div>","null","","","","","","",""
"null","","image-keyboard-response","153","257706","0.0-4.0-0.38","","img/red.png","null","trial","32","false","0.8,0.2","1:go_a","",""
"null","","html-keyboard-response","154","258713","0.0-4.0-1.38","","<img src=""img/red-n.png"">","null","trial","32","","0.8,0.2","1:go_a","0",""
"null","","html-keyboard-response","155","259720","0.0-4.0-2.38","","<div style=""font-size:60px;"">+</div>","null","","","","","","",""
"669.5950000139419","","image-keyboard-response","156","260392","0.0-4.0-0.39","","img/pink.png","32","trial","null","false","0.2,0.8","2:nogo_b","",""
"null","","html-keyboard-response","157","261398","0.0-4.0-1.39","","<img src=""img/pink-n.png"" border=""10"">","null","trial","null","","0.2,0.8","2:nogo_b","0",""
"null","","html-keyboard-response","158","262414","0.0-4.0-2.39","","<div style=""font-size:60px;"">+</div>","null","","","","","","",""
"783.8650000048801","","image-keyboard-response","159","263200","0.0-4.0-0.40","","img/red.png","32","trial","32","true","0.8,0.2","1:go_a","",""
"null","","html-keyboard-response","160","264218","0.0-4.0-1.40","","<img src=""img/red-r.png"" border=""10"">","null","trial","32","","0.8,0.2","1:go_a","1",""
"null","","html-keyboard-response","161","265228","0.0-4.0-2.40","","<div style=""font-size:60px;"">+</div>","null","","","","","","",""
"1163.5850000020582","","image-keyboard-response","162","266394","0.0-4.0-0.41","","img/pink.png","32","trial","null","false","0.2,0.8","2:nogo_b","",""
"null","","html-keyboard-response","163","267401","0.0-4.0-1.41","","<img src=""img/pink-n.png"" border=""10"">","null","trial","null","","0.2,0.8","2:nogo_b","0",""
"null","","html-keyboard-response","164","268407","0.0-4.0-2.41","","<div style=""font-size:60px;"">+</div>","null","","","","","","",""
"null","","image-keyboard-response","165","269914","0.0-4.0-0.42","","img/pink.png","null","trial","null","true","0.2,0.8","2:nogo_b","",""
"null","","html-keyboard-response","166","270928","0.0-4.0-1.42","","<img src=""img/pink-r.png"">","null","trial","null","","0.2,0.8","2:nogo_b","1",""
"null","","html-keyboard-response","167","271933","0.0-4.0-2.42","","<div style=""font-size:60px;"">+</div>","null","","","","","","",""
"852.2300000186078","","image-keyboard-response","168","272787","0.0-4.0-0.43","","img/red.png","32","trial","32","true","0.8,0.2","1:go_a","",""
"null","","html-keyboard-response","169","273792","0.0-4.0-1.43","","<img src=""img/red-r.png"" border=""10"">","null","trial","32","","0.8,0.2","1:go_a","1",""
"null","","html-keyboard-response","170","274811","0.0-4.0-2.43","","<div style=""font-size:60px;"">+</div>","null","","","","","","",""
"null","","image-keyboard-response","171","276318","0.0-4.0-0.44","","img/pink.png","null","trial","null","true","0.2,0.8","2:nogo_b","",""
"null","","html-keyboard-response","172","277327","0.0-4.0-1.44","","<img src=""img/pink-r.png"">","null","trial","null","","0.2,0.8","2:nogo_b","1",""
"null","","html-keyboard-response","173","278344","0.0-4.0-2.44","","<div style=""font-size:60px;"">+</div>","null","","","","","","",""
"null","","image-keyboard-response","174","279851","0.0-4.0-0.45","","img/red.png","null","trial","32","false","0.8,0.2","1:go_a","",""
"null","","html-keyboard-response","175","280863","0.0-4.0-1.45","","<img src=""img/red-n.png"">","null","trial","32","","0.8,0.2","1:go_a","0",""
"null","","html-keyboard-response","176","281869","0.0-4.0-2.45","","<div style=""font-size:60px;"">+</div>","null","","","","","","",""
"null","","image-keyboard-response","177","283383","0.0-4.0-0.46","","img/pink.png","null","trial","null","true","0.2,0.8","2:nogo_b","",""
"null","","html-keyboard-response","178","284397","0.0-4.0-1.46","","<img src=""img/pink-r.png"">","null","trial","null","","0.2,0.8","2:nogo_b","1",""
"null","","html-keyboard-response","179","285403","0.0-4.0-2.46","","<div style=""font-size:60px;"">+</div>","null","","","","","","",""
"1092.2000000136904","","image-keyboard-response","180","286497","0.0-4.0-0.47","","img/red.png","32","trial","32","true","0.8,0.2","1:go_a","",""
"null","","html-keyboard-response","181","287503","0.0-4.0-1.47","","<img src=""img/red-r.png"" border=""10"">","null","trial","32","","0.8,0.2","1:go_a","1",""
"null","","html-keyboard-response","182","288517","0.0-4.0-2.47","","<div style=""font-size:60px;"">+</div>","null","","","","","","",""
"null","","image-keyboard-response","183","290022","0.0-4.0-0.48","","img/red.png","null","trial","32","false","0.8,0.2","1:go_a","",""
"null","","html-keyboard-response","184","291029","0.0-4.0-1.48","","<img src=""img/red-r.png"">","null","trial","32","","0.8,0.2","1:go_a","1",""
"null","","html-keyboard-response","185","292041","0.0-4.0-2.48","","<div style=""font-size:60px;"">+</div>","null","","","","","","",""
"538.0799999984447","","image-keyboard-response","186","292581","0.0-4.0-0.49","","img/pink.png","32","trial","null","false","0.2,0.8","2:nogo_b","",""
"null","","html-keyboard-response","187","293589","0.0-4.0-1.49","","<img src=""img/pink-r.png"" border=""10"">","null","trial","null","","0.2,0.8","2:nogo_b","1",""
"null","","html-keyboard-response","188","294599","0.0-4.0-2.49","","<div style=""font-size:60px;"">+</div>","null","","","","","","",""
"610.9700000088196","","image-keyboard-response","189","295212","0.0-4.0-0.50","","img/pink.png","32","trial","null","false","0.2,0.8","2:nogo_b","",""
"null","","html-keyboard-response","190","296227","0.0-4.0-1.50","","<img src=""img/pink-n.png"" border=""10"">","null","trial","null","","0.2,0.8","2:nogo_b","0",""
"null","","html-keyboard-response","191","297237","0.0-4.0-2.50","","<div style=""font-size:60px;"">+</div>","null","","","","","","",""
"478.2649999833666","","image-keyboard-response","192","297717","0.0-4.0-0.51","","img/red.png","32","trial","32","true","0.8,0.2","1:go_a","",""
"null","","html-keyboard-response","193","298735","0.0-4.0-1.51","","<img src=""img/red-r.png"" border=""10"">","null","trial","32","","0.8,0.2","1:go_a","1",""
"null","","html-keyboard-response","194","299750","0.0-4.0-2.51","","<div style=""font-size:60px;"">+</div>","null","","","","","","",""
"602.7150000154506","","image-keyboard-response","195","300355","0.0-4.0-0.52","","img/pink.png","32","trial","null","false","0.2,0.8","2:nogo_b","",""
"null","","html-keyboard-response","196","301363","0.0-4.0-1.52","","<img src=""img/pink-n.png"" border=""10"">","null","trial","null","","0.2,0.8","2:nogo_b","0",""
"null","","html-keyboard-response","197","302371","0.0-4.0-2.52","","<div style=""font-size:60px;"">+</div>","null","","","","","","",""
"344.74000000045635","","image-keyboard-response","198","302718","0.0-4.0-0.53","","img/red.png","32","trial","32","true","0.8,0.2","1:go_a","",""
"null","","html-keyboard-response","199","303727","0.0-4.0-1.53","","<img src=""img/red-r.png"" border=""10"">","null","trial","32","","0.8,0.2","1:go_a","1",""
"null","","html-keyboard-response","200","304733","0.0-4.0-2.53","","<div style=""font-size:60px;"">+</div>","null","","","","","","",""
"539.6349999937229","","image-keyboard-response","201","305275","0.0-4.0-0.54","","img/pink.png","32","trial","null","false","0.2,0.8","2:nogo_b","",""
"null","","html-keyboard-response","202","306280","0.0-4.0-1.54","","<img src=""img/pink-n.png"" border=""10"">","null","trial","null","","0.2,0.8","2:nogo_b","0",""
"null","","html-keyboard-response","203","307291","0.0-4.0-2.54","","<div style=""font-size:60px;"">+</div>","null","","","","","","",""
"793.4300000197254","","image-keyboard-response","204","308087","0.0-4.0-0.55","","img/red.png","32","trial","32","true","0.8,0.2","1:go_a","",""
"null","","html-keyboard-response","205","309100","0.0-4.0-1.55","","<img src=""img/red-r.png"" border=""10"">","null","trial","32","","0.8,0.2","1:go_a","1",""
"null","","html-keyboard-response","206","310109","0.0-4.0-2.55","","<div style=""font-size:60px;"">+</div>","null","","","","","","",""
"null","","image-keyboard-response","207","311623","0.0-4.0-0.56","","img/pink.png","null","trial","null","true","0.2,0.8","2:nogo_b","",""
"null","","html-keyboard-response","208","312630","0.0-4.0-1.56","","<img src=""img/pink-n.png"">","null","trial","null","","0.2,0.8","2:nogo_b","0",""
"null","","html-keyboard-response","209","313635","0.0-4.0-2.56","","<div style=""font-size:60px;"">+</div>","null","","","","","","",""
"415.40500000701286","","image-keyboard-response","210","314052","0.0-4.0-0.57","","img/red.png","32","trial","32","true","0.8,0.2","1:go_a","",""
"null","","html-keyboard-response","211","315059","0.0-4.0-1.57","","<img src=""img/red-r.png"" border=""10"">","null","trial","32","","0.8,0.2","1:go_a","1",""
"null","","html-keyboard-response","212","316074","0.0-4.0-2.57","","<div style=""font-size:60px;"">+</div>","null","","","","","","",""
"null","","image-keyboard-response","213","317580","0.0-4.0-0.58","","img/red.png","null","trial","32","false","0.8,0.2","1:go_a","",""
"null","","html-keyboard-response","214","318596","0.0-4.0-1.58","","<img src=""img/red-n.png"">","null","trial","32","","0.8,0.2","1:go_a","0",""
"null","","html-keyboard-response","215","319602","0.0-4.0-2.58","","<div style=""font-size:60px;"">+</div>","null","","","","","","",""
"748.2350000063889","","image-keyboard-response","216","320353","0.0-4.0-0.59","","img/pink.png","32","trial","null","false","0.2,0.8","2:nogo_b","",""
"null","","html-keyboard-response","217","321357","0.0-4.0-1.59","","<img src=""img/pink-n.png"" border=""10"">","null","trial","null","","0.2,0.8","2:nogo_b","0",""
"null","","html-keyboard-response","218","322365","0.0-4.0-2.59","","<div style=""font-size:60px;"">+</div>","null","","","","","","",""
"3270.4850000154693","","instructions","219","325637","0.0-5.0","[{""page_index"":0,""viewing_time"":3270.1499999966472}]","","","","","","","","",""
"1321.4950000110548","","image-keyboard-response","220","326961","0.0-6.0-0.0","","img/red.png","32","trial","32","true","0.8,0.2","1:go_a","",""
"null","","html-keyboard-response","221","327965","0.0-6.0-1.0","","<img src=""img/red-r.png"" border=""10"">","null","trial","32","","0.8,0.2","1:go_a","1",""
"null","","html-keyboard-response","222","328972","0.0-6.0-2.0","","<div style=""font-size:60px;"">+</div>","null","","","","","","",""
"1376.6400000022259","","image-keyboard-response","223","330351","0.0-6.0-0.1","","img/purple.png","32","trial","null","false","0.4,0.6","4:nogo_d","",""
"null","","html-keyboard-response","224","331369","0.0-6.0-1.1","","<img src=""img/purple-n.png"" border=""10"">","null","trial","null","","0.4,0.6","4:nogo_d","0",""
"null","","html-keyboard-response","225","332380","0.0-6.0-2.1","","<div style=""font-size:60px;"">+</div>","null","","","","","","",""
"814.0549999952782","","image-keyboard-response","226","333196","0.0-6.0-0.2","","img/orange.png","32","trial","32","true","0.6,0.4","3:go_c","",""
"null","","html-keyboard-response","227","334213","0.0-6.0-1.2","","<img src=""img/orange-n.png"" border=""10"">","null","trial","32","","0.6,0.4","3:go_c","0",""
"null","","html-keyboard-response","228","335229","0.0-6.0-2.2","","<div style=""font-size:60px;"">+</div>","null","","","","","","",""
"720.7500000076834","","image-keyboard-response","229","335951","0.0-6.0-0.3","","img/green.png","32","trial","null","false","0.2,0.8","2:nogo_b","",""
"null","","html-keyboard-response","230","336956","0.0-6.0-1.3","","<img src=""img/green-n.png"" border=""10"">","null","trial","null","","0.2,0.8","2:nogo_b","0",""
"null","","html-keyboard-response","231","337965","0.0-6.0-2.3","","<div style=""font-size:60px;"">+</div>","null","","","","","","",""
"895.4049999883864","","image-keyboard-response","232","338862","0.0-6.0-0.4","","img/orange.png","32","trial","32","true","0.6,0.4","3:go_c","",""
"null","","html-keyboard-response","233","339871","0.0-6.0-1.4","","<img src=""img/orange-n.png"" border=""10"">","null","trial","32","","0.6,0.4","3:go_c","0",""
"null","","html-keyboard-response","234","340884","0.0-6.0-2.4","","<div style=""font-size:60px;"">+</div>","null","","","","","","",""
"null","","image-keyboard-response","235","342389","0.0-6.0-0.5","","img/red.png","null","trial","32","false","0.8,0.2","1:go_a","",""
"null","","html-keyboard-response","236","343396","0.0-6.0-1.5","","<img src=""img/red-n.png"">","null","trial","32","","0.8,0.2","1:go_a","0",""
"null","","html-keyboard-response","237","344399","0.0-6.0-2.5","","<div style=""font-size:60px;"">+</div>","null","","","","","","",""
"600.1000000105705","","image-keyboard-response","238","345001","0.0-6.0-0.6","","img/purple.png","32","trial","null","false","0.4,0.6","4:nogo_d","",""
"null","","html-keyboard-response","239","346011","0.0-6.0-1.6","","<img src=""img/purple-r.png"" border=""10"">","null","trial","null","","0.4,0.6","4:nogo_d","1",""
"null","","html-keyboard-response","240","347027","0.0-6.0-2.6","","<div style=""font-size:60px;"">+</div>","null","","","","","","",""
"709.130000002915","","image-keyboard-response","241","347739","0.0-6.0-0.7","","img/green.png","32","trial","null","false","0.2,0.8","2:nogo_b","",""
"null","","html-keyboard-response","242","348747","0.0-6.0-1.7","","<img src=""img/green-n.png"" border=""10"">","null","trial","null","","0.2,0.8","2:nogo_b","0",""
"null","","html-keyboard-response","243","349754","0.0-6.0-2.7","","<div style=""font-size:60px;"">+</div>","null","","","","","","",""
"null","","image-keyboard-response","244","351256","0.0-6.0-0.8","","img/red.png","null","trial","32","false","0.8,0.2","1:go_a","",""
"null","","html-keyboard-response","245","352266","0.0-6.0-1.8","","<img src=""img/red-n.png"">","null","trial","32","","0.8,0.2","1:go_a","0",""
"null","","html-keyboard-response","246","353268","0.0-6.0-2.8","","<div style=""font-size:60px;"">+</div>","null","","","","","","",""
"null","","image-keyboard-response","247","354778","0.0-6.0-0.9","","img/purple.png","null","trial","null","true","0.4,0.6","4:nogo_d","",""
"null","","html-keyboard-response","248","355786","0.0-6.0-1.9","","<img src=""img/purple-r.png"">","null","trial","null","","0.4,0.6","4:nogo_d","1",""
"null","","html-keyboard-response","249","356796","0.0-6.0-2.9","","<div style=""font-size:60px;"">+</div>","null","","","","","","",""
"744.3199999979697","","image-keyboard-response","250","357542","0.0-6.0-0.10","","img/green.png","32","trial","null","false","0.2,0.8","2:nogo_b","",""
"null","","html-keyboard-response","251","358553","0.0-6.0-1.10","","<img src=""img/green-n.png"" border=""10"">","null","trial","null","","0.2,0.8","2:nogo_b","0",""
"null","","html-keyboard-response","252","359558","0.0-6.0-2.10","","<div style=""font-size:60px;"">+</div>","null","","","","","","",""
"779.2649999901187","","image-keyboard-response","253","360339","0.0-6.0-0.11","","img/orange.png","32","trial","32","true","0.6,0.4","3:go_c","",""
"null","","html-keyboard-response","254","361347","0.0-6.0-1.11","","<img src=""img/orange-n.png"" border=""10"">","null","trial","32","","0.6,0.4","3:go_c","0",""
"null","","html-keyboard-response","255","362361","0.0-6.0-2.11","","<div style=""font-size:60px;"">+</div>","null","","","","","","",""
"783.2800000032876","","image-keyboard-response","256","363146","0.0-6.0-0.12","","img/red.png","32","trial","32","true","0.8,0.2","1:go_a","",""
"null","","html-keyboard-response","257","364158","0.0-6.0-1.12","","<img src=""img/red-r.png"" border=""10"">","null","trial","32","","0.8,0.2","1:go_a","1",""
"null","","html-keyboard-response","258","365166","0.0-6.0-2.12","","<div style=""font-size:60px;"">+</div>","null","","","","","","",""
"null","","image-keyboard-response","259","366670","0.0-6.0-0.13","","img/orange.png","null","trial","32","false","0.6,0.4","3:go_c","",""
"null","","html-keyboard-response","260","367678","0.0-6.0-1.13","","<img src=""img/orange-n.png"">","null","trial","32","","0.6,0.4","3:go_c","0",""
"null","","html-keyboard-response","261","368695","0.0-6.0-2.13","","<div style=""font-size:60px;"">+</div>","null","","","","","","",""
"null","","image-keyboard-response","262","370205","0.0-6.0-0.14","","img/green.png","null","trial","null","true","0.2,0.8","2:nogo_b","",""
"null","","html-keyboard-response","263","371223","0.0-6.0-1.14","","<img src=""img/green-r.png"">","null","trial","null","","0.2,0.8","2:nogo_b","1",""
"null","","html-keyboard-response","264","372233","0.0-6.0-2.14","","<div style=""font-size:60px;"">+</div>","null","","","","","","",""
"425.7950000173878","","image-keyboard-response","265","372661","0.0-6.0-0.15","","img/purple.png","32","trial","null","false","0.4,0.6","4:nogo_d","",""
"null","","html-keyboard-response","266","373667","0.0-6.0-1.15","","<img src=""img/purple-n.png"" border=""10"">","null","trial","null","","0.4,0.6","4:nogo_d","0",""
"null","","html-keyboard-response","267","374669","0.0-6.0-2.15","","<div style=""font-size:60px;"">+</div>","null","","","","","","",""
"482.2849999764003","","image-keyboard-response","268","375153","0.0-6.0-0.16","","img/green.png","32","trial","null","false","0.2,0.8","2:nogo_b","",""
"null","","html-keyboard-response","269","376165","0.0-6.0-1.16","","<img src=""img/green-n.png"" border=""10"">","null","trial","null","","0.2,0.8","2:nogo_b","0",""
"null","","html-keyboard-response","270","377171","0.0-6.0-2.16","","<div style=""font-size:60px;"">+</div>","null","","","","","","",""
"1440.2549999940675","","image-keyboard-response","271","378613","0.0-6.0-0.17","","img/orange.png","32","trial","32","true","0.6,0.4","3:go_c","",""
"null","","html-keyboard-response","272","379619","0.0-6.0-1.17","","<img src=""img/orange-r.png"" border=""10"">","null","trial","32","","0.6,0.4","3:go_c","1",""
"null","","html-keyboard-response","273","380625","0.0-6.0-2.17","","<div style=""font-size:60px;"">+</div>","null","","","","","","",""
"949.7299999929965","","image-keyboard-response","274","381577","0.0-6.0-0.18","","img/purple.png","32","trial","null","false","0.4,0.6","4:nogo_d","",""
"null","","html-keyboard-response","275","382588","0.0-6.0-1.18","","<img src=""img/purple-r.png"" border=""10"">","null","trial","null","","0.4,0.6","4:nogo_d","1",""
"null","","html-keyboard-response","276","383603","0.0-6.0-2.18","","<div style=""font-size:60px;"">+</div>","null","","","","","","",""
"727.5350000127219","","image-keyboard-response","277","384333","0.0-6.0-0.19","","img/red.png","32","trial","32","true","0.8,0.2","1:go_a","",""
"null","","html-keyboard-response","278","385347","0.0-6.0-1.19","","<img src=""img/red-r.png"" border=""10"">","null","trial","32","","0.8,0.2","1:go_a","1",""
"null","","html-keyboard-response","279","386354","0.0-6.0-2.19","","<div style=""font-size:60px;"">+</div>","null","","","","","","",""
"425.8750000153668","","image-keyboard-response","280","386782","0.0-6.0-0.20","","img/purple.png","32","trial","null","false","0.4,0.6","4:nogo_d","",""
"null","","html-keyboard-response","281","387794","0.0-6.0-1.20","","<img src=""img/purple-n.png"" border=""10"">","null","trial","null","","0.4,0.6","4:nogo_d","0",""
"null","","html-keyboard-response","282","388803","0.0-6.0-2.20","","<div style=""font-size:60px;"">+</div>","null","","","","","","",""
"949.0449999866541","","image-keyboard-response","283","389754","0.0-6.0-0.21","","img/red.png","32","trial","32","true","0.8,0.2","1:go_a","",""
"null","","html-keyboard-response","284","390758","0.0-6.0-1.21","","<img src=""img/red-r.png"" border=""10"">","null","trial","32","","0.8,0.2","1:go_a","1",""
"null","","html-keyboard-response","285","391776","0.0-6.0-2.21","","<div style=""font-size:60px;"">+</div>","null","","","","","","",""
"null","","image-keyboard-response","286","393289","0.0-6.0-0.22","","img/orange.png","null","trial","32","false","0.6,0.4","3:go_c","",""
"null","","html-keyboard-response","287","394294","0.0-6.0-1.22","","<img src=""img/orange-n.png"">","null","trial","32","","0.6,0.4","3:go_c","0",""
"null","","html-keyboard-response","288","395302","0.0-6.0-2.22","","<div style=""font-size:60px;"">+</div>","null","","","","","","",""
"728.8549999939278","","image-keyboard-response","289","396033","0.0-6.0-0.23","","img/green.png","32","trial","null","false","0.2,0.8","2:nogo_b","",""
"null","","html-keyboard-response","290","397041","0.0-6.0-1.23","","<img src=""img/green-n.png"" border=""10"">","null","trial","null","","0.2,0.8","2:nogo_b","0",""
"null","","html-keyboard-response","291","398048","0.0-6.0-2.23","","<div style=""font-size:60px;"">+</div>","null","","","","","","",""
"675.6250000034925","","image-keyboard-response","292","398726","0.0-6.0-0.24","","img/orange.png","32","trial","32","true","0.6,0.4","3:go_c","",""
"null","","html-keyboard-response","293","399737","0.0-6.0-1.24","","<img src=""img/orange-r.png"" border=""10"">","null","trial","32","","0.6,0.4","3:go_c","1",""
"null","","html-keyboard-response","294","400744","0.0-6.0-2.24","","<div style=""font-size:60px;"">+</div>","null","","","","","","",""
"927.3249999969266","","image-keyboard-response","295","401671","0.0-6.0-0.25","","img/red.png","32","trial","32","true","0.8,0.2","1:go_a","",""
"null","","html-keyboard-response","296","402678","0.0-6.0-1.25","","<img src=""img/red-r.png"" border=""10"">","null","trial","32","","0.8,0.2","1:go_a","1",""
"null","","html-keyboard-response","297","403687","0.0-6.0-2.25","","<div style=""font-size:60px;"">+</div>","null","","","","","","",""
"null","","image-keyboard-response","298","405192","0.0-6.0-0.26","","img/green.png","null","trial","null","true","0.2,0.8","2:nogo_b","",""
"null","","html-keyboard-response","299","406201","0.0-6.0-1.26","","<img src=""img/green-r.png"">","null","trial","null","","0.2,0.8","2:nogo_b","1",""
"null","","html-keyboard-response","300","407214","0.0-6.0-2.26","","<div style=""font-size:60px;"">+</div>","null","","","","","","",""
"568.3750000025611","","image-keyboard-response","301","407785","0.0-6.0-0.27","","img/purple.png","32","trial","null","false","0.4,0.6","4:nogo_d","",""
"null","","html-keyboard-response","302","408795","0.0-6.0-1.27","","<img src=""img/purple-n.png"" border=""10"">","null","trial","null","","0.4,0.6","4:nogo_d","0",""
"null","","html-keyboard-response","303","409802","0.0-6.0-2.27","","<div style=""font-size:60px;"">+</div>","null","","","","","","",""
"597.299999993993","","image-keyboard-response","304","410404","0.0-6.0-0.28","","img/orange.png","32","trial","32","true","0.6,0.4","3:go_c","",""
"null","","html-keyboard-response","305","411415","0.0-6.0-1.28","","<img src=""img/orange-r.png"" border=""10"">","null","trial","32","","0.6,0.4","3:go_c","1",""
"null","","html-keyboard-response","306","412423","0.0-6.0-2.28","","<div style=""font-size:60px;"">+</div>","null","","","","","","",""
"583.5249999945518","","image-keyboard-response","307","413008","0.0-6.0-0.29","","img/purple.png","32","trial","null","false","0.4,0.6","4:nogo_d","",""
"null","","html-keyboard-response","308","414012","0.0-6.0-1.29","","<img src=""img/purple-r.png"" border=""10"">","null","trial","null","","0.4,0.6","4:nogo_d","1",""
"null","","html-keyboard-response","309","415027","0.0-6.0-2.29","","<div style=""font-size:60px;"">+</div>","null","","","","","","",""
"577.7050000033341","","image-keyboard-response","310","415607","0.0-6.0-0.30","","img/red.png","32","trial","32","true","0.8,0.2","1:go_a","",""
"null","","html-keyboard-response","311","416617","0.0-6.0-1.30","","<img src=""img/red-r.png"" border=""10"">","null","trial","32","","0.8,0.2","1:go_a","1",""
"null","","html-keyboard-response","312","417623","0.0-6.0-2.30","","<div style=""font-size:60px;"">+</div>","null","","","","","","",""
"913.5050000040792","","image-keyboard-response","313","418539","0.0-6.0-0.31","","img/green.png","32","trial","null","false","0.2,0.8","2:nogo_b","",""
"null","","html-keyboard-response","314","419543","0.0-6.0-1.31","","<img src=""img/green-r.png"" border=""10"">","null","trial","null","","0.2,0.8","2:nogo_b","1",""
"null","","html-keyboard-response","315","420555","0.0-6.0-2.31","","<div style=""font-size:60px;"">+</div>","null","","","","","","",""
"null","","image-keyboard-response","316","422066","0.0-6.0-0.32","","img/red.png","null","trial","32","false","0.8,0.2","1:go_a","",""
"null","","html-keyboard-response","317","423081","0.0-6.0-1.32","","<img src=""img/red-n.png"">","null","trial","32","","0.8,0.2","1:go_a","0",""
"null","","html-keyboard-response","318","424091","0.0-6.0-2.32","","<div style=""font-size:60px;"">+</div>","null","","","","","","",""
"null","","image-keyboard-response","319","425602","0.0-6.0-0.33","","img/purple.png","null","trial","null","true","0.4,0.6","4:nogo_d","",""
"null","","html-keyboard-response","320","426609","0.0-6.0-1.33","","<img src=""img/purple-r.png"">","null","trial","null","","0.4,0.6","4:nogo_d","1",""
"null","","html-keyboard-response","321","427616","0.0-6.0-2.33","","<div style=""font-size:60px;"">+</div>","null","","","","","","",""
"659.1550000011921","","image-keyboard-response","322","428279","0.0-6.0-0.34","","img/orange.png","32","trial","32","true","0.6,0.4","3:go_c","",""
"null","","html-keyboard-response","323","429288","0.0-6.0-1.34","","<img src=""img/orange-n.png"" border=""10"">","null","trial","32","","0.6,0.4","3:go_c","0",""
"null","","html-keyboard-response","324","430303","0.0-6.0-2.34","","<div style=""font-size:60px;"">+</div>","null","","","","","","",""
"534.654999995837","","image-keyboard-response","325","430839","0.0-6.0-0.35","","img/green.png","32","trial","null","false","0.2,0.8","2:nogo_b","",""
"null","","html-keyboard-response","326","431850","0.0-6.0-1.35","","<img src=""img/green-n.png"" border=""10"">","null","trial","null","","0.2,0.8","2:nogo_b","0",""
"null","","html-keyboard-response","327","432859","0.0-6.0-2.35","","<div style=""font-size:60px;"">+</div>","null","","","","","","",""
"457.9200000152923","","image-keyboard-response","328","433319","0.0-6.0-0.36","","img/purple.png","32","trial","null","false","0.4,0.6","4:nogo_d","",""
"null","","html-keyboard-response","329","434330","0.0-6.0-1.36","","<img src=""img/purple-n.png"" border=""10"">","null","trial","null","","0.4,0.6","4:nogo_d","0",""
"null","","html-keyboard-response","330","435338","0.0-6.0-2.36","","<div style=""font-size:60px;"">+</div>","null","","","","","","",""
"1011.6050000069663","","image-keyboard-response","331","436352","0.0-6.0-0.37","","img/green.png","32","trial","null","false","0.2,0.8","2:nogo_b","",""
"null","","html-keyboard-response","332","437359","0.0-6.0-1.37","","<img src=""img/green-r.png"" border=""10"">","null","trial","null","","0.2,0.8","2:nogo_b","1",""
"null","","html-keyboard-response","333","438367","0.0-6.0-2.37","","<div style=""font-size:60px;"">+</div>","null","","","","","","",""
"613.8250000076368","","image-keyboard-response","334","438983","0.0-6.0-0.38","","img/orange.png","32","trial","32","true","0.6,0.4","3:go_c","",""
"null","","html-keyboard-response","335","439988","0.0-6.0-1.38","","<img src=""img/orange-r.png"" border=""10"">","null","trial","32","","0.6,0.4","3:go_c","1",""
"null","","html-keyboard-response","336","440994","0.0-6.0-2.38","","<div style=""font-size:60px;"">+</div>","null","","","","","","",""
"476.38500001630746","","image-keyboard-response","337","441473","0.0-6.0-0.39","","img/red.png","32","trial","32","true","0.8,0.2","1:go_a","",""
"null","","html-keyboard-response","338","442485","0.0-6.0-1.39","","<img src=""img/red-r.png"" border=""10"">","null","trial","32","","0.8,0.2","1:go_a","1",""
"null","","html-keyboard-response","339","443494","0.0-6.0-2.39","","<div style=""font-size:60px;"">+</div>","null","","","","","","",""
"806.9850000028964","","image-keyboard-response","340","444303","0.0-6.0-0.40","","img/green.png","32","trial","null","false","0.2,0.8","2:nogo_b","",""
"null","","html-keyboard-response","341","445321","0.0-6.0-1.40","","<img src=""img/green-n.png"" border=""10"">","null","trial","null","","0.2,0.8","2:nogo_b","0",""
"null","","html-keyboard-response","342","446329","0.0-6.0-2.40","","<div style=""font-size:60px;"">+</div>","null","","","","","","",""
"469.5300000021234","","image-keyboard-response","343","446801","0.0-6.0-0.41","","img/purple.png","32","trial","null","false","0.4,0.6","4:nogo_d","",""
"null","","html-keyboard-response","344","447809","0.0-6.0-1.41","","<img src=""img/purple-r.png"" border=""10"">","null","trial","null","","0.4,0.6","4:nogo_d","1",""
"null","","html-keyboard-response","345","448814","0.0-6.0-2.41","","<div style=""font-size:60px;"">+</div>","null","","","","","","",""
"null","","image-keyboard-response","346","450319","0.0-6.0-0.42","","img/red.png","null","trial","32","false","0.8,0.2","1:go_a","",""
"null","","html-keyboard-response","347","451330","0.0-6.0-1.42","","<img src=""img/red-r.png"">","null","trial","32","","0.8,0.2","1:go_a","1",""
"null","","html-keyboard-response","348","452345","0.0-6.0-2.42","","<div style=""font-size:60px;"">+</div>","null","","","","","","",""
"null","","image-keyboard-response","349","453863","0.0-6.0-0.43","","img/orange.png","null","trial","32","false","0.6,0.4","3:go_c","",""
"null","","html-keyboard-response","350","454875","0.0-6.0-1.43","","<img src=""img/orange-r.png"">","null","trial","32","","0.6,0.4","3:go_c","1",""
"null","","html-keyboard-response","351","455880","0.0-6.0-2.43","","<div style=""font-size:60px;"">+</div>","null","","","","","","",""
"420.51500000525266","","image-keyboard-response","352","456303","0.0-6.0-0.44","","img/red.png","32","trial","32","true","0.8,0.2","1:go_a","",""
"null","","html-keyboard-response","353","457320","0.0-6.0-1.44","","<img src=""img/red-r.png"" border=""10"">","null","trial","32","","0.8,0.2","1:go_a","1",""
"null","","html-keyboard-response","354","458335","0.0-6.0-2.44","","<div style=""font-size:60px;"">+</div>","null","","","","","","",""
"468.53499999269843","","image-keyboard-response","355","458806","0.0-6.0-0.45","","img/purple.png","32","trial","null","false","0.4,0.6","4:nogo_d","",""
"null","","html-keyboard-response","356","459823","0.0-6.0-1.45","","<img src=""img/purple-n.png"" border=""10"">","null","trial","null","","0.4,0.6","4:nogo_d","0",""
"null","","html-keyboard-response","357","460832","0.0-6.0-2.45","","<div style=""font-size:60px;"">+</div>","null","","","","","","",""
"481.5099999832455","","image-keyboard-response","358","461316","0.0-6.0-0.46","","img/green.png","32","trial","null","false","0.2,0.8","2:nogo_b","",""
"null","","html-keyboard-response","359","462343","0.0-6.0-1.46","","<img src=""img/green-r.png"" border=""10"">","null","trial","null","","0.2,0.8","2:nogo_b","1",""
"null","","html-keyboard-response","360","463355","0.0-6.0-2.46","","<div style=""font-size:60px;"">+</div>","null","","","","","","",""
"644.3299999809824","","image-keyboard-response","361","464002","0.0-6.0-0.47","","img/orange.png","32","trial","32","true","0.6,0.4","3:go_c","",""
"null","","html-keyboard-response","362","465019","0.0-6.0-1.47","","<img src=""img/orange-n.png"" border=""10"">","null","trial","32","","0.6,0.4","3:go_c","0",""
"null","","html-keyboard-response","363","466027","0.0-6.0-2.47","","<div style=""font-size:60px;"">+</div>","null","","","","","","",""
"446.3349999859929","","image-keyboard-response","364","466476","0.0-6.0-0.48","","img/red.png","32","trial","32","true","0.8,0.2","1:go_a","",""
"null","","html-keyboard-response","365","467481","0.0-6.0-1.48","","<img src=""img/red-r.png"" border=""10"">","null","trial","32","","0.8,0.2","1:go_a","1",""
"null","","html-keyboard-response","366","468496","0.0-6.0-2.48","","<div style=""font-size:60px;"">+</div>","null","","","","","","",""
"647.1549999841955","","image-keyboard-response","367","469145","0.0-6.0-0.49","","img/orange.png","32","trial","32","true","0.6,0.4","3:go_c","",""
"null","","html-keyboard-response","368","470153","0.0-6.0-1.49","","<img src=""img/orange-n.png"" border=""10"">","null","trial","32","","0.6,0.4","3:go_c","0",""
"null","","html-keyboard-response","369","471157","0.0-6.0-2.49","","<div style=""font-size:60px;"">+</div>","null","","","","","","",""
"546.280000009574","","image-keyboard-response","370","471705","0.0-6.0-0.50","","img/purple.png","32","trial","null","false","0.4,0.6","4:nogo_d","",""
"null","","html-keyboard-response","371","472716","0.0-6.0-1.50","","<img src=""img/purple-r.png"" border=""10"">","null","trial","null","","0.4,0.6","4:nogo_d","1",""
"null","","html-keyboard-response","372","473724","0.0-6.0-2.50","","<div style=""font-size:60px;"">+</div>","null","","","","","","",""
"561.1149999895133","","image-keyboard-response","373","474287","0.0-6.0-0.51","","img/green.png","32","trial","null","false","0.2,0.8","2:nogo_b","",""
"null","","html-keyboard-response","374","475295","0.0-6.0-1.51","","<img src=""img/green-n.png"" border=""10"">","null","trial","null","","0.2,0.8","2:nogo_b","0",""
"null","","html-keyboard-response","375","476311","0.0-6.0-2.51","","<div style=""font-size:60px;"">+</div>","null","","","","","","",""
"550.6299999833573","","image-keyboard-response","376","476863","0.0-6.0-0.52","","img/purple.png","32","trial","null","false","0.4,0.6","4:nogo_d","",""
"null","","html-keyboard-response","377","477875","0.0-6.0-1.52","","<img src=""img/purple-n.png"" border=""10"">","null","trial","null","","0.4,0.6","4:nogo_d","0",""
"null","","html-keyboard-response","378","478877","0.0-6.0-2.52","","<div style=""font-size:60px;"">+</div>","null","","","","","","",""
"1143.1199999933597","","image-keyboard-response","379","480022","0.0-6.0-0.53","","img/green.png","32","trial","null","false","0.2,0.8","2:nogo_b","",""
"null","","html-keyboard-response","380","481036","0.0-6.0-1.53","","<img src=""img/green-r.png"" border=""10"">","null","trial","null","","0.2,0.8","2:nogo_b","1",""
"null","","html-keyboard-response","381","482050","0.0-6.0-2.53","","<div style=""font-size:60px;"">+</div>","null","","","","","","",""
"683.9250000193715","","image-keyboard-response","382","482736","0.0-6.0-0.54","","img/orange.png","32","trial","32","true","0.6,0.4","3:go_c","",""
"null","","html-keyboard-response","383","483740","0.0-6.0-1.54","","<img src=""img/orange-n.png"" border=""10"">","null","trial","32","","0.6,0.4","3:go_c","0",""
"null","","html-keyboard-response","384","484755","0.0-6.0-2.54","","<div style=""font-size:60px;"">+</div>","null","","","","","","",""
"79.78000000002794","","image-keyboard-response","385","484837","0.0-6.0-0.55","","img/red.png","32","trial","32","true","0.8,0.2","1:go_a","",""
"null","","html-keyboard-response","386","485853","0.0-6.0-1.55","","<img src=""img/red-r.png"" border=""10"">","null","trial","32","","0.8,0.2","1:go_a","1",""
"null","","html-keyboard-response","387","486861","0.0-6.0-2.55","","<div style=""font-size:60px;"">+</div>","null","","","","","","",""
"509.66999999945983","","image-keyboard-response","388","487373","0.0-6.0-0.56","","img/purple.png","32","trial","null","false","0.4,0.6","4:nogo_d","",""
"null","","html-keyboard-response","389","488383","0.0-6.0-1.56","","<img src=""img/purple-r.png"" border=""10"">","null","trial","null","","0.4,0.6","4:nogo_d","1",""
"null","","html-keyboard-response","390","489398","0.0-6.0-2.56","","<div style=""font-size:60px;"">+</div>","null","","","","","","",""
"568.3750000025611","","image-keyboard-response","391","489969","0.0-6.0-0.57","","img/green.png","32","trial","null","false","0.2,0.8","2:nogo_b","",""
"null","","html-keyboard-response","392","490985","0.0-6.0-1.57","","<img src=""img/green-n.png"" border=""10"">","null","trial","null","","0.2,0.8","2:nogo_b","0",""
"null","","html-keyboard-response","393","491994","0.0-6.0-2.57","","<div style=""font-size:60px;"">+</div>","null","","","","","","",""
"911.6800000192598","","image-keyboard-response","394","492908","0.0-6.0-0.58","","img/red.png","32","trial","32","true","0.8,0.2","1:go_a","",""
"null","","html-keyboard-response","395","493923","0.0-6.0-1.58","","<img src=""img/red-r.png"" border=""10"">","null","trial","32","","0.8,0.2","1:go_a","1",""
"null","","html-keyboard-response","396","494931","0.0-6.0-2.58","","<div style=""font-size:60px;"">+</div>","null","","","","","","",""
"668.9100000075996","","image-keyboard-response","397","495603","0.0-6.0-0.59","","img/orange.png","32","trial","32","true","0.6,0.4","3:go_c","",""
"null","","html-keyboard-response","398","496612","0.0-6.0-1.59","","<img src=""img/orange-r.png"" border=""10"">","null","trial","32","","0.6,0.4","3:go_c","1",""
"null","","html-keyboard-response","399","497619","0.0-6.0-2.59","","<div style=""font-size:60px;"">+</div>","null","","","","","","",""
"null","","image-keyboard-response","400","499133","0.0-6.0-0.60","","img/orange.png","null","trial","32","false","0.6,0.4","3:go_c","",""
"null","","html-keyboard-response","401","500147","0.0-6.0-1.60","","<img src=""img/orange-r.png"">","null","trial","32","","0.6,0.4","3:go_c","1",""
"null","","html-keyboard-response","402","501155","0.0-6.0-2.60","","<div style=""font-size:60px;"">+</div>","null","","","","","","",""
"519.5200000016484","","image-keyboard-response","403","501676","0.0-6.0-0.61","","img/green.png","32","trial","null","false","0.2,0.8","2:nogo_b","",""
"null","","html-keyboard-response","404","502687","0.0-6.0-1.61","","<img src=""img/green-n.png"" border=""10"">","null","trial","null","","0.2,0.8","2:nogo_b","0",""
"null","","html-keyboard-response","405","503701","0.0-6.0-2.61","","<div style=""font-size:60px;"">+</div>","null","","","","","","",""
"525.7249999849591","","image-keyboard-response","406","504229","0.0-6.0-0.62","","img/purple.png","32","trial","null","false","0.4,0.6","4:nogo_d","",""
"null","","html-keyboard-response","407","505235","0.0-6.0-1.62","","<img src=""img/purple-n.png"" border=""10"">","null","trial","null","","0.4,0.6","4:nogo_d","0",""
"null","","html-keyboard-response","408","506247","0.0-6.0-2.62","","<div style=""font-size:60px;"">+</div>","null","","","","","","",""
"513.4200000029523","","image-keyboard-response","409","506763","0.0-6.0-0.63","","img/red.png","32","trial","32","true","0.8,0.2","1:go_a","",""
"null","","html-keyboard-response","410","507769","0.0-6.0-1.63","","<img src=""img/red-r.png"" border=""10"">","null","trial","32","","0.8,0.2","1:go_a","1",""
"null","","html-keyboard-response","411","508777","0.0-6.0-2.63","","<div style=""font-size:60px;"">+</div>","null","","","","","","",""
"471.77500001271255","","image-keyboard-response","412","509251","0.0-6.0-0.64","","img/purple.png","32","trial","null","false","0.4,0.6","4:nogo_d","",""
"null","","html-keyboard-response","413","510256","0.0-6.0-1.64","","<img src=""img/purple-r.png"" border=""10"">","null","trial","null","","0.4,0.6","4:nogo_d","1",""
"null","","html-keyboard-response","414","511274","0.0-6.0-2.64","","<div style=""font-size:60px;"">+</div>","null","","","","","","",""
"480.62499999650754","","image-keyboard-response","415","511756","0.0-6.0-0.65","","img/green.png","32","trial","null","false","0.2,0.8","2:nogo_b","",""
"null","","html-keyboard-response","416","512760","0.0-6.0-1.65","","<img src=""img/green-n.png"" border=""10"">","null","trial","null","","0.2,0.8","2:nogo_b","0",""
"null","","html-keyboard-response","417","513769","0.0-6.0-2.65","","<div style=""font-size:60px;"">+</div>","null","","","","","","",""
"366.9899999804329","","image-keyboard-response","418","514138","0.0-6.0-0.66","","img/red.png","32","trial","32","true","0.8,0.2","1:go_a","",""
"null","","html-keyboard-response","419","515151","0.0-6.0-1.66","","<img src=""img/red-r.png"" border=""10"">","null","trial","32","","0.8,0.2","1:go_a","1",""
"null","","html-keyboard-response","420","516154","0.0-6.0-2.66","","<div style=""font-size:60px;"">+</div>","null","","","","","","",""
"472.8950000135228","","image-keyboard-response","421","516629","0.0-6.0-0.67","","img/orange.png","32","trial","32","true","0.6,0.4","3:go_c","",""
"null","","html-keyboard-response","422","517639","0.0-6.0-1.67","","<img src=""img/orange-n.png"" border=""10"">","null","trial","32","","0.6,0.4","3:go_c","0",""
"null","","html-keyboard-response","423","518645","0.0-6.0-2.67","","<div style=""font-size:60px;"">+</div>","null","","","","","","",""
"578.8099999772385","","image-keyboard-response","424","519226","0.0-6.0-0.68","","img/orange.png","32","trial","32","true","0.6,0.4","3:go_c","",""
"null","","html-keyboard-response","425","520234","0.0-6.0-1.68","","<img src=""img/orange-n.png"" border=""10"">","null","trial","32","","0.6,0.4","3:go_c","0",""
"null","","html-keyboard-response","426","521241","0.0-6.0-2.68","","<div style=""font-size:60px;"">+</div>","null","","","","","","",""
"547.7350000001024","","image-keyboard-response","427","521791","0.0-6.0-0.69","","img/purple.png","32","trial","null","false","0.4,0.6","4:nogo_d","",""
"null","","html-keyboard-response","428","522805","0.0-6.0-1.69","","<img src=""img/purple-r.png"" border=""10"">","null","trial","null","","0.4,0.6","4:nogo_d","1",""
"null","","html-keyboard-response","429","523812","0.0-6.0-2.69","","<div style=""font-size:60px;"">+</div>","null","","","","","","",""
"498.8850000081584","","image-keyboard-response","430","524313","0.0-6.0-0.70","","img/red.png","32","trial","32","true","0.8,0.2","1:go_a","",""
"null","","html-keyboard-response","431","525324","0.0-6.0-1.70","","<img src=""img/red-r.png"" border=""10"">","null","trial","32","","0.8,0.2","1:go_a","1",""
"null","","html-keyboard-response","432","526333","0.0-6.0-2.70","","<div style=""font-size:60px;"">+</div>","null","","","","","","",""
"763.039999990724","","image-keyboard-response","433","527099","0.0-6.0-0.71","","img/green.png","32","trial","null","false","0.2,0.8","2:nogo_b","",""
"null","","html-keyboard-response","434","528104","0.0-6.0-1.71","","<img src=""img/green-n.png"" border=""10"">","null","trial","null","","0.2,0.8","2:nogo_b","0",""
"null","","html-keyboard-response","435","529111","0.0-6.0-2.71","","<div style=""font-size:60px;"">+</div>","null","","","","","","",""
"null","","image-keyboard-response","436","530634","0.0-6.0-0.72","","img/green.png","null","trial","null","true","0.2,0.8","2:nogo_b","",""
"null","","html-keyboard-response","437","531641","0.0-6.0-1.72","","<img src=""img/green-n.png"">","null","trial","null","","0.2,0.8","2:nogo_b","0",""
"null","","html-keyboard-response","438","532646","0.0-6.0-2.72","","<div style=""font-size:60px;"">+</div>","null","","","","","","",""
"541.7449999949895","","image-keyboard-response","439","533190","0.0-6.0-0.73","","img/orange.png","32","trial","32","true","0.6,0.4","3:go_c","",""
"null","","html-keyboard-response","440","534202","0.0-6.0-1.73","","<img src=""img/orange-n.png"" border=""10"">","null","trial","32","","0.6,0.4","3:go_c","0",""
"null","","html-keyboard-response","441","535206","0.0-6.0-2.73","","<div style=""font-size:60px;"">+</div>","null","","","","","","",""
"515.914999996312","","image-keyboard-response","442","535724","0.0-6.0-0.74","","img/purple.png","32","trial","null","false","0.4,0.6","4:nogo_d","",""
"null","","html-keyboard-response","443","536730","0.0-6.0-1.74","","<img src=""img/purple-n.png"" border=""10"">","null","trial","null","","0.4,0.6","4:nogo_d","0",""
"null","","html-keyboard-response","444","537746","0.0-6.0-2.74","","<div style=""font-size:60px;"">+</div>","null","","","","","","",""
"641.3900000043213","","image-keyboard-response","445","538390","0.0-6.0-0.75","","img/red.png","32","trial","32","true","0.8,0.2","1:go_a","",""
"null","","html-keyboard-response","446","539408","0.0-6.0-1.75","","<img src=""img/red-r.png"" border=""10"">","null","trial","32","","0.8,0.2","1:go_a","1",""
"null","","html-keyboard-response","447","540412","0.0-6.0-2.75","","<div style=""font-size:60px;"">+</div>","null","","","","","","",""
"553.5699999891222","","image-keyboard-response","448","540967","0.0-6.0-0.76","","img/green.png","32","trial","null","false","0.2,0.8","2:nogo_b","",""
"null","","html-keyboard-response","449","541970","0.0-6.0-1.76","","<img src=""img/green-n.png"" border=""10"">","null","trial","null","","0.2,0.8","2:nogo_b","0",""
"null","","html-keyboard-response","450","542985","0.0-6.0-2.76","","<div style=""font-size:60px;"">+</div>","null","","","","","","",""
"null","","image-keyboard-response","451","544489","0.0-6.0-0.77","","img/orange.png","null","trial","32","false","0.6,0.4","3:go_c","",""
"null","","html-keyboard-response","452","545507","0.0-6.0-1.77","","<img src=""img/orange-n.png"">","null","trial","32","","0.6,0.4","3:go_c","0",""
"null","","html-keyboard-response","453","546519","0.0-6.0-2.77","","<div style=""font-size:60px;"">+</div>","null","","","","","","",""
"570.1450000051409","","image-keyboard-response","454","547091","0.0-6.0-0.78","","img/purple.png","32","trial","null","false","0.4,0.6","4:nogo_d","",""
"null","","html-keyboard-response","455","548100","0.0-6.0-1.78","","<img src=""img/purple-n.png"" border=""10"">","null","trial","null","","0.4,0.6","4:nogo_d","0",""
"null","","html-keyboard-response","456","549102","0.0-6.0-2.78","","<div style=""font-size:60px;"">+</div>","null","","","","","","",""
"527.0799999998417","","image-keyboard-response","457","549631","0.0-6.0-0.79","","img/red.png","32","trial","32","true","0.8,0.2","1:go_a","",""
"null","","html-keyboard-response","458","550645","0.0-6.0-1.79","","<img src=""img/red-n.png"" border=""10"">","null","trial","32","","0.8,0.2","1:go_a","0",""
"null","","html-keyboard-response","459","551649","0.0-6.0-2.79","","<div style=""font-size:60px;"">+</div>","null","","","","","","",""
"1335.4749999998603","","image-keyboard-response","460","552987","0.0-6.0-0.80","","img/red.png","32","trial","32","true","0.8,0.2","1:go_a","",""
"null","","html-keyboard-response","461","553998","0.0-6.0-1.80","","<img src=""img/red-r.png"" border=""10"">","null","trial","32","","0.8,0.2","1:go_a","1",""
"null","","html-keyboard-response","462","555002","0.0-6.0-2.80","","<div style=""font-size:60px;"">+</div>","null","","","","","","",""
"875.6700000085402","","image-keyboard-response","463","555880","0.0-6.0-0.81","","img/orange.png","32","trial","32","true","0.6,0.4","3:go_c","",""
"null","","html-keyboard-response","464","556884","0.0-6.0-1.81","","<img src=""img/orange-r.png"" border=""10"">","null","trial","32","","0.6,0.4","3:go_c","1",""
"null","","html-keyboard-response","465","557891","0.0-6.0-2.81","","<div style=""font-size:60px;"">+</div>","null","","","","","","",""
"457.90500001749024","","image-keyboard-response","466","558350","0.0-6.0-0.82","","img/purple.png","32","trial","null","false","0.4,0.6","4:nogo_d","",""
"null","","html-keyboard-response","467","559363","0.0-6.0-1.82","","<img src=""img/purple-r.png"" border=""10"">","null","trial","null","","0.4,0.6","4:nogo_d","1",""
"null","","html-keyboard-response","468","560370","0.0-6.0-2.82","","<div style=""font-size:60px;"">+</div>","null","","","","","","",""
"552.624999982072","","image-keyboard-response","469","560925","0.0-6.0-0.83","","img/green.png","32","trial","null","false","0.2,0.8","2:nogo_b","",""
"null","","html-keyboard-response","470","561933","0.0-6.0-1.83","","<img src=""img/green-n.png"" border=""10"">","null","trial","null","","0.2,0.8","2:nogo_b","0",""
"null","","html-keyboard-response","471","562939","0.0-6.0-2.83","","<div style=""font-size:60px;"">+</div>","null","","","","","","",""
"null","","image-keyboard-response","472","564463","0.0-6.0-0.84","","img/orange.png","null","trial","32","false","0.6,0.4","3:go_c","",""
"null","","html-keyboard-response","473","565473","0.0-6.0-1.84","","<img src=""img/orange-n.png"">","null","trial","32","","0.6,0.4","3:go_c","0",""
"null","","html-keyboard-response","474","566476","0.0-6.0-2.84","","<div style=""font-size:60px;"">+</div>","null","","","","","","",""
"null","","image-keyboard-response","475","567980","0.0-6.0-0.85","","img/red.png","null","trial","32","false","0.8,0.2","1:go_a","",""
"null","","html-keyboard-response","476","568984","0.0-6.0-1.85","","<img src=""img/red-n.png"">","null","trial","32","","0.8,0.2","1:go_a","0",""
"null","","html-keyboard-response","477","569988","0.0-6.0-2.85","","<div style=""font-size:60px;"">+</div>","null","","","","","","",""
"626.1950000189245","","image-keyboard-response","478","570617","0.0-6.0-0.86","","img/green.png","32","trial","null","false","0.2,0.8","2:nogo_b","",""
"null","","html-keyboard-response","479","571632","0.0-6.0-1.86","","<img src=""img/green-n.png"" border=""10"">","null","trial","null","","0.2,0.8","2:nogo_b","0",""
"null","","html-keyboard-response","480","572636","0.0-6.0-2.86","","<div style=""font-size:60px;"">+</div>","null","","","","","","",""
"548.6849999870174","","image-keyboard-response","481","573187","0.0-6.0-0.87","","img/purple.png","32","trial","null","false","0.4,0.6","4:nogo_d","",""
"null","","html-keyboard-response","482","574203","0.0-6.0-1.87","","<img src=""img/purple-n.png"" border=""10"">","null","trial","null","","0.4,0.6","4:nogo_d","0",""
"null","","html-keyboard-response","483","575210","0.0-6.0-2.87","","<div style=""font-size:60px;"">+</div>","null","","","","","","",""
"587.085000006482","","image-keyboard-response","484","575800","0.0-6.0-0.88","","img/purple.png","32","trial","null","false","0.4,0.6","4:nogo_d","",""
"null","","html-keyboard-response","485","576812","0.0-6.0-1.88","","<img src=""img/purple-r.png"" border=""10"">","null","trial","null","","0.4,0.6","4:nogo_d","1",""
"null","","html-keyboard-response","486","577820","0.0-6.0-2.88","","<div style=""font-size:60px;"">+</div>","null","","","","","","",""
"577.3950000002515","","image-keyboard-response","487","578400","0.0-6.0-0.89","","img/orange.png","32","trial","32","true","0.6,0.4","3:go_c","",""
"null","","html-keyboard-response","488","579414","0.0-6.0-1.89","","<img src=""img/orange-r.png"" border=""10"">","null","trial","32","","0.6,0.4","3:go_c","1",""
"null","","html-keyboard-response","489","580420","0.0-6.0-2.89","","<div style=""font-size:60px;"">+</div>","null","","","","","","",""
"556.2199999985751","","image-keyboard-response","490","580979","0.0-6.0-0.90","","img/red.png","32","trial","32","true","0.8,0.2","1:go_a","",""
"null","","html-keyboard-response","491","581995","0.0-6.0-1.90","","<img src=""img/red-r.png"" border=""10"">","null","trial","32","","0.8,0.2","1:go_a","1",""
"null","","html-keyboard-response","492","582999","0.0-6.0-2.90","","<div style=""font-size:60px;"">+</div>","null","","","","","","",""
"null","","image-keyboard-response","493","584511","0.0-6.0-0.91","","img/green.png","null","trial","null","true","0.2,0.8","2:nogo_b","",""
"null","","html-keyboard-response","494","585516","0.0-6.0-1.91","","<img src=""img/green-r.png"">","null","trial","null","","0.2,0.8","2:nogo_b","1",""
"null","","html-keyboard-response","495","586525","0.0-6.0-2.91","","<div style=""font-size:60px;"">+</div>","null","","","","","","",""
"null","","image-keyboard-response","496","588031","0.0-6.0-0.92","","img/orange.png","null","trial","32","false","0.6,0.4","3:go_c","",""
"null","","html-keyboard-response","497","589039","0.0-6.0-1.92","","<img src=""img/orange-r.png"">","null","trial","32","","0.6,0.4","3:go_c","1",""
"null","","html-keyboard-response","498","590042","0.0-6.0-2.92","","<div style=""font-size:60px;"">+</div>","null","","","","","","",""
"932.3049999948125","","image-keyboard-response","499","590977","0.0-6.0-0.93","","img/purple.png","32","trial","null","false","0.4,0.6","4:nogo_d","",""
"null","","html-keyboard-response","500","591985","0.0-6.0-1.93","","<img src=""img/purple-n.png"" border=""10"">","null","trial","null","","0.4,0.6","4:nogo_d","0",""
"null","","html-keyboard-response","501","592989","0.0-6.0-2.93","","<div style=""font-size:60px;"">+</div>","null","","","","","","",""
"291.44000000087544","","image-keyboard-response","502","593282","0.0-6.0-0.94","","img/red.png","32","trial","32","true","0.8,0.2","1:go_a","",""
"null","","html-keyboard-response","503","594293","0.0-6.0-1.94","","<img src=""img/red-r.png"" border=""10"">","null","trial","32","","0.8,0.2","1:go_a","1",""
"null","","html-keyboard-response","504","595310","0.0-6.0-2.94","","<div style=""font-size:60px;"">+</div>","null","","","","","","",""
"353.5800000245217","","image-keyboard-response","505","595665","0.0-6.0-0.95","","img/green.png","32","trial","null","false","0.2,0.8","2:nogo_b","",""
"null","","html-keyboard-response","506","596670","0.0-6.0-1.95","","<img src=""img/green-r.png"" border=""10"">","null","trial","null","","0.2,0.8","2:nogo_b","1",""
"null","","html-keyboard-response","507","597690","0.0-6.0-2.95","","<div style=""font-size:60px;"">+</div>","null","","","","","","",""
"443.6899999855086","","image-keyboard-response","508","598136","0.0-6.0-0.96","","img/red.png","32","trial","32","true","0.8,0.2","1:go_a","",""
"null","","html-keyboard-response","509","599144","0.0-6.0-1.96","","<img src=""img/red-r.png"" border=""10"">","null","trial","32","","0.8,0.2","1:go_a","1",""
"null","","html-keyboard-response","510","600154","0.0-6.0-2.96","","<div style=""font-size:60px;"">+</div>","null","","","","","","",""
"526.3299999933224","","image-keyboard-response","511","600683","0.0-6.0-0.97","","img/orange.png","32","trial","32","true","0.6,0.4","3:go_c","",""
"null","","html-keyboard-response","512","601690","0.0-6.0-1.97","","<img src=""img/orange-r.png"" border=""10"">","null","trial","32","","0.6,0.4","3:go_c","1",""
"null","","html-keyboard-response","513","602701","0.0-6.0-2.97","","<div style=""font-size:60px;"">+</div>","null","","","","","","",""
"481.1300000001211","","image-keyboard-response","514","603185","0.0-6.0-0.98","","img/green.png","32","trial","null","false","0.2,0.8","2:nogo_b","",""
"null","","html-keyboard-response","515","604196","0.0-6.0-1.98","","<img src=""img/green-n.png"" border=""10"">","null","trial","null","","0.2,0.8","2:nogo_b","0",""
"null","","html-keyboard-response","516","605200","0.0-6.0-2.98","","<div style=""font-size:60px;"">+</div>","null","","","","","","",""
"null","","image-keyboard-response","517","606706","0.0-6.0-0.99","","img/purple.png","null","trial","null","true","0.4,0.6","4:nogo_d","",""
"null","","html-keyboard-response","518","607709","0.0-6.0-1.99","","<img src=""img/purple-n.png"">","null","trial","null","","0.4,0.6","4:nogo_d","0",""
"null","","html-keyboard-response","519","608726","0.0-6.0-2.99","","<div style=""font-size:60px;"">+</div>","null","","","","","","",""
"466.74499998334795","","image-keyboard-response","520","609195","0.0-6.0-0.100","","img/purple.png","32","trial","null","false","0.4,0.6","4:nogo_d","",""
"null","","html-keyboard-response","521","610208","0.0-6.0-1.100","","<img src=""img/purple-n.png"" border=""10"">","null","trial","null","","0.4,0.6","4:nogo_d","0",""
"null","","html-keyboard-response","522","611212","0.0-6.0-2.100","","<div style=""font-size:60px;"">+</div>","null","","","","","","",""
"419.2499999771826","","image-keyboard-response","523","611633","0.0-6.0-0.101","","img/orange.png","32","trial","32","true","0.6,0.4","3:go_c","",""
"null","","html-keyboard-response","524","612648","0.0-6.0-1.101","","<img src=""img/orange-n.png"" border=""10"">","null","trial","32","","0.6,0.4","3:go_c","0",""
"null","","html-keyboard-response","525","613652","0.0-6.0-2.101","","<div style=""font-size:60px;"">+</div>","null","","","","","","",""
"507.26499999291264","","image-keyboard-response","526","614161","0.0-6.0-0.102","","img/green.png","32","trial","null","false","0.2,0.8","2:nogo_b","",""
"null","","html-keyboard-response","527","615169","0.0-6.0-1.102","","<img src=""img/green-n.png"" border=""10"">","null","trial","null","","0.2,0.8","2:nogo_b","0",""
"null","","html-keyboard-response","528","616177","0.0-6.0-2.102","","<div style=""font-size:60px;"">+</div>","null","","","","","","",""
"439.65499999467283","","image-keyboard-response","529","616619","0.0-6.0-0.103","","img/red.png","32","trial","32","true","0.8,0.2","1:go_a","",""
"null","","html-keyboard-response","530","617638","0.0-6.0-1.103","","<img src=""img/red-r.png"" border=""10"">","null","trial","32","","0.8,0.2","1:go_a","1",""
"null","","html-keyboard-response","531","618656","0.0-6.0-2.103","","<div style=""font-size:60px;"">+</div>","null","","","","","","",""
"369.4050000049174","","image-keyboard-response","532","619027","0.0-6.0-0.104","","img/red.png","32","trial","32","true","0.8,0.2","1:go_a","",""
"null","","html-keyboard-response","533","620039","0.0-6.0-1.104","","<img src=""img/red-n.png"" border=""10"">","null","trial","32","","0.8,0.2","1:go_a","0",""
"null","","html-keyboard-response","534","621051","0.0-6.0-2.104","","<div style=""font-size:60px;"">+</div>","null","","","","","","",""
"704.3049999920186","","image-keyboard-response","535","621758","0.0-6.0-0.105","","img/purple.png","32","trial","null","false","0.4,0.6","4:nogo_d","",""
"null","","html-keyboard-response","536","622773","0.0-6.0-1.105","","<img src=""img/purple-r.png"" border=""10"">","null","trial","null","","0.4,0.6","4:nogo_d","1",""
"null","","html-keyboard-response","537","623777","0.0-6.0-2.105","","<div style=""font-size:60px;"">+</div>","null","","","","","","",""
"null","","image-keyboard-response","538","625280","0.0-6.0-0.106","","img/green.png","null","trial","null","true","0.2,0.8","2:nogo_b","",""
"null","","html-keyboard-response","539","626288","0.0-6.0-1.106","","<img src=""img/green-r.png"">","null","trial","null","","0.2,0.8","2:nogo_b","1",""
"null","","html-keyboard-response","540","627292","0.0-6.0-2.106","","<div style=""font-size:60px;"">+</div>","null","","","","","","",""
"562.0099999941885","","image-keyboard-response","541","627856","0.0-6.0-0.107","","img/orange.png","32","trial","32","true","0.6,0.4","3:go_c","",""
"null","","html-keyboard-response","542","628863","0.0-6.0-1.107","","<img src=""img/orange-r.png"" border=""10"">","null","trial","32","","0.6,0.4","3:go_c","1",""
"null","","html-keyboard-response","543","629869","0.0-6.0-2.107","","<div style=""font-size:60px;"">+</div>","null","","","","","","",""
"529.9349999986589","","image-keyboard-response","544","630402","0.0-6.0-0.108","","img/purple.png","32","trial","null","false","0.4,0.6","4:nogo_d","",""
"null","","html-keyboard-response","545","631416","0.0-6.0-1.108","","<img src=""img/purple-n.png"" border=""10"">","null","trial","null","","0.4,0.6","4:nogo_d","0",""
"null","","html-keyboard-response","546","632419","0.0-6.0-2.108","","<div style=""font-size:60px;"">+</div>","null","","","","","","",""
"822.5249999959487","","image-keyboard-response","547","633244","0.0-6.0-0.109","","img/green.png","32","trial","null","false","0.2,0.8","2:nogo_b","",""
"null","","html-keyboard-response","548","634263","0.0-6.0-1.109","","<img src=""img/green-r.png"" border=""10"">","null","trial","null","","0.2,0.8","2:nogo_b","1",""
"null","","html-keyboard-response","549","635278","0.0-6.0-2.109","","<div style=""font-size:60px;"">+</div>","null","","","","","","",""
"639.8699999845121","","image-keyboard-response","550","635920","0.0-6.0-0.110","","img/red.png","32","trial","32","true","0.8,0.2","1:go_a","",""
"null","","html-keyboard-response","551","636932","0.0-6.0-1.110","","<img src=""img/red-r.png"" border=""10"">","null","trial","32","","0.8,0.2","1:go_a","1",""
"null","","html-keyboard-response","552","637938","0.0-6.0-2.110","","<div style=""font-size:60px;"">+</div>","null","","","","","","",""
"782.5149999989662","","image-keyboard-response","553","638723","0.0-6.0-0.111","","img/orange.png","32","trial","32","true","0.6,0.4","3:go_c","",""
"null","","html-keyboard-response","554","639741","0.0-6.0-1.111","","<img src=""img/orange-r.png"" border=""10"">","null","trial","32","","0.6,0.4","3:go_c","1",""
"null","","html-keyboard-response","555","640758","0.0-6.0-2.111","","<div style=""font-size:60px;"">+</div>","null","","","","","","",""
"742.5750000111293","","image-keyboard-response","556","641503","0.0-6.0-0.112","","img/red.png","32","trial","32","true","0.8,0.2","1:go_a","",""
"null","","html-keyboard-response","557","642519","0.0-6.0-1.112","","<img src=""img/red-n.png"" border=""10"">","null","trial","32","","0.8,0.2","1:go_a","0",""
"null","","html-keyboard-response","558","643536","0.0-6.0-2.112","","<div style=""font-size:60px;"">+</div>","null","","","","","","",""
"null","","image-keyboard-response","559","645049","0.0-6.0-0.113","","img/orange.png","null","trial","32","false","0.6,0.4","3:go_c","",""
"null","","html-keyboard-response","560","646064","0.0-6.0-1.113","","<img src=""img/orange-r.png"">","null","trial","32","","0.6,0.4","3:go_c","1",""
"null","","html-keyboard-response","561","647079","0.0-6.0-2.113","","<div style=""font-size:60px;"">+</div>","null","","","","","","",""
"null","","image-keyboard-response","562","648586","0.0-6.0-0.114","","img/purple.png","null","trial","null","true","0.4,0.6","4:nogo_d","",""
"null","","html-keyboard-response","563","649599","0.0-6.0-1.114","","<img src=""img/purple-r.png"">","null","trial","null","","0.4,0.6","4:nogo_d","1",""
"null","","html-keyboard-response","564","650607","0.0-6.0-2.114","","<div style=""font-size:60px;"">+</div>","null","","","","","","",""
"217.92999998433515","","image-keyboard-response","565","650828","0.0-6.0-0.115","","img/green.png","32","trial","null","false","0.2,0.8","2:nogo_b","",""
"null","","html-keyboard-response","566","651839","0.0-6.0-1.115","","<img src=""img/green-n.png"" border=""10"">","null","trial","null","","0.2,0.8","2:nogo_b","0",""
"null","","html-keyboard-response","567","652854","0.0-6.0-2.115","","<div style=""font-size:60px;"">+</div>","null","","","","","","",""
"1065.39000000339","","image-keyboard-response","568","653922","0.0-6.0-0.116","","img/orange.png","32","trial","32","true","0.6,0.4","3:go_c","",""
"null","","html-keyboard-response","569","654927","0.0-6.0-1.116","","<img src=""img/orange-n.png"" border=""10"">","null","trial","32","","0.6,0.4","3:go_c","0",""
"null","","html-keyboard-response","570","655943","0.0-6.0-2.116","","<div style=""font-size:60px;"">+</div>","null","","","","","","",""
"1214.670000015758","","image-keyboard-response","571","657160","0.0-6.0-0.117","","img/green.png","32","trial","null","false","0.2,0.8","2:nogo_b","",""
"null","","html-keyboard-response","572","658178","0.0-6.0-1.117","","<img src=""img/green-r.png"" border=""10"">","null","trial","null","","0.2,0.8","2:nogo_b","1",""
"null","","html-keyboard-response","573","659180","0.0-6.0-2.117","","<div style=""font-size:60px;"">+</div>","null","","","","","","",""
"750.8300000044983","","image-keyboard-response","574","659934","0.0-6.0-0.118","","img/purple.png","32","trial","null","false","0.4,0.6","4:nogo_d","",""
"null","","html-keyboard-response","575","660948","0.0-6.0-1.118","","<img src=""img/purple-r.png"" border=""10"">","null","trial","null","","0.4,0.6","4:nogo_d","1",""
"null","","html-keyboard-response","576","661953","0.0-6.0-2.118","","<div style=""font-size:60px;"">+</div>","null","","","","","","",""
"571.9950000056997","","image-keyboard-response","577","662527","0.0-6.0-0.119","","img/red.png","32","trial","32","true","0.8,0.2","1:go_a","",""
"null","","html-keyboard-response","578","663535","0.0-6.0-1.119","","<img src=""img/red-n.png"" border=""10"">","null","trial","32","","0.8,0.2","1:go_a","0",""
"null","","html-keyboard-response","579","664544","0.0-6.0-2.119","","<div style=""font-size:60px;"">+</div>","null","","","","","","",""
"5812.72000001627","","instructions","580","670358","0.0-7.0","[{""page_index"":0,""viewing_time"":5812.390000006417}]","","","","","","","","",""
"1037.7300000109244","","image-keyboard-response","581","671399","0.0-8.0-0.0","","img/pink.png","32","trial","32","true","0.6,0.4","1:go_a","",""
"null","","html-keyboard-response","582","672412","0.0-8.0-1.0","","<img src=""img/pink-r.png"" border=""10"">","null","trial","32","","0.6,0.4","1:go_a","1",""
"null","","html-keyboard-response","583","673423","0.0-8.0-2.0","","<div style=""font-size:60px;"">+</div>","null","","","","","","",""
"null","","image-keyboard-response","584","674936","0.0-8.0-0.1","","img/red.png","null","trial","null","true","0.4,0.6","4:nogo_d","",""
"null","","html-keyboard-response","585","675952","0.0-8.0-1.1","","<img src=""img/red-r.png"">","null","trial","null","","0.4,0.6","4:nogo_d","1",""
"null","","html-keyboard-response","586","676966","0.0-8.0-2.1","","<div style=""font-size:60px;"">+</div>","null","","","","","","",""
"794.6150000207126","","image-keyboard-response","587","677763","0.0-8.0-0.2","","img/purple.png","32","trial","null","false","0.4,0.6","2:nogo_b","",""
"null","","html-keyboard-response","588","678780","0.0-8.0-1.2","","<img src=""img/purple-n.png"" border=""10"">","null","trial","null","","0.4,0.6","2:nogo_b","0",""
"null","","html-keyboard-response","589","679784","0.0-8.0-2.2","","<div style=""font-size:60px;"">+</div>","null","","","","","","",""
"null","","image-keyboard-response","590","681290","0.0-8.0-0.3","","img/grey.png","null","trial","32","false","0.6,0.4","3:go_c","",""
"null","","html-keyboard-response","591","682307","0.0-8.0-1.3","","<img src=""img/grey-r.png"">","null","trial","32","","0.6,0.4","3:go_c","1",""
"null","","html-keyboard-response","592","683322","0.0-8.0-2.3","","<div style=""font-size:60px;"">+</div>","null","","","","","","",""
"888.8950000109617","","image-keyboard-response","593","684213","0.0-8.0-0.4","","img/grey.png","32","trial","32","true","0.6,0.4","3:go_c","",""
"null","","html-keyboard-response","594","685229","0.0-8.0-1.4","","<img src=""img/grey-n.png"" border=""10"">","null","trial","32","","0.6,0.4","3:go_c","0",""
"null","","html-keyboard-response","595","686236","0.0-8.0-2.4","","<div style=""font-size:60px;"">+</div>","null","","","","","","",""
"null","","image-keyboard-response","596","687750","0.0-8.0-0.5","","img/purple.png","null","trial","null","true","0.4,0.6","2:nogo_b","",""
"null","","html-keyboard-response","597","688755","0.0-8.0-1.5","","<img src=""img/purple-n.png"">","null","trial","null","","0.4,0.6","2:nogo_b","0",""
"null","","html-keyboard-response","598","689762","0.0-8.0-2.5","","<div style=""font-size:60px;"">+</div>","null","","","","","","",""
"816.56499998644","","image-keyboard-response","599","690581","0.0-8.0-0.6","","img/red.png","32","trial","null","false","0.4,0.6","4:nogo_d","",""
"null","","html-keyboard-response","600","691589","0.0-8.0-1.6","","<img src=""img/red-n.png"" border=""10"">","null","trial","null","","0.4,0.6","4:nogo_d","0",""
"null","","html-keyboard-response","601","692596","0.0-8.0-2.6","","<div style=""font-size:60px;"">+</div>","null","","","","","","",""
"null","","image-keyboard-response","602","694114","0.0-8.0-0.7","","img/pink.png","null","trial","32","false","0.6,0.4","1:go_a","",""
"null","","html-keyboard-response","603","695127","0.0-8.0-1.7","","<img src=""img/pink-r.png"">","null","trial","32","","0.6,0.4","1:go_a","1",""
"null","","html-keyboard-response","604","696137","0.0-8.0-2.7","","<div style=""font-size:60px;"">+</div>","null","","","","","","",""
"null","","image-keyboard-response","605","697642","0.0-8.0-0.8","","img/grey.png","null","trial","32","false","0.6,0.4","3:go_c","",""
"null","","html-keyboard-response","606","698650","0.0-8.0-1.8","","<img src=""img/grey-r.png"">","null","trial","32","","0.6,0.4","3:go_c","1",""
"null","","html-keyboard-response","607","699654","0.0-8.0-2.8","","<div style=""font-size:60px;"">+</div>","null","","","","","","",""
"511.9000000122469","","image-keyboard-response","608","700168","0.0-8.0-0.9","","img/purple.png","32","trial","null","false","0.4,0.6","2:nogo_b","",""
"null","","html-keyboard-response","609","701186","0.0-8.0-1.9","","<img src=""img/purple-n.png"" border=""10"">","null","trial","null","","0.4,0.6","2:nogo_b","0",""
"null","","html-keyboard-response","610","702190","0.0-8.0-2.9","","<div style=""font-size:60px;"">+</div>","null","","","","","","",""
"null","","image-keyboard-response","611","703695","0.0-8.0-0.10","","img/red.png","null","trial","null","true","0.4,0.6","4:nogo_d","",""
"null","","html-keyboard-response","612","704714","0.0-8.0-1.10","","<img src=""img/red-r.png"">","null","trial","null","","0.4,0.6","4:nogo_d","1",""
"null","","html-keyboard-response","613","705730","0.0-8.0-2.10","","<div style=""font-size:60px;"">+</div>","null","","","","","","",""
"698.6949999991339","","image-keyboard-response","614","706430","0.0-8.0-0.11","","img/pink.png","32","trial","32","true","0.6,0.4","1:go_a","",""
"null","","html-keyboard-response","615","707444","0.0-8.0-1.11","","<img src=""img/pink-n.png"" border=""10"">","null","trial","32","","0.6,0.4","1:go_a","0",""
"null","","html-keyboard-response","616","708451","0.0-8.0-2.11","","<div style=""font-size:60px;"">+</div>","null","","","","","","",""
"797.3200000124052","","image-keyboard-response","617","709250","0.0-8.0-0.12","","img/red.png","32","trial","null","false","0.4,0.6","4:nogo_d","",""
"null","","html-keyboard-response","618","710262","0.0-8.0-1.12","","<img src=""img/red-r.png"" border=""10"">","null","trial","null","","0.4,0.6","4:nogo_d","1",""
"null","","html-keyboard-response","619","711273","0.0-8.0-2.12","","<div style=""font-size:60px;"">+</div>","null","","","","","","",""
"546.1549999890849","","image-keyboard-response","620","711822","0.0-8.0-0.13","","img/grey.png","32","trial","32","true","0.6,0.4","3:go_c","",""
"null","","html-keyboard-response","621","712835","0.0-8.0-1.13","","<img src=""img/grey-r.png"" border=""10"">","null","trial","32","","0.6,0.4","3:go_c","1",""
"null","","html-keyboard-response","622","713842","0.0-8.0-2.13","","<div style=""font-size:60px;"">+</div>","null","","","","","","",""
"null","","image-keyboard-response","623","715348","0.0-8.0-0.14","","img/purple.png","null","trial","null","true","0.4,0.6","2:nogo_b","",""
"null","","html-keyboard-response","624","716363","0.0-8.0-1.14","","<img src=""img/purple-r.png"">","null","trial","null","","0.4,0.6","2:nogo_b","1",""
"null","","html-keyboard-response","625","717371","0.0-8.0-2.14","","<div style=""font-size:60px;"">+</div>","null","","","","","","",""
"905.8350000123028","","image-keyboard-response","626","718279","0.0-8.0-0.15","","img/pink.png","32","trial","32","true","0.6,0.4","1:go_a","",""
"null","","html-keyboard-response","627","719283","0.0-8.0-1.15","","<img src=""img/pink-r.png"" border=""10"">","null","trial","32","","0.6,0.4","1:go_a","1",""
"null","","html-keyboard-response","628","720290","0.0-8.0-2.15","","<div style=""font-size:60px;"">+</div>","null","","","","","","",""
"754.0100000042003","","image-keyboard-response","629","721047","0.0-8.0-0.16","","img/purple.png","32","trial","null","false","0.4,0.6","2:nogo_b","",""
"null","","html-keyboard-response","630","722056","0.0-8.0-1.16","","<img src=""img/purple-n.png"" border=""10"">","null","trial","null","","0.4,0.6","2:nogo_b","0",""
"null","","html-keyboard-response","631","723069","0.0-8.0-2.16","","<div style=""font-size:60px;"">+</div>","null","","","","","","",""
"499.3550000071991","","image-keyboard-response","632","723569","0.0-8.0-0.17","","img/red.png","32","trial","null","false","0.4,0.6","4:nogo_d","",""
"null","","html-keyboard-response","633","724578","0.0-8.0-1.17","","<img src=""img/red-n.png"" border=""10"">","null","trial","null","","0.4,0.6","4:nogo_d","0",""
"null","","html-keyboard-response","634","725583","0.0-8.0-2.17","","<div style=""font-size:60px;"">+</div>","null","","","","","","",""
"533.6249999818392","","image-keyboard-response","635","726118","0.0-8.0-0.18","","img/grey.png","32","trial","32","true","0.6,0.4","3:go_c","",""
"null","","html-keyboard-response","636","727130","0.0-8.0-1.18","","<img src=""img/grey-n.png"" border=""10"">","null","trial","32","","0.6,0.4","3:go_c","0",""
"null","","html-keyboard-response","637","728136","0.0-8.0-2.18","","<div style=""font-size:60px;"">+</div>","null","","","","","","",""
"429.73500001244247","","image-keyboard-response","638","728568","0.0-8.0-0.19","","img/pink.png","32","trial","32","true","0.6,0.4","1:go_a","",""
"null","","html-keyboard-response","639","729584","0.0-8.0-1.19","","<img src=""img/pink-r.png"" border=""10"">","null","trial","32","","0.6,0.4","1:go_a","1",""
"null","","html-keyboard-response","640","730591","0.0-8.0-2.19","","<div style=""font-size:60px;"">+</div>","null","","","","","","",""
"747.2650000127032","","image-keyboard-response","641","731341","0.0-8.0-0.20","","img/pink.png","32","trial","32","true","0.6,0.4","1:go_a","",""
"null","","html-keyboard-response","642","732350","0.0-8.0-1.20","","<img src=""img/pink-r.png"" border=""10"">","null","trial","32","","0.6,0.4","1:go_a","1",""
"null","","html-keyboard-response","643","733367","0.0-8.0-2.20","","<div style=""font-size:60px;"">+</div>","null","","","","","","",""
"647.0250000129454","","image-keyboard-response","644","734016","0.0-8.0-0.21","","img/red.png","32","trial","null","false","0.4,0.6","4:nogo_d","",""
"null","","html-keyboard-response","645","735033","0.0-8.0-1.21","","<img src=""img/red-r.png"" border=""10"">","null","trial","null","","0.4,0.6","4:nogo_d","1",""
"null","","html-keyboard-response","646","736040","0.0-8.0-2.21","","<div style=""font-size:60px;"">+</div>","null","","","","","","",""
"null","","image-keyboard-response","647","737547","0.0-8.0-0.22","","img/purple.png","null","trial","null","true","0.4,0.6","2:nogo_b","",""
"null","","html-keyboard-response","648","738554","0.0-8.0-1.22","","<img src=""img/purple-r.png"">","null","trial","null","","0.4,0.6","2:nogo_b","1",""
"null","","html-keyboard-response","649","739572","0.0-8.0-2.22","","<div style=""font-size:60px;"">+</div>","null","","","","","","",""
"532.950000022538","","image-keyboard-response","650","740107","0.0-8.0-0.23","","img/grey.png","32","trial","32","true","0.6,0.4","3:go_c","",""
"null","","html-keyboard-response","651","741116","0.0-8.0-1.23","","<img src=""img/grey-r.png"" border=""10"">","null","trial","32","","0.6,0.4","3:go_c","1",""
"null","","html-keyboard-response","652","742124","0.0-8.0-2.23","","<div style=""font-size:60px;"">+</div>","null","","","","","","",""
"584.0250000183005","","image-keyboard-response","653","742711","0.0-8.0-0.24","","img/pink.png","32","trial","32","true","0.6,0.4","1:go_a","",""
"null","","html-keyboard-response","654","743734","0.0-8.0-1.24","","<img src=""img/pink-n.png"" border=""10"">","null","trial","32","","0.6,0.4","1:go_a","0",""
"null","","html-keyboard-response","655","744744","0.0-8.0-2.24","","<div style=""font-size:60px;"">+</div>","null","","","","","","",""
"null","","image-keyboard-response","656","746248","0.0-8.0-0.25","","img/grey.png","null","trial","32","false","0.6,0.4","3:go_c","",""
"null","","html-keyboard-response","657","747260","0.0-8.0-1.25","","<img src=""img/grey-n.png"">","null","trial","32","","0.6,0.4","3:go_c","0",""
"null","","html-keyboard-response","658","748265","0.0-8.0-2.25","","<div style=""font-size:60px;"">+</div>","null","","","","","","",""
"null","","image-keyboard-response","659","749771","0.0-8.0-0.26","","img/red.png","null","trial","null","true","0.4,0.6","4:nogo_d","",""
"null","","html-keyboard-response","660","750775","0.0-8.0-1.26","","<img src=""img/red-n.png"">","null","trial","null","","0.4,0.6","4:nogo_d","0",""
"null","","html-keyboard-response","661","751791","0.0-8.0-2.26","","<div style=""font-size:60px;"">+</div>","null","","","","","","",""
"1440.3400000010151","","image-keyboard-response","662","753233","0.0-8.0-0.27","","img/purple.png","32","trial","null","false","0.4,0.6","2:nogo_b","",""
"null","","html-keyboard-response","663","754238","0.0-8.0-1.27","","<img src=""img/purple-n.png"" border=""10"">","null","trial","null","","0.4,0.6","2:nogo_b","0",""
"null","","html-keyboard-response","664","755240","0.0-8.0-2.27","","<div style=""font-size:60px;"">+</div>","null","","","","","","",""
"546.585000003688","","image-keyboard-response","665","755789","0.0-8.0-0.28","","img/pink.png","32","trial","32","true","0.6,0.4","1:go_a","",""
"null","","html-keyboard-response","666","756793","0.0-8.0-1.28","","<img src=""img/pink-r.png"" border=""10"">","null","trial","32","","0.6,0.4","1:go_a","1",""
"null","","html-keyboard-response","667","757808","0.0-8.0-2.28","","<div style=""font-size:60px;"">+</div>","null","","","","","","",""
"702.789999981178","","image-keyboard-response","668","758513","0.0-8.0-0.29","","img/red.png","32","trial","null","false","0.4,0.6","4:nogo_d","",""
"null","","html-keyboard-response","669","759522","0.0-8.0-1.29","","<img src=""img/red-n.png"" border=""10"">","null","trial","null","","0.4,0.6","4:nogo_d","0",""
"null","","html-keyboard-response","670","760526","0.0-8.0-2.29","","<div style=""font-size:60px;"">+</div>","null","","","","","","",""
"681.5850000130013","","image-keyboard-response","671","761210","0.0-8.0-0.30","","img/grey.png","32","trial","32","true","0.6,0.4","3:go_c","",""
"null","","html-keyboard-response","672","762225","0.0-8.0-1.30","","<img src=""img/grey-r.png"" border=""10"">","null","trial","32","","0.6,0.4","3:go_c","1",""
"null","","html-keyboard-response","673","763227","0.0-8.0-2.30","","<div style=""font-size:60px;"">+</div>","null","","","","","","",""
