"rt","url","trial_type","trial_index","time_elapsed","internal_node_id","view_history","stimulus","key_press","test_part","correct_response","correct","use_rew","which_stim","reward","responses"
"32771.73500001663","consent.html","external-html","0","32862","0.0-0.0","","","","","","","","","",""
"1804841.8299999903","","instructions","1","1837708","0.0-1.0","[{""page_index"":0,""viewing_time"":6272.375000000466},{""page_index"":1,""viewing_time"":1789395.5800000113},{""page_index"":2,""viewing_time"":1397.3000000114553},{""page_index"":3,""viewing_time"":1462.679999996908},{""page_index"":4,""viewing_time"":1138.314999989234},{""page_index"":5,""viewing_time"":3724.675000004936},{""page_index"":6,""viewing_time"":1447.634999989532}]","","","","","","","","",""
"null","","image-keyboard-response","2","1839240","0.0-2.0-0.0","","img/test1.PNG","null","practice","32","false","","","",""
"null","","html-keyboard-response","3","1840254","0.0-2.0-1.0","","<img src=""img/test1-neutral.PNG"">","null","","","","","","",""
"null","","html-keyboard-response","4","1841272","0.0-2.0-2.0","","<div style=""font-size:60px;"">+</div>","null","","","","","","",""
"289.4749999977648","","image-keyboard-response","5","1841563","0.0-2.0-0.1","","img/test2.PNG","32","practice","null","false","","","",""
"null","","html-keyboard-response","6","1842578","0.0-2.0-1.1","","<img src=""img/test2-neutral.PNG"" border=""10px; grey"">","null","","","","","","",""
"null","","html-keyboard-response","7","1843588","0.0-2.0-2.1","","<div style=""font-size:60px;"">+</div>","null","","","","","","",""
"483.3099999814294","","image-keyboard-response","8","1844074","0.0-2.0-0.2","","img/test3.PNG","32","practice","null","false","","","",""
"null","","html-keyboard-response","9","1845077","0.0-2.0-1.2","","<img src=""img/test3-neutral.PNG"" border=""10px; grey"">","null","","","","","","",""
"null","","html-keyboard-response","10","1846086","0.0-2.0-2.2","","<div style=""font-size:60px;"">+</div>","null","","","","","","",""
"824.8599999933504","","image-keyboard-response","11","1846914","0.0-2.0-0.3","","img/test2.PNG","32","practice","null","false","","","",""
"null","","html-keyboard-response","12","1847919","0.0-2.0-1.3","","<img src=""img/test2-neutral.PNG"" border=""10px; grey"">","null","","","","","","",""
"null","","html-keyboard-response","13","1848936","0.0-2.0-2.3","","<div style=""font-size:60px;"">+</div>","null","","","","","","",""
"527.6149999699555","","image-keyboard-response","14","1849466","0.0-2.0-0.4","","img/test1.PNG","32","practice","32","true","","","",""
"null","","html-keyboard-response","15","1850477","0.0-2.0-1.4","","<img src=""img/test1-reward.PNG"" border=""10px; grey"">","null","","","","","","",""
"null","","html-keyboard-response","16","1851492","0.0-2.0-2.4","","<div style=""font-size:60px;"">+</div>","null","","","","","","",""
"null","","image-keyboard-response","17","1853001","0.0-2.0-0.5","","img/test3.PNG","null","practice","null","true","","","",""
"null","","html-keyboard-response","18","1854017","0.0-2.0-1.5","","<img src=""img/test3-reward.PNG"">","null","","","","","","",""
"null","","html-keyboard-response","19","1855033","0.0-2.0-2.5","","<div style=""font-size:60px;"">+</div>","null","","","","","","",""
"542.3150000278838","","image-keyboard-response","20","1855578","0.0-2.0-0.6","","img/test3.PNG","32","practice","null","false","","","",""
"null","","html-keyboard-response","21","1856590","0.0-2.0-1.6","","<img src=""img/test3-neutral.PNG"" border=""10px; grey"">","null","","","","","","",""
"null","","html-keyboard-response","22","1857597","0.0-2.0-2.6","","<div style=""font-size:60px;"">+</div>","null","","","","","","",""
"483.9899999788031","","image-keyboard-response","23","1858083","0.0-2.0-0.7","","img/test1.PNG","32","practice","32","true","","","",""
"null","","html-keyboard-response","24","1859093","0.0-2.0-1.7","","<img src=""img/test1-reward.PNG"" border=""10px; grey"">","null","","","","","","",""
"null","","html-keyboard-response","25","1860095","0.0-2.0-2.7","","<div style=""font-size:60px;"">+</div>","null","","","","","","",""
"705.2799999946728","","image-keyboard-response","26","1860802","0.0-2.0-0.8","","img/test2.PNG","32","practice","null","false","","","",""
"null","","html-keyboard-response","27","1861815","0.0-2.0-1.8","","<img src=""img/test2-neutral.PNG"" border=""10px; grey"">","null","","","","","","",""
"null","","html-keyboard-response","28","1862831","0.0-2.0-2.8","","<div style=""font-size:60px;"">+</div>","null","","","","","","",""
"496.6300000087358","","image-keyboard-response","29","1863330","0.0-2.0-0.9","","img/test3.PNG","32","practice","null","false","","","",""
"null","","html-keyboard-response","30","1864346","0.0-2.0-1.9","","<img src=""img/test3-neutral.PNG"" border=""10px; grey"">","null","","","","","","",""
"null","","html-keyboard-response","31","1865363","0.0-2.0-2.9","","<div style=""font-size:60px;"">+</div>","null","","","","","","",""
"614.1150000039488","","image-keyboard-response","32","1865979","0.0-2.0-0.10","","img/test1.PNG","32","practice","32","true","","","",""
"null","","html-keyboard-response","33","1866992","0.0-2.0-1.10","","<img src=""img/test1-reward.PNG"" border=""10px; grey"">","null","","","","","","",""
"null","","html-keyboard-response","34","1868009","0.0-2.0-2.10","","<div style=""font-size:60px;"">+</div>","null","","","","","","",""
"null","","image-keyboard-response","35","1869529","0.0-2.0-0.11","","img/test2.PNG","null","practice","null","true","","","",""
"null","","html-keyboard-response","36","1870541","0.0-2.0-1.11","","<img src=""img/test2-reward.PNG"">","null","","","","","","",""
"null","","html-keyboard-response","37","1871544","0.0-2.0-2.11","","<div style=""font-size:60px;"">+</div>","null","","","","","","",""
"1883.8049999903888","","instructions","38","1873429","0.0-3.0","[{""page_index"":0,""viewing_time"":1883.2900000270456}]","","","","","","","","",""
"1394.0299999667332","","image-keyboard-response","39","1874827","0.0-4.0-0.0","","img/orange.png","32","trial","null","false","0.2,0.8","2:nogo_b","",""
"null","","html-keyboard-response","40","1875832","0.0-4.0-1.0","","<img src=""img/orange-r.png"" border=""10"">","null","trial","null","","0.2,0.8","2:nogo_b","1",""
"null","","html-keyboard-response","41","1876840","0.0-4.0-2.0","","<div style=""font-size:60px;"">+</div>","null","","","","","","",""
"519.5250000106171","","image-keyboard-response","42","1877362","0.0-4.0-0.1","","img/purple.png","32","trial","32","true","0.8,0.2","1:go_a","",""
"null","","html-keyboard-response","43","1878372","0.0-4.0-1.1","","<img src=""img/purple-r.png"" border=""10"">","null","trial","32","","0.8,0.2","1:go_a","1",""
"null","","html-keyboard-response","44","1879374","0.0-4.0-2.1","","<div style=""font-size:60px;"">+</div>","null","","","","","","",""
"null","","image-keyboard-response","45","1880887","0.0-4.0-0.2","","img/purple.png","null","trial","32","false","0.8,0.2","1:go_a","",""
"null","","html-keyboard-response","46","1881895","0.0-4.0-1.2","","<img src=""img/purple-r.png"">","null","trial","32","","0.8,0.2","1:go_a","1",""
"null","","html-keyboard-response","47","1882904","0.0-4.0-2.2","","<div style=""font-size:60px;"">+</div>","null","","","","","","",""
"559.4799999962561","","image-keyboard-response","48","1883465","0.0-4.0-0.3","","img/orange.png","32","trial","null","false","0.2,0.8","2:nogo_b","",""
"null","","html-keyboard-response","49","1884486","0.0-4.0-1.3","","<img src=""img/orange-n.png"" border=""10"">","null","trial","null","","0.2,0.8","2:nogo_b","0",""
"null","","html-keyboard-response","50","1885503","0.0-4.0-2.3","","<div style=""font-size:60px;"">+</div>","null","","","","","","",""
"null","","image-keyboard-response","51","1887018","0.0-4.0-0.4","","img/purple.png","null","trial","32","false","0.8,0.2","1:go_a","",""
"null","","html-keyboard-response","52","1888039","0.0-4.0-1.4","","<img src=""img/purple-n.png"">","null","trial","32","","0.8,0.2","1:go_a","0",""
"null","","html-keyboard-response","53","1889051","0.0-4.0-2.4","","<div style=""font-size:60px;"">+</div>","null","","","","","","",""
"null","","image-keyboard-response","54","1890567","0.0-4.0-0.5","","img/orange.png","null","trial","null","true","0.2,0.8","2:nogo_b","",""
"null","","html-keyboard-response","55","1891590","0.0-4.0-1.5","","<img src=""img/orange-r.png"">","null","trial","null","","0.2,0.8","2:nogo_b","1",""
"null","","html-keyboard-response","56","1892600","0.0-4.0-2.5","","<div style=""font-size:60px;"">+</div>","null","","","","","","",""
"487.554999999702","","image-keyboard-response","57","1893089","0.0-4.0-0.6","","img/purple.png","32","trial","32","true","0.8,0.2","1:go_a","",""
"null","","html-keyboard-response","58","1894099","0.0-4.0-1.6","","<img src=""img/purple-r.png"" border=""10"">","null","trial","32","","0.8,0.2","1:go_a","1",""
"null","","html-keyboard-response","59","1895114","0.0-4.0-2.6","","<div style=""font-size:60px;"">+</div>","null","","","","","","",""
"692.9549999767914","","image-keyboard-response","60","1895809","0.0-4.0-0.7","","img/orange.png","32","trial","null","false","0.2,0.8","2:nogo_b","",""
"null","","html-keyboard-response","61","1896813","0.0-4.0-1.7","","<img src=""img/orange-n.png"" border=""10"">","null","trial","null","","0.2,0.8","2:nogo_b","0",""
"null","","html-keyboard-response","62","1897828","0.0-4.0-2.7","","<div style=""font-size:60px;"">+</div>","null","","","","","","",""
"null","","image-keyboard-response","63","1899345","0.0-4.0-0.8","","img/purple.png","null","trial","32","false","0.8,0.2","1:go_a","",""
"null","","html-keyboard-response","64","1900364","0.0-4.0-1.8","","<img src=""img/purple-n.png"">","null","trial","32","","0.8,0.2","1:go_a","0",""
"null","","html-keyboard-response","65","1901378","0.0-4.0-2.8","","<div style=""font-size:60px;"">+</div>","null","","","","","","",""
"557.4049999704584","","image-keyboard-response","66","1901938","0.0-4.0-0.9","","img/orange.png","32","trial","null","false","0.2,0.8","2:nogo_b","",""
"null","","html-keyboard-response","67","1902944","0.0-4.0-1.9","","<img src=""img/orange-n.png"" border=""10"">","null","trial","null","","0.2,0.8","2:nogo_b","0",""
"null","","html-keyboard-response","68","1903959","0.0-4.0-2.9","","<div style=""font-size:60px;"">+</div>","null","","","","","","",""
"664.7850000299513","","image-keyboard-response","69","1904626","0.0-4.0-0.10","","img/orange.png","32","trial","null","false","0.2,0.8","2:nogo_b","",""
"null","","html-keyboard-response","70","1905642","0.0-4.0-1.10","","<img src=""img/orange-r.png"" border=""10"">","null","trial","null","","0.2,0.8","2:nogo_b","1",""
"null","","html-keyboard-response","71","1906646","0.0-4.0-2.10","","<div style=""font-size:60px;"">+</div>","null","","","","","","",""
"444.420000014361","","image-keyboard-response","72","1907097","0.0-4.0-0.11","","img/purple.png","32","trial","32","true","0.8,0.2","1:go_a","",""
"null","","html-keyboard-response","73","1908109","0.0-4.0-1.11","","<img src=""img/purple-r.png"" border=""10"">","null","trial","32","","0.8,0.2","1:go_a","1",""
"null","","html-keyboard-response","74","1909116","0.0-4.0-2.11","","<div style=""font-size:60px;"">+</div>","null","","","","","","",""
"null","","image-keyboard-response","75","1910624","0.0-4.0-0.12","","img/purple.png","null","trial","32","false","0.8,0.2","1:go_a","",""
"null","","html-keyboard-response","76","1911646","0.0-4.0-1.12","","<img src=""img/purple-n.png"">","null","trial","32","","0.8,0.2","1:go_a","0",""
"null","","html-keyboard-response","77","1912657","0.0-4.0-2.12","","<div style=""font-size:60px;"">+</div>","null","","","","","","",""
"735.4499999783002","","image-keyboard-response","78","1913394","0.0-4.0-0.13","","img/orange.png","32","trial","null","false","0.2,0.8","2:nogo_b","",""
"null","","html-keyboard-response","79","1914399","0.0-4.0-1.13","","<img src=""img/orange-n.png"" border=""10"">","null","trial","null","","0.2,0.8","2:nogo_b","0",""
"null","","html-keyboard-response","80","1915412","0.0-4.0-2.13","","<div style=""font-size:60px;"">+</div>","null","","","","","","",""
"null","","image-keyboard-response","81","1916920","0.0-4.0-0.14","","img/purple.png","null","trial","32","false","0.8,0.2","1:go_a","",""
"null","","html-keyboard-response","82","1917923","0.0-4.0-1.14","","<img src=""img/purple-n.png"">","null","trial","32","","0.8,0.2","1:go_a","0",""
"null","","html-keyboard-response","83","1918937","0.0-4.0-2.14","","<div style=""font-size:60px;"">+</div>","null","","","","","","",""
"534.5350000425242","","image-keyboard-response","84","1919473","0.0-4.0-0.15","","img/orange.png","32","trial","null","false","0.2,0.8","2:nogo_b","",""
"null","","html-keyboard-response","85","1920489","0.0-4.0-1.15","","<img src=""img/orange-n.png"" border=""10"">","null","trial","null","","0.2,0.8","2:nogo_b","0",""
"null","","html-keyboard-response","86","1921504","0.0-4.0-2.15","","<div style=""font-size:60px;"">+</div>","null","","","","","","",""
"430.6950000463985","","image-keyboard-response","87","1921937","0.0-4.0-0.16","","img/orange.png","32","trial","null","false","0.2,0.8","2:nogo_b","",""
"null","","html-keyboard-response","88","1922940","0.0-4.0-1.16","","<img src=""img/orange-n.png"" border=""10"">","null","trial","null","","0.2,0.8","2:nogo_b","0",""
"null","","html-keyboard-response","89","1923951","0.0-4.0-2.16","","<div style=""font-size:60px;"">+</div>","null","","","","","","",""
"672.3650000058115","","image-keyboard-response","90","1924625","0.0-4.0-0.17","","img/purple.png","32","trial","32","true","0.8,0.2","1:go_a","",""
"null","","html-keyboard-response","91","1925641","0.0-4.0-1.17","","<img src=""img/purple-n.png"" border=""10"">","null","trial","32","","0.8,0.2","1:go_a","0",""
"null","","html-keyboard-response","92","1926649","0.0-4.0-2.17","","<div style=""font-size:60px;"">+</div>","null","","","","","","",""
"518.4299999964423","","image-keyboard-response","93","1927169","0.0-4.0-0.18","","img/orange.png","32","trial","null","false","0.2,0.8","2:nogo_b","",""
"null","","html-keyboard-response","94","1928181","0.0-4.0-1.18","","<img src=""img/orange-n.png"" border=""10"">","null","trial","null","","0.2,0.8","2:nogo_b","0",""
"null","","html-keyboard-response","95","1929201","0.0-4.0-2.18","","<div style=""font-size:60px;"">+</div>","null","","","","","","",""
"null","","image-keyboard-response","96","1930715","0.0-4.0-0.19","","img/purple.png","null","trial","32","false","0.8,0.2","1:go_a","",""
"null","","html-keyboard-response","97","1931730","0.0-4.0-1.19","","<img src=""img/purple-n.png"">","null","trial","32","","0.8,0.2","1:go_a","0",""
"null","","html-keyboard-response","98","1932738","0.0-4.0-2.19","","<div style=""font-size:60px;"">+</div>","null","","","","","","",""
"606.2650000094436","","image-keyboard-response","99","1933346","0.0-4.0-0.20","","img/orange.png","32","trial","null","false","0.2,0.8","2:nogo_b","",""
"null","","html-keyboard-response","100","1934364","0.0-4.0-1.20","","<img src=""img/orange-n.png"" border=""10"">","null","trial","null","","0.2,0.8","2:nogo_b","0",""
"null","","html-keyboard-response","101","1935378","0.0-4.0-2.20","","<div style=""font-size:60px;"">+</div>","null","","","","","","",""
"null","","image-keyboard-response","102","1936880","0.0-4.0-0.21","","img/purple.png","null","trial","32","false","0.8,0.2","1:go_a","",""
"null","","html-keyboard-response","103","1937896","0.0-4.0-1.21","","<img src=""img/purple-n.png"">","null","trial","32","","0.8,0.2","1:go_a","0",""
"null","","html-keyboard-response","104","1938910","0.0-4.0-2.21","","<div style=""font-size:60px;"">+</div>","null","","","","","","",""
"617.3100000014529","","image-keyboard-response","105","1939529","0.0-4.0-0.22","","img/orange.png","32","trial","null","false","0.2,0.8","2:nogo_b","",""
"null","","html-keyboard-response","106","1940542","0.0-4.0-1.22","","<img src=""img/orange-n.png"" border=""10"">","null","trial","null","","0.2,0.8","2:nogo_b","0",""
"null","","html-keyboard-response","107","1941566","0.0-4.0-2.22","","<div style=""font-size:60px;"">+</div>","null","","","","","","",""
"null","","image-keyboard-response","108","1943075","0.0-4.0-0.23","","img/purple.png","null","trial","32","false","0.8,0.2","1:go_a","",""
"null","","html-keyboard-response","109","1944090","0.0-4.0-1.23","","<img src=""img/purple-n.png"">","null","trial","32","","0.8,0.2","1:go_a","0",""
"null","","html-keyboard-response","110","1945108","0.0-4.0-2.23","","<div style=""font-size:60px;"">+</div>","null","","","","","","",""
"611.6749999928288","","image-keyboard-response","111","1945722","0.0-4.0-0.24","","img/orange.png","32","trial","null","false","0.2,0.8","2:nogo_b","",""
"null","","html-keyboard-response","112","1946740","0.0-4.0-1.24","","<img src=""img/orange-r.png"" border=""10"">","null","trial","null","","0.2,0.8","2:nogo_b","1",""
"null","","html-keyboard-response","113","1947756","0.0-4.0-2.24","","<div style=""font-size:60px;"">+</div>","null","","","","","","",""
"418.7249999959022","","image-keyboard-response","114","1948177","0.0-4.0-0.25","","img/purple.png","32","trial","32","true","0.8,0.2","1:go_a","",""
"null","","html-keyboard-response","115","1949205","0.0-4.0-1.25","","<img src=""img/purple-n.png"" border=""10"">","null","trial","32","","0.8,0.2","1:go_a","0",""
"null","","html-keyboard-response","116","1950226","0.0-4.0-2.25","","<div style=""font-size:60px;"">+</div>","null","","","","","","",""
"676.8150000134483","","image-keyboard-response","117","1950906","0.0-4.0-0.26","","img/orange.png","32","trial","null","false","0.2,0.8","2:nogo_b","",""
"null","","html-keyboard-response","118","1951913","0.0-4.0-1.26","","<img src=""img/orange-n.png"" border=""10"">","null","trial","null","","0.2,0.8","2:nogo_b","0",""
"null","","html-keyboard-response","119","1952923","0.0-4.0-2.26","","<div style=""font-size:60px;"">+</div>","null","","","","","","",""
"null","","image-keyboard-response","120","1954431","0.0-4.0-0.27","","img/purple.png","null","trial","32","false","0.8,0.2","1:go_a","",""
"null","","html-keyboard-response","121","1955436","0.0-4.0-1.27","","<img src=""img/purple-r.png"">","null","trial","32","","0.8,0.2","1:go_a","1",""
"null","","html-keyboard-response","122","1956455","0.0-4.0-2.27","","<div style=""font-size:60px;"">+</div>","null","","","","","","",""
"941.724999982398","","image-keyboard-response","123","1957399","0.0-4.0-0.28","","img/orange.png","32","trial","null","false","0.2,0.8","2:nogo_b","",""
"null","","html-keyboard-response","124","1958417","0.0-4.0-1.28","","<img src=""img/orange-n.png"" border=""10"">","null","trial","null","","0.2,0.8","2:nogo_b","0",""
"null","","html-keyboard-response","125","1959434","0.0-4.0-2.28","","<div style=""font-size:60px;"">+</div>","null","","","","","","",""
"null","","image-keyboard-response","126","1960939","0.0-4.0-0.29","","img/purple.png","null","trial","32","false","0.8,0.2","1:go_a","",""
"null","","html-keyboard-response","127","1961951","0.0-4.0-1.29","","<img src=""img/purple-n.png"">","null","trial","32","","0.8,0.2","1:go_a","0",""
"null","","html-keyboard-response","128","1962970","0.0-4.0-2.29","","<div style=""font-size:60px;"">+</div>","null","","","","","","",""
"930.8749999618158","","image-keyboard-response","129","1963903","0.0-4.0-0.30","","img/purple.png","32","trial","32","true","0.8,0.2","1:go_a","",""
"null","","html-keyboard-response","130","1964914","0.0-4.0-1.30","","<img src=""img/purple-r.png"" border=""10"">","null","trial","32","","0.8,0.2","1:go_a","1",""
"null","","html-keyboard-response","131","1965931","0.0-4.0-2.30","","<div style=""font-size:60px;"">+</div>","null","","","","","","",""
"842.3450000118464","","image-keyboard-response","132","1966775","0.0-4.0-0.31","","img/orange.png","32","trial","null","false","0.2,0.8","2:nogo_b","",""
"null","","html-keyboard-response","133","1967789","0.0-4.0-1.31","","<img src=""img/orange-r.png"" border=""10"">","null","trial","null","","0.2,0.8","2:nogo_b","1",""
"null","","html-keyboard-response","134","1968798","0.0-4.0-2.31","","<div style=""font-size:60px;"">+</div>","null","","","","","","",""
"703.0249999952503","","image-keyboard-response","135","1969503","0.0-4.0-0.32","","img/orange.png","32","trial","null","false","0.2,0.8","2:nogo_b","",""
"null","","html-keyboard-response","136","1970516","0.0-4.0-1.32","","<img src=""img/orange-r.png"" border=""10"">","null","trial","null","","0.2,0.8","2:nogo_b","1",""
"null","","html-keyboard-response","137","1971532","0.0-4.0-2.32","","<div style=""font-size:60px;"">+</div>","null","","","","","","",""
"null","","image-keyboard-response","138","1973049","0.0-4.0-0.33","","img/purple.png","null","trial","32","false","0.8,0.2","1:go_a","",""
"null","","html-keyboard-response","139","1974062","0.0-4.0-1.33","","<img src=""img/purple-n.png"">","null","trial","32","","0.8,0.2","1:go_a","0",""
"null","","html-keyboard-response","140","1975080","0.0-4.0-2.33","","<div style=""font-size:60px;"">+</div>","null","","","","","","",""
"null","","image-keyboard-response","141","1976595","0.0-4.0-0.34","","img/orange.png","null","trial","null","true","0.2,0.8","2:nogo_b","",""
"null","","html-keyboard-response","142","1977609","0.0-4.0-1.34","","<img src=""img/orange-r.png"">","null","trial","null","","0.2,0.8","2:nogo_b","1",""
"null","","html-keyboard-response","143","1978612","0.0-4.0-2.34","","<div style=""font-size:60px;"">+</div>","null","","","","","","",""
"601.059999957215","","image-keyboard-response","144","1979216","0.0-4.0-0.35","","img/purple.png","32","trial","32","true","0.8,0.2","1:go_a","",""
"null","","html-keyboard-response","145","1980224","0.0-4.0-1.35","","<img src=""img/purple-r.png"" border=""10"">","null","trial","32","","0.8,0.2","1:go_a","1",""
"null","","html-keyboard-response","146","1981227","0.0-4.0-2.35","","<div style=""font-size:60px;"">+</div>","null","","","","","","",""
"321.88000000314787","","image-keyboard-response","147","1981551","0.0-4.0-0.36","","img/purple.png","32","trial","32","true","0.8,0.2","1:go_a","",""
"null","","html-keyboard-response","148","1982557","0.0-4.0-1.36","","<img src=""img/purple-r.png"" border=""10"">","null","trial","32","","0.8,0.2","1:go_a","1",""
"null","","html-keyboard-response","149","1983573","0.0-4.0-2.36","","<div style=""font-size:60px;"">+</div>","null","","","","","","",""
"503.1849999795668","","image-keyboard-response","150","1984078","0.0-4.0-0.37","","img/orange.png","32","trial","null","false","0.2,0.8","2:nogo_b","",""
"null","","html-keyboard-response","151","1985089","0.0-4.0-1.37","","<img src=""img/orange-n.png"" border=""10"">","null","trial","null","","0.2,0.8","2:nogo_b","0",""
"null","","html-keyboard-response","152","1986107","0.0-4.0-2.37","","<div style=""font-size:60px;"">+</div>","null","","","","","","",""
"466.7149999877438","","image-keyboard-response","153","1986575","0.0-4.0-0.38","","img/orange.png","32","trial","null","false","0.2,0.8","2:nogo_b","",""
"null","","html-keyboard-response","154","1987587","0.0-4.0-1.38","","<img src=""img/orange-n.png"" border=""10"">","null","trial","null","","0.2,0.8","2:nogo_b","0",""
"null","","html-keyboard-response","155","1988605","0.0-4.0-2.38","","<div style=""font-size:60px;"">+</div>","null","","","","","","",""
"535.5700000072829","","image-keyboard-response","156","1989142","0.0-4.0-0.39","","img/purple.png","32","trial","32","true","0.8,0.2","1:go_a","",""
"null","","html-keyboard-response","157","1990160","0.0-4.0-1.39","","<img src=""img/purple-n.png"" border=""10"">","null","trial","32","","0.8,0.2","1:go_a","0",""
"null","","html-keyboard-response","158","1991172","0.0-4.0-2.39","","<div style=""font-size:60px;"">+</div>","null","","","","","","",""
"null","","image-keyboard-response","159","1992685","0.0-4.0-0.40","","img/purple.png","null","trial","32","false","0.8,0.2","1:go_a","",""
"null","","html-keyboard-response","160","1993694","0.0-4.0-1.40","","<img src=""img/purple-n.png"">","null","trial","32","","0.8,0.2","1:go_a","0",""
"null","","html-keyboard-response","161","1994710","0.0-4.0-2.40","","<div style=""font-size:60px;"">+</div>","null","","","","","","",""
"399.16000002995133","","image-keyboard-response","162","1995111","0.0-4.0-0.41","","img/orange.png","32","trial","null","false","0.2,0.8","2:nogo_b","",""
"null","","html-keyboard-response","163","1996117","0.0-4.0-1.41","","<img src=""img/orange-r.png"" border=""10"">","null","trial","null","","0.2,0.8","2:nogo_b","1",""
"null","","html-keyboard-response","164","1997133","0.0-4.0-2.41","","<div style=""font-size:60px;"">+</div>","null","","","","","","",""
"416.49500001221895","","image-keyboard-response","165","1997552","0.0-4.0-0.42","","img/purple.png","32","trial","32","true","0.8,0.2","1:go_a","",""
"null","","html-keyboard-response","166","1998566","0.0-4.0-1.42","","<img src=""img/purple-r.png"" border=""10"">","null","trial","32","","0.8,0.2","1:go_a","1",""
"null","","html-keyboard-response","167","1999582","0.0-4.0-2.42","","<div style=""font-size:60px;"">+</div>","null","","","","","","",""
"630.9500000206754","","image-keyboard-response","168","2000214","0.0-4.0-0.43","","img/orange.png","32","trial","null","false","0.2,0.8","2:nogo_b","",""
"null","","html-keyboard-response","169","2001229","0.0-4.0-1.43","","<img src=""img/orange-n.png"" border=""10"">","null","trial","null","","0.2,0.8","2:nogo_b","0",""
"null","","html-keyboard-response","170","2002233","0.0-4.0-2.43","","<div style=""font-size:60px;"">+</div>","null","","","","","","",""
"null","","image-keyboard-response","171","2003740","0.0-4.0-0.44","","img/orange.png","null","trial","null","true","0.2,0.8","2:nogo_b","",""
"null","","html-keyboard-response","172","2004746","0.0-4.0-1.44","","<img src=""img/orange-r.png"">","null","trial","null","","0.2,0.8","2:nogo_b","1",""
"null","","html-keyboard-response","173","2005755","0.0-4.0-2.44","","<div style=""font-size:60px;"">+</div>","null","","","","","","",""
"634.3099999940023","","image-keyboard-response","174","2006391","0.0-4.0-0.45","","img/purple.png","32","trial","32","true","0.8,0.2","1:go_a","",""
"null","","html-keyboard-response","175","2007412","0.0-4.0-1.45","","<img src=""img/purple-r.png"" border=""10"">","null","trial","32","","0.8,0.2","1:go_a","1",""
"null","","html-keyboard-response","176","2008429","0.0-4.0-2.45","","<div style=""font-size:60px;"">+</div>","null","","","","","","",""
"null","","image-keyboard-response","177","2009945","0.0-4.0-0.46","","img/orange.png","null","trial","null","true","0.2,0.8","2:nogo_b","",""
"null","","html-keyboard-response","178","2010961","0.0-4.0-1.46","","<img src=""img/orange-r.png"">","null","trial","null","","0.2,0.8","2:nogo_b","1",""
"null","","html-keyboard-response","179","2011975","0.0-4.0-2.46","","<div style=""font-size:60px;"">+</div>","null","","","","","","",""
"670.8550000330433","","image-keyboard-response","180","2012648","0.0-4.0-0.47","","img/purple.png","32","trial","32","true","0.8,0.2","1:go_a","",""
"null","","html-keyboard-response","181","2013660","0.0-4.0-1.47","","<img src=""img/purple-r.png"" border=""10"">","null","trial","32","","0.8,0.2","1:go_a","1",""
"null","","html-keyboard-response","182","2014675","0.0-4.0-2.47","","<div style=""font-size:60px;"">+</div>","null","","","","","","",""
"571.5349999954924","","image-keyboard-response","183","2015248","0.0-4.0-0.48","","img/purple.png","32","trial","32","true","0.8,0.2","1:go_a","",""
"null","","html-keyboard-response","184","2016253","0.0-4.0-1.48","","<img src=""img/purple-r.png"" border=""10"">","null","trial","32","","0.8,0.2","1:go_a","1",""
"null","","html-keyboard-response","185","2017257","0.0-4.0-2.48","","<div style=""font-size:60px;"">+</div>","null","","","","","","",""
"542.0600000070408","","image-keyboard-response","186","2017801","0.0-4.0-0.49","","img/orange.png","32","trial","null","false","0.2,0.8","2:nogo_b","",""
"null","","html-keyboard-response","187","2018806","0.0-4.0-1.49","","<img src=""img/orange-n.png"" border=""10"">","null","trial","null","","0.2,0.8","2:nogo_b","0",""
"null","","html-keyboard-response","188","2019808","0.0-4.0-2.49","","<div style=""font-size:60px;"">+</div>","null","","","","","","",""
"910.1149999769405","","image-keyboard-response","189","2020721","0.0-4.0-0.50","","img/orange.png","32","trial","null","false","0.2,0.8","2:nogo_b","",""
"null","","html-keyboard-response","190","2021741","0.0-4.0-1.50","","<img src=""img/orange-n.png"" border=""10"">","null","trial","null","","0.2,0.8","2:nogo_b","0",""
"null","","html-keyboard-response","191","2022760","0.0-4.0-2.50","","<div style=""font-size:60px;"">+</div>","null","","","","","","",""
"582.2150000021793","","image-keyboard-response","192","2023344","0.0-4.0-0.51","","img/purple.png","32","trial","32","true","0.8,0.2","1:go_a","",""
"null","","html-keyboard-response","193","2024353","0.0-4.0-1.51","","<img src=""img/purple-n.png"" border=""10"">","null","trial","32","","0.8,0.2","1:go_a","0",""
"null","","html-keyboard-response","194","2025370","0.0-4.0-2.51","","<div style=""font-size:60px;"">+</div>","null","","","","","","",""
"460.785000002943","","image-keyboard-response","195","2025833","0.0-4.0-0.52","","img/orange.png","32","trial","null","false","0.2,0.8","2:nogo_b","",""
"null","","html-keyboard-response","196","2026844","0.0-4.0-1.52","","<img src=""img/orange-r.png"" border=""10"">","null","trial","null","","0.2,0.8","2:nogo_b","1",""
"null","","html-keyboard-response","197","2027853","0.0-4.0-2.52","","<div style=""font-size:60px;"">+</div>","null","","","","","","",""
"null","","image-keyboard-response","198","2029370","0.0-4.0-0.53","","img/purple.png","null","trial","32","false","0.8,0.2","1:go_a","",""
"null","","html-keyboard-response","199","2030373","0.0-4.0-1.53","","<img src=""img/purple-n.png"">","null","trial","32","","0.8,0.2","1:go_a","0",""
"null","","html-keyboard-response","200","2031384","0.0-4.0-2.53","","<div style=""font-size:60px;"">+</div>","null","","","","","","",""
"542.2649999964051","","image-keyboard-response","201","2031929","0.0-4.0-0.54","","img/orange.png","32","trial","null","false","0.2,0.8","2:nogo_b","",""
"null","","html-keyboard-response","202","2032937","0.0-4.0-1.54","","<img src=""img/orange-n.png"" border=""10"">","null","trial","null","","0.2,0.8","2:nogo_b","0",""
"null","","html-keyboard-response","203","2033944","0.0-4.0-2.54","","<div style=""font-size:60px;"">+</div>","null","","","","","","",""
"398.81500002229586","","image-keyboard-response","204","2034344","0.0-4.0-0.55","","img/purple.png","32","trial","32","true","0.8,0.2","1:go_a","",""
"null","","html-keyboard-response","205","2035353","0.0-4.0-1.55","","<img src=""img/purple-r.png"" border=""10"">","null","trial","32","","0.8,0.2","1:go_a","1",""
"null","","html-keyboard-response","206","2036370","0.0-4.0-2.55","","<div style=""font-size:60px;"">+</div>","null","","","","","","",""
"517.0400000060908","","image-keyboard-response","207","2036888","0.0-4.0-0.56","","img/purple.png","32","trial","32","true","0.8,0.2","1:go_a","",""
"null","","html-keyboard-response","208","2037900","0.0-4.0-1.56","","<img src=""img/purple-r.png"" border=""10"">","null","trial","32","","0.8,0.2","1:go_a","1",""
"null","","html-keyboard-response","209","2038913","0.0-4.0-2.56","","<div style=""font-size:60px;"">+</div>","null","","","","","","",""
"550.6299999542534","","image-keyboard-response","210","2039465","0.0-4.0-0.57","","img/orange.png","32","trial","null","false","0.2,0.8","2:nogo_b","",""
"null","","html-keyboard-response","211","2040469","0.0-4.0-1.57","","<img src=""img/orange-n.png"" border=""10"">","null","trial","null","","0.2,0.8","2:nogo_b","0",""
"null","","html-keyboard-response","212","2041473","0.0-4.0-2.57","","<div style=""font-size:60px;"">+</div>","null","","","","","","",""
"485.3799999691546","","image-keyboard-response","213","2041960","0.0-4.0-0.58","","img/purple.png","32","trial","32","true","0.8,0.2","1:go_a","",""
"null","","html-keyboard-response","214","2042978","0.0-4.0-1.58","","<img src=""img/purple-r.png"" border=""10"">","null","trial","32","","0.8,0.2","1:go_a","1",""
"null","","html-keyboard-response","215","2043984","0.0-4.0-2.58","","<div style=""font-size:60px;"">+</div>","null","","","","","","",""
"518.2650000206195","","image-keyboard-response","216","2044504","0.0-4.0-0.59","","img/orange.png","32","trial","null","false","0.2,0.8","2:nogo_b","",""
"null","","html-keyboard-response","217","2045519","0.0-4.0-1.59","","<img src=""img/orange-n.png"" border=""10"">","null","trial","null","","0.2,0.8","2:nogo_b","0",""
"null","","html-keyboard-response","218","2046535","0.0-4.0-2.59","","<div style=""font-size:60px;"">+</div>","null","","","","","","",""
"2152.905000024475","","instructions","219","2048688","0.0-5.0","[{""page_index"":0,""viewing_time"":2152.5000000256114}]","","","","","","","","",""
"1109.6400000387803","","image-keyboard-response","220","2049800","0.0-6.0-0.0","","img/grey.png","32","trial","32","true","0.8,0.2","1:go_a","",""
"null","","html-keyboard-response","221","2050818","0.0-6.0-1.0","","<img src=""img/grey-r.png"" border=""10"">","null","trial","32","","0.8,0.2","1:go_a","1",""
"null","","html-keyboard-response","222","2051834","0.0-6.0-2.0","","<div style=""font-size:60px;"">+</div>","null","","","","","","",""
"300.5700000212528","","image-keyboard-response","223","2052137","0.0-6.0-0.1","","img/blue.png","32","trial","32","true","0.6,0.4","3:go_c","",""
"null","","html-keyboard-response","224","2053148","0.0-6.0-1.1","","<img src=""img/blue-r.png"" border=""10"">","null","trial","32","","0.6,0.4","3:go_c","1",""
"null","","html-keyboard-response","225","2054162","0.0-6.0-2.1","","<div style=""font-size:60px;"">+</div>","null","","","","","","",""
"563.6499999673106","","image-keyboard-response","226","2054728","0.0-6.0-0.2","","img/pink.png","32","trial","null","false","0.2,0.8","2:nogo_b","",""
"null","","html-keyboard-response","227","2055744","0.0-6.0-1.2","","<img src=""img/pink-n.png"" border=""10"">","null","trial","null","","0.2,0.8","2:nogo_b","0",""
"null","","html-keyboard-response","228","2056756","0.0-6.0-2.2","","<div style=""font-size:60px;"">+</div>","null","","","","","","",""
"634.1100000427105","","image-keyboard-response","229","2057392","0.0-6.0-0.3","","img/yellow.png","32","trial","null","false","0.4,0.6","4:nogo_d","",""
"null","","html-keyboard-response","230","2058410","0.0-6.0-1.3","","<img src=""img/yellow-r.png"" border=""10"">","null","trial","null","","0.4,0.6","4:nogo_d","1",""
"null","","html-keyboard-response","231","2059415","0.0-6.0-2.3","","<div style=""font-size:60px;"">+</div>","null","","","","","","",""
"null","","image-keyboard-response","232","2060927","0.0-6.0-0.4","","img/pink.png","null","trial","null","true","0.2,0.8","2:nogo_b","",""
"null","","html-keyboard-response","233","2061944","0.0-6.0-1.4","","<img src=""img/pink-r.png"">","null","trial","null","","0.2,0.8","2:nogo_b","1",""
"null","","html-keyboard-response","234","2062948","0.0-6.0-2.4","","<div style=""font-size:60px;"">+</div>","null","","","","","","",""
"482.96999995363876","","image-keyboard-response","235","2063433","0.0-6.0-0.5","","img/grey.png","32","trial","32","true","0.8,0.2","1:go_a","",""
"null","","html-keyboard-response","236","2064442","0.0-6.0-1.5","","<img src=""img/grey-r.png"" border=""10"">","null","trial","32","","0.8,0.2","1:go_a","1",""
"null","","html-keyboard-response","237","2065445","0.0-6.0-2.5","","<div style=""font-size:60px;"">+</div>","null","","","","","","",""
"528.8300000247546","","image-keyboard-response","238","2065976","0.0-6.0-0.6","","img/yellow.png","32","trial","null","false","0.4,0.6","4:nogo_d","",""
"null","","html-keyboard-response","239","2066987","0.0-6.0-1.6","","<img src=""img/yellow-n.png"" border=""10"">","null","trial","null","","0.4,0.6","4:nogo_d","0",""
"null","","html-keyboard-response","240","2067991","0.0-6.0-2.6","","<div style=""font-size:60px;"">+</div>","null","","","","","","",""
"599.385000008624","","image-keyboard-response","241","2068592","0.0-6.0-0.7","","img/blue.png","32","trial","32","true","0.6,0.4","3:go_c","",""
"null","","html-keyboard-response","242","2069599","0.0-6.0-1.7","","<img src=""img/blue-r.png"" border=""10"">","null","trial","32","","0.6,0.4","3:go_c","1",""
"null","","html-keyboard-response","243","2070607","0.0-6.0-2.7","","<div style=""font-size:60px;"">+</div>","null","","","","","","",""
"495.3300000051968","","image-keyboard-response","244","2071104","0.0-6.0-0.8","","img/pink.png","32","trial","null","false","0.2,0.8","2:nogo_b","",""
"null","","html-keyboard-response","245","2072120","0.0-6.0-1.8","","<img src=""img/pink-r.png"" border=""10"">","null","trial","null","","0.2,0.8","2:nogo_b","1",""
"null","","html-keyboard-response","246","2073124","0.0-6.0-2.8","","<div style=""font-size:60px;"">+</div>","null","","","","","","",""
"794.3250000244007","","image-keyboard-response","247","2073921","0.0-6.0-0.9","","img/yellow.png","32","trial","null","false","0.4,0.6","4:nogo_d","",""
"null","","html-keyboard-response","248","2074936","0.0-6.0-1.9","","<img src=""img/yellow-r.png"" border=""10"">","null","trial","null","","0.4,0.6","4:nogo_d","1",""
"null","","html-keyboard-response","249","2075939","0.0-6.0-2.9","","<div style=""font-size:60px;"">+</div>","null","","","","","","",""
"626.6450000111945","","image-keyboard-response","250","2076568","0.0-6.0-0.10","","img/blue.png","32","trial","32","true","0.6,0.4","3:go_c","",""
"null","","html-keyboard-response","251","2077585","0.0-6.0-1.10","","<img src=""img/blue-n.png"" border=""10"">","null","trial","32","","0.6,0.4","3:go_c","0",""
"null","","html-keyboard-response","252","2078596","0.0-6.0-2.10","","<div style=""font-size:60px;"">+</div>","null","","","","","","",""
"null","","image-keyboard-response","253","2080103","0.0-6.0-0.11","","img/grey.png","null","trial","32","false","0.8,0.2","1:go_a","",""
"null","","html-keyboard-response","254","2081122","0.0-6.0-1.11","","<img src=""img/grey-n.png"">","null","trial","32","","0.8,0.2","1:go_a","0",""
"null","","html-keyboard-response","255","2082130","0.0-6.0-2.11","","<div style=""font-size:60px;"">+</div>","null","","","","","","",""
"null","","image-keyboard-response","256","2083632","0.0-6.0-0.12","","img/blue.png","null","trial","32","false","0.6,0.4","3:go_c","",""
"null","","html-keyboard-response","257","2084646","0.0-6.0-1.12","","<img src=""img/blue-n.png"">","null","trial","32","","0.6,0.4","3:go_c","0",""
"null","","html-keyboard-response","258","2085649","0.0-6.0-2.12","","<div style=""font-size:60px;"">+</div>","null","","","","","","",""
"1031.6400000010617","","image-keyboard-response","259","2086682","0.0-6.0-0.13","","img/grey.png","32","trial","32","true","0.8,0.2","1:go_a","",""
"null","","html-keyboard-response","260","2087697","0.0-6.0-1.13","","<img src=""img/grey-r.png"" border=""10"">","null","trial","32","","0.8,0.2","1:go_a","1",""
"null","","html-keyboard-response","261","2088710","0.0-6.0-2.13","","<div style=""font-size:60px;"">+</div>","null","","","","","","",""
"708.0299999797717","","image-keyboard-response","262","2089420","0.0-6.0-0.14","","img/pink.png","32","trial","null","false","0.2,0.8","2:nogo_b","",""
"null","","html-keyboard-response","263","2090429","0.0-6.0-1.14","","<img src=""img/pink-n.png"" border=""10"">","null","trial","null","","0.2,0.8","2:nogo_b","0",""
"null","","html-keyboard-response","264","2091444","0.0-6.0-2.14","","<div style=""font-size:60px;"">+</div>","null","","","","","","",""
"508.87499999953434","","image-keyboard-response","265","2091956","0.0-6.0-0.15","","img/yellow.png","32","trial","null","false","0.4,0.6","4:nogo_d","",""
"null","","html-keyboard-response","266","2092966","0.0-6.0-1.15","","<img src=""img/yellow-n.png"" border=""10"">","null","trial","null","","0.4,0.6","4:nogo_d","0",""
"null","","html-keyboard-response","267","2093983","0.0-6.0-2.15","","<div style=""font-size:60px;"">+</div>","null","","","","","","",""
"930.4300000076182","","image-keyboard-response","268","2094915","0.0-6.0-0.16","","img/pink.png","32","trial","null","false","0.2,0.8","2:nogo_b","",""
"null","","html-keyboard-response","269","2095926","0.0-6.0-1.16","","<img src=""img/pink-r.png"" border=""10"">","null","trial","null","","0.2,0.8","2:nogo_b","1",""
"null","","html-keyboard-response","270","2096936","0.0-6.0-2.16","","<div style=""font-size:60px;"">+</div>","null","","","","","","",""
"null","","image-keyboard-response","271","2098446","0.0-6.0-0.17","","img/blue.png","null","trial","32","false","0.6,0.4","3:go_c","",""
"null","","html-keyboard-response","272","2099459","0.0-6.0-1.17","","<img src=""img/blue-n.png"">","null","trial","32","","0.6,0.4","3:go_c","0",""
"null","","html-keyboard-response","273","2100470","0.0-6.0-2.17","","<div style=""font-size:60px;"">+</div>","null","","","","","","",""
"651.5949999447912","","image-keyboard-response","274","2101123","0.0-6.0-0.18","","img/yellow.png","32","trial","null","false","0.4,0.6","4:nogo_d","",""
"null","","html-keyboard-response","275","2102134","0.0-6.0-1.18","","<img src=""img/yellow-n.png"" border=""10"">","null","trial","null","","0.4,0.6","4:nogo_d","0",""
"null","","html-keyboard-response","276","2103142","0.0-6.0-2.18","","<div style=""font-size:60px;"">+</div>","null","","","","","","",""
"794.6949999895878","","image-keyboard-response","277","2103939","0.0-6.0-0.19","","img/grey.png","32","trial","32","true","0.8,0.2","1:go_a","",""
"null","","html-keyboard-response","278","2104953","0.0-6.0-1.19","","<img src=""img/grey-r.png"" border=""10"">","null","trial","32","","0.8,0.2","1:go_a","1",""
"null","","html-keyboard-response","279","2105960","0.0-6.0-2.19","","<div style=""font-size:60px;"">+</div>","null","","","","","","",""
"697.1749999793246","","image-keyboard-response","280","2106659","0.0-6.0-0.20","","img/blue.png","32","trial","32","true","0.6,0.4","3:go_c","",""
"null","","html-keyboard-response","281","2107676","0.0-6.0-1.20","","<img src=""img/blue-r.png"" border=""10"">","null","trial","32","","0.6,0.4","3:go_c","1",""
"null","","html-keyboard-response","282","2108683","0.0-6.0-2.20","","<div style=""font-size:60px;"">+</div>","null","","","","","","",""
"597.6650000084192","","image-keyboard-response","283","2109283","0.0-6.0-0.21","","img/yellow.png","32","trial","null","false","0.4,0.6","4:nogo_d","",""
"null","","html-keyboard-response","284","2110286","0.0-6.0-1.21","","<img src=""img/yellow-n.png"" border=""10"">","null","trial","null","","0.4,0.6","4:nogo_d","0",""
"null","","html-keyboard-response","285","2111289","0.0-6.0-2.21","","<div style=""font-size:60px;"">+</div>","null","","","","","","",""
"544.9350000126287","","image-keyboard-response","286","2111836","0.0-6.0-0.22","","img/pink.png","32","trial","null","false","0.2,0.8","2:nogo_b","",""
"null","","html-keyboard-response","287","2112853","0.0-6.0-1.22","","<img src=""img/pink-n.png"" border=""10"">","null","trial","null","","0.2,0.8","2:nogo_b","0",""
"null","","html-keyboard-response","288","2113869","0.0-6.0-2.22","","<div style=""font-size:60px;"">+</div>","null","","","","","","",""
"596.7999999993481","","image-keyboard-response","289","2114467","0.0-6.0-0.23","","img/grey.png","32","trial","32","true","0.8,0.2","1:go_a","",""
"null","","html-keyboard-response","290","2115472","0.0-6.0-1.23","","<img src=""img/grey-r.png"" border=""10"">","null","trial","32","","0.8,0.2","1:go_a","1",""
"null","","html-keyboard-response","291","2116494","0.0-6.0-2.23","","<div style=""font-size:60px;"">+</div>","null","","","","","","",""
"491.47499998798594","","image-keyboard-response","292","2116987","0.0-6.0-0.24","","img/blue.png","32","trial","32","true","0.6,0.4","3:go_c","",""
"null","","html-keyboard-response","293","2118001","0.0-6.0-1.24","","<img src=""img/blue-r.png"" border=""10"">","null","trial","32","","0.6,0.4","3:go_c","1",""
"null","","html-keyboard-response","294","2119008","0.0-6.0-2.24","","<div style=""font-size:60px;"">+</div>","null","","","","","","",""
"496.8950000475161","","image-keyboard-response","295","2119507","0.0-6.0-0.25","","img/grey.png","32","trial","32","true","0.8,0.2","1:go_a","",""
"null","","html-keyboard-response","296","2120512","0.0-6.0-1.25","","<img src=""img/grey-n.png"" border=""10"">","null","trial","32","","0.8,0.2","1:go_a","0",""
"null","","html-keyboard-response","297","2121525","0.0-6.0-2.25","","<div style=""font-size:60px;"">+</div>","null","","","","","","",""
"620.6450000172481","","image-keyboard-response","298","2122148","0.0-6.0-0.26","","img/yellow.png","32","trial","null","false","0.4,0.6","4:nogo_d","",""
"null","","html-keyboard-response","299","2123162","0.0-6.0-1.26","","<img src=""img/yellow-r.png"" border=""10"">","null","trial","null","","0.4,0.6","4:nogo_d","1",""
"null","","html-keyboard-response","300","2124165","0.0-6.0-2.26","","<div style=""font-size:60px;"">+</div>","null","","","","","","",""
"740.8000000286847","","image-keyboard-response","301","2124908","0.0-6.0-0.27","","img/pink.png","32","trial","null","false","0.2,0.8","2:nogo_b","",""
"null","","html-keyboard-response","302","2125918","0.0-6.0-1.27","","<img src=""img/pink-r.png"" border=""10"">","null","trial","null","","0.2,0.8","2:nogo_b","1",""
"null","","html-keyboard-response","303","2126927","0.0-6.0-2.27","","<div style=""font-size:60px;"">+</div>","null","","","","","","",""
"null","","image-keyboard-response","304","2128441","0.0-6.0-0.28","","img/yellow.png","null","trial","null","true","0.4,0.6","4:nogo_d","",""
"null","","html-keyboard-response","305","2129452","0.0-6.0-1.28","","<img src=""img/yellow-r.png"">","null","trial","null","","0.4,0.6","4:nogo_d","1",""
"null","","html-keyboard-response","306","2130460","0.0-6.0-2.28","","<div style=""font-size:60px;"">+</div>","null","","","","","","",""
"null","","image-keyboard-response","307","2131963","0.0-6.0-0.29","","img/grey.png","null","trial","32","false","0.8,0.2","1:go_a","",""
"null","","html-keyboard-response","308","2132971","0.0-6.0-1.29","","<img src=""img/grey-n.png"">","null","trial","32","","0.8,0.2","1:go_a","0",""
"null","","html-keyboard-response","309","2133977","0.0-6.0-2.29","","<div style=""font-size:60px;"">+</div>","null","","","","","","",""
"null","","image-keyboard-response","310","2135490","0.0-6.0-0.30","","img/blue.png","null","trial","32","false","0.6,0.4","3:go_c","",""
"null","","html-keyboard-response","311","2136506","0.0-6.0-1.30","","<img src=""img/blue-r.png"">","null","trial","32","","0.6,0.4","3:go_c","1",""
"null","","html-keyboard-response","312","2137523","0.0-6.0-2.30","","<div style=""font-size:60px;"">+</div>","null","","","","","","",""
"495.7150000263937","","image-keyboard-response","313","2138020","0.0-6.0-0.31","","img/pink.png","32","trial","null","false","0.2,0.8","2:nogo_b","",""
"null","","html-keyboard-response","314","2139033","0.0-6.0-1.31","","<img src=""img/pink-n.png"" border=""10"">","null","trial","null","","0.2,0.8","2:nogo_b","0",""
"null","","html-keyboard-response","315","2140042","0.0-6.0-2.31","","<div style=""font-size:60px;"">+</div>","null","","","","","","",""
"288.4549999726005","","image-keyboard-response","316","2140331","0.0-6.0-0.32","","img/blue.png","32","trial","32","true","0.6,0.4","3:go_c","",""
"null","","html-keyboard-response","317","2141350","0.0-6.0-1.32","","<img src=""img/blue-n.png"" border=""10"">","null","trial","32","","0.6,0.4","3:go_c","0",""
"null","","html-keyboard-response","318","2142357","0.0-6.0-2.32","","<div style=""font-size:60px;"">+</div>","null","","","","","","",""
"476.4650000142865","","image-keyboard-response","319","2142835","0.0-6.0-0.33","","img/yellow.png","32","trial","null","false","0.4,0.6","4:nogo_d","",""
"null","","html-keyboard-response","320","2143839","0.0-6.0-1.33","","<img src=""img/yellow-n.png"" border=""10"">","null","trial","null","","0.4,0.6","4:nogo_d","0",""
"null","","html-keyboard-response","321","2144845","0.0-6.0-2.33","","<div style=""font-size:60px;"">+</div>","null","","","","","","",""
"540.5399999581277","","image-keyboard-response","322","2145388","0.0-6.0-0.34","","img/pink.png","32","trial","null","false","0.2,0.8","2:nogo_b","",""
"null","","html-keyboard-response","323","2146394","0.0-6.0-1.34","","<img src=""img/pink-n.png"" border=""10"">","null","trial","null","","0.2,0.8","2:nogo_b","0",""
"null","","html-keyboard-response","324","2147409","0.0-6.0-2.34","","<div style=""font-size:60px;"">+</div>","null","","","","","","",""
"568.7800000305288","","image-keyboard-response","325","2147980","0.0-6.0-0.35","","img/grey.png","32","trial","32","true","0.8,0.2","1:go_a","",""
"null","","html-keyboard-response","326","2148984","0.0-6.0-1.35","","<img src=""img/grey-r.png"" border=""10"">","null","trial","32","","0.8,0.2","1:go_a","1",""
"null","","html-keyboard-response","327","2149987","0.0-6.0-2.35","","<div style=""font-size:60px;"">+</div>","null","","","","","","",""
"471.3900000206195","","image-keyboard-response","328","2150460","0.0-6.0-0.36","","img/grey.png","32","trial","32","true","0.8,0.2","1:go_a","",""
"null","","html-keyboard-response","329","2151472","0.0-6.0-1.36","","<img src=""img/grey-r.png"" border=""10"">","null","trial","32","","0.8,0.2","1:go_a","1",""
"null","","html-keyboard-response","330","2152494","0.0-6.0-2.36","","<div style=""font-size:60px;"">+</div>","null","","","","","","",""
"684.4799999962561","","image-keyboard-response","331","2153180","0.0-6.0-0.37","","img/yellow.png","32","trial","null","false","0.4,0.6","4:nogo_d","",""
"null","","html-keyboard-response","332","2154194","0.0-6.0-1.37","","<img src=""img/yellow-r.png"" border=""10"">","null","trial","null","","0.4,0.6","4:nogo_d","1",""
"null","","html-keyboard-response","333","2155196","0.0-6.0-2.37","","<div style=""font-size:60px;"">+</div>","null","","","","","","",""
"597.6200000150129","","image-keyboard-response","334","2155796","0.0-6.0-0.38","","img/blue.png","32","trial","32","true","0.6,0.4","3:go_c","",""
"null","","html-keyboard-response","335","2156807","0.0-6.0-1.38","","<img src=""img/blue-r.png"" border=""10"">","null","trial","32","","0.6,0.4","3:go_c","1",""
"null","","html-keyboard-response","336","2157817","0.0-6.0-2.38","","<div style=""font-size:60px;"">+</div>","null","","","","","","",""
"457.50499999849126","","image-keyboard-response","337","2158276","0.0-6.0-0.39","","img/pink.png","32","trial","null","false","0.2,0.8","2:nogo_b","",""
"null","","html-keyboard-response","338","2159288","0.0-6.0-1.39","","<img src=""img/pink-n.png"" border=""10"">","null","trial","null","","0.2,0.8","2:nogo_b","0",""
"null","","html-keyboard-response","339","2160298","0.0-6.0-2.39","","<div style=""font-size:60px;"">+</div>","null","","","","","","",""
"null","","image-keyboard-response","340","2161808","0.0-6.0-0.40","","img/grey.png","null","trial","32","false","0.8,0.2","1:go_a","",""
"null","","html-keyboard-response","341","2162826","0.0-6.0-1.40","","<img src=""img/grey-r.png"">","null","trial","32","","0.8,0.2","1:go_a","1",""
"null","","html-keyboard-response","342","2163838","0.0-6.0-2.40","","<div style=""font-size:60px;"">+</div>","null","","","","","","",""
"362.7400000113994","","image-keyboard-response","343","2164203","0.0-6.0-0.41","","img/blue.png","32","trial","32","true","0.6,0.4","3:go_c","",""
"null","","html-keyboard-response","344","2165215","0.0-6.0-1.41","","<img src=""img/blue-n.png"" border=""10"">","null","trial","32","","0.6,0.4","3:go_c","0",""
"null","","html-keyboard-response","345","2166225","0.0-6.0-2.41","","<div style=""font-size:60px;"">+</div>","null","","","","","","",""
"361.6100000217557","","image-keyboard-response","346","2166588","0.0-6.0-0.42","","img/yellow.png","32","trial","null","false","0.4,0.6","4:nogo_d","",""
"null","","html-keyboard-response","347","2167595","0.0-6.0-1.42","","<img src=""img/yellow-n.png"" border=""10"">","null","trial","null","","0.4,0.6","4:nogo_d","0",""
"null","","html-keyboard-response","348","2168612","0.0-6.0-2.42","","<div style=""font-size:60px;"">+</div>","null","","","","","","",""
"null","","image-keyboard-response","349","2170129","0.0-6.0-0.43","","img/pink.png","null","trial","null","true","0.2,0.8","2:nogo_b","",""
"null","","html-keyboard-response","350","2171133","0.0-6.0-1.43","","<img src=""img/pink-n.png"">","null","trial","null","","0.2,0.8","2:nogo_b","0",""
"null","","html-keyboard-response","351","2172136","0.0-6.0-2.43","","<div style=""font-size:60px;"">+</div>","null","","","","","","",""
"1035.7899999944493","","image-keyboard-response","352","2173174","0.0-6.0-0.44","","img/pink.png","32","trial","null","false","0.2,0.8","2:nogo_b","",""
"null","","html-keyboard-response","353","2174190","0.0-6.0-1.44","","<img src=""img/pink-n.png"" border=""10"">","null","trial","null","","0.2,0.8","2:nogo_b","0",""
"null","","html-keyboard-response","354","2175205","0.0-6.0-2.44","","<div style=""font-size:60px;"">+</div>","null","","","","","","",""
"727.0600000047125","","image-keyboard-response","355","2175935","0.0-6.0-0.45","","img/grey.png","32","trial","32","true","0.8,0.2","1:go_a","",""
"null","","html-keyboard-response","356","2176939","0.0-6.0-1.45","","<img src=""img/grey-r.png"" border=""10"">","null","trial","32","","0.8,0.2","1:go_a","1",""
"null","","html-keyboard-response","357","2177945","0.0-6.0-2.45","","<div style=""font-size:60px;"">+</div>","null","","","","","","",""
"587.7949999994598","","image-keyboard-response","358","2178535","0.0-6.0-0.46","","img/yellow.png","32","trial","null","false","0.4,0.6","4:nogo_d","",""
"null","","html-keyboard-response","359","2179543","0.0-6.0-1.46","","<img src=""img/yellow-n.png"" border=""10"">","null","trial","null","","0.4,0.6","4:nogo_d","0",""
"null","","html-keyboard-response","360","2180554","0.0-6.0-2.46","","<div style=""font-size:60px;"">+</div>","null","","","","","","",""
"null","","image-keyboard-response","361","2182057","0.0-6.0-0.47","","img/blue.png","null","trial","32","false","0.6,0.4","3:go_c","",""
"null","","html-keyboard-response","362","2183063","0.0-6.0-1.47","","<img src=""img/blue-n.png"">","null","trial","32","","0.6,0.4","3:go_c","0",""
"null","","html-keyboard-response","363","2184073","0.0-6.0-2.47","","<div style=""font-size:60px;"">+</div>","null","","","","","","",""
"null","","image-keyboard-response","364","2185580","0.0-6.0-0.48","","img/pink.png","null","trial","null","true","0.2,0.8","2:nogo_b","",""
"null","","html-keyboard-response","365","2186583","0.0-6.0-1.48","","<img src=""img/pink-r.png"">","null","trial","null","","0.2,0.8","2:nogo_b","1",""
"null","","html-keyboard-response","366","2187585","0.0-6.0-2.48","","<div style=""font-size:60px;"">+</div>","null","","","","","","",""
"460.01999999862164","","image-keyboard-response","367","2188047","0.0-6.0-0.49","","img/grey.png","32","trial","32","true","0.8,0.2","1:go_a","",""
"null","","html-keyboard-response","368","2189057","0.0-6.0-1.49","","<img src=""img/grey-r.png"" border=""10"">","null","trial","32","","0.8,0.2","1:go_a","1",""
"null","","html-keyboard-response","369","2190066","0.0-6.0-2.49","","<div style=""font-size:60px;"">+</div>","null","","","","","","",""
"554.2549999663606","","image-keyboard-response","370","2190622","0.0-6.0-0.50","","img/yellow.png","32","trial","null","false","0.4,0.6","4:nogo_d","",""
"null","","html-keyboard-response","371","2191638","0.0-6.0-1.50","","<img src=""img/yellow-n.png"" border=""10"">","null","trial","null","","0.4,0.6","4:nogo_d","0",""
"null","","html-keyboard-response","372","2192646","0.0-6.0-2.50","","<div style=""font-size:60px;"">+</div>","null","","","","","","",""
"502.039999992121","","image-keyboard-response","373","2193150","0.0-6.0-0.51","","img/blue.png","32","trial","32","true","0.6,0.4","3:go_c","",""
"null","","html-keyboard-response","374","2194166","0.0-6.0-1.51","","<img src=""img/blue-n.png"" border=""10"">","null","trial","32","","0.6,0.4","3:go_c","0",""
"null","","html-keyboard-response","375","2195181","0.0-6.0-2.51","","<div style=""font-size:60px;"">+</div>","null","","","","","","",""
"null","","image-keyboard-response","376","2196692","0.0-6.0-0.52","","img/grey.png","null","trial","32","false","0.8,0.2","1:go_a","",""
"null","","html-keyboard-response","377","2197703","0.0-6.0-1.52","","<img src=""img/grey-n.png"">","null","trial","32","","0.8,0.2","1:go_a","0",""
"null","","html-keyboard-response","378","2198709","0.0-6.0-2.52","","<div style=""font-size:60px;"">+</div>","null","","","","","","",""
"390.73499996447936","","image-keyboard-response","379","2199102","0.0-6.0-0.53","","img/yellow.png","32","trial","null","false","0.4,0.6","4:nogo_d","",""
"null","","html-keyboard-response","380","2200116","0.0-6.0-1.53","","<img src=""img/yellow-r.png"" border=""10"">","null","trial","null","","0.4,0.6","4:nogo_d","1",""
"null","","html-keyboard-response","381","2201130","0.0-6.0-2.53","","<div style=""font-size:60px;"">+</div>","null","","","","","","",""
"498.0999999679625","","image-keyboard-response","382","2201630","0.0-6.0-0.54","","img/blue.png","32","trial","32","true","0.6,0.4","3:go_c","",""
"null","","html-keyboard-response","383","2202644","0.0-6.0-1.54","","<img src=""img/blue-r.png"" border=""10"">","null","trial","32","","0.6,0.4","3:go_c","1",""
"null","","html-keyboard-response","384","2203660","0.0-6.0-2.54","","<div style=""font-size:60px;"">+</div>","null","","","","","","",""
"463.4899999946356","","image-keyboard-response","385","2204126","0.0-6.0-0.55","","img/pink.png","32","trial","null","false","0.2,0.8","2:nogo_b","",""
"null","","html-keyboard-response","386","2205142","0.0-6.0-1.55","","<img src=""img/pink-n.png"" border=""10"">","null","trial","null","","0.2,0.8","2:nogo_b","0",""
"null","","html-keyboard-response","387","2206147","0.0-6.0-2.55","","<div style=""font-size:60px;"">+</div>","null","","","","","","",""
"null","","image-keyboard-response","388","2207660","0.0-6.0-0.56","","img/grey.png","null","trial","32","false","0.8,0.2","1:go_a","",""
"null","","html-keyboard-response","389","2208673","0.0-6.0-1.56","","<img src=""img/grey-n.png"">","null","trial","32","","0.8,0.2","1:go_a","0",""
"null","","html-keyboard-response","390","2209675","0.0-6.0-2.56","","<div style=""font-size:60px;"">+</div>","null","","","","","","",""
"null","","image-keyboard-response","391","2211178","0.0-6.0-0.57","","img/pink.png","null","trial","null","true","0.2,0.8","2:nogo_b","",""
"null","","html-keyboard-response","392","2212191","0.0-6.0-1.57","","<img src=""img/pink-n.png"">","null","trial","null","","0.2,0.8","2:nogo_b","0",""
"null","","html-keyboard-response","393","2213204","0.0-6.0-2.57","","<div style=""font-size:60px;"">+</div>","null","","","","","","",""
"549.1100000217557","","image-keyboard-response","394","2213755","0.0-6.0-0.58","","img/yellow.png","32","trial","null","false","0.4,0.6","4:nogo_d","",""
"null","","html-keyboard-response","395","2214765","0.0-6.0-1.58","","<img src=""img/yellow-n.png"" border=""10"">","null","trial","null","","0.4,0.6","4:nogo_d","0",""
"null","","html-keyboard-response","396","2215774","0.0-6.0-2.58","","<div style=""font-size:60px;"">+</div>","null","","","","","","",""
"458.9249999844469","","image-keyboard-response","397","2216235","0.0-6.0-0.59","","img/blue.png","32","trial","32","true","0.6,0.4","3:go_c","",""
"null","","html-keyboard-response","398","2217241","0.0-6.0-1.59","","<img src=""img/blue-n.png"" border=""10"">","null","trial","32","","0.6,0.4","3:go_c","0",""
"null","","html-keyboard-response","399","2218253","0.0-6.0-2.59","","<div style=""font-size:60px;"">+</div>","null","","","","","","",""
"499.99499996192753","","image-keyboard-response","400","2218755","0.0-6.0-0.60","","img/yellow.png","32","trial","null","false","0.4,0.6","4:nogo_d","",""
"null","","html-keyboard-response","401","2219769","0.0-6.0-1.60","","<img src=""img/yellow-r.png"" border=""10"">","null","trial","null","","0.4,0.6","4:nogo_d","1",""
"null","","html-keyboard-response","402","2220781","0.0-6.0-2.60","","<div style=""font-size:60px;"">+</div>","null","","","","","","",""
"508.4400000050664","","image-keyboard-response","403","2221292","0.0-6.0-0.61","","img/blue.png","32","trial","32","true","0.6,0.4","3:go_c","",""
"null","","html-keyboard-response","404","2222303","0.0-6.0-1.61","","<img src=""img/blue-r.png"" border=""10"">","null","trial","32","","0.6,0.4","3:go_c","1",""
"null","","html-keyboard-response","405","2223305","0.0-6.0-2.61","","<div style=""font-size:60px;"">+</div>","null","","","","","","",""
"767.1700000064448","","image-keyboard-response","406","2224075","0.0-6.0-0.62","","img/grey.png","32","trial","32","true","0.8,0.2","1:go_a","",""
"null","","html-keyboard-response","407","2225090","0.0-6.0-1.62","","<img src=""img/grey-n.png"" border=""10"">","null","trial","32","","0.8,0.2","1:go_a","0",""
"null","","html-keyboard-response","408","2226102","0.0-6.0-2.62","","<div style=""font-size:60px;"">+</div>","null","","","","","","",""
"491.184999991674","","image-keyboard-response","409","2226595","0.0-6.0-0.63","","img/pink.png","32","trial","null","false","0.2,0.8","2:nogo_b","",""
"null","","html-keyboard-response","410","2227601","0.0-6.0-1.63","","<img src=""img/pink-n.png"" border=""10"">","null","trial","null","","0.2,0.8","2:nogo_b","0",""
"null","","html-keyboard-response","411","2228605","0.0-6.0-2.63","","<div style=""font-size:60px;"">+</div>","null","","","","","","",""
"620.714999968186","","image-keyboard-response","412","2229228","0.0-6.0-0.64","","img/yellow.png","32","trial","null","false","0.4,0.6","4:nogo_d","",""
"null","","html-keyboard-response","413","2230235","0.0-6.0-1.64","","<img src=""img/yellow-r.png"" border=""10"">","null","trial","null","","0.4,0.6","4:nogo_d","1",""
"null","","html-keyboard-response","414","2231241","0.0-6.0-2.64","","<div style=""font-size:60px;"">+</div>","null","","","","","","",""
"616.7150000110269","","image-keyboard-response","415","2231860","0.0-6.0-0.65","","img/grey.png","32","trial","32","true","0.8,0.2","1:go_a","",""
"null","","html-keyboard-response","416","2232868","0.0-6.0-1.65","","<img src=""img/grey-r.png"" border=""10"">","null","trial","32","","0.8,0.2","1:go_a","1",""
"null","","html-keyboard-response","417","2233879","0.0-6.0-2.65","","<div style=""font-size:60px;"">+</div>","null","","","","","","",""
"611.4100000122562","","image-keyboard-response","418","2234492","0.0-6.0-0.66","","img/blue.png","32","trial","32","true","0.6,0.4","3:go_c","",""
"null","","html-keyboard-response","419","2235496","0.0-6.0-1.66","","<img src=""img/blue-n.png"" border=""10"">","null","trial","32","","0.6,0.4","3:go_c","0",""
"null","","html-keyboard-response","420","2236510","0.0-6.0-2.66","","<div style=""font-size:60px;"">+</div>","null","","","","","","",""
"null","","image-keyboard-response","421","2238016","0.0-6.0-0.67","","img/pink.png","null","trial","null","true","0.2,0.8","2:nogo_b","",""
"null","","html-keyboard-response","422","2239021","0.0-6.0-1.67","","<img src=""img/pink-r.png"">","null","trial","null","","0.2,0.8","2:nogo_b","1",""
"null","","html-keyboard-response","423","2240025","0.0-6.0-2.67","","<div style=""font-size:60px;"">+</div>","null","","","","","","",""
"528.7499999976717","","image-keyboard-response","424","2240556","0.0-6.0-0.68","","img/yellow.png","32","trial","null","false","0.4,0.6","4:nogo_d","",""
"null","","html-keyboard-response","425","2241561","0.0-6.0-1.68","","<img src=""img/yellow-r.png"" border=""10"">","null","trial","null","","0.4,0.6","4:nogo_d","1",""
"null","","html-keyboard-response","426","2242581","0.0-6.0-2.68","","<div style=""font-size:60px;"">+</div>","null","","","","","","",""
"428.34500002209097","","image-keyboard-response","427","2243011","0.0-6.0-0.69","","img/pink.png","32","trial","null","false","0.2,0.8","2:nogo_b","",""
"null","","html-keyboard-response","428","2244025","0.0-6.0-1.69","","<img src=""img/pink-n.png"" border=""10"">","null","trial","null","","0.2,0.8","2:nogo_b","0",""
"null","","html-keyboard-response","429","2245035","0.0-6.0-2.69","","<div style=""font-size:60px;"">+</div>","null","","","","","","",""
"829.9499999848194","","image-keyboard-response","430","2245867","0.0-6.0-0.70","","img/blue.png","32","trial","32","true","0.6,0.4","3:go_c","",""
"null","","html-keyboard-response","431","2246877","0.0-6.0-1.70","","<img src=""img/blue-r.png"" border=""10"">","null","trial","32","","0.6,0.4","3:go_c","1",""
"null","","html-keyboard-response","432","2247890","0.0-6.0-2.70","","<div style=""font-size:60px;"">+</div>","null","","","","","","",""
"455.5450000334531","","image-keyboard-response","433","2248347","0.0-6.0-0.71","","img/grey.png","32","trial","32","true","0.8,0.2","1:go_a","",""
"null","","html-keyboard-response","434","2249366","0.0-6.0-1.71","","<img src=""img/grey-n.png"" border=""10"">","null","trial","32","","0.8,0.2","1:go_a","0",""
"null","","html-keyboard-response","435","2250374","0.0-6.0-2.71","","<div style=""font-size:60px;"">+</div>","null","","","","","","",""
"null","","image-keyboard-response","436","2251883","0.0-6.0-0.72","","img/blue.png","null","trial","32","false","0.6,0.4","3:go_c","",""
"null","","html-keyboard-response","437","2252891","0.0-6.0-1.72","","<img src=""img/blue-n.png"">","null","trial","32","","0.6,0.4","3:go_c","0",""
"null","","html-keyboard-response","438","2253904","0.0-6.0-2.72","","<div style=""font-size:60px;"">+</div>","null","","","","","","",""
"529.6400000224821","","image-keyboard-response","439","2254436","0.0-6.0-0.73","","img/grey.png","32","trial","32","true","0.8,0.2","1:go_a","",""
"null","","html-keyboard-response","440","2255452","0.0-6.0-1.73","","<img src=""img/grey-r.png"" border=""10"">","null","trial","32","","0.8,0.2","1:go_a","1",""
"null","","html-keyboard-response","441","2256457","0.0-6.0-2.73","","<div style=""font-size:60px;"">+</div>","null","","","","","","",""
"495.5049999989569","","image-keyboard-response","442","2256955","0.0-6.0-0.74","","img/pink.png","32","trial","null","false","0.2,0.8","2:nogo_b","",""
"null","","html-keyboard-response","443","2257969","0.0-6.0-1.74","","<img src=""img/pink-n.png"" border=""10"">","null","trial","null","","0.2,0.8","2:nogo_b","0",""
"null","","html-keyboard-response","444","2258974","0.0-6.0-2.74","","<div style=""font-size:60px;"">+</div>","null","","","","","","",""
"null","","image-keyboard-response","445","2260477","0.0-6.0-0.75","","img/yellow.png","null","trial","null","true","0.4,0.6","4:nogo_d","",""
"null","","html-keyboard-response","446","2261486","0.0-6.0-1.75","","<img src=""img/yellow-r.png"">","null","trial","null","","0.4,0.6","4:nogo_d","1",""
"null","","html-keyboard-response","447","2262495","0.0-6.0-2.75","","<div style=""font-size:60px;"">+</div>","null","","","","","","",""
"594.2350000259466","","image-keyboard-response","448","2263091","0.0-6.0-0.76","","img/grey.png","32","trial","32","true","0.8,0.2","1:go_a","",""
"null","","html-keyboard-response","449","2264101","0.0-6.0-1.76","","<img src=""img/grey-r.png"" border=""10"">","null","trial","32","","0.8,0.2","1:go_a","1",""
"null","","html-keyboard-response","450","2265105","0.0-6.0-2.76","","<div style=""font-size:60px;"">+</div>","null","","","","","","",""
"496.07500003185123","","image-keyboard-response","451","2265603","0.0-6.0-0.77","","img/blue.png","32","trial","32","true","0.6,0.4","3:go_c","",""
"null","","html-keyboard-response","452","2266609","0.0-6.0-1.77","","<img src=""img/blue-r.png"" border=""10"">","null","trial","32","","0.6,0.4","3:go_c","1",""
"null","","html-keyboard-response","453","2267624","0.0-6.0-2.77","","<div style=""font-size:60px;"">+</div>","null","","","","","","",""
"681.2950000166893","","image-keyboard-response","454","2268307","0.0-6.0-0.78","","img/pink.png","32","trial","null","false","0.2,0.8","2:nogo_b","",""
"null","","html-keyboard-response","455","2269321","0.0-6.0-1.78","","<img src=""img/pink-r.png"" border=""10"">","null","trial","null","","0.2,0.8","2:nogo_b","1",""
"null","","html-keyboard-response","456","2270331","0.0-6.0-2.78","","<div style=""font-size:60px;"">+</div>","null","","","","","","",""
"470.2149999793619","","image-keyboard-response","457","2270803","0.0-6.0-0.79","","img/yellow.png","32","trial","null","false","0.4,0.6","4:nogo_d","",""
"null","","html-keyboard-response","458","2271808","0.0-6.0-1.79","","<img src=""img/yellow-n.png"" border=""10"">","null","trial","null","","0.4,0.6","4:nogo_d","0",""
"null","","html-keyboard-response","459","2272817","0.0-6.0-2.79","","<div style=""font-size:60px;"">+</div>","null","","","","","","",""
"null","","image-keyboard-response","460","2274327","0.0-6.0-0.80","","img/blue.png","null","trial","32","false","0.6,0.4","3:go_c","",""
"null","","html-keyboard-response","461","2275335","0.0-6.0-1.80","","<img src=""img/blue-n.png"">","null","trial","32","","0.6,0.4","3:go_c","0",""
"null","","html-keyboard-response","462","2276351","0.0-6.0-2.80","","<div style=""font-size:60px;"">+</div>","null","","","","","","",""
"null","","image-keyboard-response","463","2277866","0.0-6.0-0.81","","img/grey.png","null","trial","32","false","0.8,0.2","1:go_a","",""
"null","","html-keyboard-response","464","2278877","0.0-6.0-1.81","","<img src=""img/grey-n.png"">","null","trial","32","","0.8,0.2","1:go_a","0",""
"null","","html-keyboard-response","465","2279893","0.0-6.0-2.81","","<div style=""font-size:60px;"">+</div>","null","","","","","","",""
"812.5299999956042","","image-keyboard-response","466","2280707","0.0-6.0-0.82","","img/yellow.png","32","trial","null","false","0.4,0.6","4:nogo_d","",""
"null","","html-keyboard-response","467","2281710","0.0-6.0-1.82","","<img src=""img/yellow-n.png"" border=""10"">","null","trial","null","","0.4,0.6","4:nogo_d","0",""
"null","","html-keyboard-response","468","2282719","0.0-6.0-2.82","","<div style=""font-size:60px;"">+</div>","null","","","","","","",""
"596.2799999979325","","image-keyboard-response","469","2283318","0.0-6.0-0.83","","img/pink.png","32","trial","null","false","0.2,0.8","2:nogo_b","",""
"null","","html-keyboard-response","470","2284332","0.0-6.0-1.83","","<img src=""img/pink-n.png"" border=""10"">","null","trial","null","","0.2,0.8","2:nogo_b","0",""
"null","","html-keyboard-response","471","2285351","0.0-6.0-2.83","","<div style=""font-size:60px;"">+</div>","null","","","","","","",""
"617.5049999728799","","image-keyboard-response","472","2285971","0.0-6.0-0.84","","img/pink.png","32","trial","null","false","0.2,0.8","2:nogo_b","",""
"null","","html-keyboard-response","473","2286986","0.0-6.0-1.84","","<img src=""img/pink-n.png"" border=""10"">","null","trial","null","","0.2,0.8","2:nogo_b","0",""
"null","","html-keyboard-response","474","2287990","0.0-6.0-2.84","","<div style=""font-size:60px;"">+</div>","null","","","","","","",""
"443.33999999798834","","image-keyboard-response","475","2288435","0.0-6.0-0.85","","img/yellow.png","32","trial","null","false","0.4,0.6","4:nogo_d","",""
"null","","html-keyboard-response","476","2289456","0.0-6.0-1.85","","<img src=""img/yellow-n.png"" border=""10"">","null","trial","null","","0.4,0.6","4:nogo_d","0",""
"null","","html-keyboard-response","477","2290467","0.0-6.0-2.85","","<div style=""font-size:60px;"">+</div>","null","","","","","","",""
"486.4250000100583","","image-keyboard-response","478","2290955","0.0-6.0-0.86","","img/grey.png","32","trial","32","true","0.8,0.2","1:go_a","",""
"null","","html-keyboard-response","479","2291965","0.0-6.0-1.86","","<img src=""img/grey-r.png"" border=""10"">","null","trial","32","","0.8,0.2","1:go_a","1",""
"null","","html-keyboard-response","480","2292982","0.0-6.0-2.86","","<div style=""font-size:60px;"">+</div>","null","","","","","","",""
"395.01999999629334","","image-keyboard-response","481","2293379","0.0-6.0-0.87","","img/blue.png","32","trial","32","true","0.6,0.4","3:go_c","",""
"null","","html-keyboard-response","482","2294390","0.0-6.0-1.87","","<img src=""img/blue-n.png"" border=""10"">","null","trial","32","","0.6,0.4","3:go_c","0",""
"null","","html-keyboard-response","483","2295408","0.0-6.0-2.87","","<div style=""font-size:60px;"">+</div>","null","","","","","","",""
"728.5150000243448","","image-keyboard-response","484","2296139","0.0-6.0-0.88","","img/blue.png","32","trial","32","true","0.6,0.4","3:go_c","",""
"null","","html-keyboard-response","485","2297150","0.0-6.0-1.88","","<img src=""img/blue-r.png"" border=""10"">","null","trial","32","","0.6,0.4","3:go_c","1",""
"null","","html-keyboard-response","486","2298159","0.0-6.0-2.88","","<div style=""font-size:60px;"">+</div>","null","","","","","","",""
"null","","image-keyboard-response","487","2299669","0.0-6.0-0.89","","img/grey.png","null","trial","32","false","0.8,0.2","1:go_a","",""
"null","","html-keyboard-response","488","2300678","0.0-6.0-1.89","","<img src=""img/grey-n.png"">","null","trial","32","","0.8,0.2","1:go_a","0",""
"null","","html-keyboard-response","489","2301682","0.0-6.0-2.89","","<div style=""font-size:60px;"">+</div>","null","","","","","","",""
"487.24500002572313","","image-keyboard-response","490","2302171","0.0-6.0-0.90","","img/yellow.png","32","trial","null","false","0.4,0.6","4:nogo_d","",""
"null","","html-keyboard-response","491","2303180","0.0-6.0-1.90","","<img src=""img/yellow-n.png"" border=""10"">","null","trial","null","","0.4,0.6","4:nogo_d","0",""
"null","","html-keyboard-response","492","2304183","0.0-6.0-2.90","","<div style=""font-size:60px;"">+</div>","null","","","","","","",""
"514.2200000118464","","image-keyboard-response","493","2304699","0.0-6.0-0.91","","img/pink.png","32","trial","null","false","0.2,0.8","2:nogo_b","",""
"null","","html-keyboard-response","494","2305714","0.0-6.0-1.91","","<img src=""img/pink-n.png"" border=""10"">","null","trial","null","","0.2,0.8","2:nogo_b","0",""
"null","","html-keyboard-response","495","2306723","0.0-6.0-2.91","","<div style=""font-size:60px;"">+</div>","null","","","","","","",""
"1045.15999997966","","image-keyboard-response","496","2307771","0.0-6.0-0.92","","img/grey.png","32","trial","32","true","0.8,0.2","1:go_a","",""
"null","","html-keyboard-response","497","2308788","0.0-6.0-1.92","","<img src=""img/grey-r.png"" border=""10"">","null","trial","32","","0.8,0.2","1:go_a","1",""
"null","","html-keyboard-response","498","2309799","0.0-6.0-2.92","","<div style=""font-size:60px;"">+</div>","null","","","","","","",""
"466.3650000002235","","image-keyboard-response","499","2310267","0.0-6.0-0.93","","img/yellow.png","32","trial","null","false","0.4,0.6","4:nogo_d","",""
"null","","html-keyboard-response","500","2311273","0.0-6.0-1.93","","<img src=""img/yellow-n.png"" border=""10"">","null","trial","null","","0.4,0.6","4:nogo_d","0",""
"null","","html-keyboard-response","501","2312280","0.0-6.0-2.93","","<div style=""font-size:60px;"">+</div>","null","","","","","","",""
"null","","image-keyboard-response","502","2313789","0.0-6.0-0.94","","img/pink.png","null","trial","null","true","0.2,0.8","2:nogo_b","",""
"null","","html-keyboard-response","503","2314803","0.0-6.0-1.94","","<img src=""img/pink-r.png"">","null","trial","null","","0.2,0.8","2:nogo_b","1",""
"null","","html-keyboard-response","504","2315812","0.0-6.0-2.94","","<div style=""font-size:60px;"">+</div>","null","","","","","","",""
"544.3250000244007","","image-keyboard-response","505","2316359","0.0-6.0-0.95","","img/blue.png","32","trial","32","true","0.6,0.4","3:go_c","",""
"null","","html-keyboard-response","506","2317363","0.0-6.0-1.95","","<img src=""img/blue-r.png"" border=""10"">","null","trial","32","","0.6,0.4","3:go_c","1",""
"null","","html-keyboard-response","507","2318374","0.0-6.0-2.95","","<div style=""font-size:60px;"">+</div>","null","","","","","","",""
"814.5999999833293","","image-keyboard-response","508","2319191","0.0-6.0-0.96","","img/blue.png","32","trial","32","true","0.6,0.4","3:go_c","",""
"null","","html-keyboard-response","509","2320208","0.0-6.0-1.96","","<img src=""img/blue-r.png"" border=""10"">","null","trial","32","","0.6,0.4","3:go_c","1",""
"null","","html-keyboard-response","510","2321223","0.0-6.0-2.96","","<div style=""font-size:60px;"">+</div>","null","","","","","","",""
"629.3900000164285","","image-keyboard-response","511","2321854","0.0-6.0-0.97","","img/pink.png","32","trial","null","false","0.2,0.8","2:nogo_b","",""
"null","","html-keyboard-response","512","2322867","0.0-6.0-1.97","","<img src=""img/pink-n.png"" border=""10"">","null","trial","null","","0.2,0.8","2:nogo_b","0",""
"null","","html-keyboard-response","513","2323870","0.0-6.0-2.97","","<div style=""font-size:60px;"">+</div>","null","","","","","","",""
"470.3649999573827","","image-keyboard-response","514","2324342","0.0-6.0-0.98","","img/yellow.png","32","trial","null","false","0.4,0.6","4:nogo_d","",""
"null","","html-keyboard-response","515","2325360","0.0-6.0-1.98","","<img src=""img/yellow-n.png"" border=""10"">","null","trial","null","","0.4,0.6","4:nogo_d","0",""
"null","","html-keyboard-response","516","2326365","0.0-6.0-2.98","","<div style=""font-size:60px;"">+</div>","null","","","","","","",""
"null","","image-keyboard-response","517","2327869","0.0-6.0-0.99","","img/grey.png","null","trial","32","false","0.8,0.2","1:go_a","",""
"null","","html-keyboard-response","518","2328873","0.0-6.0-1.99","","<img src=""img/grey-r.png"">","null","trial","32","","0.8,0.2","1:go_a","1",""
"null","","html-keyboard-response","519","2329886","0.0-6.0-2.99","","<div style=""font-size:60px;"">+</div>","null","","","","","","",""
"582.7649999991991","","image-keyboard-response","520","2330470","0.0-6.0-0.100","","img/pink.png","32","trial","null","false","0.2,0.8","2:nogo_b","",""
"null","","html-keyboard-response","521","2331476","0.0-6.0-1.100","","<img src=""img/pink-n.png"" border=""10"">","null","trial","null","","0.2,0.8","2:nogo_b","0",""
"null","","html-keyboard-response","522","2332496","0.0-6.0-2.100","","<div style=""font-size:60px;"">+</div>","null","","","","","","",""
"548.7749999738298","","image-keyboard-response","523","2333047","0.0-6.0-0.101","","img/blue.png","32","trial","32","true","0.6,0.4","3:go_c","",""
"null","","html-keyboard-response","524","2334052","0.0-6.0-1.101","","<img src=""img/blue-r.png"" border=""10"">","null","trial","32","","0.6,0.4","3:go_c","1",""
"null","","html-keyboard-response","525","2335061","0.0-6.0-2.101","","<div style=""font-size:60px;"">+</div>","null","","","","","","",""
"591.0300000105053","","image-keyboard-response","526","2335654","0.0-6.0-0.102","","img/yellow.png","32","trial","null","false","0.4,0.6","4:nogo_d","",""
"null","","html-keyboard-response","527","2336661","0.0-6.0-1.102","","<img src=""img/yellow-n.png"" border=""10"">","null","trial","null","","0.4,0.6","4:nogo_d","0",""
"null","","html-keyboard-response","528","2337664","0.0-6.0-2.102","","<div style=""font-size:60px;"">+</div>","null","","","","","","",""
"644.4250000058673","","image-keyboard-response","529","2338310","0.0-6.0-0.103","","img/grey.png","32","trial","32","true","0.8,0.2","1:go_a","",""
"null","","html-keyboard-response","530","2339323","0.0-6.0-1.103","","<img src=""img/grey-r.png"" border=""10"">","null","trial","32","","0.8,0.2","1:go_a","1",""
"null","","html-keyboard-response","531","2340333","0.0-6.0-2.103","","<div style=""font-size:60px;"">+</div>","null","","","","","","",""
"552.0699999760836","","image-keyboard-response","532","2340887","0.0-6.0-0.104","","img/yellow.png","32","trial","null","false","0.4,0.6","4:nogo_d","",""
"null","","html-keyboard-response","533","2341898","0.0-6.0-1.104","","<img src=""img/yellow-r.png"" border=""10"">","null","trial","null","","0.4,0.6","4:nogo_d","1",""
"null","","html-keyboard-response","534","2342908","0.0-6.0-2.104","","<div style=""font-size:60px;"">+</div>","null","","","","","","",""
"592.5450000213459","","image-keyboard-response","535","2343502","0.0-6.0-0.105","","img/pink.png","32","trial","null","false","0.2,0.8","2:nogo_b","",""
"null","","html-keyboard-response","536","2344506","0.0-6.0-1.105","","<img src=""img/pink-n.png"" border=""10"">","null","trial","null","","0.2,0.8","2:nogo_b","0",""
"null","","html-keyboard-response","537","2345513","0.0-6.0-2.105","","<div style=""font-size:60px;"">+</div>","null","","","","","","",""
"435.67999999504536","","image-keyboard-response","538","2345951","0.0-6.0-0.106","","img/blue.png","32","trial","32","true","0.6,0.4","3:go_c","",""
"null","","html-keyboard-response","539","2346957","0.0-6.0-1.106","","<img src=""img/blue-n.png"" border=""10"">","null","trial","32","","0.6,0.4","3:go_c","0",""
"null","","html-keyboard-response","540","2347965","0.0-6.0-2.106","","<div style=""font-size:60px;"">+</div>","null","","","","","","",""
"575.7350000203587","","image-keyboard-response","541","2348542","0.0-6.0-0.107","","img/grey.png","32","trial","32","true","0.8,0.2","1:go_a","",""
"null","","html-keyboard-response","542","2349552","0.0-6.0-1.107","","<img src=""img/grey-r.png"" border=""10"">","null","trial","32","","0.8,0.2","1:go_a","1",""
"null","","html-keyboard-response","543","2350562","0.0-6.0-2.107","","<div style=""font-size:60px;"">+</div>","null","","","","","","",""
"530.7499999762513","","image-keyboard-response","544","2351095","0.0-6.0-0.108","","img/blue.png","32","trial","32","true","0.6,0.4","3:go_c","",""
"null","","html-keyboard-response","545","2352097","0.0-6.0-1.108","","<img src=""img/blue-r.png"" border=""10"">","null","trial","32","","0.6,0.4","3:go_c","1",""
"null","","html-keyboard-response","546","2353104","0.0-6.0-2.108","","<div style=""font-size:60px;"">+</div>","null","","","","","","",""
"581.110000028275","","image-keyboard-response","547","2353687","0.0-6.0-0.109","","img/yellow.png","32","trial","null","false","0.4,0.6","4:nogo_d","",""
"null","","html-keyboard-response","548","2354705","0.0-6.0-1.109","","<img src=""img/yellow-n.png"" border=""10"">","null","trial","null","","0.4,0.6","4:nogo_d","0",""
"null","","html-keyboard-response","549","2355708","0.0-6.0-2.109","","<div style=""font-size:60px;"">+</div>","null","","","","","","",""
"456.5350000048056","","image-keyboard-response","550","2356166","0.0-6.0-0.110","","img/grey.png","32","trial","32","true","0.8,0.2","1:go_a","",""
"null","","html-keyboard-response","551","2357174","0.0-6.0-1.110","","<img src=""img/grey-n.png"" border=""10"">","null","trial","32","","0.8,0.2","1:go_a","0",""
"null","","html-keyboard-response","552","2358182","0.0-6.0-2.110","","<div style=""font-size:60px;"">+</div>","null","","","","","","",""
"862.859999993816","","image-keyboard-response","553","2359047","0.0-6.0-0.111","","img/pink.png","32","trial","null","false","0.2,0.8","2:nogo_b","",""
"null","","html-keyboard-response","554","2360058","0.0-6.0-1.111","","<img src=""img/pink-r.png"" border=""10"">","null","trial","null","","0.2,0.8","2:nogo_b","1",""
"null","","html-keyboard-response","555","2361063","0.0-6.0-2.111","","<div style=""font-size:60px;"">+</div>","null","","","","","","",""
"1141.684999980498","","image-keyboard-response","556","2362207","0.0-6.0-0.112","","img/blue.png","32","trial","32","true","0.6,0.4","3:go_c","",""
"null","","html-keyboard-response","557","2363218","0.0-6.0-1.112","","<img src=""img/blue-r.png"" border=""10"">","null","trial","32","","0.6,0.4","3:go_c","1",""
"null","","html-keyboard-response","558","2364222","0.0-6.0-2.112","","<div style=""font-size:60px;"">+</div>","null","","","","","","",""
"null","","image-keyboard-response","559","2365734","0.0-6.0-0.113","","img/grey.png","null","trial","32","false","0.8,0.2","1:go_a","",""
"null","","html-keyboard-response","560","2366752","0.0-6.0-1.113","","<img src=""img/grey-r.png"">","null","trial","32","","0.8,0.2","1:go_a","1",""
"null","","html-keyboard-response","561","2367757","0.0-6.0-2.113","","<div style=""font-size:60px;"">+</div>","null","","","","","","",""
"175.18000002019107","","image-keyboard-response","562","2367934","0.0-6.0-0.114","","img/yellow.png","32","trial","null","false","0.4,0.6","4:nogo_d","",""
"null","","html-keyboard-response","563","2368949","0.0-6.0-1.114","","<img src=""img/yellow-r.png"" border=""10"">","null","trial","null","","0.4,0.6","4:nogo_d","1",""
"null","","html-keyboard-response","564","2369957","0.0-6.0-2.114","","<div style=""font-size:60px;"">+</div>","null","","","","","","",""
"null","","image-keyboard-response","565","2371465","0.0-6.0-0.115","","img/pink.png","null","trial","null","true","0.2,0.8","2:nogo_b","",""
"null","","html-keyboard-response","566","2372468","0.0-6.0-1.115","","<img src=""img/pink-r.png"">","null","trial","null","","0.2,0.8","2:nogo_b","1",""
"null","","html-keyboard-response","567","2373475","0.0-6.0-2.115","","<div style=""font-size:60px;"">+</div>","null","","","","","","",""
"null","","image-keyboard-response","568","2374989","0.0-6.0-0.116","","img/blue.png","null","trial","32","false","0.6,0.4","3:go_c","",""
"null","","html-keyboard-response","569","2376005","0.0-6.0-1.116","","<img src=""img/blue-n.png"">","null","trial","32","","0.6,0.4","3:go_c","0",""
"null","","html-keyboard-response","570","2377021","0.0-6.0-2.116","","<div style=""font-size:60px;"">+</div>","null","","","","","","",""
"null","","image-keyboard-response","571","2378538","0.0-6.0-0.117","","img/yellow.png","null","trial","null","true","0.4,0.6","4:nogo_d","",""
"null","","html-keyboard-response","572","2379549","0.0-6.0-1.117","","<img src=""img/yellow-n.png"">","null","trial","null","","0.4,0.6","4:nogo_d","0",""
"null","","html-keyboard-response","573","2380552","0.0-6.0-2.117","","<div style=""font-size:60px;"">+</div>","null","","","","","","",""
"null","","image-keyboard-response","574","2382066","0.0-6.0-0.118","","img/grey.png","null","trial","32","false","0.8,0.2","1:go_a","",""
"null","","html-keyboard-response","575","2383083","0.0-6.0-1.118","","<img src=""img/grey-n.png"">","null","trial","32","","0.8,0.2","1:go_a","0",""
"null","","html-keyboard-response","576","2384100","0.0-6.0-2.118","","<div style=""font-size:60px;"">+</div>","null","","","","","","",""
"null","","image-keyboard-response","577","2385611","0.0-6.0-0.119","","img/pink.png","null","trial","null","true","0.2,0.8","2:nogo_b","",""
"null","","html-keyboard-response","578","2386628","0.0-6.0-1.119","","<img src=""img/pink-n.png"">","null","trial","null","","0.2,0.8","2:nogo_b","0",""
"null","","html-keyboard-response","579","2387634","0.0-6.0-2.119","","<div style=""font-size:60px;"">+</div>","null","","","","","","",""
"30309.739999996964","","instructions","580","2417944","0.0-7.0","[{""page_index"":0,""viewing_time"":30309.515000029933}]","","","","","","","","",""
"null","","image-keyboard-response","581","2419453","0.0-8.0-0.0","","img/red.png","null","trial","32","false","0.8,0.2","3:go_c","",""
"null","","html-keyboard-response","582","2420461","0.0-8.0-1.0","","<img src=""img/red-n.png"">","null","trial","32","","0.8,0.2","3:go_c","0",""
"null","","html-keyboard-response","583","2421476","0.0-8.0-2.0","","<div style=""font-size:60px;"">+</div>","null","","","","","","",""
"372.25499999476597","","image-keyboard-response","584","2421850","0.0-8.0-0.1","","img/orange.png","32","trial","null","false","0.2,0.8","2:nogo_b","",""
"null","","html-keyboard-response","585","2422854","0.0-8.0-1.1","","<img src=""img/orange-n.png"" border=""10"">","null","trial","null","","0.2,0.8","2:nogo_b","0",""
"null","","html-keyboard-response","586","2423866","0.0-8.0-2.1","","<div style=""font-size:60px;"">+</div>","null","","","","","","",""
"765.8650000230409","","image-keyboard-response","587","2424634","0.0-8.0-0.2","","img/purple.png","32","trial","32","true","0.8,0.2","1:go_a","",""
"null","","html-keyboard-response","588","2425641","0.0-8.0-1.2","","<img src=""img/purple-n.png"" border=""10"">","null","trial","32","","0.8,0.2","1:go_a","0",""
"null","","html-keyboard-response","589","2426649","0.0-8.0-2.2","","<div style=""font-size:60px;"">+</div>","null","","","","","","",""
"903.5550000262447","","image-keyboard-response","590","2427554","0.0-8.0-0.3","","img/pink.png","32","trial","null","false","0.2,0.8","4:nogo_d","",""
"null","","html-keyboard-response","591","2428568","0.0-8.0-1.3","","<img src=""img/pink-n.png"" border=""10"">","null","trial","null","","0.2,0.8","4:nogo_d","0",""
"null","","html-keyboard-response","592","2429578","0.0-8.0-2.3","","<div style=""font-size:60px;"">+</div>","null","","","","","","",""
"null","","image-keyboard-response","593","2431082","0.0-8.0-0.4","","img/pink.png","null","trial","null","true","0.2,0.8","4:nogo_d","",""
"null","","html-keyboard-response","594","2432095","0.0-8.0-1.4","","<img src=""img/pink-r.png"">","null","trial","null","","0.2,0.8","4:nogo_d","1",""
"null","","html-keyboard-response","595","2433106","0.0-8.0-2.4","","<div style=""font-size:60px;"">+</div>","null","","","","","","",""
"343.32499996526167","","image-keyboard-response","596","2433451","0.0-8.0-0.5","","img/red.png","32","trial","32","true","0.8,0.2","3:go_c","",""
"null","","html-keyboard-response","597","2434455","0.0-8.0-1.5","","<img src=""img/red-r.png"" border=""10"">","null","trial","32","","0.8,0.2","3:go_c","1",""
"null","","html-keyboard-response","598","2435471","0.0-8.0-2.5","","<div style=""font-size:60px;"">+</div>","null","","","","","","",""
"586.1499999882653","","image-keyboard-response","599","2436058","0.0-8.0-0.6","","img/orange.png","32","trial","null","false","0.2,0.8","2:nogo_b","",""
"null","","html-keyboard-response","600","2437065","0.0-8.0-1.6","","<img src=""img/orange-r.png"" border=""10"">","null","trial","null","","0.2,0.8","2:nogo_b","1",""
"null","","html-keyboard-response","601","2438077","0.0-8.0-2.6","","<div style=""font-size:60px;"">+</div>","null","","","","","","",""
"659.574999997858","","image-keyboard-response","602","2438738","0.0-8.0-0.7","","img/purple.png","32","trial","32","true","0.8,0.2","1:go_a","",""
"null","","html-keyboard-response","603","2439751","0.0-8.0-1.7","","<img src=""img/purple-r.png"" border=""10"">","null","trial","32","","0.8,0.2","1:go_a","1",""
"null","","html-keyboard-response","604","2440767","0.0-8.0-2.7","","<div style=""font-size:60px;"">+</div>","null","","","","","","",""
"737.5800000154413","","image-keyboard-response","605","2441506","0.0-8.0-0.8","","img/red.png","32","trial","32","true","0.8,0.2","3:go_c","",""
"null","","html-keyboard-response","606","2442519","0.0-8.0-1.8","","<img src=""img/red-r.png"" border=""10"">","null","trial","32","","0.8,0.2","3:go_c","1",""
"null","","html-keyboard-response","607","2443533","0.0-8.0-2.8","","<div style=""font-size:60px;"">+</div>","null","","","","","","",""
"null","","image-keyboard-response","608","2445042","0.0-8.0-0.9","","img/orange.png","null","trial","null","true","0.2,0.8","2:nogo_b","",""
"null","","html-keyboard-response","609","2446059","0.0-8.0-1.9","","<img src=""img/orange-r.png"">","null","trial","null","","0.2,0.8","2:nogo_b","1",""
"null","","html-keyboard-response","610","2447075","0.0-8.0-2.9","","<div style=""font-size:60px;"">+</div>","null","","","","","","",""
"493.0999999633059","","image-keyboard-response","611","2447571","0.0-8.0-0.10","","img/pink.png","32","trial","null","false","0.2,0.8","4:nogo_d","",""
"null","","html-keyboard-response","612","2448582","0.0-8.0-1.10","","<img src=""img/pink-n.png"" border=""10"">","null","trial","null","","0.2,0.8","4:nogo_d","0",""
"null","","html-keyboard-response","613","2449586","0.0-8.0-2.10","","<div style=""font-size:60px;"">+</div>","null","","","","","","",""
"750.2100000274368","","image-keyboard-response","614","2450338","0.0-8.0-0.11","","img/purple.png","32","trial","32","true","0.8,0.2","1:go_a","",""
"null","","html-keyboard-response","615","2451356","0.0-8.0-1.11","","<img src=""img/purple-r.png"" border=""10"">","null","trial","32","","0.8,0.2","1:go_a","1",""
"null","","html-keyboard-response","616","2452375","0.0-8.0-2.11","","<div style=""font-size:60px;"">+</div>","null","","","","","","",""
"null","","image-keyboard-response","617","2453890","0.0-8.0-0.12","","img/purple.png","null","trial","32","false","0.8,0.2","1:go_a","",""
"null","","html-keyboard-response","618","2454899","0.0-8.0-1.12","","<img src=""img/purple-n.png"">","null","trial","32","","0.8,0.2","1:go_a","0",""
"null","","html-keyboard-response","619","2455911","0.0-8.0-2.12","","<div style=""font-size:60px;"">+</div>","null","","","","","","",""
"497.84500000532717","","image-keyboard-response","620","2456411","0.0-8.0-0.13","","img/red.png","32","trial","32","true","0.8,0.2","3:go_c","",""
"null","","html-keyboard-response","621","2457427","0.0-8.0-1.13","","<img src=""img/red-r.png"" border=""10"">","null","trial","32","","0.8,0.2","3:go_c","1",""
"null","","html-keyboard-response","622","2458432","0.0-8.0-2.13","","<div style=""font-size:60px;"">+</div>","null","","","","","","",""
"690.6299999682233","","image-keyboard-response","623","2459123","0.0-8.0-0.14","","img/orange.png","32","trial","null","false","0.2,0.8","2:nogo_b","",""
"null","","html-keyboard-response","624","2460131","0.0-8.0-1.14","","<img src=""img/orange-n.png"" border=""10"">","null","trial","null","","0.2,0.8","2:nogo_b","0",""
"null","","html-keyboard-response","625","2461142","0.0-8.0-2.14","","<div style=""font-size:60px;"">+</div>","null","","","","","","",""
"488.6450000340119","","image-keyboard-response","626","2461633","0.0-8.0-0.15","","img/pink.png","32","trial","null","false","0.2,0.8","4:nogo_d","",""
"null","","html-keyboard-response","627","2462646","0.0-8.0-1.15","","<img src=""img/pink-r.png"" border=""10"">","null","trial","null","","0.2,0.8","4:nogo_d","1",""
"null","","html-keyboard-response","628","2463653","0.0-8.0-2.15","","<div style=""font-size:60px;"">+</div>","null","","","","","","",""
"675.0500000198372","","image-keyboard-response","629","2464331","0.0-8.0-0.16","","img/orange.png","32","trial","null","false","0.2,0.8","2:nogo_b","",""
"null","","html-keyboard-response","630","2465340","0.0-8.0-1.16","","<img src=""img/orange-n.png"" border=""10"">","null","trial","null","","0.2,0.8","2:nogo_b","0",""
"null","","html-keyboard-response","631","2466352","0.0-8.0-2.16","","<div style=""font-size:60px;"">+</div>","null","","","","","","",""
"584.4049999723211","","image-keyboard-response","632","2466938","0.0-8.0-0.17","","img/purple.png","32","trial","32","true","0.8,0.2","1:go_a","",""
"null","","html-keyboard-response","633","2467953","0.0-8.0-1.17","","<img src=""img/purple-r.png"" border=""10"">","null","trial","32","","0.8,0.2","1:go_a","1",""
"null","","html-keyboard-response","634","2468959","0.0-8.0-2.17","","<div style=""font-size:60px;"">+</div>","null","","","","","","",""
"658.9999999850988","","image-keyboard-response","635","2469620","0.0-8.0-0.18","","img/pink.png","32","trial","null","false","0.2,0.8","4:nogo_d","",""
"null","","html-keyboard-response","636","2470623","0.0-8.0-1.18","","<img src=""img/pink-n.png"" border=""10"">","null","trial","null","","0.2,0.8","4:nogo_d","0",""
"null","","html-keyboard-response","637","2471635","0.0-8.0-2.18","","<div style=""font-size:60px;"">+</div>","null","","","","","","",""
"482.88999998476356","","image-keyboard-response","638","2472122","0.0-8.0-0.19","","img/red.png","32","trial","32","true","0.8,0.2","3:go_c","",""
"null","","html-keyboard-response","639","2473135","0.0-8.0-1.19","","<img src=""img/red-n.png"" border=""10"">","null","trial","32","","0.8,0.2","3:go_c","0",""
"null","","html-keyboard-response","640","2474146","0.0-8.0-2.19","","<div style=""font-size:60px;"">+</div>","null","","","","","","",""
"525.6850000005215","","image-keyboard-response","641","2474674","0.0-8.0-0.20","","img/red.png","32","trial","32","true","0.8,0.2","3:go_c","",""
"null","","html-keyboard-response","642","2475685","0.0-8.0-1.20","","<img src=""img/red-n.png"" border=""10"">","null","trial","32","","0.8,0.2","3:go_c","0",""
"null","","html-keyboard-response","643","2476691","0.0-8.0-2.20","","<div style=""font-size:60px;"">+</div>","null","","","","","","",""
"853.4649999928661","","image-keyboard-response","644","2477547","0.0-8.0-0.21","","img/pink.png","32","trial","null","false","0.2,0.8","4:nogo_d","",""
"null","","html-keyboard-response","645","2478557","0.0-8.0-1.21","","<img src=""img/pink-n.png"" border=""10"">","null","trial","null","","0.2,0.8","4:nogo_d","0",""
"null","","html-keyboard-response","646","2479574","0.0-8.0-2.21","","<div style=""font-size:60px;"">+</div>","null","","","","","","",""
"571.9750000280328","","image-keyboard-response","647","2480148","0.0-8.0-0.22","","img/orange.png","32","trial","null","false","0.2,0.8","2:nogo_b","",""
"null","","html-keyboard-response","648","2481167","0.0-8.0-1.22","","<img src=""img/orange-r.png"" border=""10"">","null","trial","null","","0.2,0.8","2:nogo_b","1",""
"null","","html-keyboard-response","649","2482174","0.0-8.0-2.22","","<div style=""font-size:60px;"">+</div>","null","","","","","","",""
"769.3950000102632","","image-keyboard-response","650","2482946","0.0-8.0-0.23","","img/purple.png","32","trial","32","true","0.8,0.2","1:go_a","",""
"null","","html-keyboard-response","651","2483956","0.0-8.0-1.23","","<img src=""img/purple-r.png"" border=""10"">","null","trial","32","","0.8,0.2","1:go_a","1",""
"null","","html-keyboard-response","652","2484966","0.0-8.0-2.23","","<div style=""font-size:60px;"">+</div>","null","","","","","","",""
"null","","image-keyboard-response","653","2486478","0.0-8.0-0.24","","img/orange.png","null","trial","null","true","0.2,0.8","2:nogo_b","",""
"null","","html-keyboard-response","654","2487492","0.0-8.0-1.24","","<img src=""img/orange-r.png"">","null","trial","null","","0.2,0.8","2:nogo_b","1",""
"null","","html-keyboard-response","655","2488496","0.0-8.0-2.24","","<div style=""font-size:60px;"">+</div>","null","","","","","","",""
"552.8399999602698","","image-keyboard-response","656","2489050","0.0-8.0-0.25","","img/purple.png","32","trial","32","true","0.8,0.2","1:go_a","",""
"null","","html-keyboard-response","657","2490068","0.0-8.0-1.25","","<img src=""img/purple-r.png"" border=""10"">","null","trial","32","","0.8,0.2","1:go_a","1",""
"null","","html-keyboard-response","658","2491080","0.0-8.0-2.25","","<div style=""font-size:60px;"">+</div>","null","","","","","","",""
"481.05499998200685","","image-keyboard-response","659","2491563","0.0-8.0-0.26","","img/red.png","32","trial","32","true","0.8,0.2","3:go_c","",""
"null","","html-keyboard-response","660","2492569","0.0-8.0-1.26","","<img src=""img/red-r.png"" border=""10"">","null","trial","32","","0.8,0.2","3:go_c","1",""
"null","","html-keyboard-response","661","2493585","0.0-8.0-2.26","","<div style=""font-size:60px;"">+</div>","null","","","","","","",""
"694.8749999864958","","image-keyboard-response","662","2494282","0.0-8.0-0.27","","img/pink.png","32","trial","null","false","0.2,0.8","4:nogo_d","",""
"null","","html-keyboard-response","663","2495295","0.0-8.0-1.27","","<img src=""img/pink-r.png"" border=""10"">","null","trial","null","","0.2,0.8","4:nogo_d","1",""
"null","","html-keyboard-response","664","2496305","0.0-8.0-2.27","","<div style=""font-size:60px;"">+</div>","null","","","","","","",""
"null","","image-keyboard-response","665","2497818","0.0-8.0-0.28","","img/orange.png","null","trial","null","true","0.2,0.8","2:nogo_b","",""
"null","","html-keyboard-response","666","2498827","0.0-8.0-1.28","","<img src=""img/orange-r.png"">","null","trial","null","","0.2,0.8","2:nogo_b","1",""
