"rt","url","trial_type","trial_index","time_elapsed","internal_node_id","view_history","stimulus","key_press","test_part","correct_response","correct","use_rew","which_stim","reward","responses"
"18248.41000000015","consent.html","external-html","0","18596","0.0-0.0","","","","","","","","","",""
"79552.48000007123","","instructions","1","98149","0.0-1.0","[{""page_index"":0,""viewing_time"":5643.470000009984},{""page_index"":1,""viewing_time"":21848.794999998063},{""page_index"":2,""viewing_time"":5039.140000008047},{""page_index"":3,""viewing_time"":15711.439999984577},{""page_index"":4,""viewing_time"":18704.01500002481},{""page_index"":5,""viewing_time"":6716.479999944568},{""page_index"":6,""viewing_time"":5887.930000084452}]","","","","","","","","",""
"1141.150000039488","","image-keyboard-response","2","99292","0.0-2.0-0.0","","img/test1.PNG","32","practice","32","true","","","",""
"null","","html-keyboard-response","3","100293","0.0-2.0-1.0","","<img src=""img/test1-reward.PNG"" border=""10px; grey"">","null","","","","","","",""
"null","","html-keyboard-response","4","101295","0.0-2.0-2.0","","<div style=""font-size:60px;"">+</div>","null","","","","","","",""
"648.9699999801815","","image-keyboard-response","5","101946","0.0-2.0-0.1","","img/test3.PNG","32","practice","null","false","","","",""
"null","","html-keyboard-response","6","102947","0.0-2.0-1.1","","<img src=""img/test3-neutral.PNG"" border=""10px; grey"">","null","","","","","","",""
"null","","html-keyboard-response","7","103949","0.0-2.0-2.1","","<div style=""font-size:60px;"">+</div>","null","","","","","","",""
"453.54000001680106","","image-keyboard-response","8","104404","0.0-2.0-0.2","","img/test2.PNG","32","practice","null","false","","","",""
"null","","html-keyboard-response","9","105407","0.0-2.0-1.2","","<img src=""img/test2-neutral.PNG"" border=""10px; grey"">","null","","","","","","",""
"null","","html-keyboard-response","10","106409","0.0-2.0-2.2","","<div style=""font-size:60px;"">+</div>","null","","","","","","",""
"647.1650000894442","","image-keyboard-response","11","107057","0.0-2.0-0.3","","img/test1.PNG","32","practice","32","true","","","",""
"null","","html-keyboard-response","12","108060","0.0-2.0-1.3","","<img src=""img/test1-reward.PNG"" border=""10px; grey"">","null","","","","","","",""
"null","","html-keyboard-response","13","109061","0.0-2.0-2.3","","<div style=""font-size:60px;"">+</div>","null","","","","","","",""
"null","","image-keyboard-response","14","110563","0.0-2.0-0.4","","img/test3.PNG","null","practice","null","true","","","",""
"null","","html-keyboard-response","15","111565","0.0-2.0-1.4","","<img src=""img/test3-reward.PNG"">","null","","","","","","",""
"null","","html-keyboard-response","16","112567","0.0-2.0-2.4","","<div style=""font-size:60px;"">+</div>","null","","","","","","",""
"null","","image-keyboard-response","17","114068","0.0-2.0-0.5","","img/test2.PNG","null","practice","null","true","","","",""
"null","","html-keyboard-response","18","115070","0.0-2.0-1.5","","<img src=""img/test2-reward.PNG"">","null","","","","","","",""
"null","","html-keyboard-response","19","116072","0.0-2.0-2.5","","<div style=""font-size:60px;"">+</div>","null","","","","","","",""
"395.4900000244379","","image-keyboard-response","20","116469","0.0-2.0-0.6","","img/test1.PNG","32","practice","32","true","","","",""
"null","","html-keyboard-response","21","117471","0.0-2.0-1.6","","<img src=""img/test1-reward.PNG"" border=""10px; grey"">","null","","","","","","",""
"null","","html-keyboard-response","22","118472","0.0-2.0-2.6","","<div style=""font-size:60px;"">+</div>","null","","","","","","",""
"387.73499999661","","image-keyboard-response","23","118862","0.0-2.0-0.7","","img/test3.PNG","32","practice","null","false","","","",""
"null","","html-keyboard-response","24","119863","0.0-2.0-1.7","","<img src=""img/test3-neutral.PNG"" border=""10px; grey"">","null","","","","","","",""
"null","","html-keyboard-response","25","120865","0.0-2.0-2.7","","<div style=""font-size:60px;"">+</div>","null","","","","","","",""
"408.1650000298396","","image-keyboard-response","26","121274","0.0-2.0-0.8","","img/test2.PNG","32","practice","null","false","","","",""
"null","","html-keyboard-response","27","122275","0.0-2.0-1.8","","<img src=""img/test2-neutral.PNG"" border=""10px; grey"">","null","","","","","","",""
"null","","html-keyboard-response","28","123277","0.0-2.0-2.8","","<div style=""font-size:60px;"">+</div>","null","","","","","","",""
"699.7650000266731","","image-keyboard-response","29","123977","0.0-2.0-0.9","","img/test2.PNG","32","practice","null","false","","","",""
"null","","html-keyboard-response","30","124978","0.0-2.0-1.9","","<img src=""img/test2-neutral.PNG"" border=""10px; grey"">","null","","","","","","",""
"null","","html-keyboard-response","31","125979","0.0-2.0-2.9","","<div style=""font-size:60px;"">+</div>","null","","","","","","",""
"570.5450000241399","","image-keyboard-response","32","126551","0.0-2.0-0.10","","img/test1.PNG","32","practice","32","true","","","",""
"null","","html-keyboard-response","33","127552","0.0-2.0-1.10","","<img src=""img/test1-reward.PNG"" border=""10px; grey"">","null","","","","","","",""
"null","","html-keyboard-response","34","128553","0.0-2.0-2.10","","<div style=""font-size:60px;"">+</div>","null","","","","","","",""
"493.84999996982515","","image-keyboard-response","35","129048","0.0-2.0-0.11","","img/test3.PNG","32","practice","null","false","","","",""
"null","","html-keyboard-response","36","130050","0.0-2.0-1.11","","<img src=""img/test3-neutral.PNG"" border=""10px; grey"">","null","","","","","","",""
"null","","html-keyboard-response","37","131051","0.0-2.0-2.11","","<div style=""font-size:60px;"">+</div>","null","","","","","","",""
"2885.439999983646","","instructions","38","133937","0.0-3.0","[{""page_index"":0,""viewing_time"":2885.3050000034273}]","","","","","","","","",""
"1342.7150000352412","","image-keyboard-response","39","135281","0.0-4.0-0.0","","img/blue.png","32","trial","32","true","0.8,0.2","1:go_a","",""
"null","","html-keyboard-response","40","136284","0.0-4.0-1.0","","<img src=""img/blue-r.png"" border=""10"">","null","trial","32","","0.8,0.2","1:go_a","1",""
"null","","html-keyboard-response","41","137285","0.0-4.0-2.0","","<div style=""font-size:60px;"">+</div>","null","","","","","","",""
"392.66499993391335","","image-keyboard-response","42","137679","0.0-4.0-0.1","","img/green.png","32","trial","null","false","0.2,0.8","2:nogo_b","",""
"null","","html-keyboard-response","43","138681","0.0-4.0-1.1","","<img src=""img/green-n.png"" border=""10"">","null","trial","null","","0.2,0.8","2:nogo_b","0",""
"null","","html-keyboard-response","44","139683","0.0-4.0-2.1","","<div style=""font-size:60px;"">+</div>","null","","","","","","",""
"383.2049999618903","","image-keyboard-response","45","140066","0.0-4.0-0.2","","img/blue.png","32","trial","32","true","0.8,0.2","1:go_a","",""
"null","","html-keyboard-response","46","141068","0.0-4.0-1.2","","<img src=""img/blue-r.png"" border=""10"">","null","trial","32","","0.8,0.2","1:go_a","1",""
"null","","html-keyboard-response","47","142070","0.0-4.0-2.2","","<div style=""font-size:60px;"">+</div>","null","","","","","","",""
"null","","image-keyboard-response","48","143572","0.0-4.0-0.3","","img/green.png","null","trial","null","true","0.2,0.8","2:nogo_b","",""
"null","","html-keyboard-response","49","144573","0.0-4.0-1.3","","<img src=""img/green-n.png"">","null","trial","null","","0.2,0.8","2:nogo_b","0",""
"null","","html-keyboard-response","50","145576","0.0-4.0-2.3","","<div style=""font-size:60px;"">+</div>","null","","","","","","",""
"553.055000025779","","image-keyboard-response","51","146130","0.0-4.0-0.4","","img/blue.png","32","trial","32","true","0.8,0.2","1:go_a","",""
"null","","html-keyboard-response","52","147132","0.0-4.0-1.4","","<img src=""img/blue-r.png"" border=""10"">","null","trial","32","","0.8,0.2","1:go_a","1",""
"null","","html-keyboard-response","53","148134","0.0-4.0-2.4","","<div style=""font-size:60px;"">+</div>","null","","","","","","",""
"null","","image-keyboard-response","54","149636","0.0-4.0-0.5","","img/green.png","null","trial","null","true","0.2,0.8","2:nogo_b","",""
"null","","html-keyboard-response","55","150639","0.0-4.0-1.5","","<img src=""img/green-r.png"">","null","trial","null","","0.2,0.8","2:nogo_b","1",""
"null","","html-keyboard-response","56","151640","0.0-4.0-2.5","","<div style=""font-size:60px;"">+</div>","null","","","","","","",""
"741.814999957569","","image-keyboard-response","57","152382","0.0-4.0-0.6","","img/green.png","32","trial","null","false","0.2,0.8","2:nogo_b","",""
"null","","html-keyboard-response","58","153385","0.0-4.0-1.6","","<img src=""img/green-n.png"" border=""10"">","null","trial","null","","0.2,0.8","2:nogo_b","0",""
"null","","html-keyboard-response","59","154387","0.0-4.0-2.6","","<div style=""font-size:60px;"">+</div>","null","","","","","","",""
"402.1049999864772","","image-keyboard-response","60","154790","0.0-4.0-0.7","","img/blue.png","32","trial","32","true","0.8,0.2","1:go_a","",""
"null","","html-keyboard-response","61","155794","0.0-4.0-1.7","","<img src=""img/blue-r.png"" border=""10"">","null","trial","32","","0.8,0.2","1:go_a","1",""
"null","","html-keyboard-response","62","156795","0.0-4.0-2.7","","<div style=""font-size:60px;"">+</div>","null","","","","","","",""
"668.1999999564141","","image-keyboard-response","63","157464","0.0-4.0-0.8","","img/blue.png","32","trial","32","true","0.8,0.2","1:go_a","",""
"null","","html-keyboard-response","64","158466","0.0-4.0-1.8","","<img src=""img/blue-r.png"" border=""10"">","null","trial","32","","0.8,0.2","1:go_a","1",""
"null","","html-keyboard-response","65","159468","0.0-4.0-2.8","","<div style=""font-size:60px;"">+</div>","null","","","","","","",""
"null","","image-keyboard-response","66","160971","0.0-4.0-0.9","","img/green.png","null","trial","null","true","0.2,0.8","2:nogo_b","",""
"null","","html-keyboard-response","67","161972","0.0-4.0-1.9","","<img src=""img/green-r.png"">","null","trial","null","","0.2,0.8","2:nogo_b","1",""
"null","","html-keyboard-response","68","162974","0.0-4.0-2.9","","<div style=""font-size:60px;"">+</div>","null","","","","","","",""
"437.2900000307709","","image-keyboard-response","69","163411","0.0-4.0-0.10","","img/green.png","32","trial","null","false","0.2,0.8","2:nogo_b","",""
"null","","html-keyboard-response","70","164416","0.0-4.0-1.10","","<img src=""img/green-n.png"" border=""10"">","null","trial","null","","0.2,0.8","2:nogo_b","0",""
"null","","html-keyboard-response","71","165418","0.0-4.0-2.10","","<div style=""font-size:60px;"">+</div>","null","","","","","","",""
"414.8800000548363","","image-keyboard-response","72","165834","0.0-4.0-0.11","","img/blue.png","32","trial","32","true","0.8,0.2","1:go_a","",""
"null","","html-keyboard-response","73","166837","0.0-4.0-1.11","","<img src=""img/blue-r.png"" border=""10"">","null","trial","32","","0.8,0.2","1:go_a","1",""
"null","","html-keyboard-response","74","167839","0.0-4.0-2.11","","<div style=""font-size:60px;"">+</div>","null","","","","","","",""
"402.0800000289455","","image-keyboard-response","75","168242","0.0-4.0-0.12","","img/green.png","32","trial","null","false","0.2,0.8","2:nogo_b","",""
"null","","html-keyboard-response","76","169244","0.0-4.0-1.12","","<img src=""img/green-n.png"" border=""10"">","null","trial","null","","0.2,0.8","2:nogo_b","0",""
"null","","html-keyboard-response","77","170245","0.0-4.0-2.12","","<div style=""font-size:60px;"">+</div>","null","","","","","","",""
"404.05000001192093","","image-keyboard-response","78","170650","0.0-4.0-0.13","","img/blue.png","32","trial","32","true","0.8,0.2","1:go_a","",""
"null","","html-keyboard-response","79","171652","0.0-4.0-1.13","","<img src=""img/blue-r.png"" border=""10"">","null","trial","32","","0.8,0.2","1:go_a","1",""
"null","","html-keyboard-response","80","172654","0.0-4.0-2.13","","<div style=""font-size:60px;"">+</div>","null","","","","","","",""
"598.7550000427291","","image-keyboard-response","81","173253","0.0-4.0-0.14","","img/blue.png","32","trial","32","true","0.8,0.2","1:go_a","",""
"null","","html-keyboard-response","82","174256","0.0-4.0-1.14","","<img src=""img/blue-r.png"" border=""10"">","null","trial","32","","0.8,0.2","1:go_a","1",""
"null","","html-keyboard-response","83","175258","0.0-4.0-2.14","","<div style=""font-size:60px;"">+</div>","null","","","","","","",""
"366.07999994885176","","image-keyboard-response","84","175625","0.0-4.0-0.15","","img/green.png","32","trial","null","false","0.2,0.8","2:nogo_b","",""
"null","","html-keyboard-response","85","176626","0.0-4.0-1.15","","<img src=""img/green-n.png"" border=""10"">","null","trial","null","","0.2,0.8","2:nogo_b","0",""
"null","","html-keyboard-response","86","177628","0.0-4.0-2.15","","<div style=""font-size:60px;"">+</div>","null","","","","","","",""
"299.5200000004843","","image-keyboard-response","87","177929","0.0-4.0-0.16","","img/blue.png","32","trial","32","true","0.8,0.2","1:go_a","",""
"null","","html-keyboard-response","88","178932","0.0-4.0-1.16","","<img src=""img/blue-r.png"" border=""10"">","null","trial","32","","0.8,0.2","1:go_a","1",""
"null","","html-keyboard-response","89","179934","0.0-4.0-2.16","","<div style=""font-size:60px;"">+</div>","null","","","","","","",""
"null","","image-keyboard-response","90","181436","0.0-4.0-0.17","","img/green.png","null","trial","null","true","0.2,0.8","2:nogo_b","",""
"null","","html-keyboard-response","91","182438","0.0-4.0-1.17","","<img src=""img/green-r.png"">","null","trial","null","","0.2,0.8","2:nogo_b","1",""
"null","","html-keyboard-response","92","183440","0.0-4.0-2.17","","<div style=""font-size:60px;"">+</div>","null","","","","","","",""
"354.93999999016523","","image-keyboard-response","93","183796","0.0-4.0-0.18","","img/green.png","32","trial","null","false","0.2,0.8","2:nogo_b","",""
"null","","html-keyboard-response","94","184811","0.0-4.0-1.18","","<img src=""img/green-n.png"" border=""10"">","null","trial","null","","0.2,0.8","2:nogo_b","0",""
"null","","html-keyboard-response","95","185813","0.0-4.0-2.18","","<div style=""font-size:60px;"">+</div>","null","","","","","","",""
"420.20499997306615","","image-keyboard-response","96","186234","0.0-4.0-0.19","","img/blue.png","32","trial","32","true","0.8,0.2","1:go_a","",""
"null","","html-keyboard-response","97","187239","0.0-4.0-1.19","","<img src=""img/blue-r.png"" border=""10"">","null","trial","32","","0.8,0.2","1:go_a","1",""
"null","","html-keyboard-response","98","188241","0.0-4.0-2.19","","<div style=""font-size:60px;"">+</div>","null","","","","","","",""
"509.60999995004386","","image-keyboard-response","99","188752","0.0-4.0-0.20","","img/blue.png","32","trial","32","true","0.8,0.2","1:go_a","",""
"null","","html-keyboard-response","100","189756","0.0-4.0-1.20","","<img src=""img/blue-r.png"" border=""10"">","null","trial","32","","0.8,0.2","1:go_a","1",""
"null","","html-keyboard-response","101","190757","0.0-4.0-2.20","","<div style=""font-size:60px;"">+</div>","null","","","","","","",""
"null","","image-keyboard-response","102","192259","0.0-4.0-0.21","","img/green.png","null","trial","null","true","0.2,0.8","2:nogo_b","",""
"null","","html-keyboard-response","103","193261","0.0-4.0-1.21","","<img src=""img/green-r.png"">","null","trial","null","","0.2,0.8","2:nogo_b","1",""
"null","","html-keyboard-response","104","194262","0.0-4.0-2.21","","<div style=""font-size:60px;"">+</div>","null","","","","","","",""
"380.6450000265613","","image-keyboard-response","105","194644","0.0-4.0-0.22","","img/blue.png","32","trial","32","true","0.8,0.2","1:go_a","",""
"null","","html-keyboard-response","106","195646","0.0-4.0-1.22","","<img src=""img/blue-r.png"" border=""10"">","null","trial","32","","0.8,0.2","1:go_a","1",""
"null","","html-keyboard-response","107","196661","0.0-4.0-2.22","","<div style=""font-size:60px;"">+</div>","null","","","","","","",""
"null","","image-keyboard-response","108","198175","0.0-4.0-0.23","","img/green.png","null","trial","null","true","0.2,0.8","2:nogo_b","",""
"null","","html-keyboard-response","109","199177","0.0-4.0-1.23","","<img src=""img/green-r.png"">","null","trial","null","","0.2,0.8","2:nogo_b","1",""
"null","","html-keyboard-response","110","200179","0.0-4.0-2.23","","<div style=""font-size:60px;"">+</div>","null","","","","","","",""
"370.2049999265","","image-keyboard-response","111","200551","0.0-4.0-0.24","","img/green.png","32","trial","null","false","0.2,0.8","2:nogo_b","",""
"null","","html-keyboard-response","112","201554","0.0-4.0-1.24","","<img src=""img/green-r.png"" border=""10"">","null","trial","null","","0.2,0.8","2:nogo_b","1",""
"null","","html-keyboard-response","113","202555","0.0-4.0-2.24","","<div style=""font-size:60px;"">+</div>","null","","","","","","",""
"378.41999996453524","","image-keyboard-response","114","202934","0.0-4.0-0.25","","img/blue.png","32","trial","32","true","0.8,0.2","1:go_a","",""
"null","","html-keyboard-response","115","203937","0.0-4.0-1.25","","<img src=""img/blue-r.png"" border=""10"">","null","trial","32","","0.8,0.2","1:go_a","1",""
"null","","html-keyboard-response","116","204940","0.0-4.0-2.25","","<div style=""font-size:60px;"">+</div>","null","","","","","","",""
"506.6499999957159","","image-keyboard-response","117","205447","0.0-4.0-0.26","","img/blue.png","32","trial","32","true","0.8,0.2","1:go_a","",""
"null","","html-keyboard-response","118","206449","0.0-4.0-1.26","","<img src=""img/blue-n.png"" border=""10"">","null","trial","32","","0.8,0.2","1:go_a","0",""
"null","","html-keyboard-response","119","207450","0.0-4.0-2.26","","<div style=""font-size:60px;"">+</div>","null","","","","","","",""
"429.2099999729544","","image-keyboard-response","120","207880","0.0-4.0-0.27","","img/green.png","32","trial","null","false","0.2,0.8","2:nogo_b","",""
"null","","html-keyboard-response","121","208883","0.0-4.0-1.27","","<img src=""img/green-r.png"" border=""10"">","null","trial","null","","0.2,0.8","2:nogo_b","1",""
"null","","html-keyboard-response","122","209885","0.0-4.0-2.27","","<div style=""font-size:60px;"">+</div>","null","","","","","","",""
"443.06499999947846","","image-keyboard-response","123","210329","0.0-4.0-0.28","","img/blue.png","32","trial","32","true","0.8,0.2","1:go_a","",""
"null","","html-keyboard-response","124","211331","0.0-4.0-1.28","","<img src=""img/blue-n.png"" border=""10"">","null","trial","32","","0.8,0.2","1:go_a","0",""
"null","","html-keyboard-response","125","212332","0.0-4.0-2.28","","<div style=""font-size:60px;"">+</div>","null","","","","","","",""
"402.8999999864027","","image-keyboard-response","126","212736","0.0-4.0-0.29","","img/green.png","32","trial","null","false","0.2,0.8","2:nogo_b","",""
"null","","html-keyboard-response","127","213739","0.0-4.0-1.29","","<img src=""img/green-n.png"" border=""10"">","null","trial","null","","0.2,0.8","2:nogo_b","0",""
"null","","html-keyboard-response","128","214741","0.0-4.0-2.29","","<div style=""font-size:60px;"">+</div>","null","","","","","","",""
"683.0599999520928","","image-keyboard-response","129","215425","0.0-4.0-0.30","","img/green.png","32","trial","null","false","0.2,0.8","2:nogo_b","",""
"null","","html-keyboard-response","130","216427","0.0-4.0-1.30","","<img src=""img/green-n.png"" border=""10"">","null","trial","null","","0.2,0.8","2:nogo_b","0",""
"null","","html-keyboard-response","131","217429","0.0-4.0-2.30","","<div style=""font-size:60px;"">+</div>","null","","","","","","",""
"417.0249999733642","","image-keyboard-response","132","217847","0.0-4.0-0.31","","img/blue.png","32","trial","32","true","0.8,0.2","1:go_a","",""
"null","","html-keyboard-response","133","218850","0.0-4.0-1.31","","<img src=""img/blue-r.png"" border=""10"">","null","trial","32","","0.8,0.2","1:go_a","1",""
"null","","html-keyboard-response","134","219851","0.0-4.0-2.31","","<div style=""font-size:60px;"">+</div>","null","","","","","","",""
"559.6200000727549","","image-keyboard-response","135","220411","0.0-4.0-0.32","","img/blue.png","32","trial","32","true","0.8,0.2","1:go_a","",""
"null","","html-keyboard-response","136","221413","0.0-4.0-1.32","","<img src=""img/blue-r.png"" border=""10"">","null","trial","32","","0.8,0.2","1:go_a","1",""
"null","","html-keyboard-response","137","222415","0.0-4.0-2.32","","<div style=""font-size:60px;"">+</div>","null","","","","","","",""
"395.43499995488673","","image-keyboard-response","138","222811","0.0-4.0-0.33","","img/green.png","32","trial","null","false","0.2,0.8","2:nogo_b","",""
"null","","html-keyboard-response","139","223813","0.0-4.0-1.33","","<img src=""img/green-r.png"" border=""10"">","null","trial","null","","0.2,0.8","2:nogo_b","1",""
"null","","html-keyboard-response","140","224814","0.0-4.0-2.33","","<div style=""font-size:60px;"">+</div>","null","","","","","","",""
"null","","image-keyboard-response","141","226317","0.0-4.0-0.34","","img/green.png","null","trial","null","true","0.2,0.8","2:nogo_b","",""
"null","","html-keyboard-response","142","227319","0.0-4.0-1.34","","<img src=""img/green-n.png"">","null","trial","null","","0.2,0.8","2:nogo_b","0",""
"null","","html-keyboard-response","143","228321","0.0-4.0-2.34","","<div style=""font-size:60px;"">+</div>","null","","","","","","",""
"408.6100000422448","","image-keyboard-response","144","228731","0.0-4.0-0.35","","img/blue.png","32","trial","32","true","0.8,0.2","1:go_a","",""
"null","","html-keyboard-response","145","229734","0.0-4.0-1.35","","<img src=""img/blue-r.png"" border=""10"">","null","trial","32","","0.8,0.2","1:go_a","1",""
"null","","html-keyboard-response","146","230736","0.0-4.0-2.35","","<div style=""font-size:60px;"">+</div>","null","","","","","","",""
"596.2199999485165","","image-keyboard-response","147","231333","0.0-4.0-0.36","","img/blue.png","32","trial","32","true","0.8,0.2","1:go_a","",""
"null","","html-keyboard-response","148","232336","0.0-4.0-1.36","","<img src=""img/blue-r.png"" border=""10"">","null","trial","32","","0.8,0.2","1:go_a","1",""
"null","","html-keyboard-response","149","233337","0.0-4.0-2.36","","<div style=""font-size:60px;"">+</div>","null","","","","","","",""
"null","","image-keyboard-response","150","234839","0.0-4.0-0.37","","img/green.png","null","trial","null","true","0.2,0.8","2:nogo_b","",""
"null","","html-keyboard-response","151","235841","0.0-4.0-1.37","","<img src=""img/green-r.png"">","null","trial","null","","0.2,0.8","2:nogo_b","1",""
"null","","html-keyboard-response","152","236847","0.0-4.0-2.37","","<div style=""font-size:60px;"">+</div>","null","","","","","","",""
"372.8300000075251","","image-keyboard-response","153","237221","0.0-4.0-0.38","","img/blue.png","32","trial","32","true","0.8,0.2","1:go_a","",""
"null","","html-keyboard-response","154","238224","0.0-4.0-1.38","","<img src=""img/blue-r.png"" border=""10"">","null","trial","32","","0.8,0.2","1:go_a","1",""
"null","","html-keyboard-response","155","239227","0.0-4.0-2.38","","<div style=""font-size:60px;"">+</div>","null","","","","","","",""
"null","","image-keyboard-response","156","240740","0.0-4.0-0.39","","img/green.png","null","trial","null","true","0.2,0.8","2:nogo_b","",""
"null","","html-keyboard-response","157","241744","0.0-4.0-1.39","","<img src=""img/green-r.png"">","null","trial","null","","0.2,0.8","2:nogo_b","1",""
"null","","html-keyboard-response","158","242746","0.0-4.0-2.39","","<div style=""font-size:60px;"">+</div>","null","","","","","","",""
"496.44499993883073","","image-keyboard-response","159","243243","0.0-4.0-0.40","","img/green.png","32","trial","null","false","0.2,0.8","2:nogo_b","",""
"null","","html-keyboard-response","160","244245","0.0-4.0-1.40","","<img src=""img/green-n.png"" border=""10"">","null","trial","null","","0.2,0.8","2:nogo_b","0",""
"null","","html-keyboard-response","161","245246","0.0-4.0-2.40","","<div style=""font-size:60px;"">+</div>","null","","","","","","",""
"294.65000005438924","","image-keyboard-response","162","245541","0.0-4.0-0.41","","img/blue.png","32","trial","32","true","0.8,0.2","1:go_a","",""
"null","","html-keyboard-response","163","246543","0.0-4.0-1.41","","<img src=""img/blue-r.png"" border=""10"">","null","trial","32","","0.8,0.2","1:go_a","1",""
"null","","html-keyboard-response","164","247545","0.0-4.0-2.41","","<div style=""font-size:60px;"">+</div>","null","","","","","","",""
"469.07999995164573","","image-keyboard-response","165","248014","0.0-4.0-0.42","","img/blue.png","32","trial","32","true","0.8,0.2","1:go_a","",""
"null","","html-keyboard-response","166","249016","0.0-4.0-1.42","","<img src=""img/blue-r.png"" border=""10"">","null","trial","32","","0.8,0.2","1:go_a","1",""
"null","","html-keyboard-response","167","250018","0.0-4.0-2.42","","<div style=""font-size:60px;"">+</div>","null","","","","","","",""
"386.6900000721216","","image-keyboard-response","168","250406","0.0-4.0-0.43","","img/green.png","32","trial","null","false","0.2,0.8","2:nogo_b","",""
"null","","html-keyboard-response","169","251408","0.0-4.0-1.43","","<img src=""img/green-r.png"" border=""10"">","null","trial","null","","0.2,0.8","2:nogo_b","1",""
"null","","html-keyboard-response","170","252410","0.0-4.0-2.43","","<div style=""font-size:60px;"">+</div>","null","","","","","","",""
"338.54500006418675","","image-keyboard-response","171","252749","0.0-4.0-0.44","","img/green.png","32","trial","null","false","0.2,0.8","2:nogo_b","",""
"null","","html-keyboard-response","172","253752","0.0-4.0-1.44","","<img src=""img/green-n.png"" border=""10"">","null","trial","null","","0.2,0.8","2:nogo_b","0",""
"null","","html-keyboard-response","173","254753","0.0-4.0-2.44","","<div style=""font-size:60px;"">+</div>","null","","","","","","",""
"423.8400000613183","","image-keyboard-response","174","255177","0.0-4.0-0.45","","img/blue.png","32","trial","32","true","0.8,0.2","1:go_a","",""
"null","","html-keyboard-response","175","256180","0.0-4.0-1.45","","<img src=""img/blue-n.png"" border=""10"">","null","trial","32","","0.8,0.2","1:go_a","0",""
"null","","html-keyboard-response","176","257181","0.0-4.0-2.45","","<div style=""font-size:60px;"">+</div>","null","","","","","","",""
"609.1449999948964","","image-keyboard-response","177","257791","0.0-4.0-0.46","","img/blue.png","32","trial","32","true","0.8,0.2","1:go_a","",""
"null","","html-keyboard-response","178","258794","0.0-4.0-1.46","","<img src=""img/blue-r.png"" border=""10"">","null","trial","32","","0.8,0.2","1:go_a","1",""
"null","","html-keyboard-response","179","259795","0.0-4.0-2.46","","<div style=""font-size:60px;"">+</div>","null","","","","","","",""
"null","","image-keyboard-response","180","261297","0.0-4.0-0.47","","img/green.png","null","trial","null","true","0.2,0.8","2:nogo_b","",""
"null","","html-keyboard-response","181","262298","0.0-4.0-1.47","","<img src=""img/green-r.png"">","null","trial","null","","0.2,0.8","2:nogo_b","1",""
"null","","html-keyboard-response","182","263307","0.0-4.0-2.47","","<div style=""font-size:60px;"">+</div>","null","","","","","","",""
"335.40500001981854","","image-keyboard-response","183","263643","0.0-4.0-0.48","","img/blue.png","32","trial","32","true","0.8,0.2","1:go_a","",""
"null","","html-keyboard-response","184","264645","0.0-4.0-1.48","","<img src=""img/blue-r.png"" border=""10"">","null","trial","32","","0.8,0.2","1:go_a","1",""
"null","","html-keyboard-response","185","265647","0.0-4.0-2.48","","<div style=""font-size:60px;"">+</div>","null","","","","","","",""
"null","","image-keyboard-response","186","267149","0.0-4.0-0.49","","img/green.png","null","trial","null","true","0.2,0.8","2:nogo_b","",""
"null","","html-keyboard-response","187","268152","0.0-4.0-1.49","","<img src=""img/green-r.png"">","null","trial","null","","0.2,0.8","2:nogo_b","1",""
"null","","html-keyboard-response","188","269153","0.0-4.0-2.49","","<div style=""font-size:60px;"">+</div>","null","","","","","","",""
"530.3099999437109","","image-keyboard-response","189","269685","0.0-4.0-0.50","","img/green.png","32","trial","null","false","0.2,0.8","2:nogo_b","",""
"null","","html-keyboard-response","190","270687","0.0-4.0-1.50","","<img src=""img/green-n.png"" border=""10"">","null","trial","null","","0.2,0.8","2:nogo_b","0",""
"null","","html-keyboard-response","191","271689","0.0-4.0-2.50","","<div style=""font-size:60px;"">+</div>","null","","","","","","",""
"333.21000006981194","","image-keyboard-response","192","272023","0.0-4.0-0.51","","img/blue.png","32","trial","32","true","0.8,0.2","1:go_a","",""
"null","","html-keyboard-response","193","273025","0.0-4.0-1.51","","<img src=""img/blue-r.png"" border=""10"">","null","trial","32","","0.8,0.2","1:go_a","1",""
"null","","html-keyboard-response","194","274027","0.0-4.0-2.51","","<div style=""font-size:60px;"">+</div>","null","","","","","","",""
"532.7850000467151","","image-keyboard-response","195","274561","0.0-4.0-0.52","","img/blue.png","32","trial","32","true","0.8,0.2","1:go_a","",""
"null","","html-keyboard-response","196","275563","0.0-4.0-1.52","","<img src=""img/blue-r.png"" border=""10"">","null","trial","32","","0.8,0.2","1:go_a","1",""
"null","","html-keyboard-response","197","276564","0.0-4.0-2.52","","<div style=""font-size:60px;"">+</div>","null","","","","","","",""
"483.1949999788776","","image-keyboard-response","198","277049","0.0-4.0-0.53","","img/green.png","32","trial","null","false","0.2,0.8","2:nogo_b","",""
"null","","html-keyboard-response","199","278051","0.0-4.0-1.53","","<img src=""img/green-n.png"" border=""10"">","null","trial","null","","0.2,0.8","2:nogo_b","0",""
"null","","html-keyboard-response","200","279052","0.0-4.0-2.53","","<div style=""font-size:60px;"">+</div>","null","","","","","","",""
"333.11000000685453","","image-keyboard-response","201","279387","0.0-4.0-0.54","","img/blue.png","32","trial","32","true","0.8,0.2","1:go_a","",""
"null","","html-keyboard-response","202","280389","0.0-4.0-1.54","","<img src=""img/blue-r.png"" border=""10"">","null","trial","32","","0.8,0.2","1:go_a","1",""
"null","","html-keyboard-response","203","281391","0.0-4.0-2.54","","<div style=""font-size:60px;"">+</div>","null","","","","","","",""
"null","","image-keyboard-response","204","282893","0.0-4.0-0.55","","img/green.png","null","trial","null","true","0.2,0.8","2:nogo_b","",""
"null","","html-keyboard-response","205","283895","0.0-4.0-1.55","","<img src=""img/green-r.png"">","null","trial","null","","0.2,0.8","2:nogo_b","1",""
"null","","html-keyboard-response","206","284896","0.0-4.0-2.55","","<div style=""font-size:60px;"">+</div>","null","","","","","","",""
"526.1650000466034","","image-keyboard-response","207","285424","0.0-4.0-0.56","","img/green.png","32","trial","null","false","0.2,0.8","2:nogo_b","",""
"null","","html-keyboard-response","208","286425","0.0-4.0-1.56","","<img src=""img/green-n.png"" border=""10"">","null","trial","null","","0.2,0.8","2:nogo_b","0",""
"null","","html-keyboard-response","209","287426","0.0-4.0-2.56","","<div style=""font-size:60px;"">+</div>","null","","","","","","",""
"324.35499993152916","","image-keyboard-response","210","287751","0.0-4.0-0.57","","img/blue.png","32","trial","32","true","0.8,0.2","1:go_a","",""
"null","","html-keyboard-response","211","288754","0.0-4.0-1.57","","<img src=""img/blue-r.png"" border=""10"">","null","trial","32","","0.8,0.2","1:go_a","1",""
"null","","html-keyboard-response","212","289756","0.0-4.0-2.57","","<div style=""font-size:60px;"">+</div>","null","","","","","","",""
"487.5400000018999","","image-keyboard-response","213","290244","0.0-4.0-0.58","","img/blue.png","32","trial","32","true","0.8,0.2","1:go_a","",""
"null","","html-keyboard-response","214","291247","0.0-4.0-1.58","","<img src=""img/blue-r.png"" border=""10"">","null","trial","32","","0.8,0.2","1:go_a","1",""
"null","","html-keyboard-response","215","292248","0.0-4.0-2.58","","<div style=""font-size:60px;"">+</div>","null","","","","","","",""
"null","","image-keyboard-response","216","293750","0.0-4.0-0.59","","img/green.png","null","trial","null","true","0.2,0.8","2:nogo_b","",""
"null","","html-keyboard-response","217","294751","0.0-4.0-1.59","","<img src=""img/green-r.png"">","null","trial","null","","0.2,0.8","2:nogo_b","1",""
"null","","html-keyboard-response","218","295752","0.0-4.0-2.59","","<div style=""font-size:60px;"">+</div>","null","","","","","","",""
"2838.1899999221787","","instructions","219","298590","0.0-5.0","[{""page_index"":0,""viewing_time"":2837.9499999573454}]","","","","","","","","",""
"1323.9799999864772","","image-keyboard-response","220","299916","0.0-6.0-0.0","","img/red.png","32","trial","null","false","0.2,0.8","2:nogo_b","",""
"null","","html-keyboard-response","221","300919","0.0-6.0-1.0","","<img src=""img/red-n.png"" border=""10"">","null","trial","null","","0.2,0.8","2:nogo_b","0",""
"null","","html-keyboard-response","222","301919","0.0-6.0-2.0","","<div style=""font-size:60px;"">+</div>","null","","","","","","",""
"433.73499996960163","","image-keyboard-response","223","302354","0.0-6.0-0.1","","img/green.png","32","trial","null","false","0,1","4:nogo_d","",""
"null","","html-keyboard-response","224","303356","0.0-6.0-1.1","","<img src=""img/green-n.png"" border=""10"">","null","trial","null","","0,1","4:nogo_d","0",""
"null","","html-keyboard-response","225","304358","0.0-6.0-2.1","","<div style=""font-size:60px;"">+</div>","null","","","","","","",""
"694.069999968633","","image-keyboard-response","226","305053","0.0-6.0-0.2","","img/blue.png","32","trial","32","true","1,0","3:go_c","",""
"null","","html-keyboard-response","227","306066","0.0-6.0-1.2","","<img src=""img/blue-r.png"" border=""10"">","null","trial","32","","1,0","3:go_c","1",""
"null","","html-keyboard-response","228","307068","0.0-6.0-2.2","","<div style=""font-size:60px;"">+</div>","null","","","","","","",""
"861.1999999266118","","image-keyboard-response","229","307931","0.0-6.0-0.3","","img/grey.png","32","trial","32","true","0.8,0.2","1:go_a","",""
"null","","html-keyboard-response","230","308933","0.0-6.0-1.3","","<img src=""img/grey-r.png"" border=""10"">","null","trial","32","","0.8,0.2","1:go_a","1",""
"null","","html-keyboard-response","231","309935","0.0-6.0-2.3","","<div style=""font-size:60px;"">+</div>","null","","","","","","",""
"707.9849999863654","","image-keyboard-response","232","310644","0.0-6.0-0.4","","img/green.png","32","trial","null","false","0,1","4:nogo_d","",""
"null","","html-keyboard-response","233","311647","0.0-6.0-1.4","","<img src=""img/green-n.png"" border=""10"">","null","trial","null","","0,1","4:nogo_d","0",""
"null","","html-keyboard-response","234","312650","0.0-6.0-2.4","","<div style=""font-size:60px;"">+</div>","null","","","","","","",""
"732.079999987036","","image-keyboard-response","235","313383","0.0-6.0-0.5","","img/grey.png","32","trial","32","true","0.8,0.2","1:go_a","",""
"null","","html-keyboard-response","236","314384","0.0-6.0-1.5","","<img src=""img/grey-n.png"" border=""10"">","null","trial","32","","0.8,0.2","1:go_a","0",""
"null","","html-keyboard-response","237","315386","0.0-6.0-2.5","","<div style=""font-size:60px;"">+</div>","null","","","","","","",""
"568.1849999818951","","image-keyboard-response","238","315956","0.0-6.0-0.6","","img/blue.png","32","trial","32","true","1,0","3:go_c","",""
"null","","html-keyboard-response","239","316958","0.0-6.0-1.6","","<img src=""img/blue-r.png"" border=""10"">","null","trial","32","","1,0","3:go_c","1",""
"null","","html-keyboard-response","240","317959","0.0-6.0-2.6","","<div style=""font-size:60px;"">+</div>","null","","","","","","",""
"653.9900000207126","","image-keyboard-response","241","318614","0.0-6.0-0.7","","img/red.png","32","trial","null","false","0.2,0.8","2:nogo_b","",""
"null","","html-keyboard-response","242","319616","0.0-6.0-1.7","","<img src=""img/red-n.png"" border=""10"">","null","trial","null","","0.2,0.8","2:nogo_b","0",""
"null","","html-keyboard-response","243","320618","0.0-6.0-2.7","","<div style=""font-size:60px;"">+</div>","null","","","","","","",""
"413.0599999334663","","image-keyboard-response","244","321032","0.0-6.0-0.8","","img/grey.png","32","trial","32","true","0.8,0.2","1:go_a","",""
"null","","html-keyboard-response","245","322035","0.0-6.0-1.8","","<img src=""img/grey-r.png"" border=""10"">","null","trial","32","","0.8,0.2","1:go_a","1",""
"null","","html-keyboard-response","246","323037","0.0-6.0-2.8","","<div style=""font-size:60px;"">+</div>","null","","","","","","",""
"706.789999967441","","image-keyboard-response","247","323745","0.0-6.0-0.9","","img/blue.png","32","trial","32","true","1,0","3:go_c","",""
"null","","html-keyboard-response","248","324748","0.0-6.0-1.9","","<img src=""img/blue-r.png"" border=""10"">","null","trial","32","","1,0","3:go_c","1",""
"null","","html-keyboard-response","249","325749","0.0-6.0-2.9","","<div style=""font-size:60px;"">+</div>","null","","","","","","",""
"null","","image-keyboard-response","250","327252","0.0-6.0-0.10","","img/green.png","null","trial","null","true","0,1","4:nogo_d","",""
"null","","html-keyboard-response","251","328254","0.0-6.0-1.10","","<img src=""img/green-r.png"">","null","trial","null","","0,1","4:nogo_d","1",""
"null","","html-keyboard-response","252","329256","0.0-6.0-2.10","","<div style=""font-size:60px;"">+</div>","null","","","","","","",""
"null","","image-keyboard-response","253","330759","0.0-6.0-0.11","","img/red.png","null","trial","null","true","0.2,0.8","2:nogo_b","",""
"null","","html-keyboard-response","254","331761","0.0-6.0-1.11","","<img src=""img/red-r.png"">","null","trial","null","","0.2,0.8","2:nogo_b","1",""
"null","","html-keyboard-response","255","332763","0.0-6.0-2.11","","<div style=""font-size:60px;"">+</div>","null","","","","","","",""
"563.1249999860302","","image-keyboard-response","256","333326","0.0-6.0-0.12","","img/green.png","32","trial","null","false","0,1","4:nogo_d","",""
"null","","html-keyboard-response","257","334328","0.0-6.0-1.12","","<img src=""img/green-n.png"" border=""10"">","null","trial","null","","0,1","4:nogo_d","0",""
"null","","html-keyboard-response","258","335330","0.0-6.0-2.12","","<div style=""font-size:60px;"">+</div>","null","","","","","","",""
"467.7600000286475","","image-keyboard-response","259","335799","0.0-6.0-0.13","","img/blue.png","32","trial","32","true","1,0","3:go_c","",""
"null","","html-keyboard-response","260","336800","0.0-6.0-1.13","","<img src=""img/blue-r.png"" border=""10"">","null","trial","32","","1,0","3:go_c","1",""
"null","","html-keyboard-response","261","337803","0.0-6.0-2.13","","<div style=""font-size:60px;"">+</div>","null","","","","","","",""
"null","","image-keyboard-response","262","339304","0.0-6.0-0.14","","img/red.png","null","trial","null","true","0.2,0.8","2:nogo_b","",""
"null","","html-keyboard-response","263","340307","0.0-6.0-1.14","","<img src=""img/red-r.png"">","null","trial","null","","0.2,0.8","2:nogo_b","1",""
"null","","html-keyboard-response","264","341308","0.0-6.0-2.14","","<div style=""font-size:60px;"">+</div>","null","","","","","","",""
"701.7699999269098","","image-keyboard-response","265","342011","0.0-6.0-0.15","","img/grey.png","32","trial","32","true","0.8,0.2","1:go_a","",""
"null","","html-keyboard-response","266","343013","0.0-6.0-1.15","","<img src=""img/grey-r.png"" border=""10"">","null","trial","32","","0.8,0.2","1:go_a","1",""
"null","","html-keyboard-response","267","344015","0.0-6.0-2.15","","<div style=""font-size:60px;"">+</div>","null","","","","","","",""
"568.4249999467283","","image-keyboard-response","268","344584","0.0-6.0-0.16","","img/blue.png","32","trial","32","true","1,0","3:go_c","",""
"null","","html-keyboard-response","269","345585","0.0-6.0-1.16","","<img src=""img/blue-r.png"" border=""10"">","null","trial","32","","1,0","3:go_c","1",""
"null","","html-keyboard-response","270","346587","0.0-6.0-2.16","","<div style=""font-size:60px;"">+</div>","null","","","","","","",""
"469.660000060685","","image-keyboard-response","271","347057","0.0-6.0-0.17","","img/red.png","32","trial","null","false","0.2,0.8","2:nogo_b","",""
"null","","html-keyboard-response","272","348059","0.0-6.0-1.17","","<img src=""img/red-n.png"" border=""10"">","null","trial","null","","0.2,0.8","2:nogo_b","0",""
"null","","html-keyboard-response","273","349068","0.0-6.0-2.17","","<div style=""font-size:60px;"">+</div>","null","","","","","","",""
"515.929999994114","","image-keyboard-response","274","349585","0.0-6.0-0.18","","img/grey.png","32","trial","32","true","0.8,0.2","1:go_a","",""
"null","","html-keyboard-response","275","350588","0.0-6.0-1.18","","<img src=""img/grey-r.png"" border=""10"">","null","trial","32","","0.8,0.2","1:go_a","1",""
"null","","html-keyboard-response","276","351590","0.0-6.0-2.18","","<div style=""font-size:60px;"">+</div>","null","","","","","","",""
"null","","image-keyboard-response","277","353092","0.0-6.0-0.19","","img/green.png","null","trial","null","true","0,1","4:nogo_d","",""
"null","","html-keyboard-response","278","354094","0.0-6.0-1.19","","<img src=""img/green-r.png"">","null","trial","null","","0,1","4:nogo_d","1",""
"null","","html-keyboard-response","279","355096","0.0-6.0-2.19","","<div style=""font-size:60px;"">+</div>","null","","","","","","",""
"973.5949999885634","","image-keyboard-response","280","356070","0.0-6.0-0.20","","img/red.png","32","trial","null","false","0.2,0.8","2:nogo_b","",""
"null","","html-keyboard-response","281","357072","0.0-6.0-1.20","","<img src=""img/red-r.png"" border=""10"">","null","trial","null","","0.2,0.8","2:nogo_b","1",""
"null","","html-keyboard-response","282","358073","0.0-6.0-2.20","","<div style=""font-size:60px;"">+</div>","null","","","","","","",""
"751.1350000277162","","image-keyboard-response","283","358826","0.0-6.0-0.21","","img/grey.png","32","trial","32","true","0.8,0.2","1:go_a","",""
"null","","html-keyboard-response","284","359828","0.0-6.0-1.21","","<img src=""img/grey-r.png"" border=""10"">","null","trial","32","","0.8,0.2","1:go_a","1",""
"null","","html-keyboard-response","285","360829","0.0-6.0-2.21","","<div style=""font-size:60px;"">+</div>","null","","","","","","",""
"393.6049999902025","","image-keyboard-response","286","361223","0.0-6.0-0.22","","img/blue.png","32","trial","32","true","1,0","3:go_c","",""
"null","","html-keyboard-response","287","362226","0.0-6.0-1.22","","<img src=""img/blue-r.png"" border=""10"">","null","trial","32","","1,0","3:go_c","1",""
"null","","html-keyboard-response","288","363228","0.0-6.0-2.22","","<div style=""font-size:60px;"">+</div>","null","","","","","","",""
"717.2100000316277","","image-keyboard-response","289","363946","0.0-6.0-0.23","","img/green.png","32","trial","null","false","0,1","4:nogo_d","",""
"null","","html-keyboard-response","290","364950","0.0-6.0-1.23","","<img src=""img/green-n.png"" border=""10"">","null","trial","null","","0,1","4:nogo_d","0",""
"null","","html-keyboard-response","291","365951","0.0-6.0-2.23","","<div style=""font-size:60px;"">+</div>","null","","","","","","",""
"972.660000086762","","image-keyboard-response","292","366925","0.0-6.0-0.24","","img/green.png","32","trial","null","false","0,1","4:nogo_d","",""
"null","","html-keyboard-response","293","367927","0.0-6.0-1.24","","<img src=""img/green-n.png"" border=""10"">","null","trial","null","","0,1","4:nogo_d","0",""
"null","","html-keyboard-response","294","368929","0.0-6.0-2.24","","<div style=""font-size:60px;"">+</div>","null","","","","","","",""
"603.6450000246987","","image-keyboard-response","295","369534","0.0-6.0-0.25","","img/red.png","32","trial","null","false","0.2,0.8","2:nogo_b","",""
"null","","html-keyboard-response","296","370538","0.0-6.0-1.25","","<img src=""img/red-n.png"" border=""10"">","null","trial","null","","0.2,0.8","2:nogo_b","0",""
"null","","html-keyboard-response","297","371540","0.0-6.0-2.25","","<div style=""font-size:60px;"">+</div>","null","","","","","","",""
"348.6750000156462","","image-keyboard-response","298","371890","0.0-6.0-0.26","","img/blue.png","32","trial","32","true","1,0","3:go_c","",""
"null","","html-keyboard-response","299","372891","0.0-6.0-1.26","","<img src=""img/blue-r.png"" border=""10"">","null","trial","32","","1,0","3:go_c","1",""
"null","","html-keyboard-response","300","373899","0.0-6.0-2.26","","<div style=""font-size:60px;"">+</div>","null","","","","","","",""
"518.1800000136718","","image-keyboard-response","301","374418","0.0-6.0-0.27","","img/grey.png","32","trial","32","true","0.8,0.2","1:go_a","",""
"null","","html-keyboard-response","302","375420","0.0-6.0-1.27","","<img src=""img/grey-r.png"" border=""10"">","null","trial","32","","0.8,0.2","1:go_a","1",""
"null","","html-keyboard-response","303","376422","0.0-6.0-2.27","","<div style=""font-size:60px;"">+</div>","null","","","","","","",""
"642.9149999748915","","image-keyboard-response","304","377066","0.0-6.0-0.28","","img/blue.png","32","trial","32","true","1,0","3:go_c","",""
"null","","html-keyboard-response","305","378069","0.0-6.0-1.28","","<img src=""img/blue-r.png"" border=""10"">","null","trial","32","","1,0","3:go_c","1",""
"null","","html-keyboard-response","306","379071","0.0-6.0-2.28","","<div style=""font-size:60px;"">+</div>","null","","","","","","",""
"642.5649999873713","","image-keyboard-response","307","379714","0.0-6.0-0.29","","img/grey.png","32","trial","32","true","0.8,0.2","1:go_a","",""
"null","","html-keyboard-response","308","380717","0.0-6.0-1.29","","<img src=""img/grey-n.png"" border=""10"">","null","trial","32","","0.8,0.2","1:go_a","0",""
"null","","html-keyboard-response","309","381719","0.0-6.0-2.29","","<div style=""font-size:60px;"">+</div>","null","","","","","","",""
"497.88499996066093","","image-keyboard-response","310","382217","0.0-6.0-0.30","","img/green.png","32","trial","null","false","0,1","4:nogo_d","",""
"null","","html-keyboard-response","311","383226","0.0-6.0-1.30","","<img src=""img/green-n.png"" border=""10"">","null","trial","null","","0,1","4:nogo_d","0",""
"null","","html-keyboard-response","312","384243","0.0-6.0-2.30","","<div style=""font-size:60px;"">+</div>","null","","","","","","",""
"null","","image-keyboard-response","313","385745","0.0-6.0-0.31","","img/red.png","null","trial","null","true","0.2,0.8","2:nogo_b","",""
"null","","html-keyboard-response","314","386747","0.0-6.0-1.31","","<img src=""img/red-r.png"">","null","trial","null","","0.2,0.8","2:nogo_b","1",""
"null","","html-keyboard-response","315","387748","0.0-6.0-2.31","","<div style=""font-size:60px;"">+</div>","null","","","","","","",""
"516.1300000036135","","image-keyboard-response","316","388265","0.0-6.0-0.32","","img/blue.png","32","trial","32","true","1,0","3:go_c","",""
"null","","html-keyboard-response","317","389267","0.0-6.0-1.32","","<img src=""img/blue-r.png"" border=""10"">","null","trial","32","","1,0","3:go_c","1",""
"null","","html-keyboard-response","318","390268","0.0-6.0-2.32","","<div style=""font-size:60px;"">+</div>","null","","","","","","",""
"722.9199999710545","","image-keyboard-response","319","390992","0.0-6.0-0.33","","img/red.png","32","trial","null","false","0.2,0.8","2:nogo_b","",""
"null","","html-keyboard-response","320","392000","0.0-6.0-1.33","","<img src=""img/red-n.png"" border=""10"">","null","trial","null","","0.2,0.8","2:nogo_b","0",""
"null","","html-keyboard-response","321","393001","0.0-6.0-2.33","","<div style=""font-size:60px;"">+</div>","null","","","","","","",""
"683.3349999506027","","image-keyboard-response","322","393685","0.0-6.0-0.34","","img/green.png","32","trial","null","false","0,1","4:nogo_d","",""
"null","","html-keyboard-response","323","394695","0.0-6.0-1.34","","<img src=""img/green-n.png"" border=""10"">","null","trial","null","","0,1","4:nogo_d","0",""
"null","","html-keyboard-response","324","395698","0.0-6.0-2.34","","<div style=""font-size:60px;"">+</div>","null","","","","","","",""
"364.5150000229478","","image-keyboard-response","325","396063","0.0-6.0-0.35","","img/grey.png","32","trial","32","true","0.8,0.2","1:go_a","",""
"null","","html-keyboard-response","326","397065","0.0-6.0-1.35","","<img src=""img/grey-r.png"" border=""10"">","null","trial","32","","0.8,0.2","1:go_a","1",""
"null","","html-keyboard-response","327","398067","0.0-6.0-2.35","","<div style=""font-size:60px;"">+</div>","null","","","","","","",""
"392.69000000786036","","image-keyboard-response","328","398461","0.0-6.0-0.36","","img/blue.png","32","trial","32","true","1,0","3:go_c","",""
"null","","html-keyboard-response","329","399463","0.0-6.0-1.36","","<img src=""img/blue-r.png"" border=""10"">","null","trial","32","","1,0","3:go_c","1",""
"null","","html-keyboard-response","330","400465","0.0-6.0-2.36","","<div style=""font-size:60px;"">+</div>","null","","","","","","",""
"833.2449999870732","","image-keyboard-response","331","401299","0.0-6.0-0.37","","img/red.png","32","trial","null","false","0.2,0.8","2:nogo_b","",""
"null","","html-keyboard-response","332","402302","0.0-6.0-1.37","","<img src=""img/red-r.png"" border=""10"">","null","trial","null","","0.2,0.8","2:nogo_b","1",""
"null","","html-keyboard-response","333","403304","0.0-6.0-2.37","","<div style=""font-size:60px;"">+</div>","null","","","","","","",""
"497.22499994095415","","image-keyboard-response","334","403802","0.0-6.0-0.38","","img/green.png","32","trial","null","false","0,1","4:nogo_d","",""
"null","","html-keyboard-response","335","404805","0.0-6.0-1.38","","<img src=""img/green-n.png"" border=""10"">","null","trial","null","","0,1","4:nogo_d","0",""
"null","","html-keyboard-response","336","405806","0.0-6.0-2.38","","<div style=""font-size:60px;"">+</div>","null","","","","","","",""
"472.4449999630451","","image-keyboard-response","337","406280","0.0-6.0-0.39","","img/grey.png","32","trial","32","true","0.8,0.2","1:go_a","",""
"null","","html-keyboard-response","338","407282","0.0-6.0-1.39","","<img src=""img/grey-n.png"" border=""10"">","null","trial","32","","0.8,0.2","1:go_a","0",""
"null","","html-keyboard-response","339","408284","0.0-6.0-2.39","","<div style=""font-size:60px;"">+</div>","null","","","","","","",""
"null","","image-keyboard-response","340","409786","0.0-6.0-0.40","","img/red.png","null","trial","null","true","0.2,0.8","2:nogo_b","",""
"null","","html-keyboard-response","341","410789","0.0-6.0-1.40","","<img src=""img/red-r.png"">","null","trial","null","","0.2,0.8","2:nogo_b","1",""
"null","","html-keyboard-response","342","411790","0.0-6.0-2.40","","<div style=""font-size:60px;"">+</div>","null","","","","","","",""
"630.8199999621138","","image-keyboard-response","343","412422","0.0-6.0-0.41","","img/blue.png","32","trial","32","true","1,0","3:go_c","",""
"null","","html-keyboard-response","344","413425","0.0-6.0-1.41","","<img src=""img/blue-r.png"" border=""10"">","null","trial","32","","1,0","3:go_c","1",""
"null","","html-keyboard-response","345","414425","0.0-6.0-2.41","","<div style=""font-size:60px;"">+</div>","null","","","","","","",""
"1028.6400000331923","","image-keyboard-response","346","415455","0.0-6.0-0.42","","img/green.png","32","trial","null","false","0,1","4:nogo_d","",""
"null","","html-keyboard-response","347","416460","0.0-6.0-1.42","","<img src=""img/green-n.png"" border=""10"">","null","trial","null","","0,1","4:nogo_d","0",""
"null","","html-keyboard-response","348","417461","0.0-6.0-2.42","","<div style=""font-size:60px;"">+</div>","null","","","","","","",""
"615.3049999848008","","image-keyboard-response","349","418077","0.0-6.0-0.43","","img/grey.png","32","trial","32","true","0.8,0.2","1:go_a","",""
"null","","html-keyboard-response","350","419080","0.0-6.0-1.43","","<img src=""img/grey-n.png"" border=""10"">","null","trial","32","","0.8,0.2","1:go_a","0",""
"null","","html-keyboard-response","351","420081","0.0-6.0-2.43","","<div style=""font-size:60px;"">+</div>","null","","","","","","",""
"854.3699999572709","","image-keyboard-response","352","420936","0.0-6.0-0.44","","img/grey.png","32","trial","32","true","0.8,0.2","1:go_a","",""
"null","","html-keyboard-response","353","421938","0.0-6.0-1.44","","<img src=""img/grey-r.png"" border=""10"">","null","trial","32","","0.8,0.2","1:go_a","1",""
"null","","html-keyboard-response","354","422940","0.0-6.0-2.44","","<div style=""font-size:60px;"">+</div>","null","","","","","","",""
"848.7599999643862","","image-keyboard-response","355","423790","0.0-6.0-0.45","","img/green.png","32","trial","null","false","0,1","4:nogo_d","",""
"null","","html-keyboard-response","356","424802","0.0-6.0-1.45","","<img src=""img/green-n.png"" border=""10"">","null","trial","null","","0,1","4:nogo_d","0",""
"null","","html-keyboard-response","357","425804","0.0-6.0-2.45","","<div style=""font-size:60px;"">+</div>","null","","","","","","",""
"518.0200000759214","","image-keyboard-response","358","426323","0.0-6.0-0.46","","img/blue.png","32","trial","32","true","1,0","3:go_c","",""
"null","","html-keyboard-response","359","427324","0.0-6.0-1.46","","<img src=""img/blue-r.png"" border=""10"">","null","trial","32","","1,0","3:go_c","1",""
"null","","html-keyboard-response","360","428326","0.0-6.0-2.46","","<div style=""font-size:60px;"">+</div>","null","","","","","","",""
"442.2900000354275","","image-keyboard-response","361","428769","0.0-6.0-0.47","","img/red.png","32","trial","null","false","0.2,0.8","2:nogo_b","",""
"null","","html-keyboard-response","362","429772","0.0-6.0-1.47","","<img src=""img/red-n.png"" border=""10"">","null","trial","null","","0.2,0.8","2:nogo_b","0",""
"null","","html-keyboard-response","363","430773","0.0-6.0-2.47","","<div style=""font-size:60px;"">+</div>","null","","","","","","",""
"743.8700000056997","","image-keyboard-response","364","431518","0.0-6.0-0.48","","img/red.png","32","trial","null","false","0.2,0.8","2:nogo_b","",""
"null","","html-keyboard-response","365","432521","0.0-6.0-1.48","","<img src=""img/red-n.png"" border=""10"">","null","trial","null","","0.2,0.8","2:nogo_b","0",""
"null","","html-keyboard-response","366","433523","0.0-6.0-2.48","","<div style=""font-size:60px;"">+</div>","null","","","","","","",""
"1063.6500000255182","","image-keyboard-response","367","434587","0.0-6.0-0.49","","img/green.png","32","trial","null","false","0,1","4:nogo_d","",""
"null","","html-keyboard-response","368","435589","0.0-6.0-1.49","","<img src=""img/green-n.png"" border=""10"">","null","trial","null","","0,1","4:nogo_d","0",""
"null","","html-keyboard-response","369","436591","0.0-6.0-2.49","","<div style=""font-size:60px;"">+</div>","null","","","","","","",""
"737.6950000179932","","image-keyboard-response","370","437329","0.0-6.0-0.50","","img/grey.png","32","trial","32","true","0.8,0.2","1:go_a","",""
"null","","html-keyboard-response","371","438331","0.0-6.0-1.50","","<img src=""img/grey-r.png"" border=""10"">","null","trial","32","","0.8,0.2","1:go_a","1",""
"null","","html-keyboard-response","372","439333","0.0-6.0-2.50","","<div style=""font-size:60px;"">+</div>","null","","","","","","",""
"409.12500000558794","","image-keyboard-response","373","439743","0.0-6.0-0.51","","img/blue.png","32","trial","32","true","1,0","3:go_c","",""
"null","","html-keyboard-response","374","440751","0.0-6.0-1.51","","<img src=""img/blue-r.png"" border=""10"">","null","trial","32","","1,0","3:go_c","1",""
"null","","html-keyboard-response","375","441753","0.0-6.0-2.51","","<div style=""font-size:60px;"">+</div>","null","","","","","","",""
"377.0500000100583","","image-keyboard-response","376","442131","0.0-6.0-0.52","","img/red.png","32","trial","null","false","0.2,0.8","2:nogo_b","",""
"null","","html-keyboard-response","377","443134","0.0-6.0-1.52","","<img src=""img/red-n.png"" border=""10"">","null","trial","null","","0.2,0.8","2:nogo_b","0",""
"null","","html-keyboard-response","378","444136","0.0-6.0-2.52","","<div style=""font-size:60px;"">+</div>","null","","","","","","",""
"662.2150000184774","","image-keyboard-response","379","444799","0.0-6.0-0.53","","img/grey.png","32","trial","32","true","0.8,0.2","1:go_a","",""
"null","","html-keyboard-response","380","445801","0.0-6.0-1.53","","<img src=""img/grey-r.png"" border=""10"">","null","trial","32","","0.8,0.2","1:go_a","1",""
"null","","html-keyboard-response","381","446803","0.0-6.0-2.53","","<div style=""font-size:60px;"">+</div>","null","","","","","","",""
"377.9900000663474","","image-keyboard-response","382","447181","0.0-6.0-0.54","","img/blue.png","32","trial","32","true","1,0","3:go_c","",""
"null","","html-keyboard-response","383","448184","0.0-6.0-1.54","","<img src=""img/blue-r.png"" border=""10"">","null","trial","32","","1,0","3:go_c","1",""
"null","","html-keyboard-response","384","449186","0.0-6.0-2.54","","<div style=""font-size:60px;"">+</div>","null","","","","","","",""
"null","","image-keyboard-response","385","450688","0.0-6.0-0.55","","img/green.png","null","trial","null","true","0,1","4:nogo_d","",""
"null","","html-keyboard-response","386","451691","0.0-6.0-1.55","","<img src=""img/green-r.png"">","null","trial","null","","0,1","4:nogo_d","1",""
"null","","html-keyboard-response","387","452692","0.0-6.0-2.55","","<div style=""font-size:60px;"">+</div>","null","","","","","","",""
"640.5449999729171","","image-keyboard-response","388","453334","0.0-6.0-0.56","","img/grey.png","32","trial","32","true","0.8,0.2","1:go_a","",""
"null","","html-keyboard-response","389","454336","0.0-6.0-1.56","","<img src=""img/grey-r.png"" border=""10"">","null","trial","32","","0.8,0.2","1:go_a","1",""
"null","","html-keyboard-response","390","455337","0.0-6.0-2.56","","<div style=""font-size:60px;"">+</div>","null","","","","","","",""
"null","","image-keyboard-response","391","456841","0.0-6.0-0.57","","img/green.png","null","trial","null","true","0,1","4:nogo_d","",""
"null","","html-keyboard-response","392","457844","0.0-6.0-1.57","","<img src=""img/green-r.png"">","null","trial","null","","0,1","4:nogo_d","1",""
"null","","html-keyboard-response","393","458845","0.0-6.0-2.57","","<div style=""font-size:60px;"">+</div>","null","","","","","","",""
"473.7899999599904","","image-keyboard-response","394","459320","0.0-6.0-0.58","","img/blue.png","32","trial","32","true","1,0","3:go_c","",""
"null","","html-keyboard-response","395","460323","0.0-6.0-1.58","","<img src=""img/blue-r.png"" border=""10"">","null","trial","32","","1,0","3:go_c","1",""
"null","","html-keyboard-response","396","461334","0.0-6.0-2.58","","<div style=""font-size:60px;"">+</div>","null","","","","","","",""
"753.5049999132752","","image-keyboard-response","397","462089","0.0-6.0-0.59","","img/red.png","32","trial","null","false","0.2,0.8","2:nogo_b","",""
"null","","html-keyboard-response","398","463092","0.0-6.0-1.59","","<img src=""img/red-r.png"" border=""10"">","null","trial","null","","0.2,0.8","2:nogo_b","1",""
"null","","html-keyboard-response","399","464094","0.0-6.0-2.59","","<div style=""font-size:60px;"">+</div>","null","","","","","","",""
"591.6900000302121","","image-keyboard-response","400","464687","0.0-6.0-0.60","","img/grey.png","32","trial","32","true","0.8,0.2","1:go_a","",""
"null","","html-keyboard-response","401","465689","0.0-6.0-1.60","","<img src=""img/grey-r.png"" border=""10"">","null","trial","32","","0.8,0.2","1:go_a","1",""
"null","","html-keyboard-response","402","466690","0.0-6.0-2.60","","<div style=""font-size:60px;"">+</div>","null","","","","","","",""
"443.3349999599159","","image-keyboard-response","403","467134","0.0-6.0-0.61","","img/green.png","32","trial","null","false","0,1","4:nogo_d","",""
"null","","html-keyboard-response","404","468137","0.0-6.0-1.61","","<img src=""img/green-n.png"" border=""10"">","null","trial","null","","0,1","4:nogo_d","0",""
"null","","html-keyboard-response","405","469144","0.0-6.0-2.61","","<div style=""font-size:60px;"">+</div>","null","","","","","","",""
"null","","image-keyboard-response","406","470646","0.0-6.0-0.62","","img/red.png","null","trial","null","true","0.2,0.8","2:nogo_b","",""
"null","","html-keyboard-response","407","471648","0.0-6.0-1.62","","<img src=""img/red-r.png"">","null","trial","null","","0.2,0.8","2:nogo_b","1",""
"null","","html-keyboard-response","408","472650","0.0-6.0-2.62","","<div style=""font-size:60px;"">+</div>","null","","","","","","",""
"509.80999995954335","","image-keyboard-response","409","473161","0.0-6.0-0.63","","img/blue.png","32","trial","32","true","1,0","3:go_c","",""
"null","","html-keyboard-response","410","474164","0.0-6.0-1.63","","<img src=""img/blue-r.png"" border=""10"">","null","trial","32","","1,0","3:go_c","1",""
"null","","html-keyboard-response","411","475165","0.0-6.0-2.63","","<div style=""font-size:60px;"">+</div>","null","","","","","","",""
"null","","image-keyboard-response","412","476666","0.0-6.0-0.64","","img/red.png","null","trial","null","true","0.2,0.8","2:nogo_b","",""
"null","","html-keyboard-response","413","477669","0.0-6.0-1.64","","<img src=""img/red-r.png"">","null","trial","null","","0.2,0.8","2:nogo_b","1",""
"null","","html-keyboard-response","414","478671","0.0-6.0-2.64","","<div style=""font-size:60px;"">+</div>","null","","","","","","",""
"530.9399999678135","","image-keyboard-response","415","479203","0.0-6.0-0.65","","img/blue.png","32","trial","32","true","1,0","3:go_c","",""
"null","","html-keyboard-response","416","480213","0.0-6.0-1.65","","<img src=""img/blue-r.png"" border=""10"">","null","trial","32","","1,0","3:go_c","1",""
"null","","html-keyboard-response","417","481214","0.0-6.0-2.65","","<div style=""font-size:60px;"">+</div>","null","","","","","","",""
"846.5149999829009","","image-keyboard-response","418","482061","0.0-6.0-0.66","","img/green.png","32","trial","null","false","0,1","4:nogo_d","",""
"null","","html-keyboard-response","419","483064","0.0-6.0-1.66","","<img src=""img/green-n.png"" border=""10"">","null","trial","null","","0,1","4:nogo_d","0",""
"null","","html-keyboard-response","420","484065","0.0-6.0-2.66","","<div style=""font-size:60px;"">+</div>","null","","","","","","",""
"417.6299999235198","","image-keyboard-response","421","484484","0.0-6.0-0.67","","img/grey.png","32","trial","32","true","0.8,0.2","1:go_a","",""
"null","","html-keyboard-response","422","485486","0.0-6.0-1.67","","<img src=""img/grey-r.png"" border=""10"">","null","trial","32","","0.8,0.2","1:go_a","1",""
"null","","html-keyboard-response","423","486487","0.0-6.0-2.67","","<div style=""font-size:60px;"">+</div>","null","","","","","","",""
"584.0300000272691","","image-keyboard-response","424","487072","0.0-6.0-0.68","","img/blue.png","32","trial","32","true","1,0","3:go_c","",""
"null","","html-keyboard-response","425","488075","0.0-6.0-1.68","","<img src=""img/blue-r.png"" border=""10"">","null","trial","32","","1,0","3:go_c","1",""
"null","","html-keyboard-response","426","489078","0.0-6.0-2.68","","<div style=""font-size:60px;"">+</div>","null","","","","","","",""
"741.3899999810383","","image-keyboard-response","427","489820","0.0-6.0-0.69","","img/green.png","32","trial","null","false","0,1","4:nogo_d","",""
"null","","html-keyboard-response","428","490835","0.0-6.0-1.69","","<img src=""img/green-n.png"" border=""10"">","null","trial","null","","0,1","4:nogo_d","0",""
"null","","html-keyboard-response","429","491837","0.0-6.0-2.69","","<div style=""font-size:60px;"">+</div>","null","","","","","","",""
"900.9050000458956","","image-keyboard-response","430","492739","0.0-6.0-0.70","","img/red.png","32","trial","null","false","0.2,0.8","2:nogo_b","",""
"null","","html-keyboard-response","431","493741","0.0-6.0-1.70","","<img src=""img/red-n.png"" border=""10"">","null","trial","null","","0.2,0.8","2:nogo_b","0",""
"null","","html-keyboard-response","432","494743","0.0-6.0-2.70","","<div style=""font-size:60px;"">+</div>","null","","","","","","",""
"682.2150000371039","","image-keyboard-response","433","495427","0.0-6.0-0.71","","img/grey.png","32","trial","32","true","0.8,0.2","1:go_a","",""
"null","","html-keyboard-response","434","496429","0.0-6.0-1.71","","<img src=""img/grey-r.png"" border=""10"">","null","trial","32","","0.8,0.2","1:go_a","1",""
"null","","html-keyboard-response","435","497431","0.0-6.0-2.71","","<div style=""font-size:60px;"">+</div>","null","","","","","","",""
"588.9249999308959","","image-keyboard-response","436","498021","0.0-6.0-0.72","","img/grey.png","32","trial","32","true","0.8,0.2","1:go_a","",""
"null","","html-keyboard-response","437","499023","0.0-6.0-1.72","","<img src=""img/grey-r.png"" border=""10"">","null","trial","32","","0.8,0.2","1:go_a","1",""
"null","","html-keyboard-response","438","500024","0.0-6.0-2.72","","<div style=""font-size:60px;"">+</div>","null","","","","","","",""
"517.2000000020489","","image-keyboard-response","439","500543","0.0-6.0-0.73","","img/blue.png","32","trial","32","true","1,0","3:go_c","",""
"null","","html-keyboard-response","440","501547","0.0-6.0-1.73","","<img src=""img/blue-r.png"" border=""10"">","null","trial","32","","1,0","3:go_c","1",""
"null","","html-keyboard-response","441","502549","0.0-6.0-2.73","","<div style=""font-size:60px;"">+</div>","null","","","","","","",""
"530.7800000300631","","image-keyboard-response","442","503080","0.0-6.0-0.74","","img/green.png","32","trial","null","false","0,1","4:nogo_d","",""
"null","","html-keyboard-response","443","504082","0.0-6.0-1.74","","<img src=""img/green-n.png"" border=""10"">","null","trial","null","","0,1","4:nogo_d","0",""
"null","","html-keyboard-response","444","505084","0.0-6.0-2.74","","<div style=""font-size:60px;"">+</div>","null","","","","","","",""
"877.7499999850988","","image-keyboard-response","445","505963","0.0-6.0-0.75","","img/red.png","32","trial","null","false","0.2,0.8","2:nogo_b","",""
"null","","html-keyboard-response","446","506965","0.0-6.0-1.75","","<img src=""img/red-n.png"" border=""10"">","null","trial","null","","0.2,0.8","2:nogo_b","0",""
"null","","html-keyboard-response","447","507966","0.0-6.0-2.75","","<div style=""font-size:60px;"">+</div>","null","","","","","","",""
"509.3500000657514","","image-keyboard-response","448","508476","0.0-6.0-0.76","","img/blue.png","32","trial","32","true","1,0","3:go_c","",""
"null","","html-keyboard-response","449","509479","0.0-6.0-1.76","","<img src=""img/blue-r.png"" border=""10"">","null","trial","32","","1,0","3:go_c","1",""
"null","","html-keyboard-response","450","510481","0.0-6.0-2.76","","<div style=""font-size:60px;"">+</div>","null","","","","","","",""
"1092.439999920316","","image-keyboard-response","451","511575","0.0-6.0-0.77","","img/green.png","32","trial","null","false","0,1","4:nogo_d","",""
"null","","html-keyboard-response","452","512578","0.0-6.0-1.77","","<img src=""img/green-n.png"" border=""10"">","null","trial","null","","0,1","4:nogo_d","0",""
"null","","html-keyboard-response","453","513579","0.0-6.0-2.77","","<div style=""font-size:60px;"">+</div>","null","","","","","","",""
"1212.8400000510737","","image-keyboard-response","454","514793","0.0-6.0-0.78","","img/red.png","32","trial","null","false","0.2,0.8","2:nogo_b","",""
"null","","html-keyboard-response","455","515795","0.0-6.0-1.78","","<img src=""img/red-n.png"" border=""10"">","null","trial","null","","0.2,0.8","2:nogo_b","0",""
"null","","html-keyboard-response","456","516797","0.0-6.0-2.78","","<div style=""font-size:60px;"">+</div>","null","","","","","","",""
"643.830000073649","","image-keyboard-response","457","517442","0.0-6.0-0.79","","img/grey.png","32","trial","32","true","0.8,0.2","1:go_a","",""
"null","","html-keyboard-response","458","518447","0.0-6.0-1.79","","<img src=""img/grey-r.png"" border=""10"">","null","trial","32","","0.8,0.2","1:go_a","1",""
"null","","html-keyboard-response","459","519448","0.0-6.0-2.79","","<div style=""font-size:60px;"">+</div>","null","","","","","","",""
"449.0950000472367","","image-keyboard-response","460","519899","0.0-6.0-0.80","","img/blue.png","32","trial","32","true","1,0","3:go_c","",""
"null","","html-keyboard-response","461","520919","0.0-6.0-1.80","","<img src=""img/blue-r.png"" border=""10"">","null","trial","32","","1,0","3:go_c","1",""
"null","","html-keyboard-response","462","521933","0.0-6.0-2.80","","<div style=""font-size:60px;"">+</div>","null","","","","","","",""
"null","","image-keyboard-response","463","523434","0.0-6.0-0.81","","img/red.png","null","trial","null","true","0.2,0.8","2:nogo_b","",""
"null","","html-keyboard-response","464","524437","0.0-6.0-1.81","","<img src=""img/red-r.png"">","null","trial","null","","0.2,0.8","2:nogo_b","1",""
"null","","html-keyboard-response","465","525439","0.0-6.0-2.81","","<div style=""font-size:60px;"">+</div>","null","","","","","","",""
"null","","image-keyboard-response","466","526941","0.0-6.0-0.82","","img/green.png","null","trial","null","true","0,1","4:nogo_d","",""
"null","","html-keyboard-response","467","527943","0.0-6.0-1.82","","<img src=""img/green-r.png"">","null","trial","null","","0,1","4:nogo_d","1",""
"null","","html-keyboard-response","468","528946","0.0-6.0-2.82","","<div style=""font-size:60px;"">+</div>","null","","","","","","",""
"538.9449999202043","","image-keyboard-response","469","529486","0.0-6.0-0.83","","img/grey.png","32","trial","32","true","0.8,0.2","1:go_a","",""
"null","","html-keyboard-response","470","530488","0.0-6.0-1.83","","<img src=""img/grey-r.png"" border=""10"">","null","trial","32","","0.8,0.2","1:go_a","1",""
"null","","html-keyboard-response","471","531490","0.0-6.0-2.83","","<div style=""font-size:60px;"">+</div>","null","","","","","","",""
"388.1999999284744","","image-keyboard-response","472","531879","0.0-6.0-0.84","","img/blue.png","32","trial","32","true","1,0","3:go_c","",""
"null","","html-keyboard-response","473","532881","0.0-6.0-1.84","","<img src=""img/blue-r.png"" border=""10"">","null","trial","32","","1,0","3:go_c","1",""
"null","","html-keyboard-response","474","533882","0.0-6.0-2.84","","<div style=""font-size:60px;"">+</div>","null","","","","","","",""
"798.0550000211224","","image-keyboard-response","475","534681","0.0-6.0-0.85","","img/green.png","32","trial","null","false","0,1","4:nogo_d","",""
"null","","html-keyboard-response","476","535682","0.0-6.0-1.85","","<img src=""img/green-n.png"" border=""10"">","null","trial","null","","0,1","4:nogo_d","0",""
"null","","html-keyboard-response","477","536684","0.0-6.0-2.85","","<div style=""font-size:60px;"">+</div>","null","","","","","","",""
"900.1900000730529","","image-keyboard-response","478","537585","0.0-6.0-0.86","","img/red.png","32","trial","null","false","0.2,0.8","2:nogo_b","",""
"null","","html-keyboard-response","479","538587","0.0-6.0-1.86","","<img src=""img/red-n.png"" border=""10"">","null","trial","null","","0.2,0.8","2:nogo_b","0",""
"null","","html-keyboard-response","480","539588","0.0-6.0-2.86","","<div style=""font-size:60px;"">+</div>","null","","","","","","",""
"578.2999999355525","","image-keyboard-response","481","540168","0.0-6.0-0.87","","img/grey.png","32","trial","32","true","0.8,0.2","1:go_a","",""
"null","","html-keyboard-response","482","541171","0.0-6.0-1.87","","<img src=""img/grey-n.png"" border=""10"">","null","trial","32","","0.8,0.2","1:go_a","0",""
"null","","html-keyboard-response","483","542173","0.0-6.0-2.87","","<div style=""font-size:60px;"">+</div>","null","","","","","","",""
"361.35499994270504","","image-keyboard-response","484","542535","0.0-6.0-0.88","","img/blue.png","32","trial","32","true","1,0","3:go_c","",""
"null","","html-keyboard-response","485","543537","0.0-6.0-1.88","","<img src=""img/blue-r.png"" border=""10"">","null","trial","32","","1,0","3:go_c","1",""
"null","","html-keyboard-response","486","544539","0.0-6.0-2.88","","<div style=""font-size:60px;"">+</div>","null","","","","","","",""
"null","","image-keyboard-response","487","546040","0.0-6.0-0.89","","img/green.png","null","trial","null","true","0,1","4:nogo_d","",""
"null","","html-keyboard-response","488","547042","0.0-6.0-1.89","","<img src=""img/green-r.png"">","null","trial","null","","0,1","4:nogo_d","1",""
"null","","html-keyboard-response","489","548044","0.0-6.0-2.89","","<div style=""font-size:60px;"">+</div>","null","","","","","","",""
"600.6449999986216","","image-keyboard-response","490","548646","0.0-6.0-0.90","","img/grey.png","32","trial","32","true","0.8,0.2","1:go_a","",""
"null","","html-keyboard-response","491","549647","0.0-6.0-1.90","","<img src=""img/grey-r.png"" border=""10"">","null","trial","32","","0.8,0.2","1:go_a","1",""
"null","","html-keyboard-response","492","550649","0.0-6.0-2.90","","<div style=""font-size:60px;"">+</div>","null","","","","","","",""
"955.9349999763072","","image-keyboard-response","493","551606","0.0-6.0-0.91","","img/red.png","32","trial","null","false","0.2,0.8","2:nogo_b","",""
"null","","html-keyboard-response","494","552608","0.0-6.0-1.91","","<img src=""img/red-n.png"" border=""10"">","null","trial","null","","0.2,0.8","2:nogo_b","0",""
"null","","html-keyboard-response","495","553610","0.0-6.0-2.91","","<div style=""font-size:60px;"">+</div>","null","","","","","","",""
"421.5749999275431","","image-keyboard-response","496","554032","0.0-6.0-0.92","","img/blue.png","32","trial","32","true","1,0","3:go_c","",""
"null","","html-keyboard-response","497","555034","0.0-6.0-1.92","","<img src=""img/blue-r.png"" border=""10"">","null","trial","32","","1,0","3:go_c","1",""
"null","","html-keyboard-response","498","556036","0.0-6.0-2.92","","<div style=""font-size:60px;"">+</div>","null","","","","","","",""
"null","","image-keyboard-response","499","557538","0.0-6.0-0.93","","img/red.png","null","trial","null","true","0.2,0.8","2:nogo_b","",""
"null","","html-keyboard-response","500","558541","0.0-6.0-1.93","","<img src=""img/red-r.png"">","null","trial","null","","0.2,0.8","2:nogo_b","1",""
"null","","html-keyboard-response","501","559541","0.0-6.0-2.93","","<div style=""font-size:60px;"">+</div>","null","","","","","","",""
"null","","image-keyboard-response","502","561044","0.0-6.0-0.94","","img/green.png","null","trial","null","true","0,1","4:nogo_d","",""
"null","","html-keyboard-response","503","562047","0.0-6.0-1.94","","<img src=""img/green-r.png"">","null","trial","null","","0,1","4:nogo_d","1",""
"null","","html-keyboard-response","504","563049","0.0-6.0-2.94","","<div style=""font-size:60px;"">+</div>","null","","","","","","",""
"462.60000008624047","","image-keyboard-response","505","563513","0.0-6.0-0.95","","img/grey.png","32","trial","32","true","0.8,0.2","1:go_a","",""
"null","","html-keyboard-response","506","564515","0.0-6.0-1.95","","<img src=""img/grey-r.png"" border=""10"">","null","trial","32","","0.8,0.2","1:go_a","1",""
"null","","html-keyboard-response","507","565517","0.0-6.0-2.95","","<div style=""font-size:60px;"">+</div>","null","","","","","","",""
"724.2850000038743","","image-keyboard-response","508","566242","0.0-6.0-0.96","","img/grey.png","32","trial","32","true","0.8,0.2","1:go_a","",""
"null","","html-keyboard-response","509","567245","0.0-6.0-1.96","","<img src=""img/grey-r.png"" border=""10"">","null","trial","32","","0.8,0.2","1:go_a","1",""
"null","","html-keyboard-response","510","568247","0.0-6.0-2.96","","<div style=""font-size:60px;"">+</div>","null","","","","","","",""
"null","","image-keyboard-response","511","569748","0.0-6.0-0.97","","img/green.png","null","trial","null","true","0,1","4:nogo_d","",""
"null","","html-keyboard-response","512","570750","0.0-6.0-1.97","","<img src=""img/green-r.png"">","null","trial","null","","0,1","4:nogo_d","1",""
"null","","html-keyboard-response","513","571752","0.0-6.0-2.97","","<div style=""font-size:60px;"">+</div>","null","","","","","","",""
"520.6350000808015","","image-keyboard-response","514","572273","0.0-6.0-0.98","","img/blue.png","32","trial","32","true","1,0","3:go_c","",""
"null","","html-keyboard-response","515","573276","0.0-6.0-1.98","","<img src=""img/blue-r.png"" border=""10"">","null","trial","32","","1,0","3:go_c","1",""
"null","","html-keyboard-response","516","574277","0.0-6.0-2.98","","<div style=""font-size:60px;"">+</div>","null","","","","","","",""
"null","","image-keyboard-response","517","575779","0.0-6.0-0.99","","img/red.png","null","trial","null","true","0.2,0.8","2:nogo_b","",""
"null","","html-keyboard-response","518","576788","0.0-6.0-1.99","","<img src=""img/red-r.png"">","null","trial","null","","0.2,0.8","2:nogo_b","1",""
"null","","html-keyboard-response","519","577791","0.0-6.0-2.99","","<div style=""font-size:60px;"">+</div>","null","","","","","","",""
"988.7099999468774","","image-keyboard-response","520","578780","0.0-6.0-0.100","","img/grey.png","32","trial","32","true","0.8,0.2","1:go_a","",""
"null","","html-keyboard-response","521","579783","0.0-6.0-1.100","","<img src=""img/grey-r.png"" border=""10"">","null","trial","32","","0.8,0.2","1:go_a","1",""
"null","","html-keyboard-response","522","580784","0.0-6.0-2.100","","<div style=""font-size:60px;"">+</div>","null","","","","","","",""
"443.0250000441447","","image-keyboard-response","523","581228","0.0-6.0-0.101","","img/red.png","32","trial","null","false","0.2,0.8","2:nogo_b","",""
"null","","html-keyboard-response","524","582230","0.0-6.0-1.101","","<img src=""img/red-n.png"" border=""10"">","null","trial","null","","0.2,0.8","2:nogo_b","0",""
"null","","html-keyboard-response","525","583232","0.0-6.0-2.101","","<div style=""font-size:60px;"">+</div>","null","","","","","","",""
"972.7999999886379","","image-keyboard-response","526","584206","0.0-6.0-0.102","","img/green.png","32","trial","null","false","0,1","4:nogo_d","",""
"null","","html-keyboard-response","527","585209","0.0-6.0-1.102","","<img src=""img/green-n.png"" border=""10"">","null","trial","null","","0,1","4:nogo_d","0",""
"null","","html-keyboard-response","528","586211","0.0-6.0-2.102","","<div style=""font-size:60px;"">+</div>","null","","","","","","",""
"386.73499994911253","","image-keyboard-response","529","586598","0.0-6.0-0.103","","img/blue.png","32","trial","32","true","1,0","3:go_c","",""
"null","","html-keyboard-response","530","587600","0.0-6.0-1.103","","<img src=""img/blue-r.png"" border=""10"">","null","trial","32","","1,0","3:go_c","1",""
"null","","html-keyboard-response","531","588601","0.0-6.0-2.103","","<div style=""font-size:60px;"">+</div>","null","","","","","","",""
"579.3899999698624","","image-keyboard-response","532","589182","0.0-6.0-0.104","","img/blue.png","32","trial","32","true","1,0","3:go_c","",""
"null","","html-keyboard-response","533","590184","0.0-6.0-1.104","","<img src=""img/blue-r.png"" border=""10"">","null","trial","32","","1,0","3:go_c","1",""
"null","","html-keyboard-response","534","591186","0.0-6.0-2.104","","<div style=""font-size:60px;"">+</div>","null","","","","","","",""
"null","","image-keyboard-response","535","592688","0.0-6.0-0.105","","img/red.png","null","trial","null","true","0.2,0.8","2:nogo_b","",""
"null","","html-keyboard-response","536","593690","0.0-6.0-1.105","","<img src=""img/red-r.png"">","null","trial","null","","0.2,0.8","2:nogo_b","1",""
"null","","html-keyboard-response","537","594693","0.0-6.0-2.105","","<div style=""font-size:60px;"">+</div>","null","","","","","","",""
"533.7849999777973","","image-keyboard-response","538","595228","0.0-6.0-0.106","","img/grey.png","32","trial","32","true","0.8,0.2","1:go_a","",""
"null","","html-keyboard-response","539","596230","0.0-6.0-1.106","","<img src=""img/grey-r.png"" border=""10"">","null","trial","32","","0.8,0.2","1:go_a","1",""
"null","","html-keyboard-response","540","597231","0.0-6.0-2.106","","<div style=""font-size:60px;"">+</div>","null","","","","","","",""
"null","","image-keyboard-response","541","598733","0.0-6.0-0.107","","img/green.png","null","trial","null","true","0,1","4:nogo_d","",""
"null","","html-keyboard-response","542","599736","0.0-6.0-1.107","","<img src=""img/green-r.png"">","null","trial","null","","0,1","4:nogo_d","1",""
"null","","html-keyboard-response","543","600738","0.0-6.0-2.107","","<div style=""font-size:60px;"">+</div>","null","","","","","","",""
"null","","image-keyboard-response","544","602240","0.0-6.0-0.108","","img/green.png","null","trial","null","true","0,1","4:nogo_d","",""
"null","","html-keyboard-response","545","603242","0.0-6.0-1.108","","<img src=""img/green-r.png"">","null","trial","null","","0,1","4:nogo_d","1",""
"null","","html-keyboard-response","546","604245","0.0-6.0-2.108","","<div style=""font-size:60px;"">+</div>","null","","","","","","",""
"656.844999990426","","image-keyboard-response","547","604902","0.0-6.0-0.109","","img/grey.png","32","trial","32","true","0.8,0.2","1:go_a","",""
"null","","html-keyboard-response","548","605905","0.0-6.0-1.109","","<img src=""img/grey-r.png"" border=""10"">","null","trial","32","","0.8,0.2","1:go_a","1",""
"null","","html-keyboard-response","549","606905","0.0-6.0-2.109","","<div style=""font-size:60px;"">+</div>","null","","","","","","",""
"419.5649999892339","","image-keyboard-response","550","607326","0.0-6.0-0.110","","img/blue.png","32","trial","32","true","1,0","3:go_c","",""
"null","","html-keyboard-response","551","608328","0.0-6.0-1.110","","<img src=""img/blue-r.png"" border=""10"">","null","trial","32","","1,0","3:go_c","1",""
"null","","html-keyboard-response","552","609329","0.0-6.0-2.110","","<div style=""font-size:60px;"">+</div>","null","","","","","","",""
"608.9849999407306","","image-keyboard-response","553","609939","0.0-6.0-0.111","","img/red.png","32","trial","null","false","0.2,0.8","2:nogo_b","",""
"null","","html-keyboard-response","554","610941","0.0-6.0-1.111","","<img src=""img/red-n.png"" border=""10"">","null","trial","null","","0.2,0.8","2:nogo_b","0",""
"null","","html-keyboard-response","555","611943","0.0-6.0-2.111","","<div style=""font-size:60px;"">+</div>","null","","","","","","",""
"522.7099999319762","","image-keyboard-response","556","612467","0.0-6.0-0.112","","img/grey.png","32","trial","32","true","0.8,0.2","1:go_a","",""
"null","","html-keyboard-response","557","613469","0.0-6.0-1.112","","<img src=""img/grey-r.png"" border=""10"">","null","trial","32","","0.8,0.2","1:go_a","1",""
"null","","html-keyboard-response","558","614471","0.0-6.0-2.112","","<div style=""font-size:60px;"">+</div>","null","","","","","","",""
"488.06499992497265","","image-keyboard-response","559","614960","0.0-6.0-0.113","","img/red.png","32","trial","null","false","0.2,0.8","2:nogo_b","",""
"null","","html-keyboard-response","560","615963","0.0-6.0-1.113","","<img src=""img/red-n.png"" border=""10"">","null","trial","null","","0.2,0.8","2:nogo_b","0",""
"null","","html-keyboard-response","561","616978","0.0-6.0-2.113","","<div style=""font-size:60px;"">+</div>","null","","","","","","",""
"722.2949999850243","","image-keyboard-response","562","617702","0.0-6.0-0.114","","img/green.png","32","trial","null","false","0,1","4:nogo_d","",""
"null","","html-keyboard-response","563","618703","0.0-6.0-1.114","","<img src=""img/green-n.png"" border=""10"">","null","trial","null","","0,1","4:nogo_d","0",""
"null","","html-keyboard-response","564","619705","0.0-6.0-2.114","","<div style=""font-size:60px;"">+</div>","null","","","","","","",""
"344.84499995596707","","image-keyboard-response","565","620050","0.0-6.0-0.115","","img/blue.png","32","trial","32","true","1,0","3:go_c","",""
"null","","html-keyboard-response","566","621053","0.0-6.0-1.115","","<img src=""img/blue-r.png"" border=""10"">","null","trial","32","","1,0","3:go_c","1",""
"null","","html-keyboard-response","567","622064","0.0-6.0-2.115","","<div style=""font-size:60px;"">+</div>","null","","","","","","",""
"587.7999999793246","","image-keyboard-response","568","622653","0.0-6.0-0.116","","img/blue.png","32","trial","32","true","1,0","3:go_c","",""
"null","","html-keyboard-response","569","623656","0.0-6.0-1.116","","<img src=""img/blue-r.png"" border=""10"">","null","trial","32","","1,0","3:go_c","1",""
"null","","html-keyboard-response","570","624657","0.0-6.0-2.116","","<div style=""font-size:60px;"">+</div>","null","","","","","","",""
"null","","image-keyboard-response","571","626159","0.0-6.0-0.117","","img/red.png","null","trial","null","true","0.2,0.8","2:nogo_b","",""
"null","","html-keyboard-response","572","627160","0.0-6.0-1.117","","<img src=""img/red-r.png"">","null","trial","null","","0.2,0.8","2:nogo_b","1",""
"null","","html-keyboard-response","573","628161","0.0-6.0-2.117","","<div style=""font-size:60px;"">+</div>","null","","","","","","",""
"null","","image-keyboard-response","574","629664","0.0-6.0-0.118","","img/green.png","null","trial","null","true","0,1","4:nogo_d","",""
"null","","html-keyboard-response","575","630666","0.0-6.0-1.118","","<img src=""img/green-r.png"">","null","trial","null","","0,1","4:nogo_d","1",""
"null","","html-keyboard-response","576","631668","0.0-6.0-2.118","","<div style=""font-size:60px;"">+</div>","null","","","","","","",""
"654.9250000389293","","image-keyboard-response","577","632324","0.0-6.0-0.119","","img/grey.png","32","trial","32","true","0.8,0.2","1:go_a","",""
"null","","html-keyboard-response","578","633326","0.0-6.0-1.119","","<img src=""img/grey-r.png"" border=""10"">","null","trial","32","","0.8,0.2","1:go_a","1",""
"null","","html-keyboard-response","579","634327","0.0-6.0-2.119","","<div style=""font-size:60px;"">+</div>","null","","","","","","",""
"2578.459999989718","","instructions","580","636907","0.0-7.0","[{""page_index"":0,""viewing_time"":2578.3299999311566}]","","","","","","","","",""
"1257.6099999714643","","image-keyboard-response","581","638165","0.0-8.0-0.0","","img/blue.png","32","trial","null","false","0.2,0.8","2:nogo_b","",""
"null","","html-keyboard-response","582","639168","0.0-8.0-1.0","","<img src=""img/blue-n.png"" border=""10"">","null","trial","null","","0.2,0.8","2:nogo_b","0",""
"null","","html-keyboard-response","583","640170","0.0-8.0-2.0","","<div style=""font-size:60px;"">+</div>","null","","","","","","",""
"827.3449999978766","","image-keyboard-response","584","640999","0.0-8.0-0.1","","img/green.png","32","trial","32","true","0.8,0.2","1:go_a","",""
"null","","html-keyboard-response","585","642002","0.0-8.0-1.1","","<img src=""img/green-r.png"" border=""10"">","null","trial","32","","0.8,0.2","1:go_a","1",""
"null","","html-keyboard-response","586","643002","0.0-8.0-2.1","","<div style=""font-size:60px;"">+</div>","null","","","","","","",""
"768.4650000883266","","image-keyboard-response","587","643772","0.0-8.0-0.2","","img/orange.png","32","trial","32","true","0.6,0.4","3:go_c","",""
"null","","html-keyboard-response","588","644774","0.0-8.0-1.2","","<img src=""img/orange-n.png"" border=""10"">","null","trial","32","","0.6,0.4","3:go_c","0",""
"null","","html-keyboard-response","589","645776","0.0-8.0-2.2","","<div style=""font-size:60px;"">+</div>","null","","","","","","",""
"582.6700000325218","","image-keyboard-response","590","646360","0.0-8.0-0.3","","img/grey.png","32","trial","null","false","0.4,0.6","4:nogo_d","",""
"null","","html-keyboard-response","591","647363","0.0-8.0-1.3","","<img src=""img/grey-r.png"" border=""10"">","null","trial","null","","0.4,0.6","4:nogo_d","1",""
"null","","html-keyboard-response","592","648365","0.0-8.0-2.3","","<div style=""font-size:60px;"">+</div>","null","","","","","","",""
"626.894999993965","","image-keyboard-response","593","648992","0.0-8.0-0.4","","img/orange.png","32","trial","32","true","0.6,0.4","3:go_c","",""
"null","","html-keyboard-response","594","649994","0.0-8.0-1.4","","<img src=""img/orange-r.png"" border=""10"">","null","trial","32","","0.6,0.4","3:go_c","1",""
"null","","html-keyboard-response","595","650995","0.0-8.0-2.4","","<div style=""font-size:60px;"">+</div>","null","","","","","","",""
"668.3549999725074","","image-keyboard-response","596","651665","0.0-8.0-0.5","","img/blue.png","32","trial","null","false","0.2,0.8","2:nogo_b","",""
"null","","html-keyboard-response","597","652667","0.0-8.0-1.5","","<img src=""img/blue-n.png"" border=""10"">","null","trial","null","","0.2,0.8","2:nogo_b","0",""
"null","","html-keyboard-response","598","653670","0.0-8.0-2.5","","<div style=""font-size:60px;"">+</div>","null","","","","","","",""
"null","","image-keyboard-response","599","655172","0.0-8.0-0.6","","img/green.png","null","trial","32","false","0.8,0.2","1:go_a","",""
"null","","html-keyboard-response","600","656174","0.0-8.0-1.6","","<img src=""img/green-r.png"">","null","trial","32","","0.8,0.2","1:go_a","1",""
"null","","html-keyboard-response","601","657175","0.0-8.0-2.6","","<div style=""font-size:60px;"">+</div>","null","","","","","","",""
"830.4600000847131","","image-keyboard-response","602","658007","0.0-8.0-0.7","","img/grey.png","32","trial","null","false","0.4,0.6","4:nogo_d","",""
"null","","html-keyboard-response","603","659009","0.0-8.0-1.7","","<img src=""img/grey-n.png"" border=""10"">","null","trial","null","","0.4,0.6","4:nogo_d","0",""
"null","","html-keyboard-response","604","660010","0.0-8.0-2.7","","<div style=""font-size:60px;"">+</div>","null","","","","","","",""
"948.8349999301136","","image-keyboard-response","605","660960","0.0-8.0-0.8","","img/green.png","32","trial","32","true","0.8,0.2","1:go_a","",""
"null","","html-keyboard-response","606","661963","0.0-8.0-1.8","","<img src=""img/green-n.png"" border=""10"">","null","trial","32","","0.8,0.2","1:go_a","0",""
"null","","html-keyboard-response","607","662965","0.0-8.0-2.8","","<div style=""font-size:60px;"">+</div>","null","","","","","","",""
"781.4650000073016","","image-keyboard-response","608","663748","0.0-8.0-0.9","","img/blue.png","32","trial","null","false","0.2,0.8","2:nogo_b","",""
"null","","html-keyboard-response","609","664749","0.0-8.0-1.9","","<img src=""img/blue-r.png"" border=""10"">","null","trial","null","","0.2,0.8","2:nogo_b","1",""
"null","","html-keyboard-response","610","665765","0.0-8.0-2.9","","<div style=""font-size:60px;"">+</div>","null","","","","","","",""
"509.83500003349036","","image-keyboard-response","611","666276","0.0-8.0-0.10","","img/orange.png","32","trial","32","true","0.6,0.4","3:go_c","",""
"null","","html-keyboard-response","612","667278","0.0-8.0-1.10","","<img src=""img/orange-n.png"" border=""10"">","null","trial","32","","0.6,0.4","3:go_c","0",""
"null","","html-keyboard-response","613","668279","0.0-8.0-2.10","","<div style=""font-size:60px;"">+</div>","null","","","","","","",""
"369.1800000378862","","image-keyboard-response","614","668649","0.0-8.0-0.11","","img/grey.png","32","trial","null","false","0.4,0.6","4:nogo_d","",""
"null","","html-keyboard-response","615","669651","0.0-8.0-1.11","","<img src=""img/grey-n.png"" border=""10"">","null","trial","null","","0.4,0.6","4:nogo_d","0",""
"null","","html-keyboard-response","616","670653","0.0-8.0-2.11","","<div style=""font-size:60px;"">+</div>","null","","","","","","",""
"621.7300000134856","","image-keyboard-response","617","671276","0.0-8.0-0.12","","img/grey.png","32","trial","null","false","0.4,0.6","4:nogo_d","",""
"null","","html-keyboard-response","618","672278","0.0-8.0-1.12","","<img src=""img/grey-r.png"" border=""10"">","null","trial","null","","0.4,0.6","4:nogo_d","1",""
"null","","html-keyboard-response","619","673279","0.0-8.0-2.12","","<div style=""font-size:60px;"">+</div>","null","","","","","","",""
"729.3749999953434","","image-keyboard-response","620","674009","0.0-8.0-0.13","","img/green.png","32","trial","32","true","0.8,0.2","1:go_a","",""
"null","","html-keyboard-response","621","675012","0.0-8.0-1.13","","<img src=""img/green-r.png"" border=""10"">","null","trial","32","","0.8,0.2","1:go_a","1",""
"null","","html-keyboard-response","622","676014","0.0-8.0-2.13","","<div style=""font-size:60px;"">+</div>","null","","","","","","",""
"506.1399999540299","","image-keyboard-response","623","676521","0.0-8.0-0.14","","img/blue.png","32","trial","null","false","0.2,0.8","2:nogo_b","",""
"null","","html-keyboard-response","624","677523","0.0-8.0-1.14","","<img src=""img/blue-n.png"" border=""10"">","null","trial","null","","0.2,0.8","2:nogo_b","0",""
"null","","html-keyboard-response","625","678526","0.0-8.0-2.14","","<div style=""font-size:60px;"">+</div>","null","","","","","","",""
"463.46499992068857","","image-keyboard-response","626","678990","0.0-8.0-0.15","","img/orange.png","32","trial","32","true","0.6,0.4","3:go_c","",""
"null","","html-keyboard-response","627","679993","0.0-8.0-1.15","","<img src=""img/orange-r.png"" border=""10"">","null","trial","32","","0.6,0.4","3:go_c","1",""
"null","","html-keyboard-response","628","680995","0.0-8.0-2.15","","<div style=""font-size:60px;"">+</div>","null","","","","","","",""
"561.9099999312311","","image-keyboard-response","629","681557","0.0-8.0-0.16","","img/green.png","32","trial","32","true","0.8,0.2","1:go_a","",""
"null","","html-keyboard-response","630","682560","0.0-8.0-1.16","","<img src=""img/green-r.png"" border=""10"">","null","trial","32","","0.8,0.2","1:go_a","1",""
"null","","html-keyboard-response","631","683562","0.0-8.0-2.16","","<div style=""font-size:60px;"">+</div>","null","","","","","","",""
"null","","image-keyboard-response","632","685064","0.0-8.0-0.17","","img/blue.png","null","trial","null","true","0.2,0.8","2:nogo_b","",""
"null","","html-keyboard-response","633","686066","0.0-8.0-1.17","","<img src=""img/blue-r.png"">","null","trial","null","","0.2,0.8","2:nogo_b","1",""
"null","","html-keyboard-response","634","687068","0.0-8.0-2.17","","<div style=""font-size:60px;"">+</div>","null","","","","","","",""
"730.1799999549985","","image-keyboard-response","635","687799","0.0-8.0-0.18","","img/grey.png","32","trial","null","false","0.4,0.6","4:nogo_d","",""
"null","","html-keyboard-response","636","688802","0.0-8.0-1.18","","<img src=""img/grey-r.png"" border=""10"">","null","trial","null","","0.4,0.6","4:nogo_d","1",""
"null","","html-keyboard-response","637","689804","0.0-8.0-2.18","","<div style=""font-size:60px;"">+</div>","null","","","","","","",""
"405.67500004544854","","image-keyboard-response","638","690211","0.0-8.0-0.19","","img/orange.png","32","trial","32","true","0.6,0.4","3:go_c","",""
"null","","html-keyboard-response","639","691212","0.0-8.0-1.19","","<img src=""img/orange-n.png"" border=""10"">","null","trial","32","","0.6,0.4","3:go_c","0",""
"null","","html-keyboard-response","640","692224","0.0-8.0-2.19","","<div style=""font-size:60px;"">+</div>","null","","","","","","",""
"704.3749999720603","","image-keyboard-response","641","692929","0.0-8.0-0.20","","img/grey.png","32","trial","null","false","0.4,0.6","4:nogo_d","",""
"null","","html-keyboard-response","642","693931","0.0-8.0-1.20","","<img src=""img/grey-r.png"" border=""10"">","null","trial","null","","0.4,0.6","4:nogo_d","1",""
"null","","html-keyboard-response","643","694933","0.0-8.0-2.20","","<div style=""font-size:60px;"">+</div>","null","","","","","","",""
"null","","image-keyboard-response","644","696435","0.0-8.0-0.21","","img/blue.png","null","trial","null","true","0.2,0.8","2:nogo_b","",""
"null","","html-keyboard-response","645","697438","0.0-8.0-1.21","","<img src=""img/blue-r.png"">","null","trial","null","","0.2,0.8","2:nogo_b","1",""
"null","","html-keyboard-response","646","698439","0.0-8.0-2.21","","<div style=""font-size:60px;"">+</div>","null","","","","","","",""
"865.5849999049678","","image-keyboard-response","647","699305","0.0-8.0-0.22","","img/green.png","32","trial","32","true","0.8,0.2","1:go_a","",""
"null","","html-keyboard-response","648","700308","0.0-8.0-1.22","","<img src=""img/green-r.png"" border=""10"">","null","trial","32","","0.8,0.2","1:go_a","1",""
"null","","html-keyboard-response","649","701308","0.0-8.0-2.22","","<div style=""font-size:60px;"">+</div>","null","","","","","","",""
"503.4749999176711","","image-keyboard-response","650","701813","0.0-8.0-0.23","","img/orange.png","32","trial","32","true","0.6,0.4","3:go_c","",""
"null","","html-keyboard-response","651","702821","0.0-8.0-1.23","","<img src=""img/orange-r.png"" border=""10"">","null","trial","32","","0.6,0.4","3:go_c","1",""
"null","","html-keyboard-response","652","703823","0.0-8.0-2.23","","<div style=""font-size:60px;"">+</div>","null","","","","","","",""
"530.0999999744818","","image-keyboard-response","653","704355","0.0-8.0-0.24","","img/orange.png","32","trial","32","true","0.6,0.4","3:go_c","",""
"null","","html-keyboard-response","654","705358","0.0-8.0-1.24","","<img src=""img/orange-r.png"" border=""10"">","null","trial","32","","0.6,0.4","3:go_c","1",""
"null","","html-keyboard-response","655","706360","0.0-8.0-2.24","","<div style=""font-size:60px;"">+</div>","null","","","","","","",""
"517.0699999434873","","image-keyboard-response","656","706878","0.0-8.0-0.25","","img/grey.png","32","trial","null","false","0.4,0.6","4:nogo_d","",""
"null","","html-keyboard-response","657","707880","0.0-8.0-1.25","","<img src=""img/grey-r.png"" border=""10"">","null","trial","null","","0.4,0.6","4:nogo_d","1",""
"null","","html-keyboard-response","658","708881","0.0-8.0-2.25","","<div style=""font-size:60px;"">+</div>","null","","","","","","",""
"442.8850000258535","","image-keyboard-response","659","709324","0.0-8.0-0.26","","img/green.png","32","trial","32","true","0.8,0.2","1:go_a","",""
"null","","html-keyboard-response","660","710326","0.0-8.0-1.26","","<img src=""img/green-r.png"" border=""10"">","null","trial","32","","0.8,0.2","1:go_a","1",""
"null","","html-keyboard-response","661","711328","0.0-8.0-2.26","","<div style=""font-size:60px;"">+</div>","null","","","","","","",""
"null","","image-keyboard-response","662","712829","0.0-8.0-0.27","","img/blue.png","null","trial","null","true","0.2,0.8","2:nogo_b","",""
"null","","html-keyboard-response","663","713832","0.0-8.0-1.27","","<img src=""img/blue-r.png"">","null","trial","null","","0.2,0.8","2:nogo_b","1",""
"null","","html-keyboard-response","664","714833","0.0-8.0-2.27","","<div style=""font-size:60px;"">+</div>","null","","","","","","",""
"606.6299999365583","","image-keyboard-response","665","715441","0.0-8.0-0.28","","img/grey.png","32","trial","null","false","0.4,0.6","4:nogo_d","",""
"null","","html-keyboard-response","666","716443","0.0-8.0-1.28","","<img src=""img/grey-n.png"" border=""10"">","null","trial","null","","0.4,0.6","4:nogo_d","0",""
"null","","html-keyboard-response","667","717444","0.0-8.0-2.28","","<div style=""font-size:60px;"">+</div>","null","","","","","","",""
"427.21499991603196","","image-keyboard-response","668","717873","0.0-8.0-0.29","","img/orange.png","32","trial","32","true","0.6,0.4","3:go_c","",""
"null","","html-keyboard-response","669","718874","0.0-8.0-1.29","","<img src=""img/orange-r.png"" border=""10"">","null","trial","32","","0.6,0.4","3:go_c","1",""
"null","","html-keyboard-response","670","719876","0.0-8.0-2.29","","<div style=""font-size:60px;"">+</div>","null","","","","","","",""
"null","","image-keyboard-response","671","721378","0.0-8.0-0.30","","img/blue.png","null","trial","null","true","0.2,0.8","2:nogo_b","",""
"null","","html-keyboard-response","672","722381","0.0-8.0-1.30","","<img src=""img/blue-r.png"">","null","trial","null","","0.2,0.8","2:nogo_b","1",""
"null","","html-keyboard-response","673","723384","0.0-8.0-2.30","","<div style=""font-size:60px;"">+</div>","null","","","","","","",""
"739.6599999628961","","image-keyboard-response","674","724125","0.0-8.0-0.31","","img/green.png","32","trial","32","true","0.8,0.2","1:go_a","",""
