"rt","url","trial_type","trial_index","time_elapsed","internal_node_id","view_history","stimulus","key_press","test_part","correct_response","correct","use_rew","which_stim","reward","responses"
"176756.7800001707","consent.html","external-html","0","176867","0.0-0.0","","","","","","","","","",""
"89903.82000012323","","instructions","1","266782","0.0-1.0","[{""page_index"":0,""viewing_time"":6206.11000014469},{""page_index"":1,""viewing_time"":24553.049999987707},{""page_index"":2,""viewing_time"":5961.524999933317},{""page_index"":3,""viewing_time"":23728.59499999322},{""page_index"":4,""viewing_time"":18768.219999969006},{""page_index"":5,""viewing_time"":2411.324999993667},{""page_index"":6,""viewing_time"":8274.345000041649}]","","","","","","","","",""
"null","","image-keyboard-response","2","268284","0.0-2.0-0.0","","img/test2.PNG","null","practice","null","true","","","",""
"null","","html-keyboard-response","3","269286","0.0-2.0-1.0","","<img src=""img/test2-reward.PNG"">","null","","","","","","",""
"null","","html-keyboard-response","4","270287","0.0-2.0-2.0","","<div style=""font-size:60px;"">+</div>","null","","","","","","",""
"412.6150000374764","","image-keyboard-response","5","270701","0.0-2.0-0.1","","img/test1.PNG","32","practice","32","true","","","",""
"null","","html-keyboard-response","6","271704","0.0-2.0-1.1","","<img src=""img/test1-reward.PNG"" border=""10px; grey"">","null","","","","","","",""
"null","","html-keyboard-response","7","272704","0.0-2.0-2.1","","<div style=""font-size:60px;"">+</div>","null","","","","","","",""
"null","","image-keyboard-response","8","274205","0.0-2.0-0.2","","img/test3.PNG","null","practice","null","true","","","",""
"null","","html-keyboard-response","9","275207","0.0-2.0-1.2","","<img src=""img/test3-reward.PNG"">","null","","","","","","",""
"null","","html-keyboard-response","10","276207","0.0-2.0-2.2","","<div style=""font-size:60px;"">+</div>","null","","","","","","",""
"null","","image-keyboard-response","11","277709","0.0-2.0-0.3","","img/test3.PNG","null","practice","null","true","","","",""
"null","","html-keyboard-response","12","278711","0.0-2.0-1.3","","<img src=""img/test3-reward.PNG"">","null","","","","","","",""
"null","","html-keyboard-response","13","279713","0.0-2.0-2.3","","<div style=""font-size:60px;"">+</div>","null","","","","","","",""
"null","","image-keyboard-response","14","281217","0.0-2.0-0.4","","img/test2.PNG","null","practice","null","true","","","",""
"null","","html-keyboard-response","15","282219","0.0-2.0-1.4","","<img src=""img/test2-reward.PNG"">","null","","","","","","",""
"null","","html-keyboard-response","16","283220","0.0-2.0-2.4","","<div style=""font-size:60px;"">+</div>","null","","","","","","",""
"401.06000006198883","","image-keyboard-response","17","283622","0.0-2.0-0.5","","img/test1.PNG","32","practice","32","true","","","",""
"null","","html-keyboard-response","18","284623","0.0-2.0-1.5","","<img src=""img/test1-reward.PNG"" border=""10px; grey"">","null","","","","","","",""
"null","","html-keyboard-response","19","285624","0.0-2.0-2.5","","<div style=""font-size:60px;"">+</div>","null","","","","","","",""
"null","","image-keyboard-response","20","287126","0.0-2.0-0.6","","img/test3.PNG","null","practice","null","true","","","",""
"null","","html-keyboard-response","21","288127","0.0-2.0-1.6","","<img src=""img/test3-reward.PNG"">","null","","","","","","",""
"null","","html-keyboard-response","22","289130","0.0-2.0-2.6","","<div style=""font-size:60px;"">+</div>","null","","","","","","",""
"404.11000000312924","","image-keyboard-response","23","289535","0.0-2.0-0.7","","img/test1.PNG","32","practice","32","true","","","",""
"null","","html-keyboard-response","24","290537","0.0-2.0-1.7","","<img src=""img/test1-reward.PNG"" border=""10px; grey"">","null","","","","","","",""
"null","","html-keyboard-response","25","291539","0.0-2.0-2.7","","<div style=""font-size:60px;"">+</div>","null","","","","","","",""
"null","","image-keyboard-response","26","293040","0.0-2.0-0.8","","img/test2.PNG","null","practice","null","true","","","",""
"null","","html-keyboard-response","27","294042","0.0-2.0-1.8","","<img src=""img/test2-reward.PNG"">","null","","","","","","",""
"null","","html-keyboard-response","28","295043","0.0-2.0-2.8","","<div style=""font-size:60px;"">+</div>","null","","","","","","",""
"497.86000000312924","","image-keyboard-response","29","295542","0.0-2.0-0.9","","img/test1.PNG","32","practice","32","true","","","",""
"null","","html-keyboard-response","30","296544","0.0-2.0-1.9","","<img src=""img/test1-reward.PNG"" border=""10px; grey"">","null","","","","","","",""
"null","","html-keyboard-response","31","297547","0.0-2.0-2.9","","<div style=""font-size:60px;"">+</div>","null","","","","","","",""
"null","","image-keyboard-response","32","299048","0.0-2.0-0.10","","img/test3.PNG","null","practice","null","true","","","",""
"null","","html-keyboard-response","33","300049","0.0-2.0-1.10","","<img src=""img/test3-reward.PNG"">","null","","","","","","",""
"null","","html-keyboard-response","34","301051","0.0-2.0-2.10","","<div style=""font-size:60px;"">+</div>","null","","","","","","",""
"null","","image-keyboard-response","35","302553","0.0-2.0-0.11","","img/test2.PNG","null","practice","null","true","","","",""
"null","","html-keyboard-response","36","303555","0.0-2.0-1.11","","<img src=""img/test2-reward.PNG"">","null","","","","","","",""
"null","","html-keyboard-response","37","304557","0.0-2.0-2.11","","<div style=""font-size:60px;"">+</div>","null","","","","","","",""
"2714.9749998934567","","instructions","38","307273","0.0-3.0","[{""page_index"":0,""viewing_time"":2714.68500001356}]","","","","","","","","",""
"null","","image-keyboard-response","39","308775","0.0-4.0-0.0","","img/purple.png","null","trial","null","true","0.2,0.8","2:nogo_b","",""
"null","","html-keyboard-response","40","309778","0.0-4.0-1.0","","<img src=""img/purple-n.png"">","null","trial","null","","0.2,0.8","2:nogo_b","0",""
"null","","html-keyboard-response","41","310779","0.0-4.0-2.0","","<div style=""font-size:60px;"">+</div>","null","","","","","","",""
"null","","image-keyboard-response","42","312280","0.0-4.0-0.1","","img/pink.png","null","trial","32","false","0.8,0.2","1:go_a","",""
"null","","html-keyboard-response","43","313281","0.0-4.0-1.1","","<img src=""img/pink-n.png"">","null","trial","32","","0.8,0.2","1:go_a","0",""
"null","","html-keyboard-response","44","314282","0.0-4.0-2.1","","<div style=""font-size:60px;"">+</div>","null","","","","","","",""
"null","","image-keyboard-response","45","315784","0.0-4.0-0.2","","img/pink.png","null","trial","32","false","0.8,0.2","1:go_a","",""
"null","","html-keyboard-response","46","316787","0.0-4.0-1.2","","<img src=""img/pink-n.png"">","null","trial","32","","0.8,0.2","1:go_a","0",""
"null","","html-keyboard-response","47","317788","0.0-4.0-2.2","","<div style=""font-size:60px;"">+</div>","null","","","","","","",""
"1363.9800001401454","","image-keyboard-response","48","319153","0.0-4.0-0.3","","img/purple.png","32","trial","null","false","0.2,0.8","2:nogo_b","",""
"null","","html-keyboard-response","49","320155","0.0-4.0-1.3","","<img src=""img/purple-n.png"" border=""10"">","null","trial","null","","0.2,0.8","2:nogo_b","0",""
"null","","html-keyboard-response","50","321156","0.0-4.0-2.3","","<div style=""font-size:60px;"">+</div>","null","","","","","","",""
"null","","image-keyboard-response","51","322658","0.0-4.0-0.4","","img/pink.png","null","trial","32","false","0.8,0.2","1:go_a","",""
"null","","html-keyboard-response","52","323659","0.0-4.0-1.4","","<img src=""img/pink-n.png"">","null","trial","32","","0.8,0.2","1:go_a","0",""
"null","","html-keyboard-response","53","324661","0.0-4.0-2.4","","<div style=""font-size:60px;"">+</div>","null","","","","","","",""
"null","","image-keyboard-response","54","326163","0.0-4.0-0.5","","img/purple.png","null","trial","null","true","0.2,0.8","2:nogo_b","",""
"null","","html-keyboard-response","55","327165","0.0-4.0-1.5","","<img src=""img/purple-r.png"">","null","trial","null","","0.2,0.8","2:nogo_b","1",""
"null","","html-keyboard-response","56","328166","0.0-4.0-2.5","","<div style=""font-size:60px;"">+</div>","null","","","","","","",""
"597.0600000582635","","image-keyboard-response","57","328764","0.0-4.0-0.6","","img/purple.png","32","trial","null","false","0.2,0.8","2:nogo_b","",""
"null","","html-keyboard-response","58","329765","0.0-4.0-1.6","","<img src=""img/purple-n.png"" border=""10"">","null","trial","null","","0.2,0.8","2:nogo_b","0",""
"null","","html-keyboard-response","59","330766","0.0-4.0-2.6","","<div style=""font-size:60px;"">+</div>","null","","","","","","",""
"308.1700000911951","","image-keyboard-response","60","331075","0.0-4.0-0.7","","img/pink.png","32","trial","32","true","0.8,0.2","1:go_a","",""
"null","","html-keyboard-response","61","332083","0.0-4.0-1.7","","<img src=""img/pink-r.png"" border=""10"">","null","trial","32","","0.8,0.2","1:go_a","1",""
"null","","html-keyboard-response","62","333085","0.0-4.0-2.7","","<div style=""font-size:60px;"">+</div>","null","","","","","","",""
"522.205000044778","","image-keyboard-response","63","333608","0.0-4.0-0.8","","img/pink.png","32","trial","32","true","0.8,0.2","1:go_a","",""
"null","","html-keyboard-response","64","334610","0.0-4.0-1.8","","<img src=""img/pink-r.png"" border=""10"">","null","trial","32","","0.8,0.2","1:go_a","1",""
"null","","html-keyboard-response","65","335612","0.0-4.0-2.8","","<div style=""font-size:60px;"">+</div>","null","","","","","","",""
"614.8349998984486","","image-keyboard-response","66","336228","0.0-4.0-0.9","","img/purple.png","32","trial","null","false","0.2,0.8","2:nogo_b","",""
"null","","html-keyboard-response","67","337232","0.0-4.0-1.9","","<img src=""img/purple-n.png"" border=""10"">","null","trial","null","","0.2,0.8","2:nogo_b","0",""
"null","","html-keyboard-response","68","338233","0.0-4.0-2.9","","<div style=""font-size:60px;"">+</div>","null","","","","","","",""
"390.0700001977384","","image-keyboard-response","69","338624","0.0-4.0-0.10","","img/purple.png","32","trial","null","false","0.2,0.8","2:nogo_b","",""
"null","","html-keyboard-response","70","339630","0.0-4.0-1.10","","<img src=""img/purple-r.png"" border=""10"">","null","trial","null","","0.2,0.8","2:nogo_b","1",""
"null","","html-keyboard-response","71","340631","0.0-4.0-2.10","","<div style=""font-size:60px;"">+</div>","null","","","","","","",""
"446.34999986737967","","image-keyboard-response","72","341078","0.0-4.0-0.11","","img/pink.png","32","trial","32","true","0.8,0.2","1:go_a","",""
"null","","html-keyboard-response","73","342080","0.0-4.0-1.11","","<img src=""img/pink-r.png"" border=""10"">","null","trial","32","","0.8,0.2","1:go_a","1",""
"null","","html-keyboard-response","74","343082","0.0-4.0-2.11","","<div style=""font-size:60px;"">+</div>","null","","","","","","",""
"367.8199998103082","","image-keyboard-response","75","343451","0.0-4.0-0.12","","img/pink.png","32","trial","32","true","0.8,0.2","1:go_a","",""
"null","","html-keyboard-response","76","344452","0.0-4.0-1.12","","<img src=""img/pink-r.png"" border=""10"">","null","trial","32","","0.8,0.2","1:go_a","1",""
"null","","html-keyboard-response","77","345453","0.0-4.0-2.12","","<div style=""font-size:60px;"">+</div>","null","","","","","","",""
"292.3000000882894","","image-keyboard-response","78","345746","0.0-4.0-0.13","","img/purple.png","32","trial","null","false","0.2,0.8","2:nogo_b","",""
"null","","html-keyboard-response","79","346749","0.0-4.0-1.13","","<img src=""img/purple-n.png"" border=""10"">","null","trial","null","","0.2,0.8","2:nogo_b","0",""
"null","","html-keyboard-response","80","347751","0.0-4.0-2.13","","<div style=""font-size:60px;"">+</div>","null","","","","","","",""
"322.7300001308322","","image-keyboard-response","81","348075","0.0-4.0-0.14","","img/purple.png","32","trial","null","false","0.2,0.8","2:nogo_b","",""
"null","","html-keyboard-response","82","349076","0.0-4.0-1.14","","<img src=""img/purple-n.png"" border=""10"">","null","trial","null","","0.2,0.8","2:nogo_b","0",""
"null","","html-keyboard-response","83","350077","0.0-4.0-2.14","","<div style=""font-size:60px;"">+</div>","null","","","","","","",""
"318.7600001692772","","image-keyboard-response","84","350397","0.0-4.0-0.15","","img/pink.png","32","trial","32","true","0.8,0.2","1:go_a","",""
"null","","html-keyboard-response","85","351400","0.0-4.0-1.15","","<img src=""img/pink-r.png"" border=""10"">","null","trial","32","","0.8,0.2","1:go_a","1",""
"null","","html-keyboard-response","86","352401","0.0-4.0-2.15","","<div style=""font-size:60px;"">+</div>","null","","","","","","",""
"323.500000173226","","image-keyboard-response","87","352726","0.0-4.0-0.16","","img/purple.png","32","trial","null","false","0.2,0.8","2:nogo_b","",""
"null","","html-keyboard-response","88","353729","0.0-4.0-1.16","","<img src=""img/purple-n.png"" border=""10"">","null","trial","null","","0.2,0.8","2:nogo_b","0",""
"null","","html-keyboard-response","89","354730","0.0-4.0-2.16","","<div style=""font-size:60px;"">+</div>","null","","","","","","",""
"285.0449997931719","","image-keyboard-response","90","355016","0.0-4.0-0.17","","img/pink.png","32","trial","32","true","0.8,0.2","1:go_a","",""
"null","","html-keyboard-response","91","356019","0.0-4.0-1.17","","<img src=""img/pink-n.png"" border=""10"">","null","trial","32","","0.8,0.2","1:go_a","0",""
"null","","html-keyboard-response","92","357020","0.0-4.0-2.17","","<div style=""font-size:60px;"">+</div>","null","","","","","","",""
"283.2100000232458","","image-keyboard-response","93","357305","0.0-4.0-0.18","","img/purple.png","32","trial","null","false","0.2,0.8","2:nogo_b","",""
"null","","html-keyboard-response","94","358307","0.0-4.0-1.18","","<img src=""img/purple-n.png"" border=""10"">","null","trial","null","","0.2,0.8","2:nogo_b","0",""
"null","","html-keyboard-response","95","359309","0.0-4.0-2.18","","<div style=""font-size:60px;"">+</div>","null","","","","","","",""
"250.93000009655952","","image-keyboard-response","96","359561","0.0-4.0-0.19","","img/pink.png","32","trial","32","true","0.8,0.2","1:go_a","",""
"null","","html-keyboard-response","97","360564","0.0-4.0-1.19","","<img src=""img/pink-n.png"" border=""10"">","null","trial","32","","0.8,0.2","1:go_a","0",""
"null","","html-keyboard-response","98","361566","0.0-4.0-2.19","","<div style=""font-size:60px;"">+</div>","null","","","","","","",""
"940.4800001066178","","image-keyboard-response","99","362507","0.0-4.0-0.20","","img/pink.png","32","trial","32","true","0.8,0.2","1:go_a","",""
"null","","html-keyboard-response","100","363509","0.0-4.0-1.20","","<img src=""img/pink-r.png"" border=""10"">","null","trial","32","","0.8,0.2","1:go_a","1",""
"null","","html-keyboard-response","101","364511","0.0-4.0-2.20","","<div style=""font-size:60px;"">+</div>","null","","","","","","",""
"337.9800000693649","","image-keyboard-response","102","364850","0.0-4.0-0.21","","img/purple.png","32","trial","null","false","0.2,0.8","2:nogo_b","",""
"null","","html-keyboard-response","103","365851","0.0-4.0-1.21","","<img src=""img/purple-n.png"" border=""10"">","null","trial","null","","0.2,0.8","2:nogo_b","0",""
"null","","html-keyboard-response","104","366853","0.0-4.0-2.21","","<div style=""font-size:60px;"">+</div>","null","","","","","","",""
"291.399999987334","","image-keyboard-response","105","367145","0.0-4.0-0.22","","img/purple.png","32","trial","null","false","0.2,0.8","2:nogo_b","",""
"null","","html-keyboard-response","106","368147","0.0-4.0-1.22","","<img src=""img/purple-n.png"" border=""10"">","null","trial","null","","0.2,0.8","2:nogo_b","0",""
"null","","html-keyboard-response","107","369148","0.0-4.0-2.22","","<div style=""font-size:60px;"">+</div>","null","","","","","","",""
"375.6299999076873","","image-keyboard-response","108","369525","0.0-4.0-0.23","","img/pink.png","32","trial","32","true","0.8,0.2","1:go_a","",""
"null","","html-keyboard-response","109","370527","0.0-4.0-1.23","","<img src=""img/pink-r.png"" border=""10"">","null","trial","32","","0.8,0.2","1:go_a","1",""
"null","","html-keyboard-response","110","371529","0.0-4.0-2.23","","<div style=""font-size:60px;"">+</div>","null","","","","","","",""
"271.4199998881668","","image-keyboard-response","111","371802","0.0-4.0-0.24","","img/pink.png","32","trial","32","true","0.8,0.2","1:go_a","",""
"null","","html-keyboard-response","112","372804","0.0-4.0-1.24","","<img src=""img/pink-r.png"" border=""10"">","null","trial","32","","0.8,0.2","1:go_a","1",""
"null","","html-keyboard-response","113","373805","0.0-4.0-2.24","","<div style=""font-size:60px;"">+</div>","null","","","","","","",""
"388.75000015832484","","image-keyboard-response","114","374195","0.0-4.0-0.25","","img/purple.png","32","trial","null","false","0.2,0.8","2:nogo_b","",""
"null","","html-keyboard-response","115","375197","0.0-4.0-1.25","","<img src=""img/purple-n.png"" border=""10"">","null","trial","null","","0.2,0.8","2:nogo_b","0",""
"null","","html-keyboard-response","116","376199","0.0-4.0-2.25","","<div style=""font-size:60px;"">+</div>","null","","","","","","",""
"235.60000001452863","","image-keyboard-response","117","376435","0.0-4.0-0.26","","img/pink.png","32","trial","32","true","0.8,0.2","1:go_a","",""
"null","","html-keyboard-response","118","377437","0.0-4.0-1.26","","<img src=""img/pink-n.png"" border=""10"">","null","trial","32","","0.8,0.2","1:go_a","0",""
"null","","html-keyboard-response","119","378439","0.0-4.0-2.26","","<div style=""font-size:60px;"">+</div>","null","","","","","","",""
"268.35000002756715","","image-keyboard-response","120","378709","0.0-4.0-0.27","","img/purple.png","32","trial","null","false","0.2,0.8","2:nogo_b","",""
"null","","html-keyboard-response","121","379710","0.0-4.0-1.27","","<img src=""img/purple-n.png"" border=""10"">","null","trial","null","","0.2,0.8","2:nogo_b","0",""
"null","","html-keyboard-response","122","380712","0.0-4.0-2.27","","<div style=""font-size:60px;"">+</div>","null","","","","","","",""
"266.1850000731647","","image-keyboard-response","123","380980","0.0-4.0-0.28","","img/purple.png","32","trial","null","false","0.2,0.8","2:nogo_b","",""
"null","","html-keyboard-response","124","381982","0.0-4.0-1.28","","<img src=""img/purple-n.png"" border=""10"">","null","trial","null","","0.2,0.8","2:nogo_b","0",""
"null","","html-keyboard-response","125","382984","0.0-4.0-2.28","","<div style=""font-size:60px;"">+</div>","null","","","","","","",""
"323.2599999755621","","image-keyboard-response","126","383309","0.0-4.0-0.29","","img/pink.png","32","trial","32","true","0.8,0.2","1:go_a","",""
"null","","html-keyboard-response","127","384311","0.0-4.0-1.29","","<img src=""img/pink-r.png"" border=""10"">","null","trial","32","","0.8,0.2","1:go_a","1",""
"null","","html-keyboard-response","128","385312","0.0-4.0-2.29","","<div style=""font-size:60px;"">+</div>","null","","","","","","",""
"415.99499993026257","","image-keyboard-response","129","385729","0.0-4.0-0.30","","img/pink.png","32","trial","32","true","0.8,0.2","1:go_a","",""
"null","","html-keyboard-response","130","386731","0.0-4.0-1.30","","<img src=""img/pink-r.png"" border=""10"">","null","trial","32","","0.8,0.2","1:go_a","1",""
"null","","html-keyboard-response","131","387733","0.0-4.0-2.30","","<div style=""font-size:60px;"">+</div>","null","","","","","","",""
"1177.1799998823553","","image-keyboard-response","132","388910","0.0-4.0-0.31","","img/purple.png","32","trial","null","false","0.2,0.8","2:nogo_b","",""
"null","","html-keyboard-response","133","389912","0.0-4.0-1.31","","<img src=""img/purple-n.png"" border=""10"">","null","trial","null","","0.2,0.8","2:nogo_b","0",""
"null","","html-keyboard-response","134","390914","0.0-4.0-2.31","","<div style=""font-size:60px;"">+</div>","null","","","","","","",""
"335.5950000695884","","image-keyboard-response","135","391251","0.0-4.0-0.32","","img/purple.png","32","trial","null","false","0.2,0.8","2:nogo_b","",""
"null","","html-keyboard-response","136","392253","0.0-4.0-1.32","","<img src=""img/purple-n.png"" border=""10"">","null","trial","null","","0.2,0.8","2:nogo_b","0",""
"null","","html-keyboard-response","137","393254","0.0-4.0-2.32","","<div style=""font-size:60px;"">+</div>","null","","","","","","",""
"274.50500009581447","","image-keyboard-response","138","393530","0.0-4.0-0.33","","img/pink.png","32","trial","32","true","0.8,0.2","1:go_a","",""
"null","","html-keyboard-response","139","394532","0.0-4.0-1.33","","<img src=""img/pink-n.png"" border=""10"">","null","trial","32","","0.8,0.2","1:go_a","0",""
"null","","html-keyboard-response","140","395534","0.0-4.0-2.33","","<div style=""font-size:60px;"">+</div>","null","","","","","","",""
"990.1300000492483","","image-keyboard-response","141","396525","0.0-4.0-0.34","","img/purple.png","32","trial","null","false","0.2,0.8","2:nogo_b","",""
"null","","html-keyboard-response","142","397527","0.0-4.0-1.34","","<img src=""img/purple-r.png"" border=""10"">","null","trial","null","","0.2,0.8","2:nogo_b","1",""
"null","","html-keyboard-response","143","398529","0.0-4.0-2.34","","<div style=""font-size:60px;"">+</div>","null","","","","","","",""
"428.8500000257045","","image-keyboard-response","144","398959","0.0-4.0-0.35","","img/pink.png","32","trial","32","true","0.8,0.2","1:go_a","",""
"null","","html-keyboard-response","145","399961","0.0-4.0-1.35","","<img src=""img/pink-r.png"" border=""10"">","null","trial","32","","0.8,0.2","1:go_a","1",""
"null","","html-keyboard-response","146","400963","0.0-4.0-2.35","","<div style=""font-size:60px;"">+</div>","null","","","","","","",""
"457.6200000010431","","image-keyboard-response","147","401422","0.0-4.0-0.36","","img/pink.png","32","trial","32","true","0.8,0.2","1:go_a","",""
"null","","html-keyboard-response","148","402423","0.0-4.0-1.36","","<img src=""img/pink-n.png"" border=""10"">","null","trial","32","","0.8,0.2","1:go_a","0",""
"null","","html-keyboard-response","149","403425","0.0-4.0-2.36","","<div style=""font-size:60px;"">+</div>","null","","","","","","",""
"970.2099999412894","","image-keyboard-response","150","404396","0.0-4.0-0.37","","img/purple.png","32","trial","null","false","0.2,0.8","2:nogo_b","",""
"null","","html-keyboard-response","151","405398","0.0-4.0-1.37","","<img src=""img/purple-r.png"" border=""10"">","null","trial","null","","0.2,0.8","2:nogo_b","1",""
"null","","html-keyboard-response","152","406400","0.0-4.0-2.37","","<div style=""font-size:60px;"">+</div>","null","","","","","","",""
"null","","image-keyboard-response","153","407902","0.0-4.0-0.38","","img/pink.png","null","trial","32","false","0.8,0.2","1:go_a","",""
"null","","html-keyboard-response","154","408904","0.0-4.0-1.38","","<img src=""img/pink-n.png"">","null","trial","32","","0.8,0.2","1:go_a","0",""
"null","","html-keyboard-response","155","409906","0.0-4.0-2.38","","<div style=""font-size:60px;"">+</div>","null","","","","","","",""
"null","","image-keyboard-response","156","411408","0.0-4.0-0.39","","img/purple.png","null","trial","null","true","0.2,0.8","2:nogo_b","",""
"null","","html-keyboard-response","157","412411","0.0-4.0-1.39","","<img src=""img/purple-r.png"">","null","trial","null","","0.2,0.8","2:nogo_b","1",""
"null","","html-keyboard-response","158","413412","0.0-4.0-2.39","","<div style=""font-size:60px;"">+</div>","null","","","","","","",""
"null","","image-keyboard-response","159","414914","0.0-4.0-0.40","","img/purple.png","null","trial","null","true","0.2,0.8","2:nogo_b","",""
"null","","html-keyboard-response","160","415917","0.0-4.0-1.40","","<img src=""img/purple-r.png"">","null","trial","null","","0.2,0.8","2:nogo_b","1",""
"null","","html-keyboard-response","161","416918","0.0-4.0-2.40","","<div style=""font-size:60px;"">+</div>","null","","","","","","",""
"null","","image-keyboard-response","162","418422","0.0-4.0-0.41","","img/pink.png","null","trial","32","false","0.8,0.2","1:go_a","",""
"null","","html-keyboard-response","163","419423","0.0-4.0-1.41","","<img src=""img/pink-n.png"">","null","trial","32","","0.8,0.2","1:go_a","0",""
"null","","html-keyboard-response","164","420426","0.0-4.0-2.41","","<div style=""font-size:60px;"">+</div>","null","","","","","","",""
"487.78500012122095","","image-keyboard-response","165","420914","0.0-4.0-0.42","","img/pink.png","32","trial","32","true","0.8,0.2","1:go_a","",""
"null","","html-keyboard-response","166","421916","0.0-4.0-1.42","","<img src=""img/pink-r.png"" border=""10"">","null","trial","32","","0.8,0.2","1:go_a","1",""
"null","","html-keyboard-response","167","422918","0.0-4.0-2.42","","<div style=""font-size:60px;"">+</div>","null","","","","","","",""
"377.5700000114739","","image-keyboard-response","168","423297","0.0-4.0-0.43","","img/purple.png","32","trial","null","false","0.2,0.8","2:nogo_b","",""
"null","","html-keyboard-response","169","424301","0.0-4.0-1.43","","<img src=""img/purple-r.png"" border=""10"">","null","trial","null","","0.2,0.8","2:nogo_b","1",""
"null","","html-keyboard-response","170","425302","0.0-4.0-2.43","","<div style=""font-size:60px;"">+</div>","null","","","","","","",""
"603.5299999639392","","image-keyboard-response","171","425906","0.0-4.0-0.44","","img/pink.png","32","trial","32","true","0.8,0.2","1:go_a","",""
"null","","html-keyboard-response","172","426908","0.0-4.0-1.44","","<img src=""img/pink-r.png"" border=""10"">","null","trial","32","","0.8,0.2","1:go_a","1",""
"null","","html-keyboard-response","173","427909","0.0-4.0-2.44","","<div style=""font-size:60px;"">+</div>","null","","","","","","",""
"359.6350001171231","","image-keyboard-response","174","428270","0.0-4.0-0.45","","img/purple.png","32","trial","null","false","0.2,0.8","2:nogo_b","",""
"null","","html-keyboard-response","175","429271","0.0-4.0-1.45","","<img src=""img/purple-n.png"" border=""10"">","null","trial","null","","0.2,0.8","2:nogo_b","0",""
"null","","html-keyboard-response","176","430272","0.0-4.0-2.45","","<div style=""font-size:60px;"">+</div>","null","","","","","","",""
"261.0100000165403","","image-keyboard-response","177","430534","0.0-4.0-0.46","","img/pink.png","32","trial","32","true","0.8,0.2","1:go_a","",""
"null","","html-keyboard-response","178","431537","0.0-4.0-1.46","","<img src=""img/pink-r.png"" border=""10"">","null","trial","32","","0.8,0.2","1:go_a","1",""
"null","","html-keyboard-response","179","432539","0.0-4.0-2.46","","<div style=""font-size:60px;"">+</div>","null","","","","","","",""
"438.6800001375377","","image-keyboard-response","180","432979","0.0-4.0-0.47","","img/purple.png","32","trial","null","false","0.2,0.8","2:nogo_b","",""
"null","","html-keyboard-response","181","433981","0.0-4.0-1.47","","<img src=""img/purple-n.png"" border=""10"">","null","trial","null","","0.2,0.8","2:nogo_b","0",""
"null","","html-keyboard-response","182","434982","0.0-4.0-2.47","","<div style=""font-size:60px;"">+</div>","null","","","","","","",""
"233.56999992392957","","image-keyboard-response","183","435216","0.0-4.0-0.48","","img/purple.png","32","trial","null","false","0.2,0.8","2:nogo_b","",""
"null","","html-keyboard-response","184","436219","0.0-4.0-1.48","","<img src=""img/purple-n.png"" border=""10"">","null","trial","null","","0.2,0.8","2:nogo_b","0",""
"null","","html-keyboard-response","185","437220","0.0-4.0-2.48","","<div style=""font-size:60px;"">+</div>","null","","","","","","",""
"206.1999998986721","","image-keyboard-response","186","437427","0.0-4.0-0.49","","img/pink.png","32","trial","32","true","0.8,0.2","1:go_a","",""
"null","","html-keyboard-response","187","438428","0.0-4.0-1.49","","<img src=""img/pink-r.png"" border=""10"">","null","trial","32","","0.8,0.2","1:go_a","1",""
"null","","html-keyboard-response","188","439429","0.0-4.0-2.49","","<div style=""font-size:60px;"">+</div>","null","","","","","","",""
"110.5899999383837","","image-keyboard-response","189","439541","0.0-4.0-0.50","","img/pink.png","32","trial","32","true","0.8,0.2","1:go_a","",""
"null","","html-keyboard-response","190","440543","0.0-4.0-1.50","","<img src=""img/pink-r.png"" border=""10"">","null","trial","32","","0.8,0.2","1:go_a","1",""
"null","","html-keyboard-response","191","441544","0.0-4.0-2.50","","<div style=""font-size:60px;"">+</div>","null","","","","","","",""
"34.32000009343028","","image-keyboard-response","192","441579","0.0-4.0-0.51","","img/purple.png","32","trial","null","false","0.2,0.8","2:nogo_b","",""
"null","","html-keyboard-response","193","442581","0.0-4.0-1.51","","<img src=""img/purple-n.png"" border=""10"">","null","trial","null","","0.2,0.8","2:nogo_b","0",""
"null","","html-keyboard-response","194","443582","0.0-4.0-2.51","","<div style=""font-size:60px;"">+</div>","null","","","","","","",""
"164.6050000563264","","image-keyboard-response","195","443748","0.0-4.0-0.52","","img/pink.png","32","trial","32","true","0.8,0.2","1:go_a","",""
"null","","html-keyboard-response","196","444750","0.0-4.0-1.52","","<img src=""img/pink-r.png"" border=""10"">","null","trial","32","","0.8,0.2","1:go_a","1",""
"null","","html-keyboard-response","197","445751","0.0-4.0-2.52","","<div style=""font-size:60px;"">+</div>","null","","","","","","",""
"184.98999997973442","","image-keyboard-response","198","445937","0.0-4.0-0.53","","img/purple.png","32","trial","null","false","0.2,0.8","2:nogo_b","",""
"null","","html-keyboard-response","199","446939","0.0-4.0-1.53","","<img src=""img/purple-r.png"" border=""10"">","null","trial","null","","0.2,0.8","2:nogo_b","1",""
"null","","html-keyboard-response","200","447941","0.0-4.0-2.53","","<div style=""font-size:60px;"">+</div>","null","","","","","","",""
"243.32000012509525","","image-keyboard-response","201","448185","0.0-4.0-0.54","","img/pink.png","32","trial","32","true","0.8,0.2","1:go_a","",""
"null","","html-keyboard-response","202","449187","0.0-4.0-1.54","","<img src=""img/pink-n.png"" border=""10"">","null","trial","32","","0.8,0.2","1:go_a","0",""
"null","","html-keyboard-response","203","450188","0.0-4.0-2.54","","<div style=""font-size:60px;"">+</div>","null","","","","","","",""
"107.4900000821799","","image-keyboard-response","204","450296","0.0-4.0-0.55","","img/purple.png","32","trial","null","false","0.2,0.8","2:nogo_b","",""
"null","","html-keyboard-response","205","451298","0.0-4.0-1.55","","<img src=""img/purple-n.png"" border=""10"">","null","trial","null","","0.2,0.8","2:nogo_b","0",""
"null","","html-keyboard-response","206","452299","0.0-4.0-2.55","","<div style=""font-size:60px;"">+</div>","null","","","","","","",""
"224.5500001590699","","image-keyboard-response","207","452524","0.0-4.0-0.56","","img/purple.png","32","trial","null","false","0.2,0.8","2:nogo_b","",""
"null","","html-keyboard-response","208","453528","0.0-4.0-1.56","","<img src=""img/purple-n.png"" border=""10"">","null","trial","null","","0.2,0.8","2:nogo_b","0",""
"null","","html-keyboard-response","209","454529","0.0-4.0-2.56","","<div style=""font-size:60px;"">+</div>","null","","","","","","",""
"378.1999999191612","","image-keyboard-response","210","454908","0.0-4.0-0.57","","img/pink.png","32","trial","32","true","0.8,0.2","1:go_a","",""
"null","","html-keyboard-response","211","455910","0.0-4.0-1.57","","<img src=""img/pink-r.png"" border=""10"">","null","trial","32","","0.8,0.2","1:go_a","1",""
"null","","html-keyboard-response","212","456911","0.0-4.0-2.57","","<div style=""font-size:60px;"">+</div>","null","","","","","","",""
"436.5399999078363","","image-keyboard-response","213","457349","0.0-4.0-0.58","","img/pink.png","32","trial","32","true","0.8,0.2","1:go_a","",""
"null","","html-keyboard-response","214","458351","0.0-4.0-1.58","","<img src=""img/pink-r.png"" border=""10"">","null","trial","32","","0.8,0.2","1:go_a","1",""
"null","","html-keyboard-response","215","459352","0.0-4.0-2.58","","<div style=""font-size:60px;"">+</div>","null","","","","","","",""
"220.44499986805022","","image-keyboard-response","216","459574","0.0-4.0-0.59","","img/purple.png","32","trial","null","false","0.2,0.8","2:nogo_b","",""
"null","","html-keyboard-response","217","460576","0.0-4.0-1.59","","<img src=""img/purple-n.png"" border=""10"">","null","trial","null","","0.2,0.8","2:nogo_b","0",""
"null","","html-keyboard-response","218","461578","0.0-4.0-2.59","","<div style=""font-size:60px;"">+</div>","null","","","","","","",""
"3470.489999977872","","instructions","219","465049","0.0-5.0","[{""page_index"":0,""viewing_time"":3470.285000046715}]","","","","","","","","",""
"814.930000109598","","image-keyboard-response","220","465865","0.0-6.0-0.0","","img/red.png","32","trial","32","true","0.8,0.2","1:go_a","",""
"null","","html-keyboard-response","221","466867","0.0-6.0-1.0","","<img src=""img/red-r.png"" border=""10"">","null","trial","32","","0.8,0.2","1:go_a","1",""
"null","","html-keyboard-response","222","467868","0.0-6.0-2.0","","<div style=""font-size:60px;"">+</div>","null","","","","","","",""
"281.71500004827976","","image-keyboard-response","223","468150","0.0-6.0-0.1","","img/pink.png","32","trial","null","false","0.2,0.8","4:nogo_d","",""
"null","","html-keyboard-response","224","469152","0.0-6.0-1.1","","<img src=""img/pink-r.png"" border=""10"">","null","trial","null","","0.2,0.8","4:nogo_d","1",""
"null","","html-keyboard-response","225","470154","0.0-6.0-2.1","","<div style=""font-size:60px;"">+</div>","null","","","","","","",""
"229.24999985843897","","image-keyboard-response","226","470384","0.0-6.0-0.2","","img/green.png","32","trial","null","false","0.2,0.8","2:nogo_b","",""
"null","","html-keyboard-response","227","471386","0.0-6.0-1.2","","<img src=""img/green-r.png"" border=""10"">","null","trial","null","","0.2,0.8","2:nogo_b","1",""
"null","","html-keyboard-response","228","472389","0.0-6.0-2.2","","<div style=""font-size:60px;"">+</div>","null","","","","","","",""
"221.2549999821931","","image-keyboard-response","229","472611","0.0-6.0-0.3","","img/purple.png","32","trial","32","true","0.8,0.2","3:go_c","",""
"null","","html-keyboard-response","230","473613","0.0-6.0-1.3","","<img src=""img/purple-r.png"" border=""10"">","null","trial","32","","0.8,0.2","3:go_c","1",""
"null","","html-keyboard-response","231","474614","0.0-6.0-2.3","","<div style=""font-size:60px;"">+</div>","null","","","","","","",""
"148.46000005491078","","image-keyboard-response","232","474764","0.0-6.0-0.4","","img/green.png","32","trial","null","false","0.2,0.8","2:nogo_b","",""
"null","","html-keyboard-response","233","475767","0.0-6.0-1.4","","<img src=""img/green-r.png"" border=""10"">","null","trial","null","","0.2,0.8","2:nogo_b","1",""
"null","","html-keyboard-response","234","476769","0.0-6.0-2.4","","<div style=""font-size:60px;"">+</div>","null","","","","","","",""
"189.66499995440245","","image-keyboard-response","235","476960","0.0-6.0-0.5","","img/pink.png","32","trial","null","false","0.2,0.8","4:nogo_d","",""
"null","","html-keyboard-response","236","477962","0.0-6.0-1.5","","<img src=""img/pink-r.png"" border=""10"">","null","trial","null","","0.2,0.8","4:nogo_d","1",""
"null","","html-keyboard-response","237","478963","0.0-6.0-2.5","","<div style=""font-size:60px;"">+</div>","null","","","","","","",""
"198.08000000193715","","image-keyboard-response","238","479162","0.0-6.0-0.6","","img/red.png","32","trial","32","true","0.8,0.2","1:go_a","",""
"null","","html-keyboard-response","239","480165","0.0-6.0-1.6","","<img src=""img/red-n.png"" border=""10"">","null","trial","32","","0.8,0.2","1:go_a","0",""
"null","","html-keyboard-response","240","481167","0.0-6.0-2.6","","<div style=""font-size:60px;"">+</div>","null","","","","","","",""
"220.6250000745058","","image-keyboard-response","241","481389","0.0-6.0-0.7","","img/purple.png","32","trial","32","true","0.8,0.2","3:go_c","",""
"null","","html-keyboard-response","242","482390","0.0-6.0-1.7","","<img src=""img/purple-r.png"" border=""10"">","null","trial","32","","0.8,0.2","3:go_c","1",""
"null","","html-keyboard-response","243","483392","0.0-6.0-2.7","","<div style=""font-size:60px;"">+</div>","null","","","","","","",""
"116.13500001840293","","image-keyboard-response","244","483509","0.0-6.0-0.8","","img/purple.png","32","trial","32","true","0.8,0.2","3:go_c","",""
"null","","html-keyboard-response","245","484511","0.0-6.0-1.8","","<img src=""img/purple-r.png"" border=""10"">","null","trial","32","","0.8,0.2","3:go_c","1",""
"null","","html-keyboard-response","246","485512","0.0-6.0-2.8","","<div style=""font-size:60px;"">+</div>","null","","","","","","",""
"103.07499999180436","","image-keyboard-response","247","485616","0.0-6.0-0.9","","img/green.png","32","trial","null","false","0.2,0.8","2:nogo_b","",""
"null","","html-keyboard-response","248","486618","0.0-6.0-1.9","","<img src=""img/green-r.png"" border=""10"">","null","trial","null","","0.2,0.8","2:nogo_b","1",""
"null","","html-keyboard-response","249","487619","0.0-6.0-2.9","","<div style=""font-size:60px;"">+</div>","null","","","","","","",""
"190.4749998357147","","image-keyboard-response","250","487810","0.0-6.0-0.10","","img/pink.png","32","trial","null","false","0.2,0.8","4:nogo_d","",""
"null","","html-keyboard-response","251","488814","0.0-6.0-1.10","","<img src=""img/pink-n.png"" border=""10"">","null","trial","null","","0.2,0.8","4:nogo_d","0",""
"null","","html-keyboard-response","252","489815","0.0-6.0-2.10","","<div style=""font-size:60px;"">+</div>","null","","","","","","",""
"105.32000008970499","","image-keyboard-response","253","489921","0.0-6.0-0.11","","img/red.png","32","trial","32","true","0.8,0.2","1:go_a","",""
"null","","html-keyboard-response","254","490923","0.0-6.0-1.11","","<img src=""img/red-n.png"" border=""10"">","null","trial","32","","0.8,0.2","1:go_a","0",""
"null","","html-keyboard-response","255","491924","0.0-6.0-2.11","","<div style=""font-size:60px;"">+</div>","null","","","","","","",""
"314.174999948591","","image-keyboard-response","256","492239","0.0-6.0-0.12","","img/green.png","32","trial","null","false","0.2,0.8","2:nogo_b","",""
"null","","html-keyboard-response","257","493241","0.0-6.0-1.12","","<img src=""img/green-n.png"" border=""10"">","null","trial","null","","0.2,0.8","2:nogo_b","0",""
"null","","html-keyboard-response","258","494244","0.0-6.0-2.12","","<div style=""font-size:60px;"">+</div>","null","","","","","","",""
"152.92000002227724","","image-keyboard-response","259","494398","0.0-6.0-0.13","","img/red.png","32","trial","32","true","0.8,0.2","1:go_a","",""
"null","","html-keyboard-response","260","495400","0.0-6.0-1.13","","<img src=""img/red-r.png"" border=""10"">","null","trial","32","","0.8,0.2","1:go_a","1",""
"null","","html-keyboard-response","261","496402","0.0-6.0-2.13","","<div style=""font-size:60px;"">+</div>","null","","","","","","",""
"228.18499989807606","","image-keyboard-response","262","496632","0.0-6.0-0.14","","img/pink.png","32","trial","null","false","0.2,0.8","4:nogo_d","",""
"null","","html-keyboard-response","263","497634","0.0-6.0-1.14","","<img src=""img/pink-r.png"" border=""10"">","null","trial","null","","0.2,0.8","4:nogo_d","1",""
"null","","html-keyboard-response","264","498635","0.0-6.0-2.14","","<div style=""font-size:60px;"">+</div>","null","","","","","","",""
"48.67499996908009","","image-keyboard-response","265","498685","0.0-6.0-0.15","","img/purple.png","32","trial","32","true","0.8,0.2","3:go_c","",""
"null","","html-keyboard-response","266","499687","0.0-6.0-1.15","","<img src=""img/purple-r.png"" border=""10"">","null","trial","32","","0.8,0.2","3:go_c","1",""
"null","","html-keyboard-response","267","500688","0.0-6.0-2.15","","<div style=""font-size:60px;"">+</div>","null","","","","","","",""
"142.75499992072582","","image-keyboard-response","268","500832","0.0-6.0-0.16","","img/purple.png","32","trial","32","true","0.8,0.2","3:go_c","",""
"null","","html-keyboard-response","269","501834","0.0-6.0-1.16","","<img src=""img/purple-r.png"" border=""10"">","null","trial","32","","0.8,0.2","3:go_c","1",""
"null","","html-keyboard-response","270","502835","0.0-6.0-2.16","","<div style=""font-size:60px;"">+</div>","null","","","","","","",""
"145.37000004202127","","image-keyboard-response","271","502982","0.0-6.0-0.17","","img/red.png","32","trial","32","true","0.8,0.2","1:go_a","",""
"null","","html-keyboard-response","272","503984","0.0-6.0-1.17","","<img src=""img/red-r.png"" border=""10"">","null","trial","32","","0.8,0.2","1:go_a","1",""
"null","","html-keyboard-response","273","504985","0.0-6.0-2.17","","<div style=""font-size:60px;"">+</div>","null","","","","","","",""
"226.38999996706843","","image-keyboard-response","274","505212","0.0-6.0-0.18","","img/pink.png","32","trial","null","false","0.2,0.8","4:nogo_d","",""
"null","","html-keyboard-response","275","506215","0.0-6.0-1.18","","<img src=""img/pink-n.png"" border=""10"">","null","trial","null","","0.2,0.8","4:nogo_d","0",""
"null","","html-keyboard-response","276","507216","0.0-6.0-2.18","","<div style=""font-size:60px;"">+</div>","null","","","","","","",""
"250.82499999552965","","image-keyboard-response","277","507467","0.0-6.0-0.19","","img/green.png","32","trial","null","false","0.2,0.8","2:nogo_b","",""
"null","","html-keyboard-response","278","508470","0.0-6.0-1.19","","<img src=""img/green-n.png"" border=""10"">","null","trial","null","","0.2,0.8","2:nogo_b","0",""
"null","","html-keyboard-response","279","509472","0.0-6.0-2.19","","<div style=""font-size:60px;"">+</div>","null","","","","","","",""
"226.78499994799495","","image-keyboard-response","280","509699","0.0-6.0-0.20","","img/red.png","32","trial","32","true","0.8,0.2","1:go_a","",""
"null","","html-keyboard-response","281","510704","0.0-6.0-1.20","","<img src=""img/red-r.png"" border=""10"">","null","trial","32","","0.8,0.2","1:go_a","1",""
"null","","html-keyboard-response","282","511705","0.0-6.0-2.20","","<div style=""font-size:60px;"">+</div>","null","","","","","","",""
"226.7450001090765","","image-keyboard-response","283","511933","0.0-6.0-0.21","","img/pink.png","32","trial","null","false","0.2,0.8","4:nogo_d","",""
"null","","html-keyboard-response","284","512935","0.0-6.0-1.21","","<img src=""img/pink-n.png"" border=""10"">","null","trial","null","","0.2,0.8","4:nogo_d","0",""
"null","","html-keyboard-response","285","513936","0.0-6.0-2.21","","<div style=""font-size:60px;"">+</div>","null","","","","","","",""
"220.3700002282858","","image-keyboard-response","286","514158","0.0-6.0-0.22","","img/green.png","32","trial","null","false","0.2,0.8","2:nogo_b","",""
"null","","html-keyboard-response","287","515165","0.0-6.0-1.22","","<img src=""img/green-n.png"" border=""10"">","null","trial","null","","0.2,0.8","2:nogo_b","0",""
"null","","html-keyboard-response","288","516167","0.0-6.0-2.22","","<div style=""font-size:60px;"">+</div>","null","","","","","","",""
"9.880000026896596","","image-keyboard-response","289","516178","0.0-6.0-0.23","","img/purple.png","32","trial","32","true","0.8,0.2","3:go_c","",""
"null","","html-keyboard-response","290","517179","0.0-6.0-1.23","","<img src=""img/purple-r.png"" border=""10"">","null","trial","32","","0.8,0.2","3:go_c","1",""
"null","","html-keyboard-response","291","518181","0.0-6.0-2.23","","<div style=""font-size:60px;"">+</div>","null","","","","","","",""
"266.7650000657886","","image-keyboard-response","292","518448","0.0-6.0-0.24","","img/purple.png","32","trial","32","true","0.8,0.2","3:go_c","",""
"null","","html-keyboard-response","293","519450","0.0-6.0-1.24","","<img src=""img/purple-r.png"" border=""10"">","null","trial","32","","0.8,0.2","3:go_c","1",""
"null","","html-keyboard-response","294","520452","0.0-6.0-2.24","","<div style=""font-size:60px;"">+</div>","null","","","","","","",""
"94.63499998673797","","image-keyboard-response","295","520547","0.0-6.0-0.25","","img/pink.png","32","trial","null","false","0.2,0.8","4:nogo_d","",""
"null","","html-keyboard-response","296","521549","0.0-6.0-1.25","","<img src=""img/pink-n.png"" border=""10"">","null","trial","null","","0.2,0.8","4:nogo_d","0",""
"null","","html-keyboard-response","297","522551","0.0-6.0-2.25","","<div style=""font-size:60px;"">+</div>","null","","","","","","",""
"217.48999995179474","","image-keyboard-response","298","522769","0.0-6.0-0.26","","img/green.png","32","trial","null","false","0.2,0.8","2:nogo_b","",""
"null","","html-keyboard-response","299","523771","0.0-6.0-1.26","","<img src=""img/green-r.png"" border=""10"">","null","trial","null","","0.2,0.8","2:nogo_b","1",""
"null","","html-keyboard-response","300","524772","0.0-6.0-2.26","","<div style=""font-size:60px;"">+</div>","null","","","","","","",""
"234.74500002339482","","image-keyboard-response","301","525008","0.0-6.0-0.27","","img/red.png","32","trial","32","true","0.8,0.2","1:go_a","",""
"null","","html-keyboard-response","302","526010","0.0-6.0-1.27","","<img src=""img/red-r.png"" border=""10"">","null","trial","32","","0.8,0.2","1:go_a","1",""
"null","","html-keyboard-response","303","527012","0.0-6.0-2.27","","<div style=""font-size:60px;"">+</div>","null","","","","","","",""
"234.9199999589473","","image-keyboard-response","304","527248","0.0-6.0-0.28","","img/green.png","32","trial","null","false","0.2,0.8","2:nogo_b","",""
"null","","html-keyboard-response","305","528250","0.0-6.0-1.28","","<img src=""img/green-n.png"" border=""10"">","null","trial","null","","0.2,0.8","2:nogo_b","0",""
"null","","html-keyboard-response","306","529252","0.0-6.0-2.28","","<div style=""font-size:60px;"">+</div>","null","","","","","","",""
"220.26000008918345","","image-keyboard-response","307","529473","0.0-6.0-0.29","","img/purple.png","32","trial","32","true","0.8,0.2","3:go_c","",""
"null","","html-keyboard-response","308","530475","0.0-6.0-1.29","","<img src=""img/purple-r.png"" border=""10"">","null","trial","32","","0.8,0.2","3:go_c","1",""
"null","","html-keyboard-response","309","531476","0.0-6.0-2.29","","<div style=""font-size:60px;"">+</div>","null","","","","","","",""
"245.31500018201768","","image-keyboard-response","310","531722","0.0-6.0-0.30","","img/pink.png","32","trial","null","false","0.2,0.8","4:nogo_d","",""
"null","","html-keyboard-response","311","532724","0.0-6.0-1.30","","<img src=""img/pink-n.png"" border=""10"">","null","trial","null","","0.2,0.8","4:nogo_d","0",""
"null","","html-keyboard-response","312","533725","0.0-6.0-2.30","","<div style=""font-size:60px;"">+</div>","null","","","","","","",""
"258.94999993033707","","image-keyboard-response","313","533985","0.0-6.0-0.31","","img/red.png","32","trial","32","true","0.8,0.2","1:go_a","",""
"null","","html-keyboard-response","314","534988","0.0-6.0-1.31","","<img src=""img/red-r.png"" border=""10"">","null","trial","32","","0.8,0.2","1:go_a","1",""
"null","","html-keyboard-response","315","535989","0.0-6.0-2.31","","<div style=""font-size:60px;"">+</div>","null","","","","","","",""
"238.85000008158386","","image-keyboard-response","316","536228","0.0-6.0-0.32","","img/red.png","32","trial","32","true","0.8,0.2","1:go_a","",""
"null","","html-keyboard-response","317","537231","0.0-6.0-1.32","","<img src=""img/red-r.png"" border=""10"">","null","trial","32","","0.8,0.2","1:go_a","1",""
"null","","html-keyboard-response","318","538233","0.0-6.0-2.32","","<div style=""font-size:60px;"">+</div>","null","","","","","","",""
"128.50499991327524","","image-keyboard-response","319","538362","0.0-6.0-0.33","","img/pink.png","32","trial","null","false","0.2,0.8","4:nogo_d","",""
"null","","html-keyboard-response","320","539366","0.0-6.0-1.33","","<img src=""img/pink-n.png"" border=""10"">","null","trial","null","","0.2,0.8","4:nogo_d","0",""
"null","","html-keyboard-response","321","540368","0.0-6.0-2.33","","<div style=""font-size:60px;"">+</div>","null","","","","","","",""
"252.03500012867153","","image-keyboard-response","322","540621","0.0-6.0-0.34","","img/purple.png","32","trial","32","true","0.8,0.2","3:go_c","",""
"null","","html-keyboard-response","323","541623","0.0-6.0-1.34","","<img src=""img/purple-r.png"" border=""10"">","null","trial","32","","0.8,0.2","3:go_c","1",""
"null","","html-keyboard-response","324","542624","0.0-6.0-2.34","","<div style=""font-size:60px;"">+</div>","null","","","","","","",""
"260.8600000385195","","image-keyboard-response","325","542886","0.0-6.0-0.35","","img/green.png","32","trial","null","false","0.2,0.8","2:nogo_b","",""
"null","","html-keyboard-response","326","543888","0.0-6.0-1.35","","<img src=""img/green-n.png"" border=""10"">","null","trial","null","","0.2,0.8","2:nogo_b","0",""
"null","","html-keyboard-response","327","544889","0.0-6.0-2.35","","<div style=""font-size:60px;"">+</div>","null","","","","","","",""
"276.13500016741455","","image-keyboard-response","328","545167","0.0-6.0-0.36","","img/pink.png","32","trial","null","false","0.2,0.8","4:nogo_d","",""
"null","","html-keyboard-response","329","546170","0.0-6.0-1.36","","<img src=""img/pink-n.png"" border=""10"">","null","trial","null","","0.2,0.8","4:nogo_d","0",""
"null","","html-keyboard-response","330","547172","0.0-6.0-2.36","","<div style=""font-size:60px;"">+</div>","null","","","","","","",""
"250.44999993406236","","image-keyboard-response","331","547423","0.0-6.0-0.37","","img/red.png","32","trial","32","true","0.8,0.2","1:go_a","",""
"null","","html-keyboard-response","332","548425","0.0-6.0-1.37","","<img src=""img/red-r.png"" border=""10"">","null","trial","32","","0.8,0.2","1:go_a","1",""
"null","","html-keyboard-response","333","549426","0.0-6.0-2.37","","<div style=""font-size:60px;"">+</div>","null","","","","","","",""
"221.87000000849366","","image-keyboard-response","334","549649","0.0-6.0-0.38","","img/purple.png","32","trial","32","true","0.8,0.2","3:go_c","",""
"null","","html-keyboard-response","335","550651","0.0-6.0-1.38","","<img src=""img/purple-r.png"" border=""10"">","null","trial","32","","0.8,0.2","3:go_c","1",""
"null","","html-keyboard-response","336","551653","0.0-6.0-2.38","","<div style=""font-size:60px;"">+</div>","null","","","","","","",""
"227.13500005193055","","image-keyboard-response","337","551881","0.0-6.0-0.39","","img/green.png","32","trial","null","false","0.2,0.8","2:nogo_b","",""
"null","","html-keyboard-response","338","552883","0.0-6.0-1.39","","<img src=""img/green-n.png"" border=""10"">","null","trial","null","","0.2,0.8","2:nogo_b","0",""
"null","","html-keyboard-response","339","553884","0.0-6.0-2.39","","<div style=""font-size:60px;"">+</div>","null","","","","","","",""
"123.22000018320978","","image-keyboard-response","340","554008","0.0-6.0-0.40","","img/red.png","32","trial","32","true","0.8,0.2","1:go_a","",""
"null","","html-keyboard-response","341","555010","0.0-6.0-1.40","","<img src=""img/red-n.png"" border=""10"">","null","trial","32","","0.8,0.2","1:go_a","0",""
"null","","html-keyboard-response","342","556011","0.0-6.0-2.40","","<div style=""font-size:60px;"">+</div>","null","","","","","","",""
"234.78000005707145","","image-keyboard-response","343","556247","0.0-6.0-0.41","","img/pink.png","32","trial","null","false","0.2,0.8","4:nogo_d","",""
"null","","html-keyboard-response","344","557248","0.0-6.0-1.41","","<img src=""img/pink-n.png"" border=""10"">","null","trial","null","","0.2,0.8","4:nogo_d","0",""
"null","","html-keyboard-response","345","558249","0.0-6.0-2.41","","<div style=""font-size:60px;"">+</div>","null","","","","","","",""
"227.78499987907708","","image-keyboard-response","346","558478","0.0-6.0-0.42","","img/purple.png","32","trial","32","true","0.8,0.2","3:go_c","",""
"null","","html-keyboard-response","347","559481","0.0-6.0-1.42","","<img src=""img/purple-r.png"" border=""10"">","null","trial","32","","0.8,0.2","3:go_c","1",""
"null","","html-keyboard-response","348","560481","0.0-6.0-2.42","","<div style=""font-size:60px;"">+</div>","null","","","","","","",""
"185.78500021249056","","image-keyboard-response","349","560668","0.0-6.0-0.43","","img/green.png","32","trial","null","false","0.2,0.8","2:nogo_b","",""
"null","","html-keyboard-response","350","561671","0.0-6.0-1.43","","<img src=""img/green-n.png"" border=""10"">","null","trial","null","","0.2,0.8","2:nogo_b","0",""
"null","","html-keyboard-response","351","562671","0.0-6.0-2.43","","<div style=""font-size:60px;"">+</div>","null","","","","","","",""
"157.84500003792346","","image-keyboard-response","352","562830","0.0-6.0-0.44","","img/pink.png","32","trial","null","false","0.2,0.8","4:nogo_d","",""
"null","","html-keyboard-response","353","563832","0.0-6.0-1.44","","<img src=""img/pink-n.png"" border=""10"">","null","trial","null","","0.2,0.8","4:nogo_d","0",""
"null","","html-keyboard-response","354","564833","0.0-6.0-2.44","","<div style=""font-size:60px;"">+</div>","null","","","","","","",""
"349.9450001399964","","image-keyboard-response","355","565184","0.0-6.0-0.45","","img/purple.png","32","trial","32","true","0.8,0.2","3:go_c","",""
"null","","html-keyboard-response","356","566188","0.0-6.0-1.45","","<img src=""img/purple-n.png"" border=""10"">","null","trial","32","","0.8,0.2","3:go_c","0",""
"null","","html-keyboard-response","357","567189","0.0-6.0-2.45","","<div style=""font-size:60px;"">+</div>","null","","","","","","",""
"256.54500001110137","","image-keyboard-response","358","567447","0.0-6.0-0.46","","img/green.png","32","trial","null","false","0.2,0.8","2:nogo_b","",""
"null","","html-keyboard-response","359","568450","0.0-6.0-1.46","","<img src=""img/green-n.png"" border=""10"">","null","trial","null","","0.2,0.8","2:nogo_b","0",""
"null","","html-keyboard-response","360","569451","0.0-6.0-2.46","","<div style=""font-size:60px;"">+</div>","null","","","","","","",""
"218.02500006742775","","image-keyboard-response","361","569670","0.0-6.0-0.47","","img/red.png","32","trial","32","true","0.8,0.2","1:go_a","",""
"null","","html-keyboard-response","362","570672","0.0-6.0-1.47","","<img src=""img/red-n.png"" border=""10"">","null","trial","32","","0.8,0.2","1:go_a","0",""
"null","","html-keyboard-response","363","571673","0.0-6.0-2.47","","<div style=""font-size:60px;"">+</div>","null","","","","","","",""
"114.04499993659556","","image-keyboard-response","364","571789","0.0-6.0-0.48","","img/purple.png","32","trial","32","true","0.8,0.2","3:go_c","",""
"null","","html-keyboard-response","365","572791","0.0-6.0-1.48","","<img src=""img/purple-n.png"" border=""10"">","null","trial","32","","0.8,0.2","3:go_c","0",""
"null","","html-keyboard-response","366","573793","0.0-6.0-2.48","","<div style=""font-size:60px;"">+</div>","null","","","","","","",""
"228.40999998152256","","image-keyboard-response","367","574023","0.0-6.0-0.49","","img/green.png","32","trial","null","false","0.2,0.8","2:nogo_b","",""
"null","","html-keyboard-response","368","575025","0.0-6.0-1.49","","<img src=""img/green-n.png"" border=""10"">","null","trial","null","","0.2,0.8","2:nogo_b","0",""
"null","","html-keyboard-response","369","576026","0.0-6.0-2.49","","<div style=""font-size:60px;"">+</div>","null","","","","","","",""
"194.2249999847263","","image-keyboard-response","370","576221","0.0-6.0-0.50","","img/red.png","32","trial","32","true","0.8,0.2","1:go_a","",""
"null","","html-keyboard-response","371","577223","0.0-6.0-1.50","","<img src=""img/red-n.png"" border=""10"">","null","trial","32","","0.8,0.2","1:go_a","0",""
"null","","html-keyboard-response","372","578225","0.0-6.0-2.50","","<div style=""font-size:60px;"">+</div>","null","","","","","","",""
"134.36000002548099","","image-keyboard-response","373","578361","0.0-6.0-0.51","","img/pink.png","32","trial","null","false","0.2,0.8","4:nogo_d","",""
"null","","html-keyboard-response","374","579363","0.0-6.0-1.51","","<img src=""img/pink-n.png"" border=""10"">","null","trial","null","","0.2,0.8","4:nogo_d","0",""
"null","","html-keyboard-response","375","580364","0.0-6.0-2.51","","<div style=""font-size:60px;"">+</div>","null","","","","","","",""
"9.199999971315265","","image-keyboard-response","376","580374","0.0-6.0-0.52","","img/green.png","32","trial","null","false","0.2,0.8","2:nogo_b","",""
"null","","html-keyboard-response","377","581376","0.0-6.0-1.52","","<img src=""img/green-n.png"" border=""10"">","null","trial","null","","0.2,0.8","2:nogo_b","0",""
"null","","html-keyboard-response","378","582377","0.0-6.0-2.52","","<div style=""font-size:60px;"">+</div>","null","","","","","","",""
"250.2250000834465","","image-keyboard-response","379","582628","0.0-6.0-0.53","","img/purple.png","32","trial","32","true","0.8,0.2","3:go_c","",""
"null","","html-keyboard-response","380","583631","0.0-6.0-1.53","","<img src=""img/purple-r.png"" border=""10"">","null","trial","32","","0.8,0.2","3:go_c","1",""
"null","","html-keyboard-response","381","584633","0.0-6.0-2.53","","<div style=""font-size:60px;"">+</div>","null","","","","","","",""
"100.42500006966293","","image-keyboard-response","382","584734","0.0-6.0-0.54","","img/pink.png","32","trial","null","false","0.2,0.8","4:nogo_d","",""
"null","","html-keyboard-response","383","585737","0.0-6.0-1.54","","<img src=""img/pink-n.png"" border=""10"">","null","trial","null","","0.2,0.8","4:nogo_d","0",""
"null","","html-keyboard-response","384","586739","0.0-6.0-2.54","","<div style=""font-size:60px;"">+</div>","null","","","","","","",""
"135.77000005170703","","image-keyboard-response","385","586876","0.0-6.0-0.55","","img/red.png","32","trial","32","true","0.8,0.2","1:go_a","",""
"null","","html-keyboard-response","386","587878","0.0-6.0-1.55","","<img src=""img/red-r.png"" border=""10"">","null","trial","32","","0.8,0.2","1:go_a","1",""
"null","","html-keyboard-response","387","588888","0.0-6.0-2.55","","<div style=""font-size:60px;"">+</div>","null","","","","","","",""
"109.88000012002885","","image-keyboard-response","388","588999","0.0-6.0-0.56","","img/purple.png","32","trial","32","true","0.8,0.2","3:go_c","",""
"null","","html-keyboard-response","389","590001","0.0-6.0-1.56","","<img src=""img/purple-r.png"" border=""10"">","null","trial","32","","0.8,0.2","3:go_c","1",""
"null","","html-keyboard-response","390","591002","0.0-6.0-2.56","","<div style=""font-size:60px;"">+</div>","null","","","","","","",""
"230.5149999447167","","image-keyboard-response","391","591233","0.0-6.0-0.57","","img/green.png","32","trial","null","false","0.2,0.8","2:nogo_b","",""
"null","","html-keyboard-response","392","592235","0.0-6.0-1.57","","<img src=""img/green-n.png"" border=""10"">","null","trial","null","","0.2,0.8","2:nogo_b","0",""
"null","","html-keyboard-response","393","593236","0.0-6.0-2.57","","<div style=""font-size:60px;"">+</div>","null","","","","","","",""
"136.12499996088445","","image-keyboard-response","394","593373","0.0-6.0-0.58","","img/pink.png","32","trial","null","false","0.2,0.8","4:nogo_d","",""
"null","","html-keyboard-response","395","594375","0.0-6.0-1.58","","<img src=""img/pink-n.png"" border=""10"">","null","trial","null","","0.2,0.8","4:nogo_d","0",""
"null","","html-keyboard-response","396","595376","0.0-6.0-2.58","","<div style=""font-size:60px;"">+</div>","null","","","","","","",""
"131.36500003747642","","image-keyboard-response","397","595509","0.0-6.0-0.59","","img/red.png","32","trial","32","true","0.8,0.2","1:go_a","",""
"null","","html-keyboard-response","398","596510","0.0-6.0-1.59","","<img src=""img/red-r.png"" border=""10"">","null","trial","32","","0.8,0.2","1:go_a","1",""
"null","","html-keyboard-response","399","597512","0.0-6.0-2.59","","<div style=""font-size:60px;"">+</div>","null","","","","","","",""
"78.07500008493662","","image-keyboard-response","400","597591","0.0-6.0-0.60","","img/red.png","32","trial","32","true","0.8,0.2","1:go_a","",""
"null","","html-keyboard-response","401","598592","0.0-6.0-1.60","","<img src=""img/red-r.png"" border=""10"">","null","trial","32","","0.8,0.2","1:go_a","1",""
"null","","html-keyboard-response","402","599594","0.0-6.0-2.60","","<div style=""font-size:60px;"">+</div>","null","","","","","","",""
"259.5200000796467","","image-keyboard-response","403","599854","0.0-6.0-0.61","","img/green.png","32","trial","null","false","0.2,0.8","2:nogo_b","",""
"null","","html-keyboard-response","404","600857","0.0-6.0-1.61","","<img src=""img/green-n.png"" border=""10"">","null","trial","null","","0.2,0.8","2:nogo_b","0",""
"null","","html-keyboard-response","405","601858","0.0-6.0-2.61","","<div style=""font-size:60px;"">+</div>","null","","","","","","",""
"223.34000002592802","","image-keyboard-response","406","602083","0.0-6.0-0.62","","img/pink.png","32","trial","null","false","0.2,0.8","4:nogo_d","",""
"null","","html-keyboard-response","407","603085","0.0-6.0-1.62","","<img src=""img/pink-n.png"" border=""10"">","null","trial","null","","0.2,0.8","4:nogo_d","0",""
"null","","html-keyboard-response","408","604087","0.0-6.0-2.62","","<div style=""font-size:60px;"">+</div>","null","","","","","","",""
"233.40000002644956","","image-keyboard-response","409","604321","0.0-6.0-0.63","","img/purple.png","32","trial","32","true","0.8,0.2","3:go_c","",""
"null","","html-keyboard-response","410","605323","0.0-6.0-1.63","","<img src=""img/purple-r.png"" border=""10"">","null","trial","32","","0.8,0.2","3:go_c","1",""
"null","","html-keyboard-response","411","606324","0.0-6.0-2.63","","<div style=""font-size:60px;"">+</div>","null","","","","","","",""
"198.1099999975413","","image-keyboard-response","412","606523","0.0-6.0-0.64","","img/green.png","32","trial","null","false","0.2,0.8","2:nogo_b","",""
"null","","html-keyboard-response","413","607524","0.0-6.0-1.64","","<img src=""img/green-n.png"" border=""10"">","null","trial","null","","0.2,0.8","2:nogo_b","0",""
"null","","html-keyboard-response","414","608525","0.0-6.0-2.64","","<div style=""font-size:60px;"">+</div>","null","","","","","","",""
"257.42499995976686","","image-keyboard-response","415","608784","0.0-6.0-0.65","","img/purple.png","32","trial","32","true","0.8,0.2","3:go_c","",""
"null","","html-keyboard-response","416","609787","0.0-6.0-1.65","","<img src=""img/purple-r.png"" border=""10"">","null","trial","32","","0.8,0.2","3:go_c","1",""
"null","","html-keyboard-response","417","610788","0.0-6.0-2.65","","<div style=""font-size:60px;"">+</div>","null","","","","","","",""
"284.6150000113994","","image-keyboard-response","418","611073","0.0-6.0-0.66","","img/pink.png","32","trial","null","false","0.2,0.8","4:nogo_d","",""
"null","","html-keyboard-response","419","612076","0.0-6.0-1.66","","<img src=""img/pink-n.png"" border=""10"">","null","trial","null","","0.2,0.8","4:nogo_d","0",""
"null","","html-keyboard-response","420","613077","0.0-6.0-2.66","","<div style=""font-size:60px;"">+</div>","null","","","","","","",""
"139.32999991811812","","image-keyboard-response","421","613218","0.0-6.0-0.67","","img/red.png","32","trial","32","true","0.8,0.2","1:go_a","",""
"null","","html-keyboard-response","422","614220","0.0-6.0-1.67","","<img src=""img/red-r.png"" border=""10"">","null","trial","32","","0.8,0.2","1:go_a","1",""
"null","","html-keyboard-response","423","615221","0.0-6.0-2.67","","<div style=""font-size:60px;"">+</div>","null","","","","","","",""
"258.97999992594123","","image-keyboard-response","424","615482","0.0-6.0-0.68","","img/red.png","32","trial","32","true","0.8,0.2","1:go_a","",""
"null","","html-keyboard-response","425","616485","0.0-6.0-1.68","","<img src=""img/red-r.png"" border=""10"">","null","trial","32","","0.8,0.2","1:go_a","1",""
"null","","html-keyboard-response","426","617487","0.0-6.0-2.68","","<div style=""font-size:60px;"">+</div>","null","","","","","","",""
"231.89500020816922","","image-keyboard-response","427","617720","0.0-6.0-0.69","","img/green.png","32","trial","null","false","0.2,0.8","2:nogo_b","",""
"null","","html-keyboard-response","428","618722","0.0-6.0-1.69","","<img src=""img/green-r.png"" border=""10"">","null","trial","null","","0.2,0.8","2:nogo_b","1",""
"null","","html-keyboard-response","429","619724","0.0-6.0-2.69","","<div style=""font-size:60px;"">+</div>","null","","","","","","",""
"265.33500012010336","","image-keyboard-response","430","619990","0.0-6.0-0.70","","img/pink.png","32","trial","null","false","0.2,0.8","4:nogo_d","",""
"null","","html-keyboard-response","431","620992","0.0-6.0-1.70","","<img src=""img/pink-n.png"" border=""10"">","null","trial","null","","0.2,0.8","4:nogo_d","0",""
"null","","html-keyboard-response","432","621994","0.0-6.0-2.70","","<div style=""font-size:60px;"">+</div>","null","","","","","","",""
"264.2350001260638","","image-keyboard-response","433","622259","0.0-6.0-0.71","","img/purple.png","32","trial","32","true","0.8,0.2","3:go_c","",""
"null","","html-keyboard-response","434","623265","0.0-6.0-1.71","","<img src=""img/purple-r.png"" border=""10"">","null","trial","32","","0.8,0.2","3:go_c","1",""
"null","","html-keyboard-response","435","624267","0.0-6.0-2.71","","<div style=""font-size:60px;"">+</div>","null","","","","","","",""
"216.95500006899238","","image-keyboard-response","436","624484","0.0-6.0-0.72","","img/green.png","32","trial","null","false","0.2,0.8","2:nogo_b","",""
"null","","html-keyboard-response","437","625486","0.0-6.0-1.72","","<img src=""img/green-n.png"" border=""10"">","null","trial","null","","0.2,0.8","2:nogo_b","0",""
"null","","html-keyboard-response","438","626487","0.0-6.0-2.72","","<div style=""font-size:60px;"">+</div>","null","","","","","","",""
"300.6449998356402","","image-keyboard-response","439","626788","0.0-6.0-0.73","","img/red.png","32","trial","32","true","0.8,0.2","1:go_a","",""
"null","","html-keyboard-response","440","627790","0.0-6.0-1.73","","<img src=""img/red-r.png"" border=""10"">","null","trial","32","","0.8,0.2","1:go_a","1",""
"null","","html-keyboard-response","441","628792","0.0-6.0-2.73","","<div style=""font-size:60px;"">+</div>","null","","","","","","",""
"264.0750000718981","","image-keyboard-response","442","629057","0.0-6.0-0.74","","img/purple.png","32","trial","32","true","0.8,0.2","3:go_c","",""
"null","","html-keyboard-response","443","630059","0.0-6.0-1.74","","<img src=""img/purple-r.png"" border=""10"">","null","trial","32","","0.8,0.2","3:go_c","1",""
"null","","html-keyboard-response","444","631061","0.0-6.0-2.74","","<div style=""font-size:60px;"">+</div>","null","","","","","","",""
"284.72000011242926","","image-keyboard-response","445","631346","0.0-6.0-0.75","","img/pink.png","32","trial","null","false","0.2,0.8","4:nogo_d","",""
"null","","html-keyboard-response","446","632348","0.0-6.0-1.75","","<img src=""img/pink-n.png"" border=""10"">","null","trial","null","","0.2,0.8","4:nogo_d","0",""
"null","","html-keyboard-response","447","633350","0.0-6.0-2.75","","<div style=""font-size:60px;"">+</div>","null","","","","","","",""
"265.9799999091774","","image-keyboard-response","448","633617","0.0-6.0-0.76","","img/red.png","32","trial","32","true","0.8,0.2","1:go_a","",""
"null","","html-keyboard-response","449","634619","0.0-6.0-1.76","","<img src=""img/red-n.png"" border=""10"">","null","trial","32","","0.8,0.2","1:go_a","0",""
"null","","html-keyboard-response","450","635620","0.0-6.0-2.76","","<div style=""font-size:60px;"">+</div>","null","","","","","","",""
"274.7299999464303","","image-keyboard-response","451","635896","0.0-6.0-0.77","","img/pink.png","32","trial","null","false","0.2,0.8","4:nogo_d","",""
"null","","html-keyboard-response","452","636897","0.0-6.0-1.77","","<img src=""img/pink-n.png"" border=""10"">","null","trial","null","","0.2,0.8","4:nogo_d","0",""
"null","","html-keyboard-response","453","637899","0.0-6.0-2.77","","<div style=""font-size:60px;"">+</div>","null","","","","","","",""
"402.69499993883073","","image-keyboard-response","454","638302","0.0-6.0-0.78","","img/purple.png","32","trial","32","true","0.8,0.2","3:go_c","",""
"null","","html-keyboard-response","455","639305","0.0-6.0-1.78","","<img src=""img/purple-r.png"" border=""10"">","null","trial","32","","0.8,0.2","3:go_c","1",""
"null","","html-keyboard-response","456","640306","0.0-6.0-2.78","","<div style=""font-size:60px;"">+</div>","null","","","","","","",""
"910.8750000596046","","image-keyboard-response","457","641217","0.0-6.0-0.79","","img/green.png","32","trial","null","false","0.2,0.8","2:nogo_b","",""
"null","","html-keyboard-response","458","642219","0.0-6.0-1.79","","<img src=""img/green-n.png"" border=""10"">","null","trial","null","","0.2,0.8","2:nogo_b","0",""
"null","","html-keyboard-response","459","643221","0.0-6.0-2.79","","<div style=""font-size:60px;"">+</div>","null","","","","","","",""
"314.9049999192357","","image-keyboard-response","460","643536","0.0-6.0-0.80","","img/red.png","32","trial","32","true","0.8,0.2","1:go_a","",""
"null","","html-keyboard-response","461","644539","0.0-6.0-1.80","","<img src=""img/red-n.png"" border=""10"">","null","trial","32","","0.8,0.2","1:go_a","0",""
"null","","html-keyboard-response","462","645541","0.0-6.0-2.80","","<div style=""font-size:60px;"">+</div>","null","","","","","","",""
"1354.5500000473112","","image-keyboard-response","463","646897","0.0-6.0-0.81","","img/purple.png","32","trial","32","true","0.8,0.2","3:go_c","",""
"null","","html-keyboard-response","464","647901","0.0-6.0-1.81","","<img src=""img/purple-r.png"" border=""10"">","null","trial","32","","0.8,0.2","3:go_c","1",""
"null","","html-keyboard-response","465","648903","0.0-6.0-2.81","","<div style=""font-size:60px;"">+</div>","null","","","","","","",""
"1245.6900000106543","","image-keyboard-response","466","650150","0.0-6.0-0.82","","img/green.png","32","trial","null","false","0.2,0.8","2:nogo_b","",""
"null","","html-keyboard-response","467","651152","0.0-6.0-1.82","","<img src=""img/green-n.png"" border=""10"">","null","trial","null","","0.2,0.8","2:nogo_b","0",""
"null","","html-keyboard-response","468","652154","0.0-6.0-2.82","","<div style=""font-size:60px;"">+</div>","null","","","","","","",""
"795.2649998478591","","image-keyboard-response","469","652950","0.0-6.0-0.83","","img/pink.png","32","trial","null","false","0.2,0.8","4:nogo_d","",""
"null","","html-keyboard-response","470","653953","0.0-6.0-1.83","","<img src=""img/pink-n.png"" border=""10"">","null","trial","null","","0.2,0.8","4:nogo_d","0",""
"null","","html-keyboard-response","471","654954","0.0-6.0-2.83","","<div style=""font-size:60px;"">+</div>","null","","","","","","",""
"1027.5599998421967","","image-keyboard-response","472","655983","0.0-6.0-0.84","","img/pink.png","32","trial","null","false","0.2,0.8","4:nogo_d","",""
"null","","html-keyboard-response","473","656984","0.0-6.0-1.84","","<img src=""img/pink-n.png"" border=""10"">","null","trial","null","","0.2,0.8","4:nogo_d","0",""
"null","","html-keyboard-response","474","657985","0.0-6.0-2.84","","<div style=""font-size:60px;"">+</div>","null","","","","","","",""
"894.9249999132007","","image-keyboard-response","475","658881","0.0-6.0-0.85","","img/purple.png","32","trial","32","true","0.8,0.2","3:go_c","",""
"null","","html-keyboard-response","476","659883","0.0-6.0-1.85","","<img src=""img/purple-r.png"" border=""10"">","null","trial","32","","0.8,0.2","3:go_c","1",""
"null","","html-keyboard-response","477","660884","0.0-6.0-2.85","","<div style=""font-size:60px;"">+</div>","null","","","","","","",""
"310.3499999269843","","image-keyboard-response","478","661195","0.0-6.0-0.86","","img/green.png","32","trial","null","false","0.2,0.8","2:nogo_b","",""
"null","","html-keyboard-response","479","662197","0.0-6.0-1.86","","<img src=""img/green-n.png"" border=""10"">","null","trial","null","","0.2,0.8","2:nogo_b","0",""
"null","","html-keyboard-response","480","663199","0.0-6.0-2.86","","<div style=""font-size:60px;"">+</div>","null","","","","","","",""
"518.404999980703","","image-keyboard-response","481","663718","0.0-6.0-0.87","","img/red.png","32","trial","32","true","0.8,0.2","1:go_a","",""
"null","","html-keyboard-response","482","664720","0.0-6.0-1.87","","<img src=""img/red-r.png"" border=""10"">","null","trial","32","","0.8,0.2","1:go_a","1",""
"null","","html-keyboard-response","483","665721","0.0-6.0-2.87","","<div style=""font-size:60px;"">+</div>","null","","","","","","",""
"280.2850001025945","","image-keyboard-response","484","666002","0.0-6.0-0.88","","img/pink.png","32","trial","null","false","0.2,0.8","4:nogo_d","",""
"null","","html-keyboard-response","485","667004","0.0-6.0-1.88","","<img src=""img/pink-n.png"" border=""10"">","null","trial","null","","0.2,0.8","4:nogo_d","0",""
"null","","html-keyboard-response","486","668005","0.0-6.0-2.88","","<div style=""font-size:60px;"">+</div>","null","","","","","","",""
"280.21999984048307","","image-keyboard-response","487","668286","0.0-6.0-0.89","","img/green.png","32","trial","null","false","0.2,0.8","2:nogo_b","",""
"null","","html-keyboard-response","488","669289","0.0-6.0-1.89","","<img src=""img/green-n.png"" border=""10"">","null","trial","null","","0.2,0.8","2:nogo_b","0",""
"null","","html-keyboard-response","489","670292","0.0-6.0-2.89","","<div style=""font-size:60px;"">+</div>","null","","","","","","",""
"279.88000004552305","","image-keyboard-response","490","670573","0.0-6.0-0.90","","img/purple.png","32","trial","32","true","0.8,0.2","3:go_c","",""
"null","","html-keyboard-response","491","671575","0.0-6.0-1.90","","<img src=""img/purple-n.png"" border=""10"">","null","trial","32","","0.8,0.2","3:go_c","0",""
"null","","html-keyboard-response","492","672576","0.0-6.0-2.90","","<div style=""font-size:60px;"">+</div>","null","","","","","","",""
"260.14499994926155","","image-keyboard-response","493","672837","0.0-6.0-0.91","","img/red.png","32","trial","32","true","0.8,0.2","1:go_a","",""
"null","","html-keyboard-response","494","673840","0.0-6.0-1.91","","<img src=""img/red-r.png"" border=""10"">","null","trial","32","","0.8,0.2","1:go_a","1",""
"null","","html-keyboard-response","495","674842","0.0-6.0-2.91","","<div style=""font-size:60px;"">+</div>","null","","","","","","",""
"257.3850001208484","","image-keyboard-response","496","675100","0.0-6.0-0.92","","img/pink.png","32","trial","null","false","0.2,0.8","4:nogo_d","",""
"null","","html-keyboard-response","497","676104","0.0-6.0-1.92","","<img src=""img/pink-n.png"" border=""10"">","null","trial","null","","0.2,0.8","4:nogo_d","0",""
"null","","html-keyboard-response","498","677105","0.0-6.0-2.92","","<div style=""font-size:60px;"">+</div>","null","","","","","","",""
"538.5650000534952","","image-keyboard-response","499","677645","0.0-6.0-0.93","","img/purple.png","32","trial","32","true","0.8,0.2","3:go_c","",""
"null","","html-keyboard-response","500","678646","0.0-6.0-1.93","","<img src=""img/purple-r.png"" border=""10"">","null","trial","32","","0.8,0.2","3:go_c","1",""
"null","","html-keyboard-response","501","679648","0.0-6.0-2.93","","<div style=""font-size:60px;"">+</div>","null","","","","","","",""
"310.2649999782443","","image-keyboard-response","502","679959","0.0-6.0-0.94","","img/red.png","32","trial","32","true","0.8,0.2","1:go_a","",""
"null","","html-keyboard-response","503","680962","0.0-6.0-1.94","","<img src=""img/red-r.png"" border=""10"">","null","trial","32","","0.8,0.2","1:go_a","1",""
"null","","html-keyboard-response","504","681963","0.0-6.0-2.94","","<div style=""font-size:60px;"">+</div>","null","","","","","","",""
"265.4349999502301","","image-keyboard-response","505","682230","0.0-6.0-0.95","","img/green.png","32","trial","null","false","0.2,0.8","2:nogo_b","",""
"null","","html-keyboard-response","506","683231","0.0-6.0-1.95","","<img src=""img/green-n.png"" border=""10"">","null","trial","null","","0.2,0.8","2:nogo_b","0",""
"null","","html-keyboard-response","507","684232","0.0-6.0-2.95","","<div style=""font-size:60px;"">+</div>","null","","","","","","",""
"272.4800000432879","","image-keyboard-response","508","684506","0.0-6.0-0.96","","img/purple.png","32","trial","32","true","0.8,0.2","3:go_c","",""
"null","","html-keyboard-response","509","685508","0.0-6.0-1.96","","<img src=""img/purple-r.png"" border=""10"">","null","trial","32","","0.8,0.2","3:go_c","1",""
"null","","html-keyboard-response","510","686509","0.0-6.0-2.96","","<div style=""font-size:60px;"">+</div>","null","","","","","","",""
"281.26000007614493","","image-keyboard-response","511","686791","0.0-6.0-0.97","","img/green.png","32","trial","null","false","0.2,0.8","2:nogo_b","",""
"null","","html-keyboard-response","512","687792","0.0-6.0-1.97","","<img src=""img/green-n.png"" border=""10"">","null","trial","null","","0.2,0.8","2:nogo_b","0",""
"null","","html-keyboard-response","513","688793","0.0-6.0-2.97","","<div style=""font-size:60px;"">+</div>","null","","","","","","",""
"245.05999987013638","","image-keyboard-response","514","689039","0.0-6.0-0.98","","img/pink.png","32","trial","null","false","0.2,0.8","4:nogo_d","",""
"null","","html-keyboard-response","515","690042","0.0-6.0-1.98","","<img src=""img/pink-n.png"" border=""10"">","null","trial","null","","0.2,0.8","4:nogo_d","0",""
"null","","html-keyboard-response","516","691043","0.0-6.0-2.98","","<div style=""font-size:60px;"">+</div>","null","","","","","","",""
"127.39500007592142","","image-keyboard-response","517","691172","0.0-6.0-0.99","","img/red.png","32","trial","32","true","0.8,0.2","1:go_a","",""
"null","","html-keyboard-response","518","692173","0.0-6.0-1.99","","<img src=""img/red-r.png"" border=""10"">","null","trial","32","","0.8,0.2","1:go_a","1",""
"null","","html-keyboard-response","519","693175","0.0-6.0-2.99","","<div style=""font-size:60px;"">+</div>","null","","","","","","",""
"208.25999998487532","","image-keyboard-response","520","693385","0.0-6.0-0.100","","img/pink.png","32","trial","null","false","0.2,0.8","4:nogo_d","",""
"null","","html-keyboard-response","521","694387","0.0-6.0-1.100","","<img src=""img/pink-r.png"" border=""10"">","null","trial","null","","0.2,0.8","4:nogo_d","1",""
"null","","html-keyboard-response","522","695388","0.0-6.0-2.100","","<div style=""font-size:60px;"">+</div>","null","","","","","","",""
"328.07000004686415","","image-keyboard-response","523","695716","0.0-6.0-0.101","","img/purple.png","32","trial","32","true","0.8,0.2","3:go_c","",""
"null","","html-keyboard-response","524","696719","0.0-6.0-1.101","","<img src=""img/purple-r.png"" border=""10"">","null","trial","32","","0.8,0.2","3:go_c","1",""
"null","","html-keyboard-response","525","697721","0.0-6.0-2.101","","<div style=""font-size:60px;"">+</div>","null","","","","","","",""
"283.6450000759214","","image-keyboard-response","526","698005","0.0-6.0-0.102","","img/green.png","32","trial","null","false","0.2,0.8","2:nogo_b","",""
"null","","html-keyboard-response","527","699007","0.0-6.0-1.102","","<img src=""img/green-n.png"" border=""10"">","null","trial","null","","0.2,0.8","2:nogo_b","0",""
"null","","html-keyboard-response","528","700010","0.0-6.0-2.102","","<div style=""font-size:60px;"">+</div>","null","","","","","","",""
"260.87499991990626","","image-keyboard-response","529","700272","0.0-6.0-0.103","","img/red.png","32","trial","32","true","0.8,0.2","1:go_a","",""
"null","","html-keyboard-response","530","701274","0.0-6.0-1.103","","<img src=""img/red-r.png"" border=""10"">","null","trial","32","","0.8,0.2","1:go_a","1",""
"null","","html-keyboard-response","531","702275","0.0-6.0-2.103","","<div style=""font-size:60px;"">+</div>","null","","","","","","",""
"249.8650001361966","","image-keyboard-response","532","702526","0.0-6.0-0.104","","img/pink.png","32","trial","null","false","0.2,0.8","4:nogo_d","",""
"null","","html-keyboard-response","533","703529","0.0-6.0-1.104","","<img src=""img/pink-n.png"" border=""10"">","null","trial","null","","0.2,0.8","4:nogo_d","0",""
"null","","html-keyboard-response","534","704531","0.0-6.0-2.104","","<div style=""font-size:60px;"">+</div>","null","","","","","","",""
"271.18999999947846","","image-keyboard-response","535","704803","0.0-6.0-0.105","","img/red.png","32","trial","32","true","0.8,0.2","1:go_a","",""
"null","","html-keyboard-response","536","705805","0.0-6.0-1.105","","<img src=""img/red-r.png"" border=""10"">","null","trial","32","","0.8,0.2","1:go_a","1",""
"null","","html-keyboard-response","537","706806","0.0-6.0-2.105","","<div style=""font-size:60px;"">+</div>","null","","","","","","",""
"253.62999993376434","","image-keyboard-response","538","707061","0.0-6.0-0.106","","img/green.png","32","trial","null","false","0.2,0.8","2:nogo_b","",""
"null","","html-keyboard-response","539","708063","0.0-6.0-1.106","","<img src=""img/green-n.png"" border=""10"">","null","trial","null","","0.2,0.8","2:nogo_b","0",""
"null","","html-keyboard-response","540","709065","0.0-6.0-2.106","","<div style=""font-size:60px;"">+</div>","null","","","","","","",""
"234.97499991208315","","image-keyboard-response","541","709301","0.0-6.0-0.107","","img/purple.png","32","trial","32","true","0.8,0.2","3:go_c","",""
"null","","html-keyboard-response","542","710304","0.0-6.0-1.107","","<img src=""img/purple-r.png"" border=""10"">","null","trial","32","","0.8,0.2","3:go_c","1",""
"null","","html-keyboard-response","543","711306","0.0-6.0-2.107","","<div style=""font-size:60px;"">+</div>","null","","","","","","",""
"254.0100000333041","","image-keyboard-response","544","711561","0.0-6.0-0.108","","img/purple.png","32","trial","32","true","0.8,0.2","3:go_c","",""
"null","","html-keyboard-response","545","712564","0.0-6.0-1.108","","<img src=""img/purple-n.png"" border=""10"">","null","trial","32","","0.8,0.2","3:go_c","0",""
"null","","html-keyboard-response","546","713564","0.0-6.0-2.108","","<div style=""font-size:60px;"">+</div>","null","","","","","","",""
"371.58000003546476","","image-keyboard-response","547","713937","0.0-6.0-0.109","","img/red.png","32","trial","32","true","0.8,0.2","1:go_a","",""
"null","","html-keyboard-response","548","714940","0.0-6.0-1.109","","<img src=""img/red-r.png"" border=""10"">","null","trial","32","","0.8,0.2","1:go_a","1",""
"null","","html-keyboard-response","549","715941","0.0-6.0-2.109","","<div style=""font-size:60px;"">+</div>","null","","","","","","",""
"121.66999978944659","","image-keyboard-response","550","716065","0.0-6.0-0.110","","img/green.png","32","trial","null","false","0.2,0.8","2:nogo_b","",""
"null","","html-keyboard-response","551","717067","0.0-6.0-1.110","","<img src=""img/green-n.png"" border=""10"">","null","trial","null","","0.2,0.8","2:nogo_b","0",""
"null","","html-keyboard-response","552","718068","0.0-6.0-2.110","","<div style=""font-size:60px;"">+</div>","null","","","","","","",""
"232.31499991379678","","image-keyboard-response","553","718301","0.0-6.0-0.111","","img/pink.png","32","trial","null","false","0.2,0.8","4:nogo_d","",""
"null","","html-keyboard-response","554","719303","0.0-6.0-1.111","","<img src=""img/pink-n.png"" border=""10"">","null","trial","null","","0.2,0.8","4:nogo_d","0",""
"null","","html-keyboard-response","555","720305","0.0-6.0-2.111","","<div style=""font-size:60px;"">+</div>","null","","","","","","",""
"428.10999997891486","","image-keyboard-response","556","720734","0.0-6.0-0.112","","img/green.png","32","trial","null","false","0.2,0.8","2:nogo_b","",""
"null","","html-keyboard-response","557","721736","0.0-6.0-1.112","","<img src=""img/green-n.png"" border=""10"">","null","trial","null","","0.2,0.8","2:nogo_b","0",""
"null","","html-keyboard-response","558","722737","0.0-6.0-2.112","","<div style=""font-size:60px;"">+</div>","null","","","","","","",""
"256.6249999217689","","image-keyboard-response","559","722994","0.0-6.0-0.113","","img/purple.png","32","trial","32","true","0.8,0.2","3:go_c","",""
"null","","html-keyboard-response","560","723995","0.0-6.0-1.113","","<img src=""img/purple-r.png"" border=""10"">","null","trial","32","","0.8,0.2","3:go_c","1",""
"null","","html-keyboard-response","561","724997","0.0-6.0-2.113","","<div style=""font-size:60px;"">+</div>","null","","","","","","",""
"263.09499982744455","","image-keyboard-response","562","725261","0.0-6.0-0.114","","img/pink.png","32","trial","null","false","0.2,0.8","4:nogo_d","",""
"null","","html-keyboard-response","563","726262","0.0-6.0-1.114","","<img src=""img/pink-n.png"" border=""10"">","null","trial","null","","0.2,0.8","4:nogo_d","0",""
"null","","html-keyboard-response","564","727264","0.0-6.0-2.114","","<div style=""font-size:60px;"">+</div>","null","","","","","","",""
"620.630000019446","","image-keyboard-response","565","727885","0.0-6.0-0.115","","img/red.png","32","trial","32","true","0.8,0.2","1:go_a","",""
"null","","html-keyboard-response","566","728887","0.0-6.0-1.115","","<img src=""img/red-r.png"" border=""10"">","null","trial","32","","0.8,0.2","1:go_a","1",""
"null","","html-keyboard-response","567","729889","0.0-6.0-2.115","","<div style=""font-size:60px;"">+</div>","null","","","","","","",""
"589.5549999549985","","image-keyboard-response","568","730479","0.0-6.0-0.116","","img/green.png","32","trial","null","false","0.2,0.8","2:nogo_b","",""
"null","","html-keyboard-response","569","731481","0.0-6.0-1.116","","<img src=""img/green-n.png"" border=""10"">","null","trial","null","","0.2,0.8","2:nogo_b","0",""
"null","","html-keyboard-response","570","732483","0.0-6.0-2.116","","<div style=""font-size:60px;"">+</div>","null","","","","","","",""
"291.2899998482317","","image-keyboard-response","571","732775","0.0-6.0-0.117","","img/pink.png","32","trial","null","false","0.2,0.8","4:nogo_d","",""
"null","","html-keyboard-response","572","733778","0.0-6.0-1.117","","<img src=""img/pink-n.png"" border=""10"">","null","trial","null","","0.2,0.8","4:nogo_d","0",""
"null","","html-keyboard-response","573","734779","0.0-6.0-2.117","","<div style=""font-size:60px;"">+</div>","null","","","","","","",""
"755.5949999950826","","image-keyboard-response","574","735536","0.0-6.0-0.118","","img/purple.png","32","trial","32","true","0.8,0.2","3:go_c","",""
"null","","html-keyboard-response","575","736539","0.0-6.0-1.118","","<img src=""img/purple-r.png"" border=""10"">","null","trial","32","","0.8,0.2","3:go_c","1",""
"null","","html-keyboard-response","576","737541","0.0-6.0-2.118","","<div style=""font-size:60px;"">+</div>","null","","","","","","",""
"333.50499998778105","","image-keyboard-response","577","737876","0.0-6.0-0.119","","img/red.png","32","trial","32","true","0.8,0.2","1:go_a","",""
"null","","html-keyboard-response","578","738879","0.0-6.0-1.119","","<img src=""img/red-r.png"" border=""10"">","null","trial","32","","0.8,0.2","1:go_a","1",""
"null","","html-keyboard-response","579","739882","0.0-6.0-2.119","","<div style=""font-size:60px;"">+</div>","null","","","","","","",""
"44521.70499996282","","instructions","580","784405","0.0-7.0","[{""page_index"":0,""viewing_time"":44521.48999995552}]","","","","","","","","",""
"null","","image-keyboard-response","581","785907","0.0-8.0-0.0","","img/orange.png","null","trial","32","false","0.6,0.4","3:go_c","",""
"null","","html-keyboard-response","582","786909","0.0-8.0-1.0","","<img src=""img/orange-n.png"">","null","trial","32","","0.6,0.4","3:go_c","0",""
"null","","html-keyboard-response","583","787911","0.0-8.0-2.0","","<div style=""font-size:60px;"">+</div>","null","","","","","","",""
"377.66999984160066","","image-keyboard-response","584","788290","0.0-8.0-0.1","","img/green.png","32","trial","null","false","0.2,0.8","2:nogo_b","",""
"null","","html-keyboard-response","585","789291","0.0-8.0-1.1","","<img src=""img/green-n.png"" border=""10"">","null","trial","null","","0.2,0.8","2:nogo_b","0",""
"null","","html-keyboard-response","586","790293","0.0-8.0-2.1","","<div style=""font-size:60px;"">+</div>","null","","","","","","",""
"15.159999951720238","","image-keyboard-response","587","790308","0.0-8.0-0.2","","img/pink.png","32","trial","null","false","0.4,0.6","4:nogo_d","",""
"null","","html-keyboard-response","588","791310","0.0-8.0-1.2","","<img src=""img/pink-r.png"" border=""10"">","null","trial","null","","0.4,0.6","4:nogo_d","1",""
"null","","html-keyboard-response","589","792311","0.0-8.0-2.2","","<div style=""font-size:60px;"">+</div>","null","","","","","","",""
"276.1099999770522","","image-keyboard-response","590","792589","0.0-8.0-0.3","","img/blue.png","32","trial","32","true","0.8,0.2","1:go_a","",""
"null","","html-keyboard-response","591","793590","0.0-8.0-1.3","","<img src=""img/blue-r.png"" border=""10"">","null","trial","32","","0.8,0.2","1:go_a","1",""
"null","","html-keyboard-response","592","794591","0.0-8.0-2.3","","<div style=""font-size:60px;"">+</div>","null","","","","","","",""
"221.49999998509884","","image-keyboard-response","593","794814","0.0-8.0-0.4","","img/blue.png","32","trial","32","true","0.8,0.2","1:go_a","",""
"null","","html-keyboard-response","594","795817","0.0-8.0-1.4","","<img src=""img/blue-r.png"" border=""10"">","null","trial","32","","0.8,0.2","1:go_a","1",""
"null","","html-keyboard-response","595","796818","0.0-8.0-2.4","","<div style=""font-size:60px;"">+</div>","null","","","","","","",""
"221.98499995283782","","image-keyboard-response","596","797041","0.0-8.0-0.5","","img/orange.png","32","trial","32","true","0.6,0.4","3:go_c","",""
"null","","html-keyboard-response","597","798043","0.0-8.0-1.5","","<img src=""img/orange-n.png"" border=""10"">","null","trial","32","","0.6,0.4","3:go_c","0",""
"null","","html-keyboard-response","598","799044","0.0-8.0-2.5","","<div style=""font-size:60px;"">+</div>","null","","","","","","",""
"229.69999979250133","","image-keyboard-response","599","799275","0.0-8.0-0.6","","img/pink.png","32","trial","null","false","0.4,0.6","4:nogo_d","",""
"null","","html-keyboard-response","600","800279","0.0-8.0-1.6","","<img src=""img/pink-n.png"" border=""10"">","null","trial","null","","0.4,0.6","4:nogo_d","0",""
"null","","html-keyboard-response","601","801280","0.0-8.0-2.6","","<div style=""font-size:60px;"">+</div>","null","","","","","","",""
"186.60000013187528","","image-keyboard-response","602","801467","0.0-8.0-0.7","","img/green.png","32","trial","null","false","0.2,0.8","2:nogo_b","",""
"null","","html-keyboard-response","603","802471","0.0-8.0-1.7","","<img src=""img/green-r.png"" border=""10"">","null","trial","null","","0.2,0.8","2:nogo_b","1",""
"null","","html-keyboard-response","604","803473","0.0-8.0-2.7","","<div style=""font-size:60px;"">+</div>","null","","","","","","",""
"166.68000002391636","","image-keyboard-response","605","803641","0.0-8.0-0.8","","img/green.png","32","trial","null","false","0.2,0.8","2:nogo_b","",""
"null","","html-keyboard-response","606","804643","0.0-8.0-1.8","","<img src=""img/green-n.png"" border=""10"">","null","trial","null","","0.2,0.8","2:nogo_b","0",""
"null","","html-keyboard-response","607","805644","0.0-8.0-2.8","","<div style=""font-size:60px;"">+</div>","null","","","","","","",""
"193.0900001898408","","image-keyboard-response","608","805839","0.0-8.0-0.9","","img/pink.png","32","trial","null","false","0.4,0.6","4:nogo_d","",""
"null","","html-keyboard-response","609","806840","0.0-8.0-1.9","","<img src=""img/pink-n.png"" border=""10"">","null","trial","null","","0.4,0.6","4:nogo_d","0",""
"null","","html-keyboard-response","610","807841","0.0-8.0-2.9","","<div style=""font-size:60px;"">+</div>","null","","","","","","",""
"227.40500001236796","","image-keyboard-response","611","808070","0.0-8.0-0.10","","img/blue.png","32","trial","32","true","0.8,0.2","1:go_a","",""
"null","","html-keyboard-response","612","809074","0.0-8.0-1.10","","<img src=""img/blue-n.png"" border=""10"">","null","trial","32","","0.8,0.2","1:go_a","0",""
"null","","html-keyboard-response","613","810075","0.0-8.0-2.10","","<div style=""font-size:60px;"">+</div>","null","","","","","","",""
"123.61999996937811","","image-keyboard-response","614","810200","0.0-8.0-0.11","","img/orange.png","32","trial","32","true","0.6,0.4","3:go_c","",""
"null","","html-keyboard-response","615","811204","0.0-8.0-1.11","","<img src=""img/orange-r.png"" border=""10"">","null","trial","32","","0.6,0.4","3:go_c","1",""
"null","","html-keyboard-response","616","812206","0.0-8.0-2.11","","<div style=""font-size:60px;"">+</div>","null","","","","","","",""
"228.0850000679493","","image-keyboard-response","617","812435","0.0-8.0-0.12","","img/orange.png","32","trial","32","true","0.6,0.4","3:go_c","",""
"null","","html-keyboard-response","618","813437","0.0-8.0-1.12","","<img src=""img/orange-r.png"" border=""10"">","null","trial","32","","0.6,0.4","3:go_c","1",""
"null","","html-keyboard-response","619","814438","0.0-8.0-2.12","","<div style=""font-size:60px;"">+</div>","null","","","","","","",""
"227.53500007092953","","image-keyboard-response","620","814666","0.0-8.0-0.13","","img/green.png","32","trial","null","false","0.2,0.8","2:nogo_b","",""
"null","","html-keyboard-response","621","815668","0.0-8.0-1.13","","<img src=""img/green-n.png"" border=""10"">","null","trial","null","","0.2,0.8","2:nogo_b","0",""
"null","","html-keyboard-response","622","816669","0.0-8.0-2.13","","<div style=""font-size:60px;"">+</div>","null","","","","","","",""
"232.00499988161027","","image-keyboard-response","623","816902","0.0-8.0-0.14","","img/blue.png","32","trial","32","true","0.8,0.2","1:go_a","",""
"null","","html-keyboard-response","624","817904","0.0-8.0-1.14","","<img src=""img/blue-r.png"" border=""10"">","null","trial","32","","0.8,0.2","1:go_a","1",""
"null","","html-keyboard-response","625","818905","0.0-8.0-2.14","","<div style=""font-size:60px;"">+</div>","null","","","","","","",""
"495.08000002242625","","image-keyboard-response","626","819401","0.0-8.0-0.15","","img/pink.png","32","trial","null","false","0.4,0.6","4:nogo_d","",""
"null","","html-keyboard-response","627","820403","0.0-8.0-1.15","","<img src=""img/pink-n.png"" border=""10"">","null","trial","null","","0.4,0.6","4:nogo_d","0",""
"null","","html-keyboard-response","628","821406","0.0-8.0-2.15","","<div style=""font-size:60px;"">+</div>","null","","","","","","",""
"220.07000003941357","","image-keyboard-response","629","821627","0.0-8.0-0.16","","img/green.png","32","trial","null","false","0.2,0.8","2:nogo_b","",""
"null","","html-keyboard-response","630","822629","0.0-8.0-1.16","","<img src=""img/green-n.png"" border=""10"">","null","trial","null","","0.2,0.8","2:nogo_b","0",""
"null","","html-keyboard-response","631","823631","0.0-8.0-2.16","","<div style=""font-size:60px;"">+</div>","null","","","","","","",""
"148.3549999538809","","image-keyboard-response","632","823780","0.0-8.0-0.17","","img/pink.png","32","trial","null","false","0.4,0.6","4:nogo_d","",""
"null","","html-keyboard-response","633","824783","0.0-8.0-1.17","","<img src=""img/pink-r.png"" border=""10"">","null","trial","null","","0.4,0.6","4:nogo_d","1",""
"null","","html-keyboard-response","634","825784","0.0-8.0-2.17","","<div style=""font-size:60px;"">+</div>","null","","","","","","",""
"224.13999983109534","","image-keyboard-response","635","826008","0.0-8.0-0.18","","img/blue.png","32","trial","32","true","0.8,0.2","1:go_a","",""
"null","","html-keyboard-response","636","827010","0.0-8.0-1.18","","<img src=""img/blue-r.png"" border=""10"">","null","trial","32","","0.8,0.2","1:go_a","1",""
"null","","html-keyboard-response","637","828012","0.0-8.0-2.18","","<div style=""font-size:60px;"">+</div>","null","","","","","","",""
"362.6500000245869","","image-keyboard-response","638","828376","0.0-8.0-0.19","","img/orange.png","32","trial","32","true","0.6,0.4","3:go_c","",""
"null","","html-keyboard-response","639","829378","0.0-8.0-1.19","","<img src=""img/orange-r.png"" border=""10"">","null","trial","32","","0.6,0.4","3:go_c","1",""
"null","","html-keyboard-response","640","830379","0.0-8.0-2.19","","<div style=""font-size:60px;"">+</div>","null","","","","","","",""
"390.0300001259893","","image-keyboard-response","641","830769","0.0-8.0-0.20","","img/orange.png","32","trial","32","true","0.6,0.4","3:go_c","",""
"null","","html-keyboard-response","642","831772","0.0-8.0-1.20","","<img src=""img/orange-r.png"" border=""10"">","null","trial","32","","0.6,0.4","3:go_c","1",""
"null","","html-keyboard-response","643","832773","0.0-8.0-2.20","","<div style=""font-size:60px;"">+</div>","null","","","","","","",""
"262.1649999637157","","image-keyboard-response","644","833036","0.0-8.0-0.21","","img/blue.png","32","trial","32","true","0.8,0.2","1:go_a","",""
"null","","html-keyboard-response","645","834038","0.0-8.0-1.21","","<img src=""img/blue-r.png"" border=""10"">","null","trial","32","","0.8,0.2","1:go_a","1",""
"null","","html-keyboard-response","646","835040","0.0-8.0-2.21","","<div style=""font-size:60px;"">+</div>","null","","","","","","",""
"288.4900001809001","","image-keyboard-response","647","835330","0.0-8.0-0.22","","img/pink.png","32","trial","null","false","0.4,0.6","4:nogo_d","",""
"null","","html-keyboard-response","648","836332","0.0-8.0-1.22","","<img src=""img/pink-n.png"" border=""10"">","null","trial","null","","0.4,0.6","4:nogo_d","0",""
"null","","html-keyboard-response","649","837333","0.0-8.0-2.22","","<div style=""font-size:60px;"">+</div>","null","","","","","","",""
"221.34499996900558","","image-keyboard-response","650","837555","0.0-8.0-0.23","","img/green.png","32","trial","null","false","0.2,0.8","2:nogo_b","",""
"null","","html-keyboard-response","651","838557","0.0-8.0-1.23","","<img src=""img/green-n.png"" border=""10"">","null","trial","null","","0.2,0.8","2:nogo_b","0",""
"null","","html-keyboard-response","652","839566","0.0-8.0-2.23","","<div style=""font-size:60px;"">+</div>","null","","","","","","",""
"228.6050000693649","","image-keyboard-response","653","839796","0.0-8.0-0.24","","img/orange.png","32","trial","32","true","0.6,0.4","3:go_c","",""
"null","","html-keyboard-response","654","840798","0.0-8.0-1.24","","<img src=""img/orange-n.png"" border=""10"">","null","trial","32","","0.6,0.4","3:go_c","0",""
"null","","html-keyboard-response","655","841801","0.0-8.0-2.24","","<div style=""font-size:60px;"">+</div>","null","","","","","","",""
"246.76499981433153","","image-keyboard-response","656","842049","0.0-8.0-0.25","","img/pink.png","32","trial","null","false","0.4,0.6","4:nogo_d","",""
"null","","html-keyboard-response","657","843051","0.0-8.0-1.25","","<img src=""img/pink-r.png"" border=""10"">","null","trial","null","","0.4,0.6","4:nogo_d","1",""
"null","","html-keyboard-response","658","844054","0.0-8.0-2.25","","<div style=""font-size:60px;"">+</div>","null","","","","","","",""
"249.26499999128282","","image-keyboard-response","659","844304","0.0-8.0-0.26","","img/green.png","32","trial","null","false","0.2,0.8","2:nogo_b","",""
"null","","html-keyboard-response","660","845307","0.0-8.0-1.26","","<img src=""img/green-r.png"" border=""10"">","null","trial","null","","0.2,0.8","2:nogo_b","1",""
"null","","html-keyboard-response","661","846309","0.0-8.0-2.26","","<div style=""font-size:60px;"">+</div>","null","","","","","","",""
"253.86499986052513","","image-keyboard-response","662","846564","0.0-8.0-0.27","","img/blue.png","32","trial","32","true","0.8,0.2","1:go_a","",""
"null","","html-keyboard-response","663","847565","0.0-8.0-1.27","","<img src=""img/blue-r.png"" border=""10"">","null","trial","32","","0.8,0.2","1:go_a","1",""
"null","","html-keyboard-response","664","848567","0.0-8.0-2.27","","<div style=""font-size:60px;"">+</div>","null","","","","","","",""
"305.38999987766147","","image-keyboard-response","665","848874","0.0-8.0-0.28","","img/orange.png","32","trial","32","true","0.6,0.4","3:go_c","",""
