"rt","url","trial_type","trial_index","time_elapsed","internal_node_id","view_history","stimulus","key_press","test_part","correct_response","correct","use_rew","which_stim","reward","responses"
"108275.80000019073","consent.html","external-html","0","108485","0.0-0.0","","","","","","","","","",""
"187128.2999997139","","instructions","1","295620","0.0-1.0","[{""page_index"":0,""viewing_time"":4561.599999904633},{""page_index"":1,""viewing_time"":41575.40000009537},{""page_index"":2,""viewing_time"":31107.199999809265},{""page_index"":3,""viewing_time"":60520.800000190735},{""page_index"":4,""viewing_time"":13849.099999904633},{""page_index"":5,""viewing_time"":9797.099999904633},{""page_index"":6,""viewing_time"":25716.199999809265}]","","","","","","","","",""
"null","","image-keyboard-response","2","297125","0.0-2.0-0.0","","img/test3.PNG","null","practice","null","true","","","",""
"null","","html-keyboard-response","3","298127","0.0-2.0-1.0","","<img src=""img/test3-reward.PNG"">","null","","","","","","",""
"null","","html-keyboard-response","4","299129","0.0-2.0-2.0","","<div style=""font-size:60px;"">+</div>","null","","","","","","",""
"494.69999980926514","","image-keyboard-response","5","299625","0.0-2.0-0.1","","img/test1.PNG","32","practice","32","true","","","",""
"null","","html-keyboard-response","6","300629","0.0-2.0-1.1","","<img src=""img/test1-reward.PNG"" border=""10px; grey"">","null","","","","","","",""
"null","","html-keyboard-response","7","301630","0.0-2.0-2.1","","<div style=""font-size:60px;"">+</div>","null","","","","","","",""
"null","","image-keyboard-response","8","303133","0.0-2.0-0.2","","img/test2.PNG","null","practice","null","true","","","",""
"null","","html-keyboard-response","9","304135","0.0-2.0-1.2","","<img src=""img/test2-reward.PNG"">","null","","","","","","",""
"null","","html-keyboard-response","10","305136","0.0-2.0-2.2","","<div style=""font-size:60px;"">+</div>","null","","","","","","",""
"null","","image-keyboard-response","11","306641","0.0-2.0-0.3","","img/test3.PNG","null","practice","null","true","","","",""
"null","","html-keyboard-response","12","307642","0.0-2.0-1.3","","<img src=""img/test3-reward.PNG"">","null","","","","","","",""
"null","","html-keyboard-response","13","308644","0.0-2.0-2.3","","<div style=""font-size:60px;"">+</div>","null","","","","","","",""
"null","","image-keyboard-response","14","310148","0.0-2.0-0.4","","img/test2.PNG","null","practice","null","true","","","",""
"null","","html-keyboard-response","15","311149","0.0-2.0-1.4","","<img src=""img/test2-reward.PNG"">","null","","","","","","",""
"null","","html-keyboard-response","16","312150","0.0-2.0-2.4","","<div style=""font-size:60px;"">+</div>","null","","","","","","",""
"406.40000009536743","","image-keyboard-response","17","312559","0.0-2.0-0.5","","img/test1.PNG","32","practice","32","true","","","",""
"null","","html-keyboard-response","18","313561","0.0-2.0-1.5","","<img src=""img/test1-reward.PNG"" border=""10px; grey"">","null","","","","","","",""
"null","","html-keyboard-response","19","314562","0.0-2.0-2.5","","<div style=""font-size:60px;"">+</div>","null","","","","","","",""
"null","","image-keyboard-response","20","316064","0.0-2.0-0.6","","img/test2.PNG","null","practice","null","true","","","",""
"null","","html-keyboard-response","21","317066","0.0-2.0-1.6","","<img src=""img/test2-reward.PNG"">","null","","","","","","",""
"null","","html-keyboard-response","22","318067","0.0-2.0-2.6","","<div style=""font-size:60px;"">+</div>","null","","","","","","",""
"null","","image-keyboard-response","23","319569","0.0-2.0-0.7","","img/test3.PNG","null","practice","null","true","","","",""
"null","","html-keyboard-response","24","320570","0.0-2.0-1.7","","<img src=""img/test3-reward.PNG"">","null","","","","","","",""
"null","","html-keyboard-response","25","321571","0.0-2.0-2.7","","<div style=""font-size:60px;"">+</div>","null","","","","","","",""
"441.90000009536743","","image-keyboard-response","26","322014","0.0-2.0-0.8","","img/test1.PNG","32","practice","32","true","","","",""
"null","","html-keyboard-response","27","323016","0.0-2.0-1.8","","<img src=""img/test1-reward.PNG"" border=""10px; grey"">","null","","","","","","",""
"null","","html-keyboard-response","28","324017","0.0-2.0-2.8","","<div style=""font-size:60px;"">+</div>","null","","","","","","",""
"null","","image-keyboard-response","29","325519","0.0-2.0-0.9","","img/test2.PNG","null","practice","null","true","","","",""
"null","","html-keyboard-response","30","326522","0.0-2.0-1.9","","<img src=""img/test2-reward.PNG"">","null","","","","","","",""
"null","","html-keyboard-response","31","327523","0.0-2.0-2.9","","<div style=""font-size:60px;"">+</div>","null","","","","","","",""
"null","","image-keyboard-response","32","329024","0.0-2.0-0.10","","img/test3.PNG","null","practice","null","true","","","",""
"null","","html-keyboard-response","33","330026","0.0-2.0-1.10","","<img src=""img/test3-reward.PNG"">","null","","","","","","",""
"null","","html-keyboard-response","34","331027","0.0-2.0-2.10","","<div style=""font-size:60px;"">+</div>","null","","","","","","",""
"621.7999997138977","","image-keyboard-response","35","331650","0.0-2.0-0.11","","img/test1.PNG","32","practice","32","true","","","",""
"null","","html-keyboard-response","36","332652","0.0-2.0-1.11","","<img src=""img/test1-reward.PNG"" border=""10px; grey"">","null","","","","","","",""
"null","","html-keyboard-response","37","333654","0.0-2.0-2.11","","<div style=""font-size:60px;"">+</div>","null","","","","","","",""
"8826.700000286102","","instructions","38","342481","0.0-3.0","[{""page_index"":0,""viewing_time"":8826.5}]","","","","","","","","",""
"873.1000003814697","","image-keyboard-response","39","343356","0.0-4.0-0.0","","img/green.png","32","trial","32","true","0.8,0.2","1:go_a","",""
"null","","html-keyboard-response","40","344360","0.0-4.0-1.0","","<img src=""img/green-n.png"" border=""10"">","null","trial","32","","0.8,0.2","1:go_a","0",""
"null","","html-keyboard-response","41","345362","0.0-4.0-2.0","","<div style=""font-size:60px;"">+</div>","null","","","","","","",""
"680.7000002861023","","image-keyboard-response","42","346043","0.0-4.0-0.1","","img/blue.png","32","trial","null","false","0.2,0.8","2:nogo_b","",""
"null","","html-keyboard-response","43","347045","0.0-4.0-1.1","","<img src=""img/blue-r.png"" border=""10"">","null","trial","null","","0.2,0.8","2:nogo_b","1",""
"null","","html-keyboard-response","44","348047","0.0-4.0-2.1","","<div style=""font-size:60px;"">+</div>","null","","","","","","",""
"500","","image-keyboard-response","45","348552","0.0-4.0-0.2","","img/blue.png","32","trial","null","false","0.2,0.8","2:nogo_b","",""
"null","","html-keyboard-response","46","349554","0.0-4.0-1.2","","<img src=""img/blue-n.png"" border=""10"">","null","trial","null","","0.2,0.8","2:nogo_b","0",""
"null","","html-keyboard-response","47","350555","0.0-4.0-2.2","","<div style=""font-size:60px;"">+</div>","null","","","","","","",""
"null","","image-keyboard-response","48","352058","0.0-4.0-0.3","","img/green.png","null","trial","32","false","0.8,0.2","1:go_a","",""
"null","","html-keyboard-response","49","353060","0.0-4.0-1.3","","<img src=""img/green-r.png"">","null","trial","32","","0.8,0.2","1:go_a","1",""
"null","","html-keyboard-response","50","354061","0.0-4.0-2.3","","<div style=""font-size:60px;"">+</div>","null","","","","","","",""
"571.2999997138977","","image-keyboard-response","51","354633","0.0-4.0-0.4","","img/blue.png","32","trial","null","false","0.2,0.8","2:nogo_b","",""
"null","","html-keyboard-response","52","355637","0.0-4.0-1.4","","<img src=""img/blue-n.png"" border=""10"">","null","trial","null","","0.2,0.8","2:nogo_b","0",""
"null","","html-keyboard-response","53","356638","0.0-4.0-2.4","","<div style=""font-size:60px;"">+</div>","null","","","","","","",""
"552.5","","image-keyboard-response","54","357193","0.0-4.0-0.5","","img/green.png","32","trial","32","true","0.8,0.2","1:go_a","",""
"null","","html-keyboard-response","55","358198","0.0-4.0-1.5","","<img src=""img/green-n.png"" border=""10"">","null","trial","32","","0.8,0.2","1:go_a","0",""
"null","","html-keyboard-response","56","359200","0.0-4.0-2.5","","<div style=""font-size:60px;"">+</div>","null","","","","","","",""
"678.7999997138977","","image-keyboard-response","57","359880","0.0-4.0-0.6","","img/green.png","32","trial","32","true","0.8,0.2","1:go_a","",""
"null","","html-keyboard-response","58","360883","0.0-4.0-1.6","","<img src=""img/green-r.png"" border=""10"">","null","trial","32","","0.8,0.2","1:go_a","1",""
"null","","html-keyboard-response","59","361886","0.0-4.0-2.6","","<div style=""font-size:60px;"">+</div>","null","","","","","","",""
"631","","image-keyboard-response","60","362518","0.0-4.0-0.7","","img/blue.png","32","trial","null","false","0.2,0.8","2:nogo_b","",""
"null","","html-keyboard-response","61","363520","0.0-4.0-1.7","","<img src=""img/blue-n.png"" border=""10"">","null","trial","null","","0.2,0.8","2:nogo_b","0",""
"null","","html-keyboard-response","62","364544","0.0-4.0-2.7","","<div style=""font-size:60px;"">+</div>","null","","","","","","",""
"547.9000000953674","","image-keyboard-response","63","365093","0.0-4.0-0.8","","img/blue.png","32","trial","null","false","0.2,0.8","2:nogo_b","",""
"null","","html-keyboard-response","64","366096","0.0-4.0-1.8","","<img src=""img/blue-n.png"" border=""10"">","null","trial","null","","0.2,0.8","2:nogo_b","0",""
"null","","html-keyboard-response","65","367115","0.0-4.0-2.8","","<div style=""font-size:60px;"">+</div>","null","","","","","","",""
"535.5","","image-keyboard-response","66","367652","0.0-4.0-0.9","","img/green.png","32","trial","32","true","0.8,0.2","1:go_a","",""
"null","","html-keyboard-response","67","368655","0.0-4.0-1.9","","<img src=""img/green-r.png"" border=""10"">","null","trial","32","","0.8,0.2","1:go_a","1",""
"null","","html-keyboard-response","68","369656","0.0-4.0-2.9","","<div style=""font-size:60px;"">+</div>","null","","","","","","",""
"null","","image-keyboard-response","69","371158","0.0-4.0-0.10","","img/blue.png","null","trial","null","true","0.2,0.8","2:nogo_b","",""
"null","","html-keyboard-response","70","372177","0.0-4.0-1.10","","<img src=""img/blue-n.png"">","null","trial","null","","0.2,0.8","2:nogo_b","0",""
"null","","html-keyboard-response","71","373178","0.0-4.0-2.10","","<div style=""font-size:60px;"">+</div>","null","","","","","","",""
"505.19999980926514","","image-keyboard-response","72","373684","0.0-4.0-0.11","","img/green.png","32","trial","32","true","0.8,0.2","1:go_a","",""
"null","","html-keyboard-response","73","374687","0.0-4.0-1.11","","<img src=""img/green-r.png"" border=""10"">","null","trial","32","","0.8,0.2","1:go_a","1",""
"null","","html-keyboard-response","74","375688","0.0-4.0-2.11","","<div style=""font-size:60px;"">+</div>","null","","","","","","",""
"495","","image-keyboard-response","75","376184","0.0-4.0-0.12","","img/green.png","32","trial","32","true","0.8,0.2","1:go_a","",""
"null","","html-keyboard-response","76","377187","0.0-4.0-1.12","","<img src=""img/green-n.png"" border=""10"">","null","trial","32","","0.8,0.2","1:go_a","0",""
"null","","html-keyboard-response","77","378188","0.0-4.0-2.12","","<div style=""font-size:60px;"">+</div>","null","","","","","","",""
"653.0999999046326","","image-keyboard-response","78","378843","0.0-4.0-0.13","","img/blue.png","32","trial","null","false","0.2,0.8","2:nogo_b","",""
"null","","html-keyboard-response","79","379846","0.0-4.0-1.13","","<img src=""img/blue-n.png"" border=""10"">","null","trial","null","","0.2,0.8","2:nogo_b","0",""
"null","","html-keyboard-response","80","380859","0.0-4.0-2.13","","<div style=""font-size:60px;"">+</div>","null","","","","","","",""
"452.09999990463257","","image-keyboard-response","81","381313","0.0-4.0-0.14","","img/green.png","32","trial","32","true","0.8,0.2","1:go_a","",""
"null","","html-keyboard-response","82","382315","0.0-4.0-1.14","","<img src=""img/green-r.png"" border=""10"">","null","trial","32","","0.8,0.2","1:go_a","1",""
"null","","html-keyboard-response","83","383316","0.0-4.0-2.14","","<div style=""font-size:60px;"">+</div>","null","","","","","","",""
"null","","image-keyboard-response","84","384823","0.0-4.0-0.15","","img/blue.png","null","trial","null","true","0.2,0.8","2:nogo_b","",""
"null","","html-keyboard-response","85","385826","0.0-4.0-1.15","","<img src=""img/blue-r.png"">","null","trial","null","","0.2,0.8","2:nogo_b","1",""
"null","","html-keyboard-response","86","386828","0.0-4.0-2.15","","<div style=""font-size:60px;"">+</div>","null","","","","","","",""
"740.7999997138977","","image-keyboard-response","87","387570","0.0-4.0-0.16","","img/blue.png","32","trial","null","false","0.2,0.8","2:nogo_b","",""
"null","","html-keyboard-response","88","388573","0.0-4.0-1.16","","<img src=""img/blue-n.png"" border=""10"">","null","trial","null","","0.2,0.8","2:nogo_b","0",""
"null","","html-keyboard-response","89","389575","0.0-4.0-2.16","","<div style=""font-size:60px;"">+</div>","null","","","","","","",""
"566.2999997138977","","image-keyboard-response","90","390142","0.0-4.0-0.17","","img/green.png","32","trial","32","true","0.8,0.2","1:go_a","",""
"null","","html-keyboard-response","91","391145","0.0-4.0-1.17","","<img src=""img/green-r.png"" border=""10"">","null","trial","32","","0.8,0.2","1:go_a","1",""
"null","","html-keyboard-response","92","392147","0.0-4.0-2.17","","<div style=""font-size:60px;"">+</div>","null","","","","","","",""
"718.1999998092651","","image-keyboard-response","93","392867","0.0-4.0-0.18","","img/blue.png","32","trial","null","false","0.2,0.8","2:nogo_b","",""
"null","","html-keyboard-response","94","393870","0.0-4.0-1.18","","<img src=""img/blue-n.png"" border=""10"">","null","trial","null","","0.2,0.8","2:nogo_b","0",""
"null","","html-keyboard-response","95","394870","0.0-4.0-2.18","","<div style=""font-size:60px;"">+</div>","null","","","","","","",""
"633.3000001907349","","image-keyboard-response","96","395505","0.0-4.0-0.19","","img/green.png","32","trial","32","true","0.8,0.2","1:go_a","",""
"null","","html-keyboard-response","97","396506","0.0-4.0-1.19","","<img src=""img/green-r.png"" border=""10"">","null","trial","32","","0.8,0.2","1:go_a","1",""
"null","","html-keyboard-response","98","397508","0.0-4.0-2.19","","<div style=""font-size:60px;"">+</div>","null","","","","","","",""
"null","","image-keyboard-response","99","399010","0.0-4.0-0.20","","img/blue.png","null","trial","null","true","0.2,0.8","2:nogo_b","",""
"null","","html-keyboard-response","100","400012","0.0-4.0-1.20","","<img src=""img/blue-r.png"">","null","trial","null","","0.2,0.8","2:nogo_b","1",""
"null","","html-keyboard-response","101","401013","0.0-4.0-2.20","","<div style=""font-size:60px;"">+</div>","null","","","","","","",""
"663.6999998092651","","image-keyboard-response","102","401677","0.0-4.0-0.21","","img/green.png","32","trial","32","true","0.8,0.2","1:go_a","",""
"null","","html-keyboard-response","103","402680","0.0-4.0-1.21","","<img src=""img/green-n.png"" border=""10"">","null","trial","32","","0.8,0.2","1:go_a","0",""
"null","","html-keyboard-response","104","403689","0.0-4.0-2.21","","<div style=""font-size:60px;"">+</div>","null","","","","","","",""
"null","","image-keyboard-response","105","405190","0.0-4.0-0.22","","img/blue.png","null","trial","null","true","0.2,0.8","2:nogo_b","",""
"null","","html-keyboard-response","106","406192","0.0-4.0-1.22","","<img src=""img/blue-n.png"">","null","trial","null","","0.2,0.8","2:nogo_b","0",""
"null","","html-keyboard-response","107","407195","0.0-4.0-2.22","","<div style=""font-size:60px;"">+</div>","null","","","","","","",""
"370.8999996185303","","image-keyboard-response","108","407567","0.0-4.0-0.23","","img/green.png","32","trial","32","true","0.8,0.2","1:go_a","",""
"null","","html-keyboard-response","109","408569","0.0-4.0-1.23","","<img src=""img/green-r.png"" border=""10"">","null","trial","32","","0.8,0.2","1:go_a","1",""
"null","","html-keyboard-response","110","409570","0.0-4.0-2.23","","<div style=""font-size:60px;"">+</div>","null","","","","","","",""
"380.59999990463257","","image-keyboard-response","111","409952","0.0-4.0-0.24","","img/blue.png","32","trial","null","false","0.2,0.8","2:nogo_b","",""
"null","","html-keyboard-response","112","410955","0.0-4.0-1.24","","<img src=""img/blue-n.png"" border=""10"">","null","trial","null","","0.2,0.8","2:nogo_b","0",""
"null","","html-keyboard-response","113","411956","0.0-4.0-2.24","","<div style=""font-size:60px;"">+</div>","null","","","","","","",""
"978.0999999046326","","image-keyboard-response","114","412937","0.0-4.0-0.25","","img/green.png","32","trial","32","true","0.8,0.2","1:go_a","",""
"null","","html-keyboard-response","115","413939","0.0-4.0-1.25","","<img src=""img/green-r.png"" border=""10"">","null","trial","32","","0.8,0.2","1:go_a","1",""
"null","","html-keyboard-response","116","414940","0.0-4.0-2.25","","<div style=""font-size:60px;"">+</div>","null","","","","","","",""
"747.4000000953674","","image-keyboard-response","117","415689","0.0-4.0-0.26","","img/blue.png","32","trial","null","false","0.2,0.8","2:nogo_b","",""
"null","","html-keyboard-response","118","416691","0.0-4.0-1.26","","<img src=""img/blue-n.png"" border=""10"">","null","trial","null","","0.2,0.8","2:nogo_b","0",""
"null","","html-keyboard-response","119","417696","0.0-4.0-2.26","","<div style=""font-size:60px;"">+</div>","null","","","","","","",""
"1085.9000000953674","","image-keyboard-response","120","418783","0.0-4.0-0.27","","img/green.png","32","trial","32","true","0.8,0.2","1:go_a","",""
"null","","html-keyboard-response","121","419785","0.0-4.0-1.27","","<img src=""img/green-n.png"" border=""10"">","null","trial","32","","0.8,0.2","1:go_a","0",""
"null","","html-keyboard-response","122","420786","0.0-4.0-2.27","","<div style=""font-size:60px;"">+</div>","null","","","","","","",""
"933.2999997138977","","image-keyboard-response","123","421721","0.0-4.0-0.28","","img/green.png","32","trial","32","true","0.8,0.2","1:go_a","",""
"null","","html-keyboard-response","124","422722","0.0-4.0-1.28","","<img src=""img/green-n.png"" border=""10"">","null","trial","32","","0.8,0.2","1:go_a","0",""
"null","","html-keyboard-response","125","423755","0.0-4.0-2.28","","<div style=""font-size:60px;"">+</div>","null","","","","","","",""
"879.5","","image-keyboard-response","126","424636","0.0-4.0-0.29","","img/blue.png","32","trial","null","false","0.2,0.8","2:nogo_b","",""
"null","","html-keyboard-response","127","425645","0.0-4.0-1.29","","<img src=""img/blue-n.png"" border=""10"">","null","trial","null","","0.2,0.8","2:nogo_b","0",""
"null","","html-keyboard-response","128","426646","0.0-4.0-2.29","","<div style=""font-size:60px;"">+</div>","null","","","","","","",""
"770.8000001907349","","image-keyboard-response","129","427420","0.0-4.0-0.30","","img/green.png","32","trial","32","true","0.8,0.2","1:go_a","",""
"null","","html-keyboard-response","130","428423","0.0-4.0-1.30","","<img src=""img/green-r.png"" border=""10"">","null","trial","32","","0.8,0.2","1:go_a","1",""
"null","","html-keyboard-response","131","429424","0.0-4.0-2.30","","<div style=""font-size:60px;"">+</div>","null","","","","","","",""
"470.30000019073486","","image-keyboard-response","132","429895","0.0-4.0-0.31","","img/blue.png","32","trial","null","false","0.2,0.8","2:nogo_b","",""
"null","","html-keyboard-response","133","430897","0.0-4.0-1.31","","<img src=""img/blue-r.png"" border=""10"">","null","trial","null","","0.2,0.8","2:nogo_b","1",""
"null","","html-keyboard-response","134","431908","0.0-4.0-2.31","","<div style=""font-size:60px;"">+</div>","null","","","","","","",""
"null","","image-keyboard-response","135","433410","0.0-4.0-0.32","","img/blue.png","null","trial","null","true","0.2,0.8","2:nogo_b","",""
"null","","html-keyboard-response","136","434412","0.0-4.0-1.32","","<img src=""img/blue-r.png"">","null","trial","null","","0.2,0.8","2:nogo_b","1",""
"null","","html-keyboard-response","137","435413","0.0-4.0-2.32","","<div style=""font-size:60px;"">+</div>","null","","","","","","",""
"null","","image-keyboard-response","138","436914","0.0-4.0-0.33","","img/green.png","null","trial","32","false","0.8,0.2","1:go_a","",""
"null","","html-keyboard-response","139","437916","0.0-4.0-1.33","","<img src=""img/green-n.png"">","null","trial","32","","0.8,0.2","1:go_a","0",""
"null","","html-keyboard-response","140","438917","0.0-4.0-2.33","","<div style=""font-size:60px;"">+</div>","null","","","","","","",""
"997.3999996185303","","image-keyboard-response","141","439915","0.0-4.0-0.34","","img/green.png","32","trial","32","true","0.8,0.2","1:go_a","",""
"null","","html-keyboard-response","142","440917","0.0-4.0-1.34","","<img src=""img/green-r.png"" border=""10"">","null","trial","32","","0.8,0.2","1:go_a","1",""
"null","","html-keyboard-response","143","441918","0.0-4.0-2.34","","<div style=""font-size:60px;"">+</div>","null","","","","","","",""
"null","","image-keyboard-response","144","443421","0.0-4.0-0.35","","img/blue.png","null","trial","null","true","0.2,0.8","2:nogo_b","",""
"null","","html-keyboard-response","145","444423","0.0-4.0-1.35","","<img src=""img/blue-n.png"">","null","trial","null","","0.2,0.8","2:nogo_b","0",""
"null","","html-keyboard-response","146","445424","0.0-4.0-2.35","","<div style=""font-size:60px;"">+</div>","null","","","","","","",""
"888.7000002861023","","image-keyboard-response","147","446314","0.0-4.0-0.36","","img/blue.png","32","trial","null","false","0.2,0.8","2:nogo_b","",""
"null","","html-keyboard-response","148","447316","0.0-4.0-1.36","","<img src=""img/blue-n.png"" border=""10"">","null","trial","null","","0.2,0.8","2:nogo_b","0",""
"null","","html-keyboard-response","149","448317","0.0-4.0-2.36","","<div style=""font-size:60px;"">+</div>","null","","","","","","",""
"1316.2000002861023","","image-keyboard-response","150","449634","0.0-4.0-0.37","","img/green.png","32","trial","32","true","0.8,0.2","1:go_a","",""
"null","","html-keyboard-response","151","450636","0.0-4.0-1.37","","<img src=""img/green-r.png"" border=""10"">","null","trial","32","","0.8,0.2","1:go_a","1",""
"null","","html-keyboard-response","152","451638","0.0-4.0-2.37","","<div style=""font-size:60px;"">+</div>","null","","","","","","",""
"null","","image-keyboard-response","153","453140","0.0-4.0-0.38","","img/blue.png","null","trial","null","true","0.2,0.8","2:nogo_b","",""
"null","","html-keyboard-response","154","454142","0.0-4.0-1.38","","<img src=""img/blue-n.png"">","null","trial","null","","0.2,0.8","2:nogo_b","0",""
"null","","html-keyboard-response","155","455143","0.0-4.0-2.38","","<div style=""font-size:60px;"">+</div>","null","","","","","","",""
"624.4000000953674","","image-keyboard-response","156","455768","0.0-4.0-0.39","","img/green.png","32","trial","32","true","0.8,0.2","1:go_a","",""
"null","","html-keyboard-response","157","456769","0.0-4.0-1.39","","<img src=""img/green-r.png"" border=""10"">","null","trial","32","","0.8,0.2","1:go_a","1",""
"null","","html-keyboard-response","158","457771","0.0-4.0-2.39","","<div style=""font-size:60px;"">+</div>","null","","","","","","",""
"null","","image-keyboard-response","159","459274","0.0-4.0-0.40","","img/green.png","null","trial","32","false","0.8,0.2","1:go_a","",""
"null","","html-keyboard-response","160","460276","0.0-4.0-1.40","","<img src=""img/green-r.png"">","null","trial","32","","0.8,0.2","1:go_a","1",""
"null","","html-keyboard-response","161","461277","0.0-4.0-2.40","","<div style=""font-size:60px;"">+</div>","null","","","","","","",""
"null","","image-keyboard-response","162","462779","0.0-4.0-0.41","","img/blue.png","null","trial","null","true","0.2,0.8","2:nogo_b","",""
"null","","html-keyboard-response","163","463781","0.0-4.0-1.41","","<img src=""img/blue-r.png"">","null","trial","null","","0.2,0.8","2:nogo_b","1",""
"null","","html-keyboard-response","164","464782","0.0-4.0-2.41","","<div style=""font-size:60px;"">+</div>","null","","","","","","",""
"1142","","image-keyboard-response","165","465926","0.0-4.0-0.42","","img/green.png","32","trial","32","true","0.8,0.2","1:go_a","",""
"null","","html-keyboard-response","166","466927","0.0-4.0-1.42","","<img src=""img/green-r.png"" border=""10"">","null","trial","32","","0.8,0.2","1:go_a","1",""
"null","","html-keyboard-response","167","467928","0.0-4.0-2.42","","<div style=""font-size:60px;"">+</div>","null","","","","","","",""
"null","","image-keyboard-response","168","469429","0.0-4.0-0.43","","img/blue.png","null","trial","null","true","0.2,0.8","2:nogo_b","",""
"null","","html-keyboard-response","169","470431","0.0-4.0-1.43","","<img src=""img/blue-r.png"">","null","trial","null","","0.2,0.8","2:nogo_b","1",""
"null","","html-keyboard-response","170","471432","0.0-4.0-2.43","","<div style=""font-size:60px;"">+</div>","null","","","","","","",""
"832.0999999046326","","image-keyboard-response","171","472265","0.0-4.0-0.44","","img/green.png","32","trial","32","true","0.8,0.2","1:go_a","",""
"null","","html-keyboard-response","172","473267","0.0-4.0-1.44","","<img src=""img/green-r.png"" border=""10"">","null","trial","32","","0.8,0.2","1:go_a","1",""
"null","","html-keyboard-response","173","474268","0.0-4.0-2.44","","<div style=""font-size:60px;"">+</div>","null","","","","","","",""
"null","","image-keyboard-response","174","475770","0.0-4.0-0.45","","img/blue.png","null","trial","null","true","0.2,0.8","2:nogo_b","",""
"null","","html-keyboard-response","175","476772","0.0-4.0-1.45","","<img src=""img/blue-n.png"">","null","trial","null","","0.2,0.8","2:nogo_b","0",""
"null","","html-keyboard-response","176","477773","0.0-4.0-2.45","","<div style=""font-size:60px;"">+</div>","null","","","","","","",""
"null","","image-keyboard-response","177","479275","0.0-4.0-0.46","","img/blue.png","null","trial","null","true","0.2,0.8","2:nogo_b","",""
"null","","html-keyboard-response","178","480277","0.0-4.0-1.46","","<img src=""img/blue-n.png"">","null","trial","null","","0.2,0.8","2:nogo_b","0",""
"null","","html-keyboard-response","179","481283","0.0-4.0-2.46","","<div style=""font-size:60px;"">+</div>","null","","","","","","",""
"441.90000009536743","","image-keyboard-response","180","481726","0.0-4.0-0.47","","img/green.png","32","trial","32","true","0.8,0.2","1:go_a","",""
"null","","html-keyboard-response","181","482728","0.0-4.0-1.47","","<img src=""img/green-r.png"" border=""10"">","null","trial","32","","0.8,0.2","1:go_a","1",""
"null","","html-keyboard-response","182","483729","0.0-4.0-2.47","","<div style=""font-size:60px;"">+</div>","null","","","","","","",""
"null","","image-keyboard-response","183","485231","0.0-4.0-0.48","","img/blue.png","null","trial","null","true","0.2,0.8","2:nogo_b","",""
"null","","html-keyboard-response","184","486234","0.0-4.0-1.48","","<img src=""img/blue-n.png"">","null","trial","null","","0.2,0.8","2:nogo_b","0",""
"null","","html-keyboard-response","185","487234","0.0-4.0-2.48","","<div style=""font-size:60px;"">+</div>","null","","","","","","",""
"456.8999996185303","","image-keyboard-response","186","487694","0.0-4.0-0.49","","img/green.png","32","trial","32","true","0.8,0.2","1:go_a","",""
"null","","html-keyboard-response","187","488696","0.0-4.0-1.49","","<img src=""img/green-r.png"" border=""10"">","null","trial","32","","0.8,0.2","1:go_a","1",""
"null","","html-keyboard-response","188","489697","0.0-4.0-2.49","","<div style=""font-size:60px;"">+</div>","null","","","","","","",""
"1418.3999996185303","","image-keyboard-response","189","491116","0.0-4.0-0.50","","img/green.png","32","trial","32","true","0.8,0.2","1:go_a","",""
"null","","html-keyboard-response","190","492118","0.0-4.0-1.50","","<img src=""img/green-r.png"" border=""10"">","null","trial","32","","0.8,0.2","1:go_a","1",""
"null","","html-keyboard-response","191","493119","0.0-4.0-2.50","","<div style=""font-size:60px;"">+</div>","null","","","","","","",""
"1030.8000001907349","","image-keyboard-response","192","494151","0.0-4.0-0.51","","img/blue.png","32","trial","null","false","0.2,0.8","2:nogo_b","",""
"null","","html-keyboard-response","193","495195","0.0-4.0-1.51","","<img src=""img/blue-r.png"" border=""10"">","null","trial","null","","0.2,0.8","2:nogo_b","1",""
"null","","html-keyboard-response","194","496196","0.0-4.0-2.51","","<div style=""font-size:60px;"">+</div>","null","","","","","","",""
"1359.8000001907349","","image-keyboard-response","195","497557","0.0-4.0-0.52","","img/green.png","32","trial","32","true","0.8,0.2","1:go_a","",""
"null","","html-keyboard-response","196","498559","0.0-4.0-1.52","","<img src=""img/green-r.png"" border=""10"">","null","trial","32","","0.8,0.2","1:go_a","1",""
"null","","html-keyboard-response","197","499561","0.0-4.0-2.52","","<div style=""font-size:60px;"">+</div>","null","","","","","","",""
"null","","image-keyboard-response","198","501062","0.0-4.0-0.53","","img/blue.png","null","trial","null","true","0.2,0.8","2:nogo_b","",""
"null","","html-keyboard-response","199","502082","0.0-4.0-1.53","","<img src=""img/blue-r.png"">","null","trial","null","","0.2,0.8","2:nogo_b","1",""
"null","","html-keyboard-response","200","503084","0.0-4.0-2.53","","<div style=""font-size:60px;"">+</div>","null","","","","","","",""
"null","","image-keyboard-response","201","504586","0.0-4.0-0.54","","img/blue.png","null","trial","null","true","0.2,0.8","2:nogo_b","",""
"null","","html-keyboard-response","202","505588","0.0-4.0-1.54","","<img src=""img/blue-r.png"">","null","trial","null","","0.2,0.8","2:nogo_b","1",""
"null","","html-keyboard-response","203","506589","0.0-4.0-2.54","","<div style=""font-size:60px;"">+</div>","null","","","","","","",""
"811.0999999046326","","image-keyboard-response","204","507401","0.0-4.0-0.55","","img/green.png","32","trial","32","true","0.8,0.2","1:go_a","",""
"null","","html-keyboard-response","205","508403","0.0-4.0-1.55","","<img src=""img/green-r.png"" border=""10"">","null","trial","32","","0.8,0.2","1:go_a","1",""
"null","","html-keyboard-response","206","509404","0.0-4.0-2.55","","<div style=""font-size:60px;"">+</div>","null","","","","","","",""
"null","","image-keyboard-response","207","510906","0.0-4.0-0.56","","img/blue.png","null","trial","null","true","0.2,0.8","2:nogo_b","",""
"null","","html-keyboard-response","208","511942","0.0-4.0-1.56","","<img src=""img/blue-n.png"">","null","trial","null","","0.2,0.8","2:nogo_b","0",""
"null","","html-keyboard-response","209","512950","0.0-4.0-2.56","","<div style=""font-size:60px;"">+</div>","null","","","","","","",""
"497.59999990463257","","image-keyboard-response","210","513452","0.0-4.0-0.57","","img/green.png","32","trial","32","true","0.8,0.2","1:go_a","",""
"null","","html-keyboard-response","211","514455","0.0-4.0-1.57","","<img src=""img/green-r.png"" border=""10"">","null","trial","32","","0.8,0.2","1:go_a","1",""
"null","","html-keyboard-response","212","515456","0.0-4.0-2.57","","<div style=""font-size:60px;"">+</div>","null","","","","","","",""
"null","","image-keyboard-response","213","516958","0.0-4.0-0.58","","img/blue.png","null","trial","null","true","0.2,0.8","2:nogo_b","",""
"null","","html-keyboard-response","214","517960","0.0-4.0-1.58","","<img src=""img/blue-r.png"">","null","trial","null","","0.2,0.8","2:nogo_b","1",""
"null","","html-keyboard-response","215","518961","0.0-4.0-2.58","","<div style=""font-size:60px;"">+</div>","null","","","","","","",""
"595.4000000953674","","image-keyboard-response","216","519557","0.0-4.0-0.59","","img/green.png","32","trial","32","true","0.8,0.2","1:go_a","",""
"null","","html-keyboard-response","217","520560","0.0-4.0-1.59","","<img src=""img/green-r.png"" border=""10"">","null","trial","32","","0.8,0.2","1:go_a","1",""
"null","","html-keyboard-response","218","521561","0.0-4.0-2.59","","<div style=""font-size:60px;"">+</div>","null","","","","","","",""
"20113.800000190735","","instructions","219","541675","0.0-5.0","[{""page_index"":0,""viewing_time"":20113.200000286102}]","","","","","","","","",""
"1305.5","","image-keyboard-response","220","542984","0.0-6.0-0.0","","img/blue.png","32","trial","null","false","0,1","4:nogo_d","",""
"null","","html-keyboard-response","221","543986","0.0-6.0-1.0","","<img src=""img/blue-n.png"" border=""10"">","null","trial","null","","0,1","4:nogo_d","0",""
"null","","html-keyboard-response","222","544988","0.0-6.0-2.0","","<div style=""font-size:60px;"">+</div>","null","","","","","","",""
"null","","image-keyboard-response","223","546490","0.0-6.0-0.1","","img/purple.png","null","trial","32","false","0.8,0.2","1:go_a","",""
"null","","html-keyboard-response","224","547492","0.0-6.0-1.1","","<img src=""img/purple-n.png"">","null","trial","32","","0.8,0.2","1:go_a","0",""
"null","","html-keyboard-response","225","548495","0.0-6.0-2.1","","<div style=""font-size:60px;"">+</div>","null","","","","","","",""
"null","","image-keyboard-response","226","549997","0.0-6.0-0.2","","img/green.png","null","trial","null","true","0.2,0.8","2:nogo_b","",""
"null","","html-keyboard-response","227","551000","0.0-6.0-1.2","","<img src=""img/green-r.png"">","null","trial","null","","0.2,0.8","2:nogo_b","1",""
"null","","html-keyboard-response","228","552000","0.0-6.0-2.2","","<div style=""font-size:60px;"">+</div>","null","","","","","","",""
"null","","image-keyboard-response","229","553503","0.0-6.0-0.3","","img/grey.png","null","trial","32","false","1,0","3:go_c","",""
"null","","html-keyboard-response","230","554504","0.0-6.0-1.3","","<img src=""img/grey-n.png"">","null","trial","32","","1,0","3:go_c","0",""
"null","","html-keyboard-response","231","555506","0.0-6.0-2.3","","<div style=""font-size:60px;"">+</div>","null","","","","","","",""
"null","","image-keyboard-response","232","557007","0.0-6.0-0.4","","img/blue.png","null","trial","null","true","0,1","4:nogo_d","",""
"null","","html-keyboard-response","233","558009","0.0-6.0-1.4","","<img src=""img/blue-r.png"">","null","trial","null","","0,1","4:nogo_d","1",""
"null","","html-keyboard-response","234","559011","0.0-6.0-2.4","","<div style=""font-size:60px;"">+</div>","null","","","","","","",""
"null","","image-keyboard-response","235","560514","0.0-6.0-0.5","","img/grey.png","null","trial","32","false","1,0","3:go_c","",""
"null","","html-keyboard-response","236","561556","0.0-6.0-1.5","","<img src=""img/grey-n.png"">","null","trial","32","","1,0","3:go_c","0",""
"null","","html-keyboard-response","237","562558","0.0-6.0-2.5","","<div style=""font-size:60px;"">+</div>","null","","","","","","",""
"1034","","image-keyboard-response","238","563593","0.0-6.0-0.6","","img/green.png","32","trial","null","false","0.2,0.8","2:nogo_b","",""
"null","","html-keyboard-response","239","564604","0.0-6.0-1.6","","<img src=""img/green-r.png"" border=""10"">","null","trial","null","","0.2,0.8","2:nogo_b","1",""
"null","","html-keyboard-response","240","565606","0.0-6.0-2.6","","<div style=""font-size:60px;"">+</div>","null","","","","","","",""
"null","","image-keyboard-response","241","567108","0.0-6.0-0.7","","img/purple.png","null","trial","32","false","0.8,0.2","1:go_a","",""
"null","","html-keyboard-response","242","568111","0.0-6.0-1.7","","<img src=""img/purple-n.png"">","null","trial","32","","0.8,0.2","1:go_a","0",""
"null","","html-keyboard-response","243","569112","0.0-6.0-2.7","","<div style=""font-size:60px;"">+</div>","null","","","","","","",""
"null","","image-keyboard-response","244","570624","0.0-6.0-0.8","","img/purple.png","null","trial","32","false","0.8,0.2","1:go_a","",""
"null","","html-keyboard-response","245","571626","0.0-6.0-1.8","","<img src=""img/purple-n.png"">","null","trial","32","","0.8,0.2","1:go_a","0",""
"null","","html-keyboard-response","246","572627","0.0-6.0-2.8","","<div style=""font-size:60px;"">+</div>","null","","","","","","",""
"null","","image-keyboard-response","247","574128","0.0-6.0-0.9","","img/grey.png","null","trial","32","false","1,0","3:go_c","",""
"null","","html-keyboard-response","248","575130","0.0-6.0-1.9","","<img src=""img/grey-n.png"">","null","trial","32","","1,0","3:go_c","0",""
"null","","html-keyboard-response","249","576131","0.0-6.0-2.9","","<div style=""font-size:60px;"">+</div>","null","","","","","","",""
"936.0999999046326","","image-keyboard-response","250","577068","0.0-6.0-0.10","","img/blue.png","32","trial","null","false","0,1","4:nogo_d","",""
"null","","html-keyboard-response","251","578070","0.0-6.0-1.10","","<img src=""img/blue-n.png"" border=""10"">","null","trial","null","","0,1","4:nogo_d","0",""
"null","","html-keyboard-response","252","579071","0.0-6.0-2.10","","<div style=""font-size:60px;"">+</div>","null","","","","","","",""
"430.40000009536743","","image-keyboard-response","253","579503","0.0-6.0-0.11","","img/green.png","32","trial","null","false","0.2,0.8","2:nogo_b","",""
"null","","html-keyboard-response","254","580505","0.0-6.0-1.11","","<img src=""img/green-n.png"" border=""10"">","null","trial","null","","0.2,0.8","2:nogo_b","0",""
"null","","html-keyboard-response","255","581506","0.0-6.0-2.11","","<div style=""font-size:60px;"">+</div>","null","","","","","","",""
"764.1999998092651","","image-keyboard-response","256","582272","0.0-6.0-0.12","","img/green.png","32","trial","null","false","0.2,0.8","2:nogo_b","",""
"null","","html-keyboard-response","257","583274","0.0-6.0-1.12","","<img src=""img/green-n.png"" border=""10"">","null","trial","null","","0.2,0.8","2:nogo_b","0",""
"null","","html-keyboard-response","258","584277","0.0-6.0-2.12","","<div style=""font-size:60px;"">+</div>","null","","","","","","",""
"null","","image-keyboard-response","259","585780","0.0-6.0-0.13","","img/purple.png","null","trial","32","false","0.8,0.2","1:go_a","",""
"null","","html-keyboard-response","260","586782","0.0-6.0-1.13","","<img src=""img/purple-n.png"">","null","trial","32","","0.8,0.2","1:go_a","0",""
"null","","html-keyboard-response","261","587783","0.0-6.0-2.13","","<div style=""font-size:60px;"">+</div>","null","","","","","","",""
"788.5","","image-keyboard-response","262","588573","0.0-6.0-0.14","","img/grey.png","32","trial","32","true","1,0","3:go_c","",""
"null","","html-keyboard-response","263","589576","0.0-6.0-1.14","","<img src=""img/grey-r.png"" border=""10"">","null","trial","32","","1,0","3:go_c","1",""
"null","","html-keyboard-response","264","590577","0.0-6.0-2.14","","<div style=""font-size:60px;"">+</div>","null","","","","","","",""
"1097.9000000953674","","image-keyboard-response","265","591675","0.0-6.0-0.15","","img/blue.png","32","trial","null","false","0,1","4:nogo_d","",""
"null","","html-keyboard-response","266","592677","0.0-6.0-1.15","","<img src=""img/blue-n.png"" border=""10"">","null","trial","null","","0,1","4:nogo_d","0",""
"null","","html-keyboard-response","267","593679","0.0-6.0-2.15","","<div style=""font-size:60px;"">+</div>","null","","","","","","",""
"null","","image-keyboard-response","268","595181","0.0-6.0-0.16","","img/blue.png","null","trial","null","true","0,1","4:nogo_d","",""
"null","","html-keyboard-response","269","596183","0.0-6.0-1.16","","<img src=""img/blue-r.png"">","null","trial","null","","0,1","4:nogo_d","1",""
"null","","html-keyboard-response","270","597185","0.0-6.0-2.16","","<div style=""font-size:60px;"">+</div>","null","","","","","","",""
"901.8000001907349","","image-keyboard-response","271","598089","0.0-6.0-0.17","","img/green.png","32","trial","null","false","0.2,0.8","2:nogo_b","",""
"null","","html-keyboard-response","272","599093","0.0-6.0-1.17","","<img src=""img/green-n.png"" border=""10"">","null","trial","null","","0.2,0.8","2:nogo_b","0",""
"null","","html-keyboard-response","273","600095","0.0-6.0-2.17","","<div style=""font-size:60px;"">+</div>","null","","","","","","",""
"1364.5","","image-keyboard-response","274","601461","0.0-6.0-0.18","","img/grey.png","32","trial","32","true","1,0","3:go_c","",""
"null","","html-keyboard-response","275","602463","0.0-6.0-1.18","","<img src=""img/grey-r.png"" border=""10"">","null","trial","32","","1,0","3:go_c","1",""
"null","","html-keyboard-response","276","603464","0.0-6.0-2.18","","<div style=""font-size:60px;"">+</div>","null","","","","","","",""
"null","","image-keyboard-response","277","604965","0.0-6.0-0.19","","img/purple.png","null","trial","32","false","0.8,0.2","1:go_a","",""
"null","","html-keyboard-response","278","605967","0.0-6.0-1.19","","<img src=""img/purple-r.png"">","null","trial","32","","0.8,0.2","1:go_a","1",""
"null","","html-keyboard-response","279","606968","0.0-6.0-2.19","","<div style=""font-size:60px;"">+</div>","null","","","","","","",""
"1293.8000001907349","","image-keyboard-response","280","608263","0.0-6.0-0.20","","img/green.png","32","trial","null","false","0.2,0.8","2:nogo_b","",""
"null","","html-keyboard-response","281","609267","0.0-6.0-1.20","","<img src=""img/green-n.png"" border=""10"">","null","trial","null","","0.2,0.8","2:nogo_b","0",""
"null","","html-keyboard-response","282","610268","0.0-6.0-2.20","","<div style=""font-size:60px;"">+</div>","null","","","","","","",""
"1263.7999997138977","","image-keyboard-response","283","611534","0.0-6.0-0.21","","img/grey.png","32","trial","32","true","1,0","3:go_c","",""
"null","","html-keyboard-response","284","612536","0.0-6.0-1.21","","<img src=""img/grey-r.png"" border=""10"">","null","trial","32","","1,0","3:go_c","1",""
"null","","html-keyboard-response","285","613538","0.0-6.0-2.21","","<div style=""font-size:60px;"">+</div>","null","","","","","","",""
"1129.2999997138977","","image-keyboard-response","286","614668","0.0-6.0-0.22","","img/blue.png","32","trial","null","false","0,1","4:nogo_d","",""
"null","","html-keyboard-response","287","615682","0.0-6.0-1.22","","<img src=""img/blue-n.png"" border=""10"">","null","trial","null","","0,1","4:nogo_d","0",""
"null","","html-keyboard-response","288","616684","0.0-6.0-2.22","","<div style=""font-size:60px;"">+</div>","null","","","","","","",""
"null","","image-keyboard-response","289","618186","0.0-6.0-0.23","","img/purple.png","null","trial","32","false","0.8,0.2","1:go_a","",""
"null","","html-keyboard-response","290","619188","0.0-6.0-1.23","","<img src=""img/purple-r.png"">","null","trial","32","","0.8,0.2","1:go_a","1",""
"null","","html-keyboard-response","291","620189","0.0-6.0-2.23","","<div style=""font-size:60px;"">+</div>","null","","","","","","",""
"1175.7999997138977","","image-keyboard-response","292","621366","0.0-6.0-0.24","","img/purple.png","32","trial","32","true","0.8,0.2","1:go_a","",""
"null","","html-keyboard-response","293","622368","0.0-6.0-1.24","","<img src=""img/purple-r.png"" border=""10"">","null","trial","32","","0.8,0.2","1:go_a","1",""
"null","","html-keyboard-response","294","623369","0.0-6.0-2.24","","<div style=""font-size:60px;"">+</div>","null","","","","","","",""
"null","","image-keyboard-response","295","624871","0.0-6.0-0.25","","img/green.png","null","trial","null","true","0.2,0.8","2:nogo_b","",""
"null","","html-keyboard-response","296","625873","0.0-6.0-1.25","","<img src=""img/green-r.png"">","null","trial","null","","0.2,0.8","2:nogo_b","1",""
"null","","html-keyboard-response","297","626875","0.0-6.0-2.25","","<div style=""font-size:60px;"">+</div>","null","","","","","","",""
"1159","","image-keyboard-response","298","628035","0.0-6.0-0.26","","img/grey.png","32","trial","32","true","1,0","3:go_c","",""
"null","","html-keyboard-response","299","629037","0.0-6.0-1.26","","<img src=""img/grey-r.png"" border=""10"">","null","trial","32","","1,0","3:go_c","1",""
"null","","html-keyboard-response","300","630039","0.0-6.0-2.26","","<div style=""font-size:60px;"">+</div>","null","","","","","","",""
"null","","image-keyboard-response","301","631542","0.0-6.0-0.27","","img/blue.png","null","trial","null","true","0,1","4:nogo_d","",""
"null","","html-keyboard-response","302","632544","0.0-6.0-1.27","","<img src=""img/blue-r.png"">","null","trial","null","","0,1","4:nogo_d","1",""
"null","","html-keyboard-response","303","633545","0.0-6.0-2.27","","<div style=""font-size:60px;"">+</div>","null","","","","","","",""
"1140.4000000953674","","image-keyboard-response","304","634688","0.0-6.0-0.28","","img/green.png","32","trial","null","false","0.2,0.8","2:nogo_b","",""
"null","","html-keyboard-response","305","635690","0.0-6.0-1.28","","<img src=""img/green-n.png"" border=""10"">","null","trial","null","","0.2,0.8","2:nogo_b","0",""
"null","","html-keyboard-response","306","636691","0.0-6.0-2.28","","<div style=""font-size:60px;"">+</div>","null","","","","","","",""
"1437.5999999046326","","image-keyboard-response","307","638130","0.0-6.0-0.29","","img/blue.png","32","trial","null","false","0,1","4:nogo_d","",""
"null","","html-keyboard-response","308","639135","0.0-6.0-1.29","","<img src=""img/blue-n.png"" border=""10"">","null","trial","null","","0,1","4:nogo_d","0",""
"null","","html-keyboard-response","309","640137","0.0-6.0-2.29","","<div style=""font-size:60px;"">+</div>","null","","","","","","",""
"994.6999998092651","","image-keyboard-response","310","641132","0.0-6.0-0.30","","img/purple.png","32","trial","32","true","0.8,0.2","1:go_a","",""
"null","","html-keyboard-response","311","642135","0.0-6.0-1.30","","<img src=""img/purple-r.png"" border=""10"">","null","trial","32","","0.8,0.2","1:go_a","1",""
"null","","html-keyboard-response","312","643136","0.0-6.0-2.30","","<div style=""font-size:60px;"">+</div>","null","","","","","","",""
"475.19999980926514","","image-keyboard-response","313","643612","0.0-6.0-0.31","","img/grey.png","32","trial","32","true","1,0","3:go_c","",""
"null","","html-keyboard-response","314","644650","0.0-6.0-1.31","","<img src=""img/grey-r.png"" border=""10"">","null","trial","32","","1,0","3:go_c","1",""
"null","","html-keyboard-response","315","645702","0.0-6.0-2.31","","<div style=""font-size:60px;"">+</div>","null","","","","","","",""
"null","","image-keyboard-response","316","647204","0.0-6.0-0.32","","img/blue.png","null","trial","null","true","0,1","4:nogo_d","",""
"null","","html-keyboard-response","317","648206","0.0-6.0-1.32","","<img src=""img/blue-r.png"">","null","trial","null","","0,1","4:nogo_d","1",""
"null","","html-keyboard-response","318","649207","0.0-6.0-2.32","","<div style=""font-size:60px;"">+</div>","null","","","","","","",""
"885.0999999046326","","image-keyboard-response","319","650093","0.0-6.0-0.33","","img/purple.png","32","trial","32","true","0.8,0.2","1:go_a","",""
"null","","html-keyboard-response","320","651095","0.0-6.0-1.33","","<img src=""img/purple-r.png"" border=""10"">","null","trial","32","","0.8,0.2","1:go_a","1",""
"null","","html-keyboard-response","321","652096","0.0-6.0-2.33","","<div style=""font-size:60px;"">+</div>","null","","","","","","",""
"1089","","image-keyboard-response","322","653186","0.0-6.0-0.34","","img/green.png","32","trial","null","false","0.2,0.8","2:nogo_b","",""
"null","","html-keyboard-response","323","654187","0.0-6.0-1.34","","<img src=""img/green-r.png"" border=""10"">","null","trial","null","","0.2,0.8","2:nogo_b","1",""
"null","","html-keyboard-response","324","655188","0.0-6.0-2.34","","<div style=""font-size:60px;"">+</div>","null","","","","","","",""
"1103.0999999046326","","image-keyboard-response","325","656292","0.0-6.0-0.35","","img/grey.png","32","trial","32","true","1,0","3:go_c","",""
"null","","html-keyboard-response","326","657294","0.0-6.0-1.35","","<img src=""img/grey-r.png"" border=""10"">","null","trial","32","","1,0","3:go_c","1",""
"null","","html-keyboard-response","327","658298","0.0-6.0-2.35","","<div style=""font-size:60px;"">+</div>","null","","","","","","",""
"null","","image-keyboard-response","328","659800","0.0-6.0-0.36","","img/purple.png","null","trial","32","false","0.8,0.2","1:go_a","",""
"null","","html-keyboard-response","329","660803","0.0-6.0-1.36","","<img src=""img/purple-n.png"">","null","trial","32","","0.8,0.2","1:go_a","0",""
"null","","html-keyboard-response","330","661804","0.0-6.0-2.36","","<div style=""font-size:60px;"">+</div>","null","","","","","","",""
"957.2000002861023","","image-keyboard-response","331","662763","0.0-6.0-0.37","","img/green.png","32","trial","null","false","0.2,0.8","2:nogo_b","",""
"null","","html-keyboard-response","332","663764","0.0-6.0-1.37","","<img src=""img/green-r.png"" border=""10"">","null","trial","null","","0.2,0.8","2:nogo_b","1",""
"null","","html-keyboard-response","333","664766","0.0-6.0-2.37","","<div style=""font-size:60px;"">+</div>","null","","","","","","",""
"914","","image-keyboard-response","334","665681","0.0-6.0-0.38","","img/grey.png","32","trial","32","true","1,0","3:go_c","",""
"null","","html-keyboard-response","335","666683","0.0-6.0-1.38","","<img src=""img/grey-r.png"" border=""10"">","null","trial","32","","1,0","3:go_c","1",""
"null","","html-keyboard-response","336","667696","0.0-6.0-2.38","","<div style=""font-size:60px;"">+</div>","null","","","","","","",""
"null","","image-keyboard-response","337","669199","0.0-6.0-0.39","","img/blue.png","null","trial","null","true","0,1","4:nogo_d","",""
"null","","html-keyboard-response","338","670202","0.0-6.0-1.39","","<img src=""img/blue-r.png"">","null","trial","null","","0,1","4:nogo_d","1",""
"null","","html-keyboard-response","339","671203","0.0-6.0-2.39","","<div style=""font-size:60px;"">+</div>","null","","","","","","",""
"1270.2000002861023","","image-keyboard-response","340","672474","0.0-6.0-0.40","","img/green.png","32","trial","null","false","0.2,0.8","2:nogo_b","",""
"null","","html-keyboard-response","341","673482","0.0-6.0-1.40","","<img src=""img/green-n.png"" border=""10"">","null","trial","null","","0.2,0.8","2:nogo_b","0",""
"null","","html-keyboard-response","342","674484","0.0-6.0-2.40","","<div style=""font-size:60px;"">+</div>","null","","","","","","",""
"712.5999999046326","","image-keyboard-response","343","675198","0.0-6.0-0.41","","img/purple.png","32","trial","32","true","0.8,0.2","1:go_a","",""
"null","","html-keyboard-response","344","676199","0.0-6.0-1.41","","<img src=""img/purple-r.png"" border=""10"">","null","trial","32","","0.8,0.2","1:go_a","1",""
"null","","html-keyboard-response","345","677201","0.0-6.0-2.41","","<div style=""font-size:60px;"">+</div>","null","","","","","","",""
"null","","image-keyboard-response","346","678703","0.0-6.0-0.42","","img/blue.png","null","trial","null","true","0,1","4:nogo_d","",""
"null","","html-keyboard-response","347","679705","0.0-6.0-1.42","","<img src=""img/blue-r.png"">","null","trial","null","","0,1","4:nogo_d","1",""
"null","","html-keyboard-response","348","680707","0.0-6.0-2.42","","<div style=""font-size:60px;"">+</div>","null","","","","","","",""
"1387.0999999046326","","image-keyboard-response","349","682094","0.0-6.0-0.43","","img/grey.png","32","trial","32","true","1,0","3:go_c","",""
"null","","html-keyboard-response","350","683096","0.0-6.0-1.43","","<img src=""img/grey-r.png"" border=""10"">","null","trial","32","","1,0","3:go_c","1",""
"null","","html-keyboard-response","351","684098","0.0-6.0-2.43","","<div style=""font-size:60px;"">+</div>","null","","","","","","",""
"983.4000000953674","","image-keyboard-response","352","685083","0.0-6.0-0.44","","img/grey.png","32","trial","32","true","1,0","3:go_c","",""
"null","","html-keyboard-response","353","686086","0.0-6.0-1.44","","<img src=""img/grey-r.png"" border=""10"">","null","trial","32","","1,0","3:go_c","1",""
"null","","html-keyboard-response","354","687087","0.0-6.0-2.44","","<div style=""font-size:60px;"">+</div>","null","","","","","","",""
"1332.2999997138977","","image-keyboard-response","355","688420","0.0-6.0-0.45","","img/purple.png","32","trial","32","true","0.8,0.2","1:go_a","",""
"null","","html-keyboard-response","356","689422","0.0-6.0-1.45","","<img src=""img/purple-r.png"" border=""10"">","null","trial","32","","0.8,0.2","1:go_a","1",""
"null","","html-keyboard-response","357","690423","0.0-6.0-2.45","","<div style=""font-size:60px;"">+</div>","null","","","","","","",""
"null","","image-keyboard-response","358","691926","0.0-6.0-0.46","","img/green.png","null","trial","null","true","0.2,0.8","2:nogo_b","",""
"null","","html-keyboard-response","359","692928","0.0-6.0-1.46","","<img src=""img/green-n.png"">","null","trial","null","","0.2,0.8","2:nogo_b","0",""
"null","","html-keyboard-response","360","693929","0.0-6.0-2.46","","<div style=""font-size:60px;"">+</div>","null","","","","","","",""
"1301.6999998092651","","image-keyboard-response","361","695231","0.0-6.0-0.47","","img/blue.png","32","trial","null","false","0,1","4:nogo_d","",""
"null","","html-keyboard-response","362","696234","0.0-6.0-1.47","","<img src=""img/blue-n.png"" border=""10"">","null","trial","null","","0,1","4:nogo_d","0",""
"null","","html-keyboard-response","363","697235","0.0-6.0-2.47","","<div style=""font-size:60px;"">+</div>","null","","","","","","",""
"1206.8000001907349","","image-keyboard-response","364","698443","0.0-6.0-0.48","","img/purple.png","32","trial","32","true","0.8,0.2","1:go_a","",""
"null","","html-keyboard-response","365","699448","0.0-6.0-1.48","","<img src=""img/purple-n.png"" border=""10"">","null","trial","32","","0.8,0.2","1:go_a","0",""
"null","","html-keyboard-response","366","700449","0.0-6.0-2.48","","<div style=""font-size:60px;"">+</div>","null","","","","","","",""
"null","","image-keyboard-response","367","701951","0.0-6.0-0.49","","img/blue.png","null","trial","null","true","0,1","4:nogo_d","",""
"null","","html-keyboard-response","368","702953","0.0-6.0-1.49","","<img src=""img/blue-r.png"">","null","trial","null","","0,1","4:nogo_d","1",""
"null","","html-keyboard-response","369","703954","0.0-6.0-2.49","","<div style=""font-size:60px;"">+</div>","null","","","","","","",""
"1063.9000000953674","","image-keyboard-response","370","705019","0.0-6.0-0.50","","img/green.png","32","trial","null","false","0.2,0.8","2:nogo_b","",""
"null","","html-keyboard-response","371","706022","0.0-6.0-1.50","","<img src=""img/green-n.png"" border=""10"">","null","trial","null","","0.2,0.8","2:nogo_b","0",""
"null","","html-keyboard-response","372","707023","0.0-6.0-2.50","","<div style=""font-size:60px;"">+</div>","null","","","","","","",""
"687","","image-keyboard-response","373","707711","0.0-6.0-0.51","","img/grey.png","32","trial","32","true","1,0","3:go_c","",""
"null","","html-keyboard-response","374","708717","0.0-6.0-1.51","","<img src=""img/grey-r.png"" border=""10"">","null","trial","32","","1,0","3:go_c","1",""
"null","","html-keyboard-response","375","709719","0.0-6.0-2.51","","<div style=""font-size:60px;"">+</div>","null","","","","","","",""
"null","","image-keyboard-response","376","711220","0.0-6.0-0.52","","img/purple.png","null","trial","32","false","0.8,0.2","1:go_a","",""
"null","","html-keyboard-response","377","712222","0.0-6.0-1.52","","<img src=""img/purple-r.png"">","null","trial","32","","0.8,0.2","1:go_a","1",""
"null","","html-keyboard-response","378","713224","0.0-6.0-2.52","","<div style=""font-size:60px;"">+</div>","null","","","","","","",""
"null","","image-keyboard-response","379","714726","0.0-6.0-0.53","","img/green.png","null","trial","null","true","0.2,0.8","2:nogo_b","",""
"null","","html-keyboard-response","380","715727","0.0-6.0-1.53","","<img src=""img/green-r.png"">","null","trial","null","","0.2,0.8","2:nogo_b","1",""
"null","","html-keyboard-response","381","716729","0.0-6.0-2.53","","<div style=""font-size:60px;"">+</div>","null","","","","","","",""
"626.7999997138977","","image-keyboard-response","382","717356","0.0-6.0-0.54","","img/grey.png","32","trial","32","true","1,0","3:go_c","",""
"null","","html-keyboard-response","383","718358","0.0-6.0-1.54","","<img src=""img/grey-r.png"" border=""10"">","null","trial","32","","1,0","3:go_c","1",""
"null","","html-keyboard-response","384","719359","0.0-6.0-2.54","","<div style=""font-size:60px;"">+</div>","null","","","","","","",""
"null","","image-keyboard-response","385","720862","0.0-6.0-0.55","","img/blue.png","null","trial","null","true","0,1","4:nogo_d","",""
"null","","html-keyboard-response","386","721864","0.0-6.0-1.55","","<img src=""img/blue-r.png"">","null","trial","null","","0,1","4:nogo_d","1",""
"null","","html-keyboard-response","387","722865","0.0-6.0-2.55","","<div style=""font-size:60px;"">+</div>","null","","","","","","",""
"null","","image-keyboard-response","388","724369","0.0-6.0-0.56","","img/grey.png","null","trial","32","false","1,0","3:go_c","",""
"null","","html-keyboard-response","389","725371","0.0-6.0-1.56","","<img src=""img/grey-n.png"">","null","trial","32","","1,0","3:go_c","0",""
"null","","html-keyboard-response","390","726372","0.0-6.0-2.56","","<div style=""font-size:60px;"">+</div>","null","","","","","","",""
"1061.1999998092651","","image-keyboard-response","391","727434","0.0-6.0-0.57","","img/blue.png","32","trial","null","false","0,1","4:nogo_d","",""
"null","","html-keyboard-response","392","728436","0.0-6.0-1.57","","<img src=""img/blue-n.png"" border=""10"">","null","trial","null","","0,1","4:nogo_d","0",""
"null","","html-keyboard-response","393","729450","0.0-6.0-2.57","","<div style=""font-size:60px;"">+</div>","null","","","","","","",""
"1274.8000001907349","","image-keyboard-response","394","730728","0.0-6.0-0.58","","img/purple.png","32","trial","32","true","0.8,0.2","1:go_a","",""
"null","","html-keyboard-response","395","731730","0.0-6.0-1.58","","<img src=""img/purple-r.png"" border=""10"">","null","trial","32","","0.8,0.2","1:go_a","1",""
"null","","html-keyboard-response","396","732731","0.0-6.0-2.58","","<div style=""font-size:60px;"">+</div>","null","","","","","","",""
"808.5","","image-keyboard-response","397","733541","0.0-6.0-0.59","","img/green.png","32","trial","null","false","0.2,0.8","2:nogo_b","",""
"null","","html-keyboard-response","398","734543","0.0-6.0-1.59","","<img src=""img/green-n.png"" border=""10"">","null","trial","null","","0.2,0.8","2:nogo_b","0",""
"null","","html-keyboard-response","399","735544","0.0-6.0-2.59","","<div style=""font-size:60px;"">+</div>","null","","","","","","",""
"null","","image-keyboard-response","400","737048","0.0-6.0-0.60","","img/purple.png","null","trial","32","false","0.8,0.2","1:go_a","",""
"null","","html-keyboard-response","401","738050","0.0-6.0-1.60","","<img src=""img/purple-n.png"">","null","trial","32","","0.8,0.2","1:go_a","0",""
"null","","html-keyboard-response","402","739052","0.0-6.0-2.60","","<div style=""font-size:60px;"">+</div>","null","","","","","","",""
"null","","image-keyboard-response","403","740556","0.0-6.0-0.61","","img/blue.png","null","trial","null","true","0,1","4:nogo_d","",""
"null","","html-keyboard-response","404","741558","0.0-6.0-1.61","","<img src=""img/blue-r.png"">","null","trial","null","","0,1","4:nogo_d","1",""
"null","","html-keyboard-response","405","742559","0.0-6.0-2.61","","<div style=""font-size:60px;"">+</div>","null","","","","","","",""
"1087.0999999046326","","image-keyboard-response","406","743647","0.0-6.0-0.62","","img/grey.png","32","trial","32","true","1,0","3:go_c","",""
"null","","html-keyboard-response","407","744650","0.0-6.0-1.62","","<img src=""img/grey-r.png"" border=""10"">","null","trial","32","","1,0","3:go_c","1",""
"null","","html-keyboard-response","408","745679","0.0-6.0-2.62","","<div style=""font-size:60px;"">+</div>","null","","","","","","",""
"1263.5999999046326","","image-keyboard-response","409","746944","0.0-6.0-0.63","","img/green.png","32","trial","null","false","0.2,0.8","2:nogo_b","",""
"null","","html-keyboard-response","410","747946","0.0-6.0-1.63","","<img src=""img/green-n.png"" border=""10"">","null","trial","null","","0.2,0.8","2:nogo_b","0",""
"null","","html-keyboard-response","411","748947","0.0-6.0-2.63","","<div style=""font-size:60px;"">+</div>","null","","","","","","",""
"null","","image-keyboard-response","412","750449","0.0-6.0-0.64","","img/blue.png","null","trial","null","true","0,1","4:nogo_d","",""
"null","","html-keyboard-response","413","751451","0.0-6.0-1.64","","<img src=""img/blue-r.png"">","null","trial","null","","0,1","4:nogo_d","1",""
"null","","html-keyboard-response","414","752451","0.0-6.0-2.64","","<div style=""font-size:60px;"">+</div>","null","","","","","","",""
"null","","image-keyboard-response","415","753953","0.0-6.0-0.65","","img/purple.png","null","trial","32","false","0.8,0.2","1:go_a","",""
"null","","html-keyboard-response","416","754959","0.0-6.0-1.65","","<img src=""img/purple-n.png"">","null","trial","32","","0.8,0.2","1:go_a","0",""
"null","","html-keyboard-response","417","755962","0.0-6.0-2.65","","<div style=""font-size:60px;"">+</div>","null","","","","","","",""
"1134.3999996185303","","image-keyboard-response","418","757098","0.0-6.0-0.66","","img/green.png","32","trial","null","false","0.2,0.8","2:nogo_b","",""
"null","","html-keyboard-response","419","758100","0.0-6.0-1.66","","<img src=""img/green-n.png"" border=""10"">","null","trial","null","","0.2,0.8","2:nogo_b","0",""
"null","","html-keyboard-response","420","759102","0.0-6.0-2.66","","<div style=""font-size:60px;"">+</div>","null","","","","","","",""
"461.40000009536743","","image-keyboard-response","421","759564","0.0-6.0-0.67","","img/grey.png","32","trial","32","true","1,0","3:go_c","",""
"null","","html-keyboard-response","422","760568","0.0-6.0-1.67","","<img src=""img/grey-r.png"" border=""10"">","null","trial","32","","1,0","3:go_c","1",""
"null","","html-keyboard-response","423","761569","0.0-6.0-2.67","","<div style=""font-size:60px;"">+</div>","null","","","","","","",""
"1062.6999998092651","","image-keyboard-response","424","762633","0.0-6.0-0.68","","img/blue.png","32","trial","null","false","0,1","4:nogo_d","",""
"null","","html-keyboard-response","425","763636","0.0-6.0-1.68","","<img src=""img/blue-n.png"" border=""10"">","null","trial","null","","0,1","4:nogo_d","0",""
"null","","html-keyboard-response","426","764637","0.0-6.0-2.68","","<div style=""font-size:60px;"">+</div>","null","","","","","","",""
"745.0999999046326","","image-keyboard-response","427","765383","0.0-6.0-0.69","","img/grey.png","32","trial","32","true","1,0","3:go_c","",""
"null","","html-keyboard-response","428","766385","0.0-6.0-1.69","","<img src=""img/grey-r.png"" border=""10"">","null","trial","32","","1,0","3:go_c","1",""
"null","","html-keyboard-response","429","767386","0.0-6.0-2.69","","<div style=""font-size:60px;"">+</div>","null","","","","","","",""
"913.5","","image-keyboard-response","430","768300","0.0-6.0-0.70","","img/purple.png","32","trial","32","true","0.8,0.2","1:go_a","",""
"null","","html-keyboard-response","431","769303","0.0-6.0-1.70","","<img src=""img/purple-n.png"" border=""10"">","null","trial","32","","0.8,0.2","1:go_a","0",""
"null","","html-keyboard-response","432","770304","0.0-6.0-2.70","","<div style=""font-size:60px;"">+</div>","null","","","","","","",""
"918.3000001907349","","image-keyboard-response","433","771223","0.0-6.0-0.71","","img/green.png","32","trial","null","false","0.2,0.8","2:nogo_b","",""
"null","","html-keyboard-response","434","772226","0.0-6.0-1.71","","<img src=""img/green-n.png"" border=""10"">","null","trial","null","","0.2,0.8","2:nogo_b","0",""
"null","","html-keyboard-response","435","773227","0.0-6.0-2.71","","<div style=""font-size:60px;"">+</div>","null","","","","","","",""
"null","","image-keyboard-response","436","774729","0.0-6.0-0.72","","img/blue.png","null","trial","null","true","0,1","4:nogo_d","",""
"null","","html-keyboard-response","437","775732","0.0-6.0-1.72","","<img src=""img/blue-r.png"">","null","trial","null","","0,1","4:nogo_d","1",""
"null","","html-keyboard-response","438","776733","0.0-6.0-2.72","","<div style=""font-size:60px;"">+</div>","null","","","","","","",""
"null","","image-keyboard-response","439","778234","0.0-6.0-0.73","","img/purple.png","null","trial","32","false","0.8,0.2","1:go_a","",""
"null","","html-keyboard-response","440","779236","0.0-6.0-1.73","","<img src=""img/purple-n.png"">","null","trial","32","","0.8,0.2","1:go_a","0",""
"null","","html-keyboard-response","441","780237","0.0-6.0-2.73","","<div style=""font-size:60px;"">+</div>","null","","","","","","",""
"641.8000001907349","","image-keyboard-response","442","780881","0.0-6.0-0.74","","img/grey.png","32","trial","32","true","1,0","3:go_c","",""
"null","","html-keyboard-response","443","781883","0.0-6.0-1.74","","<img src=""img/grey-r.png"" border=""10"">","null","trial","32","","1,0","3:go_c","1",""
"null","","html-keyboard-response","444","782884","0.0-6.0-2.74","","<div style=""font-size:60px;"">+</div>","null","","","","","","",""
"null","","image-keyboard-response","445","784386","0.0-6.0-0.75","","img/green.png","null","trial","null","true","0.2,0.8","2:nogo_b","",""
"null","","html-keyboard-response","446","785387","0.0-6.0-1.75","","<img src=""img/green-r.png"">","null","trial","null","","0.2,0.8","2:nogo_b","1",""
"null","","html-keyboard-response","447","786388","0.0-6.0-2.75","","<div style=""font-size:60px;"">+</div>","null","","","","","","",""
"731.2000002861023","","image-keyboard-response","448","787121","0.0-6.0-0.76","","img/grey.png","32","trial","32","true","1,0","3:go_c","",""
"null","","html-keyboard-response","449","788129","0.0-6.0-1.76","","<img src=""img/grey-r.png"" border=""10"">","null","trial","32","","1,0","3:go_c","1",""
"null","","html-keyboard-response","450","789130","0.0-6.0-2.76","","<div style=""font-size:60px;"">+</div>","null","","","","","","",""
"753.4000000953674","","image-keyboard-response","451","789885","0.0-6.0-0.77","","img/green.png","32","trial","null","false","0.2,0.8","2:nogo_b","",""
"null","","html-keyboard-response","452","790889","0.0-6.0-1.77","","<img src=""img/green-n.png"" border=""10"">","null","trial","null","","0.2,0.8","2:nogo_b","0",""
"null","","html-keyboard-response","453","791892","0.0-6.0-2.77","","<div style=""font-size:60px;"">+</div>","null","","","","","","",""
"null","","image-keyboard-response","454","793395","0.0-6.0-0.78","","img/purple.png","null","trial","32","false","0.8,0.2","1:go_a","",""
"null","","html-keyboard-response","455","794397","0.0-6.0-1.78","","<img src=""img/purple-n.png"">","null","trial","32","","0.8,0.2","1:go_a","0",""
"null","","html-keyboard-response","456","795399","0.0-6.0-2.78","","<div style=""font-size:60px;"">+</div>","null","","","","","","",""
"495.19999980926514","","image-keyboard-response","457","795895","0.0-6.0-0.79","","img/blue.png","32","trial","null","false","0,1","4:nogo_d","",""
"null","","html-keyboard-response","458","796897","0.0-6.0-1.79","","<img src=""img/blue-n.png"" border=""10"">","null","trial","null","","0,1","4:nogo_d","0",""
"null","","html-keyboard-response","459","797898","0.0-6.0-2.79","","<div style=""font-size:60px;"">+</div>","null","","","","","","",""
"null","","image-keyboard-response","460","799401","0.0-6.0-0.80","","img/green.png","null","trial","null","true","0.2,0.8","2:nogo_b","",""
"null","","html-keyboard-response","461","800453","0.0-6.0-1.80","","<img src=""img/green-r.png"">","null","trial","null","","0.2,0.8","2:nogo_b","1",""
"null","","html-keyboard-response","462","801462","0.0-6.0-2.80","","<div style=""font-size:60px;"">+</div>","null","","","","","","",""
"null","","image-keyboard-response","463","802964","0.0-6.0-0.81","","img/blue.png","null","trial","null","true","0,1","4:nogo_d","",""
"null","","html-keyboard-response","464","803966","0.0-6.0-1.81","","<img src=""img/blue-r.png"">","null","trial","null","","0,1","4:nogo_d","1",""
"null","","html-keyboard-response","465","804967","0.0-6.0-2.81","","<div style=""font-size:60px;"">+</div>","null","","","","","","",""
"457","","image-keyboard-response","466","805425","0.0-6.0-0.82","","img/grey.png","32","trial","32","true","1,0","3:go_c","",""
"null","","html-keyboard-response","467","806428","0.0-6.0-1.82","","<img src=""img/grey-r.png"" border=""10"">","null","trial","32","","1,0","3:go_c","1",""
"null","","html-keyboard-response","468","807433","0.0-6.0-2.82","","<div style=""font-size:60px;"">+</div>","null","","","","","","",""
"null","","image-keyboard-response","469","808934","0.0-6.0-0.83","","img/purple.png","null","trial","32","false","0.8,0.2","1:go_a","",""
"null","","html-keyboard-response","470","809936","0.0-6.0-1.83","","<img src=""img/purple-n.png"">","null","trial","32","","0.8,0.2","1:go_a","0",""
"null","","html-keyboard-response","471","810937","0.0-6.0-2.83","","<div style=""font-size:60px;"">+</div>","null","","","","","","",""
"646.6999998092651","","image-keyboard-response","472","811586","0.0-6.0-0.84","","img/grey.png","32","trial","32","true","1,0","3:go_c","",""
"null","","html-keyboard-response","473","812589","0.0-6.0-1.84","","<img src=""img/grey-r.png"" border=""10"">","null","trial","32","","1,0","3:go_c","1",""
"null","","html-keyboard-response","474","813592","0.0-6.0-2.84","","<div style=""font-size:60px;"">+</div>","null","","","","","","",""
"964.9000000953674","","image-keyboard-response","475","814558","0.0-6.0-0.85","","img/green.png","32","trial","null","false","0.2,0.8","2:nogo_b","",""
"null","","html-keyboard-response","476","815560","0.0-6.0-1.85","","<img src=""img/green-n.png"" border=""10"">","null","trial","null","","0.2,0.8","2:nogo_b","0",""
"null","","html-keyboard-response","477","816576","0.0-6.0-2.85","","<div style=""font-size:60px;"">+</div>","null","","","","","","",""
"938.9000000953674","","image-keyboard-response","478","817516","0.0-6.0-0.86","","img/blue.png","32","trial","null","false","0,1","4:nogo_d","",""
"null","","html-keyboard-response","479","818518","0.0-6.0-1.86","","<img src=""img/blue-n.png"" border=""10"">","null","trial","null","","0,1","4:nogo_d","0",""
"null","","html-keyboard-response","480","819521","0.0-6.0-2.86","","<div style=""font-size:60px;"">+</div>","null","","","","","","",""
"1245.5","","image-keyboard-response","481","820767","0.0-6.0-0.87","","img/purple.png","32","trial","32","true","0.8,0.2","1:go_a","",""
"null","","html-keyboard-response","482","821769","0.0-6.0-1.87","","<img src=""img/purple-r.png"" border=""10"">","null","trial","32","","0.8,0.2","1:go_a","1",""
"null","","html-keyboard-response","483","822770","0.0-6.0-2.87","","<div style=""font-size:60px;"">+</div>","null","","","","","","",""
"968.5999999046326","","image-keyboard-response","484","823740","0.0-6.0-0.88","","img/green.png","32","trial","null","false","0.2,0.8","2:nogo_b","",""
"null","","html-keyboard-response","485","824742","0.0-6.0-1.88","","<img src=""img/green-n.png"" border=""10"">","null","trial","null","","0.2,0.8","2:nogo_b","0",""
"null","","html-keyboard-response","486","825743","0.0-6.0-2.88","","<div style=""font-size:60px;"">+</div>","null","","","","","","",""
"991","","image-keyboard-response","487","826736","0.0-6.0-0.89","","img/purple.png","32","trial","32","true","0.8,0.2","1:go_a","",""
"null","","html-keyboard-response","488","827752","0.0-6.0-1.89","","<img src=""img/purple-r.png"" border=""10"">","null","trial","32","","0.8,0.2","1:go_a","1",""
"null","","html-keyboard-response","489","828754","0.0-6.0-2.89","","<div style=""font-size:60px;"">+</div>","null","","","","","","",""
"647.9000000953674","","image-keyboard-response","490","829403","0.0-6.0-0.90","","img/grey.png","32","trial","32","true","1,0","3:go_c","",""
"null","","html-keyboard-response","491","830405","0.0-6.0-1.90","","<img src=""img/grey-r.png"" border=""10"">","null","trial","32","","1,0","3:go_c","1",""
"null","","html-keyboard-response","492","831407","0.0-6.0-2.90","","<div style=""font-size:60px;"">+</div>","null","","","","","","",""
"1028.2000002861023","","image-keyboard-response","493","832436","0.0-6.0-0.91","","img/blue.png","32","trial","null","false","0,1","4:nogo_d","",""
"null","","html-keyboard-response","494","833438","0.0-6.0-1.91","","<img src=""img/blue-n.png"" border=""10"">","null","trial","null","","0,1","4:nogo_d","0",""
"null","","html-keyboard-response","495","834440","0.0-6.0-2.91","","<div style=""font-size:60px;"">+</div>","null","","","","","","",""
"429.69999980926514","","image-keyboard-response","496","834870","0.0-6.0-0.92","","img/purple.png","32","trial","32","true","0.8,0.2","1:go_a","",""
"null","","html-keyboard-response","497","835872","0.0-6.0-1.92","","<img src=""img/purple-n.png"" border=""10"">","null","trial","32","","0.8,0.2","1:go_a","0",""
"null","","html-keyboard-response","498","836874","0.0-6.0-2.92","","<div style=""font-size:60px;"">+</div>","null","","","","","","",""
"590.0999999046326","","image-keyboard-response","499","837465","0.0-6.0-0.93","","img/grey.png","32","trial","32","true","1,0","3:go_c","",""
"null","","html-keyboard-response","500","838468","0.0-6.0-1.93","","<img src=""img/grey-r.png"" border=""10"">","null","trial","32","","1,0","3:go_c","1",""
"null","","html-keyboard-response","501","839469","0.0-6.0-2.93","","<div style=""font-size:60px;"">+</div>","null","","","","","","",""
"null","","image-keyboard-response","502","840971","0.0-6.0-0.94","","img/blue.png","null","trial","null","true","0,1","4:nogo_d","",""
"null","","html-keyboard-response","503","841974","0.0-6.0-1.94","","<img src=""img/blue-r.png"">","null","trial","null","","0,1","4:nogo_d","1",""
"null","","html-keyboard-response","504","842975","0.0-6.0-2.94","","<div style=""font-size:60px;"">+</div>","null","","","","","","",""
"1024.0999999046326","","image-keyboard-response","505","844000","0.0-6.0-0.95","","img/green.png","32","trial","null","false","0.2,0.8","2:nogo_b","",""
"null","","html-keyboard-response","506","845002","0.0-6.0-1.95","","<img src=""img/green-n.png"" border=""10"">","null","trial","null","","0.2,0.8","2:nogo_b","0",""
"null","","html-keyboard-response","507","846003","0.0-6.0-2.95","","<div style=""font-size:60px;"">+</div>","null","","","","","","",""
"534.7999997138977","","image-keyboard-response","508","846539","0.0-6.0-0.96","","img/grey.png","32","trial","32","true","1,0","3:go_c","",""
"null","","html-keyboard-response","509","847541","0.0-6.0-1.96","","<img src=""img/grey-r.png"" border=""10"">","null","trial","32","","1,0","3:go_c","1",""
"null","","html-keyboard-response","510","848542","0.0-6.0-2.96","","<div style=""font-size:60px;"">+</div>","null","","","","","","",""
"1185.8000001907349","","image-keyboard-response","511","849728","0.0-6.0-0.97","","img/blue.png","32","trial","null","false","0,1","4:nogo_d","",""
"null","","html-keyboard-response","512","850731","0.0-6.0-1.97","","<img src=""img/blue-n.png"" border=""10"">","null","trial","null","","0,1","4:nogo_d","0",""
"null","","html-keyboard-response","513","851752","0.0-6.0-2.97","","<div style=""font-size:60px;"">+</div>","null","","","","","","",""
"816.1000003814697","","image-keyboard-response","514","852569","0.0-6.0-0.98","","img/purple.png","32","trial","32","true","0.8,0.2","1:go_a","",""
"null","","html-keyboard-response","515","853598","0.0-6.0-1.98","","<img src=""img/purple-r.png"" border=""10"">","null","trial","32","","0.8,0.2","1:go_a","1",""
"null","","html-keyboard-response","516","854599","0.0-6.0-2.98","","<div style=""font-size:60px;"">+</div>","null","","","","","","",""
"null","","image-keyboard-response","517","856101","0.0-6.0-0.99","","img/green.png","null","trial","null","true","0.2,0.8","2:nogo_b","",""
"null","","html-keyboard-response","518","857103","0.0-6.0-1.99","","<img src=""img/green-r.png"">","null","trial","null","","0.2,0.8","2:nogo_b","1",""
"null","","html-keyboard-response","519","858104","0.0-6.0-2.99","","<div style=""font-size:60px;"">+</div>","null","","","","","","",""
"null","","image-keyboard-response","520","859606","0.0-6.0-0.100","","img/blue.png","null","trial","null","true","0,1","4:nogo_d","",""
"null","","html-keyboard-response","521","860610","0.0-6.0-1.100","","<img src=""img/blue-r.png"">","null","trial","null","","0,1","4:nogo_d","1",""
"null","","html-keyboard-response","522","861615","0.0-6.0-2.100","","<div style=""font-size:60px;"">+</div>","null","","","","","","",""
"658.0999999046326","","image-keyboard-response","523","862275","0.0-6.0-0.101","","img/grey.png","32","trial","32","true","1,0","3:go_c","",""
"null","","html-keyboard-response","524","863277","0.0-6.0-1.101","","<img src=""img/grey-r.png"" border=""10"">","null","trial","32","","1,0","3:go_c","1",""
"null","","html-keyboard-response","525","864278","0.0-6.0-2.101","","<div style=""font-size:60px;"">+</div>","null","","","","","","",""
"null","","image-keyboard-response","526","865780","0.0-6.0-0.102","","img/purple.png","null","trial","32","false","0.8,0.2","1:go_a","",""
"null","","html-keyboard-response","527","866782","0.0-6.0-1.102","","<img src=""img/purple-n.png"">","null","trial","32","","0.8,0.2","1:go_a","0",""
"null","","html-keyboard-response","528","867784","0.0-6.0-2.102","","<div style=""font-size:60px;"">+</div>","null","","","","","","",""
"1351.0999999046326","","image-keyboard-response","529","869136","0.0-6.0-0.103","","img/green.png","32","trial","null","false","0.2,0.8","2:nogo_b","",""
"null","","html-keyboard-response","530","870138","0.0-6.0-1.103","","<img src=""img/green-n.png"" border=""10"">","null","trial","null","","0.2,0.8","2:nogo_b","0",""
"null","","html-keyboard-response","531","871139","0.0-6.0-2.103","","<div style=""font-size:60px;"">+</div>","null","","","","","","",""
"914.5","","image-keyboard-response","532","872055","0.0-6.0-0.104","","img/green.png","32","trial","null","false","0.2,0.8","2:nogo_b","",""
"null","","html-keyboard-response","533","873057","0.0-6.0-1.104","","<img src=""img/green-n.png"" border=""10"">","null","trial","null","","0.2,0.8","2:nogo_b","0",""
"null","","html-keyboard-response","534","874059","0.0-6.0-2.104","","<div style=""font-size:60px;"">+</div>","null","","","","","","",""
"466.19999980926514","","image-keyboard-response","535","874526","0.0-6.0-0.105","","img/grey.png","32","trial","32","true","1,0","3:go_c","",""
"null","","html-keyboard-response","536","875528","0.0-6.0-1.105","","<img src=""img/grey-r.png"" border=""10"">","null","trial","32","","1,0","3:go_c","1",""
"null","","html-keyboard-response","537","876530","0.0-6.0-2.105","","<div style=""font-size:60px;"">+</div>","null","","","","","","",""
"null","","image-keyboard-response","538","878033","0.0-6.0-0.106","","img/purple.png","null","trial","32","false","0.8,0.2","1:go_a","",""
"null","","html-keyboard-response","539","879036","0.0-6.0-1.106","","<img src=""img/purple-n.png"">","null","trial","32","","0.8,0.2","1:go_a","0",""
"null","","html-keyboard-response","540","880057","0.0-6.0-2.106","","<div style=""font-size:60px;"">+</div>","null","","","","","","",""
"1089","","image-keyboard-response","541","881150","0.0-6.0-0.107","","img/blue.png","32","trial","null","false","0,1","4:nogo_d","",""
"null","","html-keyboard-response","542","882152","0.0-6.0-1.107","","<img src=""img/blue-n.png"" border=""10"">","null","trial","null","","0,1","4:nogo_d","0",""
"null","","html-keyboard-response","543","883153","0.0-6.0-2.107","","<div style=""font-size:60px;"">+</div>","null","","","","","","",""
"1149.8000001907349","","image-keyboard-response","544","884303","0.0-6.0-0.108","","img/blue.png","32","trial","null","false","0,1","4:nogo_d","",""
"null","","html-keyboard-response","545","885306","0.0-6.0-1.108","","<img src=""img/blue-n.png"" border=""10"">","null","trial","null","","0,1","4:nogo_d","0",""
"null","","html-keyboard-response","546","886307","0.0-6.0-2.108","","<div style=""font-size:60px;"">+</div>","null","","","","","","",""
"null","","image-keyboard-response","547","887809","0.0-6.0-0.109","","img/purple.png","null","trial","32","false","0.8,0.2","1:go_a","",""
"null","","html-keyboard-response","548","888811","0.0-6.0-1.109","","<img src=""img/purple-n.png"">","null","trial","32","","0.8,0.2","1:go_a","0",""
"null","","html-keyboard-response","549","889812","0.0-6.0-2.109","","<div style=""font-size:60px;"">+</div>","null","","","","","","",""
"982.5999999046326","","image-keyboard-response","550","890797","0.0-6.0-0.110","","img/green.png","32","trial","null","false","0.2,0.8","2:nogo_b","",""
"null","","html-keyboard-response","551","891799","0.0-6.0-1.110","","<img src=""img/green-n.png"" border=""10"">","null","trial","null","","0.2,0.8","2:nogo_b","0",""
"null","","html-keyboard-response","552","892800","0.0-6.0-2.110","","<div style=""font-size:60px;"">+</div>","null","","","","","","",""
"413.2999997138977","","image-keyboard-response","553","893214","0.0-6.0-0.111","","img/grey.png","32","trial","32","true","1,0","3:go_c","",""
"null","","html-keyboard-response","554","894237","0.0-6.0-1.111","","<img src=""img/grey-r.png"" border=""10"">","null","trial","32","","1,0","3:go_c","1",""
"null","","html-keyboard-response","555","895239","0.0-6.0-2.111","","<div style=""font-size:60px;"">+</div>","null","","","","","","",""
"null","","image-keyboard-response","556","896740","0.0-6.0-0.112","","img/blue.png","null","trial","null","true","0,1","4:nogo_d","",""
"null","","html-keyboard-response","557","897742","0.0-6.0-1.112","","<img src=""img/blue-r.png"">","null","trial","null","","0,1","4:nogo_d","1",""
"null","","html-keyboard-response","558","898743","0.0-6.0-2.112","","<div style=""font-size:60px;"">+</div>","null","","","","","","",""
"612.6999998092651","","image-keyboard-response","559","899357","0.0-6.0-0.113","","img/grey.png","32","trial","32","true","1,0","3:go_c","",""
"null","","html-keyboard-response","560","900361","0.0-6.0-1.113","","<img src=""img/grey-r.png"" border=""10"">","null","trial","32","","1,0","3:go_c","1",""
"null","","html-keyboard-response","561","901363","0.0-6.0-2.113","","<div style=""font-size:60px;"">+</div>","null","","","","","","",""
"null","","image-keyboard-response","562","902865","0.0-6.0-0.114","","img/purple.png","null","trial","32","false","0.8,0.2","1:go_a","",""
"null","","html-keyboard-response","563","903867","0.0-6.0-1.114","","<img src=""img/purple-r.png"">","null","trial","32","","0.8,0.2","1:go_a","1",""
"null","","html-keyboard-response","564","904869","0.0-6.0-2.114","","<div style=""font-size:60px;"">+</div>","null","","","","","","",""
"null","","image-keyboard-response","565","906370","0.0-6.0-0.115","","img/green.png","null","trial","null","true","0.2,0.8","2:nogo_b","",""
"null","","html-keyboard-response","566","907372","0.0-6.0-1.115","","<img src=""img/green-r.png"">","null","trial","null","","0.2,0.8","2:nogo_b","1",""
"null","","html-keyboard-response","567","908376","0.0-6.0-2.115","","<div style=""font-size:60px;"">+</div>","null","","","","","","",""
"null","","image-keyboard-response","568","909877","0.0-6.0-0.116","","img/green.png","null","trial","null","true","0.2,0.8","2:nogo_b","",""
"null","","html-keyboard-response","569","910882","0.0-6.0-1.116","","<img src=""img/green-r.png"">","null","trial","null","","0.2,0.8","2:nogo_b","1",""
"null","","html-keyboard-response","570","911884","0.0-6.0-2.116","","<div style=""font-size:60px;"">+</div>","null","","","","","","",""
"501.40000009536743","","image-keyboard-response","571","912387","0.0-6.0-0.117","","img/grey.png","32","trial","32","true","1,0","3:go_c","",""
"null","","html-keyboard-response","572","913389","0.0-6.0-1.117","","<img src=""img/grey-r.png"" border=""10"">","null","trial","32","","1,0","3:go_c","1",""
"null","","html-keyboard-response","573","914399","0.0-6.0-2.117","","<div style=""font-size:60px;"">+</div>","null","","","","","","",""
"null","","image-keyboard-response","574","915901","0.0-6.0-0.118","","img/blue.png","null","trial","null","true","0,1","4:nogo_d","",""
"null","","html-keyboard-response","575","916903","0.0-6.0-1.118","","<img src=""img/blue-r.png"">","null","trial","null","","0,1","4:nogo_d","1",""
"null","","html-keyboard-response","576","917904","0.0-6.0-2.118","","<div style=""font-size:60px;"">+</div>","null","","","","","","",""
"null","","image-keyboard-response","577","919407","0.0-6.0-0.119","","img/purple.png","null","trial","32","false","0.8,0.2","1:go_a","",""
"null","","html-keyboard-response","578","920412","0.0-6.0-1.119","","<img src=""img/purple-n.png"">","null","trial","32","","0.8,0.2","1:go_a","0",""
"null","","html-keyboard-response","579","921413","0.0-6.0-2.119","","<div style=""font-size:60px;"">+</div>","null","","","","","","",""
"16429.900000095367","","instructions","580","937844","0.0-7.0","[{""page_index"":0,""viewing_time"":16429.300000190735}]","","","","","","","","",""
"null","","image-keyboard-response","581","939348","0.0-8.0-0.0","","img/orange.png","null","trial","32","false","0.6,0.4","3:go_c","",""
"null","","html-keyboard-response","582","940351","0.0-8.0-1.0","","<img src=""img/orange-n.png"">","null","trial","32","","0.6,0.4","3:go_c","0",""
"null","","html-keyboard-response","583","941352","0.0-8.0-2.0","","<div style=""font-size:60px;"">+</div>","null","","","","","","",""
"717.2000002861023","","image-keyboard-response","584","942070","0.0-8.0-0.1","","img/green.png","32","trial","32","true","0.6,0.4","1:go_a","",""
"null","","html-keyboard-response","585","943073","0.0-8.0-1.1","","<img src=""img/green-r.png"" border=""10"">","null","trial","32","","0.6,0.4","1:go_a","1",""
"null","","html-keyboard-response","586","944074","0.0-8.0-2.1","","<div style=""font-size:60px;"">+</div>","null","","","","","","",""
"null","","image-keyboard-response","587","945602","0.0-8.0-0.2","","img/pink.png","null","trial","null","true","0.4,0.6","2:nogo_b","",""
"null","","html-keyboard-response","588","946605","0.0-8.0-1.2","","<img src=""img/pink-n.png"">","null","trial","null","","0.4,0.6","2:nogo_b","0",""
"null","","html-keyboard-response","589","947611","0.0-8.0-2.2","","<div style=""font-size:60px;"">+</div>","null","","","","","","",""
"1283.9000000953674","","image-keyboard-response","590","948896","0.0-8.0-0.3","","img/red.png","32","trial","null","false","0.4,0.6","4:nogo_d","",""
"null","","html-keyboard-response","591","949898","0.0-8.0-1.3","","<img src=""img/red-n.png"" border=""10"">","null","trial","null","","0.4,0.6","4:nogo_d","0",""
"null","","html-keyboard-response","592","950900","0.0-8.0-2.3","","<div style=""font-size:60px;"">+</div>","null","","","","","","",""
"1054.2000002861023","","image-keyboard-response","593","951956","0.0-8.0-0.4","","img/red.png","32","trial","null","false","0.4,0.6","4:nogo_d","",""
"null","","html-keyboard-response","594","952957","0.0-8.0-1.4","","<img src=""img/red-n.png"" border=""10"">","null","trial","null","","0.4,0.6","4:nogo_d","0",""
"null","","html-keyboard-response","595","953959","0.0-8.0-2.4","","<div style=""font-size:60px;"">+</div>","null","","","","","","",""
"1456.7999997138977","","image-keyboard-response","596","955417","0.0-8.0-0.5","","img/green.png","32","trial","32","true","0.6,0.4","1:go_a","",""
"null","","html-keyboard-response","597","956418","0.0-8.0-1.5","","<img src=""img/green-r.png"" border=""10"">","null","trial","32","","0.6,0.4","1:go_a","1",""
"null","","html-keyboard-response","598","957420","0.0-8.0-2.5","","<div style=""font-size:60px;"">+</div>","null","","","","","","",""
"null","","image-keyboard-response","599","958922","0.0-8.0-0.6","","img/orange.png","null","trial","32","false","0.6,0.4","3:go_c","",""
"null","","html-keyboard-response","600","959924","0.0-8.0-1.6","","<img src=""img/orange-n.png"">","null","trial","32","","0.6,0.4","3:go_c","0",""
"null","","html-keyboard-response","601","960926","0.0-8.0-2.6","","<div style=""font-size:60px;"">+</div>","null","","","","","","",""
"null","","image-keyboard-response","602","962427","0.0-8.0-0.7","","img/pink.png","null","trial","null","true","0.4,0.6","2:nogo_b","",""
"null","","html-keyboard-response","603","963429","0.0-8.0-1.7","","<img src=""img/pink-r.png"">","null","trial","null","","0.4,0.6","2:nogo_b","1",""
"null","","html-keyboard-response","604","964431","0.0-8.0-2.7","","<div style=""font-size:60px;"">+</div>","null","","","","","","",""
"null","","image-keyboard-response","605","965933","0.0-8.0-0.8","","img/red.png","null","trial","null","true","0.4,0.6","4:nogo_d","",""
"null","","html-keyboard-response","606","966935","0.0-8.0-1.8","","<img src=""img/red-n.png"">","null","trial","null","","0.4,0.6","4:nogo_d","0",""
"null","","html-keyboard-response","607","967937","0.0-8.0-2.8","","<div style=""font-size:60px;"">+</div>","null","","","","","","",""
"1224.6999998092651","","image-keyboard-response","608","969162","0.0-8.0-0.9","","img/pink.png","32","trial","null","false","0.4,0.6","2:nogo_b","",""
"null","","html-keyboard-response","609","970164","0.0-8.0-1.9","","<img src=""img/pink-r.png"" border=""10"">","null","trial","null","","0.4,0.6","2:nogo_b","1",""
"null","","html-keyboard-response","610","971165","0.0-8.0-2.9","","<div style=""font-size:60px;"">+</div>","null","","","","","","",""
"1066.5999999046326","","image-keyboard-response","611","972235","0.0-8.0-0.10","","img/green.png","32","trial","32","true","0.6,0.4","1:go_a","",""
"null","","html-keyboard-response","612","973238","0.0-8.0-1.10","","<img src=""img/green-r.png"" border=""10"">","null","trial","32","","0.6,0.4","1:go_a","1",""
"null","","html-keyboard-response","613","974239","0.0-8.0-2.10","","<div style=""font-size:60px;"">+</div>","null","","","","","","",""
"null","","image-keyboard-response","614","975742","0.0-8.0-0.11","","img/orange.png","null","trial","32","false","0.6,0.4","3:go_c","",""
"null","","html-keyboard-response","615","976744","0.0-8.0-1.11","","<img src=""img/orange-r.png"">","null","trial","32","","0.6,0.4","3:go_c","1",""
"null","","html-keyboard-response","616","977745","0.0-8.0-2.11","","<div style=""font-size:60px;"">+</div>","null","","","","","","",""
"1393.2999997138977","","image-keyboard-response","617","979143","0.0-8.0-0.12","","img/orange.png","32","trial","32","true","0.6,0.4","3:go_c","",""
"null","","html-keyboard-response","618","980145","0.0-8.0-1.12","","<img src=""img/orange-r.png"" border=""10"">","null","trial","32","","0.6,0.4","3:go_c","1",""
"null","","html-keyboard-response","619","981146","0.0-8.0-2.12","","<div style=""font-size:60px;"">+</div>","null","","","","","","",""
"1108.6999998092651","","image-keyboard-response","620","982256","0.0-8.0-0.13","","img/pink.png","32","trial","null","false","0.4,0.6","2:nogo_b","",""
"null","","html-keyboard-response","621","983258","0.0-8.0-1.13","","<img src=""img/pink-r.png"" border=""10"">","null","trial","null","","0.4,0.6","2:nogo_b","1",""
"null","","html-keyboard-response","622","984266","0.0-8.0-2.13","","<div style=""font-size:60px;"">+</div>","null","","","","","","",""
"944.2999997138977","","image-keyboard-response","623","985212","0.0-8.0-0.14","","img/green.png","32","trial","32","true","0.6,0.4","1:go_a","",""
"null","","html-keyboard-response","624","986214","0.0-8.0-1.14","","<img src=""img/green-n.png"" border=""10"">","null","trial","32","","0.6,0.4","1:go_a","0",""
"null","","html-keyboard-response","625","987215","0.0-8.0-2.14","","<div style=""font-size:60px;"">+</div>","null","","","","","","",""
"null","","image-keyboard-response","626","988716","0.0-8.0-0.15","","img/red.png","null","trial","null","true","0.4,0.6","4:nogo_d","",""
"null","","html-keyboard-response","627","989718","0.0-8.0-1.15","","<img src=""img/red-r.png"">","null","trial","null","","0.4,0.6","4:nogo_d","1",""
"null","","html-keyboard-response","628","990719","0.0-8.0-2.15","","<div style=""font-size:60px;"">+</div>","null","","","","","","",""
"859.5999999046326","","image-keyboard-response","629","991580","0.0-8.0-0.16","","img/red.png","32","trial","null","false","0.4,0.6","4:nogo_d","",""
"null","","html-keyboard-response","630","992583","0.0-8.0-1.16","","<img src=""img/red-n.png"" border=""10"">","null","trial","null","","0.4,0.6","4:nogo_d","0",""
"null","","html-keyboard-response","631","993585","0.0-8.0-2.16","","<div style=""font-size:60px;"">+</div>","null","","","","","","",""
"1184.8000001907349","","image-keyboard-response","632","994772","0.0-8.0-0.17","","img/orange.png","32","trial","32","true","0.6,0.4","3:go_c","",""
"null","","html-keyboard-response","633","995773","0.0-8.0-1.17","","<img src=""img/orange-n.png"" border=""10"">","null","trial","32","","0.6,0.4","3:go_c","0",""
"null","","html-keyboard-response","634","996774","0.0-8.0-2.17","","<div style=""font-size:60px;"">+</div>","null","","","","","","",""
"1120","","image-keyboard-response","635","997896","0.0-8.0-0.18","","img/green.png","32","trial","32","true","0.6,0.4","1:go_a","",""
"null","","html-keyboard-response","636","998897","0.0-8.0-1.18","","<img src=""img/green-n.png"" border=""10"">","null","trial","32","","0.6,0.4","1:go_a","0",""
"null","","html-keyboard-response","637","999898","0.0-8.0-2.18","","<div style=""font-size:60px;"">+</div>","null","","","","","","",""
"425.7000002861023","","image-keyboard-response","638","1000326","0.0-8.0-0.19","","img/pink.png","32","trial","null","false","0.4,0.6","2:nogo_b","",""
"null","","html-keyboard-response","639","1001328","0.0-8.0-1.19","","<img src=""img/pink-n.png"" border=""10"">","null","trial","null","","0.4,0.6","2:nogo_b","0",""
"null","","html-keyboard-response","640","1002329","0.0-8.0-2.19","","<div style=""font-size:60px;"">+</div>","null","","","","","","",""
"null","","image-keyboard-response","641","1003831","0.0-8.0-0.20","","img/green.png","null","trial","32","false","0.6,0.4","1:go_a","",""
"null","","html-keyboard-response","642","1004833","0.0-8.0-1.20","","<img src=""img/green-n.png"">","null","trial","32","","0.6,0.4","1:go_a","0",""
"null","","html-keyboard-response","643","1005834","0.0-8.0-2.20","","<div style=""font-size:60px;"">+</div>","null","","","","","","",""
"null","","image-keyboard-response","644","1007336","0.0-8.0-0.21","","img/orange.png","null","trial","32","false","0.6,0.4","3:go_c","",""
"null","","html-keyboard-response","645","1008338","0.0-8.0-1.21","","<img src=""img/orange-n.png"">","null","trial","32","","0.6,0.4","3:go_c","0",""
"null","","html-keyboard-response","646","1009339","0.0-8.0-2.21","","<div style=""font-size:60px;"">+</div>","null","","","","","","",""
"null","","image-keyboard-response","647","1010841","0.0-8.0-0.22","","img/red.png","null","trial","null","true","0.4,0.6","4:nogo_d","",""
"null","","html-keyboard-response","648","1011843","0.0-8.0-1.22","","<img src=""img/red-r.png"">","null","trial","null","","0.4,0.6","4:nogo_d","1",""
"null","","html-keyboard-response","649","1012844","0.0-8.0-2.22","","<div style=""font-size:60px;"">+</div>","null","","","","","","",""
"774.1000003814697","","image-keyboard-response","650","1013619","0.0-8.0-0.23","","img/pink.png","32","trial","null","false","0.4,0.6","2:nogo_b","",""
"null","","html-keyboard-response","651","1014622","0.0-8.0-1.23","","<img src=""img/pink-n.png"" border=""10"">","null","trial","null","","0.4,0.6","2:nogo_b","0",""
"null","","html-keyboard-response","652","1015625","0.0-8.0-2.23","","<div style=""font-size:60px;"">+</div>","null","","","","","","",""
"1097.4000000953674","","image-keyboard-response","653","1016725","0.0-8.0-0.24","","img/red.png","32","trial","null","false","0.4,0.6","4:nogo_d","",""
"null","","html-keyboard-response","654","1017727","0.0-8.0-1.24","","<img src=""img/red-r.png"" border=""10"">","null","trial","null","","0.4,0.6","4:nogo_d","1",""
"null","","html-keyboard-response","655","1018732","0.0-8.0-2.24","","<div style=""font-size:60px;"">+</div>","null","","","","","","",""
"1163","","image-keyboard-response","656","1019896","0.0-8.0-0.25","","img/orange.png","32","trial","32","true","0.6,0.4","3:go_c","",""
"null","","html-keyboard-response","657","1020898","0.0-8.0-1.25","","<img src=""img/orange-n.png"" border=""10"">","null","trial","32","","0.6,0.4","3:go_c","0",""
"null","","html-keyboard-response","658","1021899","0.0-8.0-2.25","","<div style=""font-size:60px;"">+</div>","null","","","","","","",""
"null","","image-keyboard-response","659","1023401","0.0-8.0-0.26","","img/green.png","null","trial","32","false","0.6,0.4","1:go_a","",""
"null","","html-keyboard-response","660","1024403","0.0-8.0-1.26","","<img src=""img/green-n.png"">","null","trial","32","","0.6,0.4","1:go_a","0",""
"null","","html-keyboard-response","661","1025404","0.0-8.0-2.26","","<div style=""font-size:60px;"">+</div>","null","","","","","","",""
"931.1999998092651","","image-keyboard-response","662","1026337","0.0-8.0-0.27","","img/pink.png","32","trial","null","false","0.4,0.6","2:nogo_b","",""
"null","","html-keyboard-response","663","1027345","0.0-8.0-1.27","","<img src=""img/pink-n.png"" border=""10"">","null","trial","null","","0.4,0.6","2:nogo_b","0",""
"null","","html-keyboard-response","664","1028346","0.0-8.0-2.27","","<div style=""font-size:60px;"">+</div>","null","","","","","","",""
"1448.3999996185303","","image-keyboard-response","665","1029796","0.0-8.0-0.28","","img/orange.png","32","trial","32","true","0.6,0.4","3:go_c","",""
"null","","html-keyboard-response","666","1030799","0.0-8.0-1.28","","<img src=""img/orange-n.png"" border=""10"">","null","trial","32","","0.6,0.4","3:go_c","0",""
"null","","html-keyboard-response","667","1031801","0.0-8.0-2.28","","<div style=""font-size:60px;"">+</div>","null","","","","","","",""
"null","","image-keyboard-response","668","1033309","0.0-8.0-0.29","","img/green.png","null","trial","32","false","0.6,0.4","1:go_a","",""
"null","","html-keyboard-response","669","1034311","0.0-8.0-1.29","","<img src=""img/green-n.png"">","null","trial","32","","0.6,0.4","1:go_a","0",""
"null","","html-keyboard-response","670","1035312","0.0-8.0-2.29","","<div style=""font-size:60px;"">+</div>","null","","","","","","",""
"663.6999998092651","","image-keyboard-response","671","1035977","0.0-8.0-0.30","","img/red.png","32","trial","null","false","0.4,0.6","4:nogo_d","",""
"null","","html-keyboard-response","672","1036987","0.0-8.0-1.30","","<img src=""img/red-r.png"" border=""10"">","null","trial","null","","0.4,0.6","4:nogo_d","1",""
"null","","html-keyboard-response","673","1037991","0.0-8.0-2.30","","<div style=""font-size:60px;"">+</div>","null","","","","","","",""
"null","","image-keyboard-response","674","1039524","0.0-8.0-0.31","","img/pink.png","null","trial","null","true","0.4,0.6","2:nogo_b","",""
"null","","html-keyboard-response","675","1040527","0.0-8.0-1.31","","<img src=""img/pink-r.png"">","null","trial","null","","0.4,0.6","2:nogo_b","1",""
"null","","html-keyboard-response","676","1041528","0.0-8.0-2.31","","<div style=""font-size:60px;"">+</div>","null","","","","","","",""
"682.9000000953674","","image-keyboard-response","677","1042212","0.0-8.0-0.32","","img/red.png","32","trial","null","false","0.4,0.6","4:nogo_d","",""
"null","","html-keyboard-response","678","1043214","0.0-8.0-1.32","","<img src=""img/red-r.png"" border=""10"">","null","trial","null","","0.4,0.6","4:nogo_d","1",""
"null","","html-keyboard-response","679","1044216","0.0-8.0-2.32","","<div style=""font-size:60px;"">+</div>","null","","","","","","",""
"1062","","image-keyboard-response","680","1045278","0.0-8.0-0.33","","img/pink.png","32","trial","null","false","0.4,0.6","2:nogo_b","",""
"null","","html-keyboard-response","681","1046280","0.0-8.0-1.33","","<img src=""img/pink-n.png"" border=""10"">","null","trial","null","","0.4,0.6","2:nogo_b","0",""
"null","","html-keyboard-response","682","1047281","0.0-8.0-2.33","","<div style=""font-size:60px;"">+</div>","null","","","","","","",""
