"rt","url","trial_type","trial_index","time_elapsed","internal_node_id","view_history","stimulus","key_press","test_part","correct_response","correct","use_rew","which_stim","reward","responses"
"72377.81500001438","consent.html","external-html","0","72557","0.0-0.0","","","","","","","","","",""
"267185.57000003057","","instructions","1","339739","0.0-1.0","[{""page_index"":0,""viewing_time"":3247.625000018161},{""page_index"":1,""viewing_time"":13459.589999984019},{""page_index"":2,""viewing_time"":3175.7050000014715},{""page_index"":3,""viewing_time"":25299.39000000013},{""page_index"":4,""viewing_time"":203432.5850000023},{""page_index"":5,""viewing_time"":13571.595000044908},{""page_index"":6,""viewing_time"":4996.864999993704}]","","","","","","","","",""
"null","","image-keyboard-response","2","341246","0.0-2.0-0.0","","img/test3.PNG","null","practice","null","true","","","",""
"null","","html-keyboard-response","3","342256","0.0-2.0-1.0","","<img src=""img/test3-reward.PNG"">","null","","","","","","",""
"null","","html-keyboard-response","4","343260","0.0-2.0-2.0","","<div style=""font-size:60px;"">+</div>","null","","","","","","",""
"null","","image-keyboard-response","5","344763","0.0-2.0-0.1","","img/test2.PNG","null","practice","null","true","","","",""
"null","","html-keyboard-response","6","345768","0.0-2.0-1.1","","<img src=""img/test2-reward.PNG"">","null","","","","","","",""
"null","","html-keyboard-response","7","346772","0.0-2.0-2.1","","<div style=""font-size:60px;"">+</div>","null","","","","","","",""
"424.8950000037439","","image-keyboard-response","8","347199","0.0-2.0-0.2","","img/test1.PNG","32","practice","32","true","","","",""
"null","","html-keyboard-response","9","348205","0.0-2.0-1.2","","<img src=""img/test1-reward.PNG"" border=""10px; grey"">","null","","","","","","",""
"null","","html-keyboard-response","10","349210","0.0-2.0-2.2","","<div style=""font-size:60px;"">+</div>","null","","","","","","",""
"null","","image-keyboard-response","11","350713","0.0-2.0-0.3","","img/test2.PNG","null","practice","null","true","","","",""
"null","","html-keyboard-response","12","351718","0.0-2.0-1.3","","<img src=""img/test2-reward.PNG"">","null","","","","","","",""
"null","","html-keyboard-response","13","352722","0.0-2.0-2.3","","<div style=""font-size:60px;"">+</div>","null","","","","","","",""
"null","","image-keyboard-response","14","354225","0.0-2.0-0.4","","img/test3.PNG","null","practice","null","true","","","",""
"null","","html-keyboard-response","15","355230","0.0-2.0-1.4","","<img src=""img/test3-reward.PNG"">","null","","","","","","",""
"null","","html-keyboard-response","16","356234","0.0-2.0-2.4","","<div style=""font-size:60px;"">+</div>","null","","","","","","",""
"371.7649999889545","","image-keyboard-response","17","356608","0.0-2.0-0.5","","img/test1.PNG","32","practice","32","true","","","",""
"null","","html-keyboard-response","18","357615","0.0-2.0-1.5","","<img src=""img/test1-reward.PNG"" border=""10px; grey"">","null","","","","","","",""
"null","","html-keyboard-response","19","358620","0.0-2.0-2.5","","<div style=""font-size:60px;"">+</div>","null","","","","","","",""
"null","","image-keyboard-response","20","360123","0.0-2.0-0.6","","img/test2.PNG","null","practice","null","true","","","",""
"null","","html-keyboard-response","21","361127","0.0-2.0-1.6","","<img src=""img/test2-reward.PNG"">","null","","","","","","",""
"null","","html-keyboard-response","22","362132","0.0-2.0-2.6","","<div style=""font-size:60px;"">+</div>","null","","","","","","",""
"527.7000000351109","","image-keyboard-response","23","362662","0.0-2.0-0.7","","img/test1.PNG","32","practice","32","true","","","",""
"null","","html-keyboard-response","24","363663","0.0-2.0-1.7","","<img src=""img/test1-reward.PNG"" border=""10px; grey"">","null","","","","","","",""
"null","","html-keyboard-response","25","364668","0.0-2.0-2.7","","<div style=""font-size:60px;"">+</div>","null","","","","","","",""
"null","","image-keyboard-response","26","366172","0.0-2.0-0.8","","img/test3.PNG","null","practice","null","true","","","",""
"null","","html-keyboard-response","27","367176","0.0-2.0-1.8","","<img src=""img/test3-reward.PNG"">","null","","","","","","",""
"null","","html-keyboard-response","28","368180","0.0-2.0-2.8","","<div style=""font-size:60px;"">+</div>","null","","","","","","",""
"null","","image-keyboard-response","29","369684","0.0-2.0-0.9","","img/test2.PNG","null","practice","null","true","","","",""
"null","","html-keyboard-response","30","370688","0.0-2.0-1.9","","<img src=""img/test2-reward.PNG"">","null","","","","","","",""
"null","","html-keyboard-response","31","371692","0.0-2.0-2.9","","<div style=""font-size:60px;"">+</div>","null","","","","","","",""
"null","","image-keyboard-response","32","373195","0.0-2.0-0.10","","img/test3.PNG","null","practice","null","true","","","",""
"null","","html-keyboard-response","33","374200","0.0-2.0-1.10","","<img src=""img/test3-reward.PNG"">","null","","","","","","",""
"null","","html-keyboard-response","34","375204","0.0-2.0-2.10","","<div style=""font-size:60px;"">+</div>","null","","","","","","",""
"392.06499996362254","","image-keyboard-response","35","375598","0.0-2.0-0.11","","img/test1.PNG","32","practice","32","true","","","",""
"null","","html-keyboard-response","36","376603","0.0-2.0-1.11","","<img src=""img/test1-reward.PNG"" border=""10px; grey"">","null","","","","","","",""
"null","","html-keyboard-response","37","377607","0.0-2.0-2.11","","<div style=""font-size:60px;"">+</div>","null","","","","","","",""
"86078.37499998277","","instructions","38","463685","0.0-3.0","[{""page_index"":0,""viewing_time"":86077.9699999839}]","","","","","","","","",""
"547.3050000146031","","image-keyboard-response","39","464238","0.0-4.0-0.0","","img/red.png","32","trial","32","true","0.8,0.2","1:go_a","",""
"null","","html-keyboard-response","40","465243","0.0-4.0-1.0","","<img src=""img/red-r.png"" border=""10"">","null","trial","32","","0.8,0.2","1:go_a","1",""
"null","","html-keyboard-response","41","466248","0.0-4.0-2.0","","<div style=""font-size:60px;"">+</div>","null","","","","","","",""
"348.31500001018867","","image-keyboard-response","42","466598","0.0-4.0-0.1","","img/green.png","32","trial","null","false","0.2,0.8","2:nogo_b","",""
"null","","html-keyboard-response","43","467603","0.0-4.0-1.1","","<img src=""img/green-n.png"" border=""10"">","null","trial","null","","0.2,0.8","2:nogo_b","0",""
"null","","html-keyboard-response","44","468609","0.0-4.0-2.1","","<div style=""font-size:60px;"">+</div>","null","","","","","","",""
"346.99500002898276","","image-keyboard-response","45","468958","0.0-4.0-0.2","","img/red.png","32","trial","32","true","0.8,0.2","1:go_a","",""
"null","","html-keyboard-response","46","469963","0.0-4.0-1.2","","<img src=""img/red-r.png"" border=""10"">","null","trial","32","","0.8,0.2","1:go_a","1",""
"null","","html-keyboard-response","47","470967","0.0-4.0-2.2","","<div style=""font-size:60px;"">+</div>","null","","","","","","",""
"null","","image-keyboard-response","48","472470","0.0-4.0-0.3","","img/green.png","null","trial","null","true","0.2,0.8","2:nogo_b","",""
"null","","html-keyboard-response","49","473474","0.0-4.0-1.3","","<img src=""img/green-r.png"">","null","trial","null","","0.2,0.8","2:nogo_b","1",""
"null","","html-keyboard-response","50","474479","0.0-4.0-2.3","","<div style=""font-size:60px;"">+</div>","null","","","","","","",""
"436.45000003743917","","image-keyboard-response","51","474917","0.0-4.0-0.4","","img/red.png","32","trial","32","true","0.8,0.2","1:go_a","",""
"null","","html-keyboard-response","52","475920","0.0-4.0-1.4","","<img src=""img/red-r.png"" border=""10"">","null","trial","32","","0.8,0.2","1:go_a","1",""
"null","","html-keyboard-response","53","476922","0.0-4.0-2.4","","<div style=""font-size:60px;"">+</div>","null","","","","","","",""
"369.5949999964796","","image-keyboard-response","54","477294","0.0-4.0-0.5","","img/green.png","32","trial","null","false","0.2,0.8","2:nogo_b","",""
"null","","html-keyboard-response","55","478298","0.0-4.0-1.5","","<img src=""img/green-n.png"" border=""10"">","null","trial","null","","0.2,0.8","2:nogo_b","0",""
"null","","html-keyboard-response","56","479303","0.0-4.0-2.5","","<div style=""font-size:60px;"">+</div>","null","","","","","","",""
"580.8149999938905","","image-keyboard-response","57","479885","0.0-4.0-0.6","","img/green.png","32","trial","null","false","0.2,0.8","2:nogo_b","",""
"null","","html-keyboard-response","58","480888","0.0-4.0-1.6","","<img src=""img/green-n.png"" border=""10"">","null","trial","null","","0.2,0.8","2:nogo_b","0",""
"null","","html-keyboard-response","59","481892","0.0-4.0-2.6","","<div style=""font-size:60px;"">+</div>","null","","","","","","",""
"383.9699999662116","","image-keyboard-response","60","482277","0.0-4.0-0.7","","img/red.png","32","trial","32","true","0.8,0.2","1:go_a","",""
"null","","html-keyboard-response","61","483280","0.0-4.0-1.7","","<img src=""img/red-n.png"" border=""10"">","null","trial","32","","0.8,0.2","1:go_a","0",""
"null","","html-keyboard-response","62","484283","0.0-4.0-2.7","","<div style=""font-size:60px;"">+</div>","null","","","","","","",""
"null","","image-keyboard-response","63","485787","0.0-4.0-0.8","","img/red.png","null","trial","32","false","0.8,0.2","1:go_a","",""
"null","","html-keyboard-response","64","486791","0.0-4.0-1.8","","<img src=""img/red-n.png"">","null","trial","32","","0.8,0.2","1:go_a","0",""
"null","","html-keyboard-response","65","487795","0.0-4.0-2.8","","<div style=""font-size:60px;"">+</div>","null","","","","","","",""
"436.53000000631437","","image-keyboard-response","66","488233","0.0-4.0-0.9","","img/green.png","32","trial","null","false","0.2,0.8","2:nogo_b","",""
"null","","html-keyboard-response","67","489235","0.0-4.0-1.9","","<img src=""img/green-r.png"" border=""10"">","null","trial","null","","0.2,0.8","2:nogo_b","1",""
"null","","html-keyboard-response","68","490239","0.0-4.0-2.9","","<div style=""font-size:60px;"">+</div>","null","","","","","","",""
"452.5150000117719","","image-keyboard-response","69","490693","0.0-4.0-0.10","","img/green.png","32","trial","null","false","0.2,0.8","2:nogo_b","",""
"null","","html-keyboard-response","70","491703","0.0-4.0-1.10","","<img src=""img/green-n.png"" border=""10"">","null","trial","null","","0.2,0.8","2:nogo_b","0",""
"null","","html-keyboard-response","71","492706","0.0-4.0-2.10","","<div style=""font-size:60px;"">+</div>","null","","","","","","",""
"441.23499997658655","","image-keyboard-response","72","493149","0.0-4.0-0.11","","img/red.png","32","trial","32","true","0.8,0.2","1:go_a","",""
"null","","html-keyboard-response","73","494157","0.0-4.0-1.11","","<img src=""img/red-r.png"" border=""10"">","null","trial","32","","0.8,0.2","1:go_a","1",""
"null","","html-keyboard-response","74","495162","0.0-4.0-2.11","","<div style=""font-size:60px;"">+</div>","null","","","","","","",""
"null","","image-keyboard-response","75","496664","0.0-4.0-0.12","","img/green.png","null","trial","null","true","0.2,0.8","2:nogo_b","",""
"null","","html-keyboard-response","76","497669","0.0-4.0-1.12","","<img src=""img/green-r.png"">","null","trial","null","","0.2,0.8","2:nogo_b","1",""
"null","","html-keyboard-response","77","498674","0.0-4.0-2.12","","<div style=""font-size:60px;"">+</div>","null","","","","","","",""
"376.68499996652827","","image-keyboard-response","78","499052","0.0-4.0-0.13","","img/red.png","32","trial","32","true","0.8,0.2","1:go_a","",""
"null","","html-keyboard-response","79","500057","0.0-4.0-1.13","","<img src=""img/red-r.png"" border=""10"">","null","trial","32","","0.8,0.2","1:go_a","1",""
"null","","html-keyboard-response","80","501059","0.0-4.0-2.13","","<div style=""font-size:60px;"">+</div>","null","","","","","","",""
"320.6699999864213","","image-keyboard-response","81","501381","0.0-4.0-0.14","","img/green.png","32","trial","null","false","0.2,0.8","2:nogo_b","",""
"null","","html-keyboard-response","82","502388","0.0-4.0-1.14","","<img src=""img/green-n.png"" border=""10"">","null","trial","null","","0.2,0.8","2:nogo_b","0",""
"null","","html-keyboard-response","83","503392","0.0-4.0-2.14","","<div style=""font-size:60px;"">+</div>","null","","","","","","",""
"443.5749999829568","","image-keyboard-response","84","503837","0.0-4.0-0.15","","img/red.png","32","trial","32","true","0.8,0.2","1:go_a","",""
"null","","html-keyboard-response","85","504844","0.0-4.0-1.15","","<img src=""img/red-n.png"" border=""10"">","null","trial","32","","0.8,0.2","1:go_a","0",""
"null","","html-keyboard-response","86","505848","0.0-4.0-2.15","","<div style=""font-size:60px;"">+</div>","null","","","","","","",""
"355.0449999747798","","image-keyboard-response","87","506205","0.0-4.0-0.16","","img/green.png","32","trial","null","false","0.2,0.8","2:nogo_b","",""
"null","","html-keyboard-response","88","507212","0.0-4.0-1.16","","<img src=""img/green-n.png"" border=""10"">","null","trial","null","","0.2,0.8","2:nogo_b","0",""
"null","","html-keyboard-response","89","508217","0.0-4.0-2.16","","<div style=""font-size:60px;"">+</div>","null","","","","","","",""
"339.35500000370666","","image-keyboard-response","90","508557","0.0-4.0-0.17","","img/red.png","32","trial","32","true","0.8,0.2","1:go_a","",""
"null","","html-keyboard-response","91","509563","0.0-4.0-1.17","","<img src=""img/red-r.png"" border=""10"">","null","trial","32","","0.8,0.2","1:go_a","1",""
"null","","html-keyboard-response","92","510568","0.0-4.0-2.17","","<div style=""font-size:60px;"">+</div>","null","","","","","","",""
"354.1500000283122","","image-keyboard-response","93","510923","0.0-4.0-0.18","","img/red.png","32","trial","32","true","0.8,0.2","1:go_a","",""
"null","","html-keyboard-response","94","511926","0.0-4.0-1.18","","<img src=""img/red-r.png"" border=""10"">","null","trial","32","","0.8,0.2","1:go_a","1",""
"null","","html-keyboard-response","95","512930","0.0-4.0-2.18","","<div style=""font-size:60px;"">+</div>","null","","","","","","",""
"336.5149999735877","","image-keyboard-response","96","513268","0.0-4.0-0.19","","img/green.png","32","trial","null","false","0.2,0.8","2:nogo_b","",""
"null","","html-keyboard-response","97","514271","0.0-4.0-1.19","","<img src=""img/green-r.png"" border=""10"">","null","trial","null","","0.2,0.8","2:nogo_b","1",""
"null","","html-keyboard-response","98","515275","0.0-4.0-2.19","","<div style=""font-size:60px;"">+</div>","null","","","","","","",""
"391.52000000467524","","image-keyboard-response","99","515669","0.0-4.0-0.20","","img/red.png","32","trial","32","true","0.8,0.2","1:go_a","",""
"null","","html-keyboard-response","100","516674","0.0-4.0-1.20","","<img src=""img/red-r.png"" border=""10"">","null","trial","32","","0.8,0.2","1:go_a","1",""
"null","","html-keyboard-response","101","517679","0.0-4.0-2.20","","<div style=""font-size:60px;"">+</div>","null","","","","","","",""
"363.1199999945238","","image-keyboard-response","102","518043","0.0-4.0-0.21","","img/green.png","32","trial","null","false","0.2,0.8","2:nogo_b","",""
"null","","html-keyboard-response","103","519049","0.0-4.0-1.21","","<img src=""img/green-n.png"" border=""10"">","null","trial","null","","0.2,0.8","2:nogo_b","0",""
"null","","html-keyboard-response","104","520053","0.0-4.0-2.21","","<div style=""font-size:60px;"">+</div>","null","","","","","","",""
"null","","image-keyboard-response","105","521556","0.0-4.0-0.22","","img/red.png","null","trial","32","false","0.8,0.2","1:go_a","",""
"null","","html-keyboard-response","106","522561","0.0-4.0-1.22","","<img src=""img/red-n.png"">","null","trial","32","","0.8,0.2","1:go_a","0",""
"null","","html-keyboard-response","107","523565","0.0-4.0-2.22","","<div style=""font-size:60px;"">+</div>","null","","","","","","",""
"429.42499998025596","","image-keyboard-response","108","523996","0.0-4.0-0.23","","img/green.png","32","trial","null","false","0.2,0.8","2:nogo_b","",""
"null","","html-keyboard-response","109","525001","0.0-4.0-1.23","","<img src=""img/green-n.png"" border=""10"">","null","trial","null","","0.2,0.8","2:nogo_b","0",""
"null","","html-keyboard-response","110","526003","0.0-4.0-2.23","","<div style=""font-size:60px;"">+</div>","null","","","","","","",""
"439.8700000019744","","image-keyboard-response","111","526444","0.0-4.0-0.24","","img/green.png","32","trial","null","false","0.2,0.8","2:nogo_b","",""
"null","","html-keyboard-response","112","527448","0.0-4.0-1.24","","<img src=""img/green-n.png"" border=""10"">","null","trial","null","","0.2,0.8","2:nogo_b","0",""
"null","","html-keyboard-response","113","528452","0.0-4.0-2.24","","<div style=""font-size:60px;"">+</div>","null","","","","","","",""
"415.3099999530241","","image-keyboard-response","114","528869","0.0-4.0-0.25","","img/red.png","32","trial","32","true","0.8,0.2","1:go_a","",""
"null","","html-keyboard-response","115","529875","0.0-4.0-1.25","","<img src=""img/red-r.png"" border=""10"">","null","trial","32","","0.8,0.2","1:go_a","1",""
"null","","html-keyboard-response","116","530879","0.0-4.0-2.25","","<div style=""font-size:60px;"">+</div>","null","","","","","","",""
"null","","image-keyboard-response","117","532382","0.0-4.0-0.26","","img/green.png","null","trial","null","true","0.2,0.8","2:nogo_b","",""
"null","","html-keyboard-response","118","533387","0.0-4.0-1.26","","<img src=""img/green-r.png"">","null","trial","null","","0.2,0.8","2:nogo_b","1",""
"null","","html-keyboard-response","119","534391","0.0-4.0-2.26","","<div style=""font-size:60px;"">+</div>","null","","","","","","",""
"370.7050000084564","","image-keyboard-response","120","534763","0.0-4.0-0.27","","img/red.png","32","trial","32","true","0.8,0.2","1:go_a","",""
"null","","html-keyboard-response","121","535766","0.0-4.0-1.27","","<img src=""img/red-r.png"" border=""10"">","null","trial","32","","0.8,0.2","1:go_a","1",""
"null","","html-keyboard-response","122","536771","0.0-4.0-2.27","","<div style=""font-size:60px;"">+</div>","null","","","","","","",""
"423.2550000306219","","image-keyboard-response","123","537196","0.0-4.0-0.28","","img/green.png","32","trial","null","false","0.2,0.8","2:nogo_b","",""
"null","","html-keyboard-response","124","538198","0.0-4.0-1.28","","<img src=""img/green-n.png"" border=""10"">","null","trial","null","","0.2,0.8","2:nogo_b","0",""
"null","","html-keyboard-response","125","539203","0.0-4.0-2.28","","<div style=""font-size:60px;"">+</div>","null","","","","","","",""
"416.09499999322","","image-keyboard-response","126","539621","0.0-4.0-0.29","","img/red.png","32","trial","32","true","0.8,0.2","1:go_a","",""
"null","","html-keyboard-response","127","540625","0.0-4.0-1.29","","<img src=""img/red-r.png"" border=""10"">","null","trial","32","","0.8,0.2","1:go_a","1",""
"null","","html-keyboard-response","128","541630","0.0-4.0-2.29","","<div style=""font-size:60px;"">+</div>","null","","","","","","",""
"452.9949999996461","","image-keyboard-response","129","542084","0.0-4.0-0.30","","img/red.png","32","trial","32","true","0.8,0.2","1:go_a","",""
"null","","html-keyboard-response","130","543088","0.0-4.0-1.30","","<img src=""img/red-r.png"" border=""10"">","null","trial","32","","0.8,0.2","1:go_a","1",""
"null","","html-keyboard-response","131","544091","0.0-4.0-2.30","","<div style=""font-size:60px;"">+</div>","null","","","","","","",""
"463.04000000236556","","image-keyboard-response","132","544555","0.0-4.0-0.31","","img/green.png","32","trial","null","false","0.2,0.8","2:nogo_b","",""
"null","","html-keyboard-response","133","545559","0.0-4.0-1.31","","<img src=""img/green-n.png"" border=""10"">","null","trial","null","","0.2,0.8","2:nogo_b","0",""
"null","","html-keyboard-response","134","546564","0.0-4.0-2.31","","<div style=""font-size:60px;"">+</div>","null","","","","","","",""
"null","","image-keyboard-response","135","548067","0.0-4.0-0.32","","img/green.png","null","trial","null","true","0.2,0.8","2:nogo_b","",""
"null","","html-keyboard-response","136","549072","0.0-4.0-1.32","","<img src=""img/green-r.png"">","null","trial","null","","0.2,0.8","2:nogo_b","1",""
"null","","html-keyboard-response","137","550076","0.0-4.0-2.32","","<div style=""font-size:60px;"">+</div>","null","","","","","","",""
"445.18500001868233","","image-keyboard-response","138","550523","0.0-4.0-0.33","","img/red.png","32","trial","32","true","0.8,0.2","1:go_a","",""
"null","","html-keyboard-response","139","551529","0.0-4.0-1.33","","<img src=""img/red-r.png"" border=""10"">","null","trial","32","","0.8,0.2","1:go_a","1",""
"null","","html-keyboard-response","140","552531","0.0-4.0-2.33","","<div style=""font-size:60px;"">+</div>","null","","","","","","",""
"375.3100000321865","","image-keyboard-response","141","552908","0.0-4.0-0.34","","img/green.png","32","trial","null","false","0.2,0.8","2:nogo_b","",""
"null","","html-keyboard-response","142","553913","0.0-4.0-1.34","","<img src=""img/green-n.png"" border=""10"">","null","trial","null","","0.2,0.8","2:nogo_b","0",""
"null","","html-keyboard-response","143","554917","0.0-4.0-2.34","","<div style=""font-size:60px;"">+</div>","null","","","","","","",""
"445.754999993369","","image-keyboard-response","144","555364","0.0-4.0-0.35","","img/red.png","32","trial","32","true","0.8,0.2","1:go_a","",""
"null","","html-keyboard-response","145","556368","0.0-4.0-1.35","","<img src=""img/red-r.png"" border=""10"">","null","trial","32","","0.8,0.2","1:go_a","1",""
"null","","html-keyboard-response","146","557372","0.0-4.0-2.35","","<div style=""font-size:60px;"">+</div>","null","","","","","","",""
"374.16000000666827","","image-keyboard-response","147","557748","0.0-4.0-0.36","","img/green.png","32","trial","null","false","0.2,0.8","2:nogo_b","",""
"null","","html-keyboard-response","148","558754","0.0-4.0-1.36","","<img src=""img/green-n.png"" border=""10"">","null","trial","null","","0.2,0.8","2:nogo_b","0",""
"null","","html-keyboard-response","149","559758","0.0-4.0-2.36","","<div style=""font-size:60px;"">+</div>","null","","","","","","",""
"460.3249999927357","","image-keyboard-response","150","560220","0.0-4.0-0.37","","img/red.png","32","trial","32","true","0.8,0.2","1:go_a","",""
"null","","html-keyboard-response","151","561226","0.0-4.0-1.37","","<img src=""img/red-r.png"" border=""10"">","null","trial","32","","0.8,0.2","1:go_a","1",""
"null","","html-keyboard-response","152","562231","0.0-4.0-2.37","","<div style=""font-size:60px;"">+</div>","null","","","","","","",""
"null","","image-keyboard-response","153","563734","0.0-4.0-0.38","","img/green.png","null","trial","null","true","0.2,0.8","2:nogo_b","",""
"null","","html-keyboard-response","154","564739","0.0-4.0-1.38","","<img src=""img/green-r.png"">","null","trial","null","","0.2,0.8","2:nogo_b","1",""
"null","","html-keyboard-response","155","565745","0.0-4.0-2.38","","<div style=""font-size:60px;"">+</div>","null","","","","","","",""
"335.81499999854714","","image-keyboard-response","156","566083","0.0-4.0-0.39","","img/red.png","32","trial","32","true","0.8,0.2","1:go_a","",""
"null","","html-keyboard-response","157","567090","0.0-4.0-1.39","","<img src=""img/red-r.png"" border=""10"">","null","trial","32","","0.8,0.2","1:go_a","1",""
"null","","html-keyboard-response","158","568094","0.0-4.0-2.39","","<div style=""font-size:60px;"">+</div>","null","","","","","","",""
"516.7500000097789","","image-keyboard-response","159","568612","0.0-4.0-0.40","","img/red.png","32","trial","32","true","0.8,0.2","1:go_a","",""
"null","","html-keyboard-response","160","569615","0.0-4.0-1.40","","<img src=""img/red-r.png"" border=""10"">","null","trial","32","","0.8,0.2","1:go_a","1",""
"null","","html-keyboard-response","161","570619","0.0-4.0-2.40","","<div style=""font-size:60px;"">+</div>","null","","","","","","",""
"null","","image-keyboard-response","162","572123","0.0-4.0-0.41","","img/green.png","null","trial","null","true","0.2,0.8","2:nogo_b","",""
"null","","html-keyboard-response","163","573127","0.0-4.0-1.41","","<img src=""img/green-r.png"">","null","trial","null","","0.2,0.8","2:nogo_b","1",""
"null","","html-keyboard-response","164","574131","0.0-4.0-2.41","","<div style=""font-size:60px;"">+</div>","null","","","","","","",""
"311.28500000340864","","image-keyboard-response","165","574444","0.0-4.0-0.42","","img/red.png","32","trial","32","true","0.8,0.2","1:go_a","",""
"null","","html-keyboard-response","166","575449","0.0-4.0-1.42","","<img src=""img/red-r.png"" border=""10"">","null","trial","32","","0.8,0.2","1:go_a","1",""
"null","","html-keyboard-response","167","576453","0.0-4.0-2.42","","<div style=""font-size:60px;"">+</div>","null","","","","","","",""
"306.1049999669194","","image-keyboard-response","168","576761","0.0-4.0-0.43","","img/green.png","32","trial","null","false","0.2,0.8","2:nogo_b","",""
"null","","html-keyboard-response","169","577765","0.0-4.0-1.43","","<img src=""img/green-r.png"" border=""10"">","null","trial","null","","0.2,0.8","2:nogo_b","1",""
"null","","html-keyboard-response","170","578769","0.0-4.0-2.43","","<div style=""font-size:60px;"">+</div>","null","","","","","","",""
"336.9099999545142","","image-keyboard-response","171","579108","0.0-4.0-0.44","","img/green.png","32","trial","null","false","0.2,0.8","2:nogo_b","",""
"null","","html-keyboard-response","172","580110","0.0-4.0-1.44","","<img src=""img/green-n.png"" border=""10"">","null","trial","null","","0.2,0.8","2:nogo_b","0",""
"null","","html-keyboard-response","173","581114","0.0-4.0-2.44","","<div style=""font-size:60px;"">+</div>","null","","","","","","",""
"287.35499997856095","","image-keyboard-response","174","581403","0.0-4.0-0.45","","img/red.png","32","trial","32","true","0.8,0.2","1:go_a","",""
"null","","html-keyboard-response","175","582409","0.0-4.0-1.45","","<img src=""img/red-n.png"" border=""10"">","null","trial","32","","0.8,0.2","1:go_a","0",""
"null","","html-keyboard-response","176","583413","0.0-4.0-2.45","","<div style=""font-size:60px;"">+</div>","null","","","","","","",""
"276.1999999638647","","image-keyboard-response","177","583691","0.0-4.0-0.46","","img/red.png","32","trial","32","true","0.8,0.2","1:go_a","",""
"null","","html-keyboard-response","178","584696","0.0-4.0-1.46","","<img src=""img/red-r.png"" border=""10"">","null","trial","32","","0.8,0.2","1:go_a","1",""
"null","","html-keyboard-response","179","585700","0.0-4.0-2.46","","<div style=""font-size:60px;"">+</div>","null","","","","","","",""
"309.6349999541417","","image-keyboard-response","180","586011","0.0-4.0-0.47","","img/green.png","32","trial","null","false","0.2,0.8","2:nogo_b","",""
"null","","html-keyboard-response","181","587018","0.0-4.0-1.47","","<img src=""img/green-n.png"" border=""10"">","null","trial","null","","0.2,0.8","2:nogo_b","0",""
"null","","html-keyboard-response","182","588024","0.0-4.0-2.47","","<div style=""font-size:60px;"">+</div>","null","","","","","","",""
"null","","image-keyboard-response","183","589526","0.0-4.0-0.48","","img/red.png","null","trial","32","false","0.8,0.2","1:go_a","",""
"null","","html-keyboard-response","184","590531","0.0-4.0-1.48","","<img src=""img/red-n.png"">","null","trial","32","","0.8,0.2","1:go_a","0",""
"null","","html-keyboard-response","185","591534","0.0-4.0-2.48","","<div style=""font-size:60px;"">+</div>","null","","","","","","",""
"474.8100000433624","","image-keyboard-response","186","592010","0.0-4.0-0.49","","img/green.png","32","trial","null","false","0.2,0.8","2:nogo_b","",""
"null","","html-keyboard-response","187","593014","0.0-4.0-1.49","","<img src=""img/green-n.png"" border=""10"">","null","trial","null","","0.2,0.8","2:nogo_b","0",""
"null","","html-keyboard-response","188","594019","0.0-4.0-2.49","","<div style=""font-size:60px;"">+</div>","null","","","","","","",""
"null","","image-keyboard-response","189","595522","0.0-4.0-0.50","","img/green.png","null","trial","null","true","0.2,0.8","2:nogo_b","",""
"null","","html-keyboard-response","190","596526","0.0-4.0-1.50","","<img src=""img/green-r.png"">","null","trial","null","","0.2,0.8","2:nogo_b","1",""
"null","","html-keyboard-response","191","597531","0.0-4.0-2.50","","<div style=""font-size:60px;"">+</div>","null","","","","","","",""
"334.8550000227988","","image-keyboard-response","192","597867","0.0-4.0-0.51","","img/red.png","32","trial","32","true","0.8,0.2","1:go_a","",""
"null","","html-keyboard-response","193","598874","0.0-4.0-1.51","","<img src=""img/red-r.png"" border=""10"">","null","trial","32","","0.8,0.2","1:go_a","1",""
"null","","html-keyboard-response","194","599875","0.0-4.0-2.51","","<div style=""font-size:60px;"">+</div>","null","","","","","","",""
"327.0849999971688","","image-keyboard-response","195","600204","0.0-4.0-0.52","","img/red.png","32","trial","32","true","0.8,0.2","1:go_a","",""
"null","","html-keyboard-response","196","601211","0.0-4.0-1.52","","<img src=""img/red-r.png"" border=""10"">","null","trial","32","","0.8,0.2","1:go_a","1",""
"null","","html-keyboard-response","197","602215","0.0-4.0-2.52","","<div style=""font-size:60px;"">+</div>","null","","","","","","",""
"473.25500001898035","","image-keyboard-response","198","602690","0.0-4.0-0.53","","img/green.png","32","trial","null","false","0.2,0.8","2:nogo_b","",""
"null","","html-keyboard-response","199","603695","0.0-4.0-1.53","","<img src=""img/green-n.png"" border=""10"">","null","trial","null","","0.2,0.8","2:nogo_b","0",""
"null","","html-keyboard-response","200","604699","0.0-4.0-2.53","","<div style=""font-size:60px;"">+</div>","null","","","","","","",""
"454.07000003615394","","image-keyboard-response","201","605155","0.0-4.0-0.54","","img/red.png","32","trial","32","true","0.8,0.2","1:go_a","",""
"null","","html-keyboard-response","202","606157","0.0-4.0-1.54","","<img src=""img/red-r.png"" border=""10"">","null","trial","32","","0.8,0.2","1:go_a","1",""
"null","","html-keyboard-response","203","607161","0.0-4.0-2.54","","<div style=""font-size:60px;"">+</div>","null","","","","","","",""
"null","","image-keyboard-response","204","608664","0.0-4.0-0.55","","img/green.png","null","trial","null","true","0.2,0.8","2:nogo_b","",""
"null","","html-keyboard-response","205","609671","0.0-4.0-1.55","","<img src=""img/green-r.png"">","null","trial","null","","0.2,0.8","2:nogo_b","1",""
"null","","html-keyboard-response","206","610673","0.0-4.0-2.55","","<div style=""font-size:60px;"">+</div>","null","","","","","","",""
"385.02000004518777","","image-keyboard-response","207","611059","0.0-4.0-0.56","","img/red.png","32","trial","32","true","0.8,0.2","1:go_a","",""
"null","","html-keyboard-response","208","612066","0.0-4.0-1.56","","<img src=""img/red-r.png"" border=""10"">","null","trial","32","","0.8,0.2","1:go_a","1",""
"null","","html-keyboard-response","209","613070","0.0-4.0-2.56","","<div style=""font-size:60px;"">+</div>","null","","","","","","",""
"314.58000000566244","","image-keyboard-response","210","613386","0.0-4.0-0.57","","img/green.png","32","trial","null","false","0.2,0.8","2:nogo_b","",""
"null","","html-keyboard-response","211","614388","0.0-4.0-1.57","","<img src=""img/green-n.png"" border=""10"">","null","trial","null","","0.2,0.8","2:nogo_b","0",""
"null","","html-keyboard-response","212","615392","0.0-4.0-2.57","","<div style=""font-size:60px;"">+</div>","null","","","","","","",""
"329.4950000126846","","image-keyboard-response","213","615723","0.0-4.0-0.58","","img/red.png","32","trial","32","true","0.8,0.2","1:go_a","",""
"null","","html-keyboard-response","214","616727","0.0-4.0-1.58","","<img src=""img/red-r.png"" border=""10"">","null","trial","32","","0.8,0.2","1:go_a","1",""
"null","","html-keyboard-response","215","617732","0.0-4.0-2.58","","<div style=""font-size:60px;"">+</div>","null","","","","","","",""
"467.6000000326894","","image-keyboard-response","216","618201","0.0-4.0-0.59","","img/green.png","32","trial","null","false","0.2,0.8","2:nogo_b","",""
"null","","html-keyboard-response","217","619206","0.0-4.0-1.59","","<img src=""img/green-n.png"" border=""10"">","null","trial","null","","0.2,0.8","2:nogo_b","0",""
"null","","html-keyboard-response","218","620210","0.0-4.0-2.59","","<div style=""font-size:60px;"">+</div>","null","","","","","","",""
"86628.37499997113","","instructions","219","706837","0.0-5.0","[{""page_index"":0,""viewing_time"":86627.994999988}]","","","","","","","","",""
"1206.255000026431","","image-keyboard-response","220","708049","0.0-6.0-0.0","","img/yellow.png","32","trial","null","false","0.4,0.6","2:nogo_b","",""
"null","","html-keyboard-response","221","709058","0.0-6.0-1.0","","<img src=""img/yellow-n.png"" border=""10"">","null","trial","null","","0.4,0.6","2:nogo_b","0",""
"null","","html-keyboard-response","222","710063","0.0-6.0-2.0","","<div style=""font-size:60px;"">+</div>","null","","","","","","",""
"312.0399999897927","","image-keyboard-response","223","710377","0.0-6.0-0.1","","img/green.png","32","trial","32","true","0.6,0.4","3:go_c","",""
"null","","html-keyboard-response","224","711381","0.0-6.0-1.1","","<img src=""img/green-n.png"" border=""10"">","null","trial","32","","0.6,0.4","3:go_c","0",""
"null","","html-keyboard-response","225","712387","0.0-6.0-2.1","","<div style=""font-size:60px;"">+</div>","null","","","","","","",""
"364.1800000332296","","image-keyboard-response","226","712753","0.0-6.0-0.2","","img/pink.png","32","trial","null","false","0.4,0.6","4:nogo_d","",""
"null","","html-keyboard-response","227","713761","0.0-6.0-1.2","","<img src=""img/pink-n.png"" border=""10"">","null","trial","null","","0.4,0.6","4:nogo_d","0",""
"null","","html-keyboard-response","228","714766","0.0-6.0-2.2","","<div style=""font-size:60px;"">+</div>","null","","","","","","",""
"377.5599999935366","","image-keyboard-response","229","715145","0.0-6.0-0.3","","img/orange.png","32","trial","32","true","0.6,0.4","1:go_a","",""
"null","","html-keyboard-response","230","716147","0.0-6.0-1.3","","<img src=""img/orange-n.png"" border=""10"">","null","trial","32","","0.6,0.4","1:go_a","0",""
"null","","html-keyboard-response","231","717151","0.0-6.0-2.3","","<div style=""font-size:60px;"">+</div>","null","","","","","","",""
"367.8899999940768","","image-keyboard-response","232","717520","0.0-6.0-0.4","","img/green.png","32","trial","32","true","0.6,0.4","3:go_c","",""
"null","","html-keyboard-response","233","718527","0.0-6.0-1.4","","<img src=""img/green-n.png"" border=""10"">","null","trial","32","","0.6,0.4","3:go_c","0",""
"null","","html-keyboard-response","234","719531","0.0-6.0-2.4","","<div style=""font-size:60px;"">+</div>","null","","","","","","",""
"283.94499997375533","","image-keyboard-response","235","719817","0.0-6.0-0.5","","img/orange.png","32","trial","32","true","0.6,0.4","1:go_a","",""
"null","","html-keyboard-response","236","720820","0.0-6.0-1.5","","<img src=""img/orange-n.png"" border=""10"">","null","trial","32","","0.6,0.4","1:go_a","0",""
"null","","html-keyboard-response","237","721824","0.0-6.0-2.5","","<div style=""font-size:60px;"">+</div>","null","","","","","","",""
"358.5449999663979","","image-keyboard-response","238","722185","0.0-6.0-0.6","","img/pink.png","32","trial","null","false","0.4,0.6","4:nogo_d","",""
"null","","html-keyboard-response","239","723188","0.0-6.0-1.6","","<img src=""img/pink-r.png"" border=""10"">","null","trial","null","","0.4,0.6","4:nogo_d","1",""
"null","","html-keyboard-response","240","724193","0.0-6.0-2.6","","<div style=""font-size:60px;"">+</div>","null","","","","","","",""
"484.5050000003539","","image-keyboard-response","241","724679","0.0-6.0-0.7","","img/yellow.png","32","trial","null","false","0.4,0.6","2:nogo_b","",""
"null","","html-keyboard-response","242","725685","0.0-6.0-1.7","","<img src=""img/yellow-n.png"" border=""10"">","null","trial","null","","0.4,0.6","2:nogo_b","0",""
"null","","html-keyboard-response","243","726688","0.0-6.0-2.7","","<div style=""font-size:60px;"">+</div>","null","","","","","","",""
"542.8400000091642","","image-keyboard-response","244","727233","0.0-6.0-0.8","","img/orange.png","32","trial","32","true","0.6,0.4","1:go_a","",""
"null","","html-keyboard-response","245","728238","0.0-6.0-1.8","","<img src=""img/orange-r.png"" border=""10"">","null","trial","32","","0.6,0.4","1:go_a","1",""
"null","","html-keyboard-response","246","729243","0.0-6.0-2.8","","<div style=""font-size:60px;"">+</div>","null","","","","","","",""
"469.95500003686175","","image-keyboard-response","247","729714","0.0-6.0-0.9","","img/pink.png","32","trial","null","false","0.4,0.6","4:nogo_d","",""
"null","","html-keyboard-response","248","730717","0.0-6.0-1.9","","<img src=""img/pink-r.png"" border=""10"">","null","trial","null","","0.4,0.6","4:nogo_d","1",""
"null","","html-keyboard-response","249","731722","0.0-6.0-2.9","","<div style=""font-size:60px;"">+</div>","null","","","","","","",""
"null","","image-keyboard-response","250","733225","0.0-6.0-0.10","","img/yellow.png","null","trial","null","true","0.4,0.6","2:nogo_b","",""
"null","","html-keyboard-response","251","734229","0.0-6.0-1.10","","<img src=""img/yellow-r.png"">","null","trial","null","","0.4,0.6","2:nogo_b","1",""
"null","","html-keyboard-response","252","735234","0.0-6.0-2.10","","<div style=""font-size:60px;"">+</div>","null","","","","","","",""
"null","","image-keyboard-response","253","736737","0.0-6.0-0.11","","img/green.png","null","trial","32","false","0.6,0.4","3:go_c","",""
"null","","html-keyboard-response","254","737741","0.0-6.0-1.11","","<img src=""img/green-r.png"">","null","trial","32","","0.6,0.4","3:go_c","1",""
"null","","html-keyboard-response","255","738745","0.0-6.0-2.11","","<div style=""font-size:60px;"">+</div>","null","","","","","","",""
"534.2100000125356","","image-keyboard-response","256","739281","0.0-6.0-0.12","","img/green.png","32","trial","32","true","0.6,0.4","3:go_c","",""
"null","","html-keyboard-response","257","740283","0.0-6.0-1.12","","<img src=""img/green-r.png"" border=""10"">","null","trial","32","","0.6,0.4","3:go_c","1",""
"null","","html-keyboard-response","258","741288","0.0-6.0-2.12","","<div style=""font-size:60px;"">+</div>","null","","","","","","",""
"365.71000004187226","","image-keyboard-response","259","741655","0.0-6.0-0.13","","img/pink.png","32","trial","null","false","0.4,0.6","4:nogo_d","",""
"null","","html-keyboard-response","260","742658","0.0-6.0-1.13","","<img src=""img/pink-n.png"" border=""10"">","null","trial","null","","0.4,0.6","4:nogo_d","0",""
"null","","html-keyboard-response","261","743662","0.0-6.0-2.13","","<div style=""font-size:60px;"">+</div>","null","","","","","","",""
"312.2399999992922","","image-keyboard-response","262","743976","0.0-6.0-0.14","","img/yellow.png","32","trial","null","false","0.4,0.6","2:nogo_b","",""
"null","","html-keyboard-response","263","744980","0.0-6.0-1.14","","<img src=""img/yellow-r.png"" border=""10"">","null","trial","null","","0.4,0.6","2:nogo_b","1",""
"null","","html-keyboard-response","264","745984","0.0-6.0-2.14","","<div style=""font-size:60px;"">+</div>","null","","","","","","",""
"462.9399999976158","","image-keyboard-response","265","746449","0.0-6.0-0.15","","img/orange.png","32","trial","32","true","0.6,0.4","1:go_a","",""
"null","","html-keyboard-response","266","747453","0.0-6.0-1.15","","<img src=""img/orange-r.png"" border=""10"">","null","trial","32","","0.6,0.4","1:go_a","1",""
"null","","html-keyboard-response","267","748457","0.0-6.0-2.15","","<div style=""font-size:60px;"">+</div>","null","","","","","","",""
"453.74999998603016","","image-keyboard-response","268","748912","0.0-6.0-0.16","","img/yellow.png","32","trial","null","false","0.4,0.6","2:nogo_b","",""
"null","","html-keyboard-response","269","749919","0.0-6.0-1.16","","<img src=""img/yellow-n.png"" border=""10"">","null","trial","null","","0.4,0.6","2:nogo_b","0",""
"null","","html-keyboard-response","270","750924","0.0-6.0-2.16","","<div style=""font-size:60px;"">+</div>","null","","","","","","",""
"297.6100000087172","","image-keyboard-response","271","751223","0.0-6.0-0.17","","img/green.png","32","trial","32","true","0.6,0.4","3:go_c","",""
"null","","html-keyboard-response","272","752230","0.0-6.0-1.17","","<img src=""img/green-n.png"" border=""10"">","null","trial","32","","0.6,0.4","3:go_c","0",""
"null","","html-keyboard-response","273","753234","0.0-6.0-2.17","","<div style=""font-size:60px;"">+</div>","null","","","","","","",""
"394.35499999672174","","image-keyboard-response","274","753630","0.0-6.0-0.18","","img/orange.png","32","trial","32","true","0.6,0.4","1:go_a","",""
"null","","html-keyboard-response","275","754633","0.0-6.0-1.18","","<img src=""img/orange-r.png"" border=""10"">","null","trial","32","","0.6,0.4","1:go_a","1",""
"null","","html-keyboard-response","276","755638","0.0-6.0-2.18","","<div style=""font-size:60px;"">+</div>","null","","","","","","",""
"360.45500001637265","","image-keyboard-response","277","756000","0.0-6.0-0.19","","img/pink.png","32","trial","null","false","0.4,0.6","4:nogo_d","",""
"null","","html-keyboard-response","278","757003","0.0-6.0-1.19","","<img src=""img/pink-n.png"" border=""10"">","null","trial","null","","0.4,0.6","4:nogo_d","0",""
"null","","html-keyboard-response","279","758006","0.0-6.0-2.19","","<div style=""font-size:60px;"">+</div>","null","","","","","","",""
"null","","image-keyboard-response","280","759509","0.0-6.0-0.20","","img/yellow.png","null","trial","null","true","0.4,0.6","2:nogo_b","",""
"null","","html-keyboard-response","281","760514","0.0-6.0-1.20","","<img src=""img/yellow-r.png"">","null","trial","null","","0.4,0.6","2:nogo_b","1",""
"null","","html-keyboard-response","282","761518","0.0-6.0-2.20","","<div style=""font-size:60px;"">+</div>","null","","","","","","",""
"319.9550000135787","","image-keyboard-response","283","761840","0.0-6.0-0.21","","img/pink.png","32","trial","null","false","0.4,0.6","4:nogo_d","",""
"null","","html-keyboard-response","284","762847","0.0-6.0-1.21","","<img src=""img/pink-n.png"" border=""10"">","null","trial","null","","0.4,0.6","4:nogo_d","0",""
"null","","html-keyboard-response","285","763852","0.0-6.0-2.21","","<div style=""font-size:60px;"">+</div>","null","","","","","","",""
"330.3400000440888","","image-keyboard-response","286","764184","0.0-6.0-0.22","","img/green.png","32","trial","32","true","0.6,0.4","3:go_c","",""
"null","","html-keyboard-response","287","765187","0.0-6.0-1.22","","<img src=""img/green-r.png"" border=""10"">","null","trial","32","","0.6,0.4","3:go_c","1",""
"null","","html-keyboard-response","288","766191","0.0-6.0-2.22","","<div style=""font-size:60px;"">+</div>","null","","","","","","",""
"302.8850000118837","","image-keyboard-response","289","766495","0.0-6.0-0.23","","img/orange.png","32","trial","32","true","0.6,0.4","1:go_a","",""
"null","","html-keyboard-response","290","767503","0.0-6.0-1.23","","<img src=""img/orange-r.png"" border=""10"">","null","trial","32","","0.6,0.4","1:go_a","1",""
"null","","html-keyboard-response","291","768507","0.0-6.0-2.23","","<div style=""font-size:60px;"">+</div>","null","","","","","","",""
"523.4949999721721","","image-keyboard-response","292","769031","0.0-6.0-0.24","","img/orange.png","32","trial","32","true","0.6,0.4","1:go_a","",""
"null","","html-keyboard-response","293","770034","0.0-6.0-1.24","","<img src=""img/orange-r.png"" border=""10"">","null","trial","32","","0.6,0.4","1:go_a","1",""
"null","","html-keyboard-response","294","771038","0.0-6.0-2.24","","<div style=""font-size:60px;"">+</div>","null","","","","","","",""
"null","","image-keyboard-response","295","772541","0.0-6.0-0.25","","img/pink.png","null","trial","null","true","0.4,0.6","4:nogo_d","",""
"null","","html-keyboard-response","296","773546","0.0-6.0-1.25","","<img src=""img/pink-n.png"">","null","trial","null","","0.4,0.6","4:nogo_d","0",""
"null","","html-keyboard-response","297","774550","0.0-6.0-2.25","","<div style=""font-size:60px;"">+</div>","null","","","","","","",""
"406.3650000025518","","image-keyboard-response","298","774958","0.0-6.0-0.26","","img/green.png","32","trial","32","true","0.6,0.4","3:go_c","",""
"null","","html-keyboard-response","299","775961","0.0-6.0-1.26","","<img src=""img/green-r.png"" border=""10"">","null","trial","32","","0.6,0.4","3:go_c","1",""
"null","","html-keyboard-response","300","776965","0.0-6.0-2.26","","<div style=""font-size:60px;"">+</div>","null","","","","","","",""
"null","","image-keyboard-response","301","778468","0.0-6.0-0.27","","img/yellow.png","null","trial","null","true","0.4,0.6","2:nogo_b","",""
"null","","html-keyboard-response","302","779473","0.0-6.0-1.27","","<img src=""img/yellow-n.png"">","null","trial","null","","0.4,0.6","2:nogo_b","0",""
"null","","html-keyboard-response","303","780477","0.0-6.0-2.27","","<div style=""font-size:60px;"">+</div>","null","","","","","","",""
"424.86500000813976","","image-keyboard-response","304","780903","0.0-6.0-0.28","","img/green.png","32","trial","32","true","0.6,0.4","3:go_c","",""
"null","","html-keyboard-response","305","781911","0.0-6.0-1.28","","<img src=""img/green-r.png"" border=""10"">","null","trial","32","","0.6,0.4","3:go_c","1",""
"null","","html-keyboard-response","306","782915","0.0-6.0-2.28","","<div style=""font-size:60px;"">+</div>","null","","","","","","",""
"571.0500000277534","","image-keyboard-response","307","783487","0.0-6.0-0.29","","img/pink.png","32","trial","null","false","0.4,0.6","4:nogo_d","",""
"null","","html-keyboard-response","308","784493","0.0-6.0-1.29","","<img src=""img/pink-n.png"" border=""10"">","null","trial","null","","0.4,0.6","4:nogo_d","0",""
"null","","html-keyboard-response","309","785498","0.0-6.0-2.29","","<div style=""font-size:60px;"">+</div>","null","","","","","","",""
"346.42000001622364","","image-keyboard-response","310","785845","0.0-6.0-0.30","","img/orange.png","32","trial","32","true","0.6,0.4","1:go_a","",""
"null","","html-keyboard-response","311","786850","0.0-6.0-1.30","","<img src=""img/orange-r.png"" border=""10"">","null","trial","32","","0.6,0.4","1:go_a","1",""
"null","","html-keyboard-response","312","787855","0.0-6.0-2.30","","<div style=""font-size:60px;"">+</div>","null","","","","","","",""
"null","","image-keyboard-response","313","789358","0.0-6.0-0.31","","img/yellow.png","null","trial","null","true","0.4,0.6","2:nogo_b","",""
"null","","html-keyboard-response","314","790362","0.0-6.0-1.31","","<img src=""img/yellow-n.png"">","null","trial","null","","0.4,0.6","2:nogo_b","0",""
"null","","html-keyboard-response","315","791367","0.0-6.0-2.31","","<div style=""font-size:60px;"">+</div>","null","","","","","","",""
"438.25000000651926","","image-keyboard-response","316","791807","0.0-6.0-0.32","","img/green.png","32","trial","32","true","0.6,0.4","3:go_c","",""
"null","","html-keyboard-response","317","792812","0.0-6.0-1.32","","<img src=""img/green-r.png"" border=""10"">","null","trial","32","","0.6,0.4","3:go_c","1",""
"null","","html-keyboard-response","318","793816","0.0-6.0-2.32","","<div style=""font-size:60px;"">+</div>","null","","","","","","",""
"null","","image-keyboard-response","319","795319","0.0-6.0-0.33","","img/pink.png","null","trial","null","true","0.4,0.6","4:nogo_d","",""
"null","","html-keyboard-response","320","796324","0.0-6.0-1.33","","<img src=""img/pink-r.png"">","null","trial","null","","0.4,0.6","4:nogo_d","1",""
"null","","html-keyboard-response","321","797328","0.0-6.0-2.33","","<div style=""font-size:60px;"">+</div>","null","","","","","","",""
"null","","image-keyboard-response","322","798831","0.0-6.0-0.34","","img/yellow.png","null","trial","null","true","0.4,0.6","2:nogo_b","",""
"null","","html-keyboard-response","323","799836","0.0-6.0-1.34","","<img src=""img/yellow-r.png"">","null","trial","null","","0.4,0.6","2:nogo_b","1",""
"null","","html-keyboard-response","324","800840","0.0-6.0-2.34","","<div style=""font-size:60px;"">+</div>","null","","","","","","",""
"356.3350000185892","","image-keyboard-response","325","801198","0.0-6.0-0.35","","img/orange.png","32","trial","32","true","0.6,0.4","1:go_a","",""
"null","","html-keyboard-response","326","802204","0.0-6.0-1.35","","<img src=""img/orange-n.png"" border=""10"">","null","trial","32","","0.6,0.4","1:go_a","0",""
"null","","html-keyboard-response","327","803209","0.0-6.0-2.35","","<div style=""font-size:60px;"">+</div>","null","","","","","","",""
"292.94999997364357","","image-keyboard-response","328","803503","0.0-6.0-0.36","","img/pink.png","32","trial","null","false","0.4,0.6","4:nogo_d","",""
"null","","html-keyboard-response","329","804510","0.0-6.0-1.36","","<img src=""img/pink-n.png"" border=""10"">","null","trial","null","","0.4,0.6","4:nogo_d","0",""
"null","","html-keyboard-response","330","805513","0.0-6.0-2.36","","<div style=""font-size:60px;"">+</div>","null","","","","","","",""
"324.02999995974824","","image-keyboard-response","331","805839","0.0-6.0-0.37","","img/orange.png","32","trial","32","true","0.6,0.4","1:go_a","",""
"null","","html-keyboard-response","332","806842","0.0-6.0-1.37","","<img src=""img/orange-n.png"" border=""10"">","null","trial","32","","0.6,0.4","1:go_a","0",""
"null","","html-keyboard-response","333","807847","0.0-6.0-2.37","","<div style=""font-size:60px;"">+</div>","null","","","","","","",""
"310.6149999657646","","image-keyboard-response","334","808158","0.0-6.0-0.38","","img/green.png","32","trial","32","true","0.6,0.4","3:go_c","",""
"null","","html-keyboard-response","335","809164","0.0-6.0-1.38","","<img src=""img/green-n.png"" border=""10"">","null","trial","32","","0.6,0.4","3:go_c","0",""
"null","","html-keyboard-response","336","810169","0.0-6.0-2.38","","<div style=""font-size:60px;"">+</div>","null","","","","","","",""
"315.6549999839626","","image-keyboard-response","337","810485","0.0-6.0-0.39","","img/yellow.png","32","trial","null","false","0.4,0.6","2:nogo_b","",""
"null","","html-keyboard-response","338","811492","0.0-6.0-1.39","","<img src=""img/yellow-r.png"" border=""10"">","null","trial","null","","0.4,0.6","2:nogo_b","1",""
"null","","html-keyboard-response","339","812496","0.0-6.0-2.39","","<div style=""font-size:60px;"">+</div>","null","","","","","","",""
"null","","image-keyboard-response","340","814000","0.0-6.0-0.40","","img/orange.png","null","trial","32","false","0.6,0.4","1:go_a","",""
"null","","html-keyboard-response","341","815004","0.0-6.0-1.40","","<img src=""img/orange-r.png"">","null","trial","32","","0.6,0.4","1:go_a","1",""
"null","","html-keyboard-response","342","816008","0.0-6.0-2.40","","<div style=""font-size:60px;"">+</div>","null","","","","","","",""
"403.6199999973178","","image-keyboard-response","343","816413","0.0-6.0-0.41","","img/pink.png","32","trial","null","false","0.4,0.6","4:nogo_d","",""
"null","","html-keyboard-response","344","817419","0.0-6.0-1.41","","<img src=""img/pink-r.png"" border=""10"">","null","trial","null","","0.4,0.6","4:nogo_d","1",""
"null","","html-keyboard-response","345","818423","0.0-6.0-2.41","","<div style=""font-size:60px;"">+</div>","null","","","","","","",""
"333.57999997679144","","image-keyboard-response","346","818758","0.0-6.0-0.42","","img/yellow.png","32","trial","null","false","0.4,0.6","2:nogo_b","",""
"null","","html-keyboard-response","347","819764","0.0-6.0-1.42","","<img src=""img/yellow-n.png"" border=""10"">","null","trial","null","","0.4,0.6","2:nogo_b","0",""
"null","","html-keyboard-response","348","820768","0.0-6.0-2.42","","<div style=""font-size:60px;"">+</div>","null","","","","","","",""
"508.5249999538064","","image-keyboard-response","349","821279","0.0-6.0-0.43","","img/green.png","32","trial","32","true","0.6,0.4","3:go_c","",""
"null","","html-keyboard-response","350","822283","0.0-6.0-1.43","","<img src=""img/green-r.png"" border=""10"">","null","trial","32","","0.6,0.4","3:go_c","1",""
"null","","html-keyboard-response","351","823288","0.0-6.0-2.43","","<div style=""font-size:60px;"">+</div>","null","","","","","","",""
"357.1200000005774","","image-keyboard-response","352","823647","0.0-6.0-0.44","","img/yellow.png","32","trial","null","false","0.4,0.6","2:nogo_b","",""
"null","","html-keyboard-response","353","824652","0.0-6.0-1.44","","<img src=""img/yellow-r.png"" border=""10"">","null","trial","null","","0.4,0.6","2:nogo_b","1",""
"null","","html-keyboard-response","354","825656","0.0-6.0-2.44","","<div style=""font-size:60px;"">+</div>","null","","","","","","",""
"324.4299999787472","","image-keyboard-response","355","825982","0.0-6.0-0.45","","img/orange.png","32","trial","32","true","0.6,0.4","1:go_a","",""
"null","","html-keyboard-response","356","826985","0.0-6.0-1.45","","<img src=""img/orange-n.png"" border=""10"">","null","trial","32","","0.6,0.4","1:go_a","0",""
"null","","html-keyboard-response","357","827989","0.0-6.0-2.45","","<div style=""font-size:60px;"">+</div>","null","","","","","","",""
"343.33999996306375","","image-keyboard-response","358","828334","0.0-6.0-0.46","","img/pink.png","32","trial","null","false","0.4,0.6","4:nogo_d","",""
"null","","html-keyboard-response","359","829336","0.0-6.0-1.46","","<img src=""img/pink-n.png"" border=""10"">","null","trial","null","","0.4,0.6","4:nogo_d","0",""
"null","","html-keyboard-response","360","830341","0.0-6.0-2.46","","<div style=""font-size:60px;"">+</div>","null","","","","","","",""
"359.9050000193529","","image-keyboard-response","361","830702","0.0-6.0-0.47","","img/green.png","32","trial","32","true","0.6,0.4","3:go_c","",""
"null","","html-keyboard-response","362","831705","0.0-6.0-1.47","","<img src=""img/green-r.png"" border=""10"">","null","trial","32","","0.6,0.4","3:go_c","1",""
"null","","html-keyboard-response","363","832708","0.0-6.0-2.47","","<div style=""font-size:60px;"">+</div>","null","","","","","","",""
"856.3500000163913","","image-keyboard-response","364","833566","0.0-6.0-0.48","","img/pink.png","32","trial","null","false","0.4,0.6","4:nogo_d","",""
"null","","html-keyboard-response","365","834572","0.0-6.0-1.48","","<img src=""img/pink-r.png"" border=""10"">","null","trial","null","","0.4,0.6","4:nogo_d","1",""
"null","","html-keyboard-response","366","835577","0.0-6.0-2.48","","<div style=""font-size:60px;"">+</div>","null","","","","","","",""
"492.5500000244938","","image-keyboard-response","367","836070","0.0-6.0-0.49","","img/yellow.png","32","trial","null","false","0.4,0.6","2:nogo_b","",""
"null","","html-keyboard-response","368","837074","0.0-6.0-1.49","","<img src=""img/yellow-n.png"" border=""10"">","null","trial","null","","0.4,0.6","2:nogo_b","0",""
"null","","html-keyboard-response","369","838078","0.0-6.0-2.49","","<div style=""font-size:60px;"">+</div>","null","","","","","","",""
"654.0750000276603","","image-keyboard-response","370","838734","0.0-6.0-0.50","","img/green.png","32","trial","32","true","0.6,0.4","3:go_c","",""
"null","","html-keyboard-response","371","839738","0.0-6.0-1.50","","<img src=""img/green-r.png"" border=""10"">","null","trial","32","","0.6,0.4","3:go_c","1",""
"null","","html-keyboard-response","372","840743","0.0-6.0-2.50","","<div style=""font-size:60px;"">+</div>","null","","","","","","",""
"null","","image-keyboard-response","373","842246","0.0-6.0-0.51","","img/orange.png","null","trial","32","false","0.6,0.4","1:go_a","",""
"null","","html-keyboard-response","374","843251","0.0-6.0-1.51","","<img src=""img/orange-n.png"">","null","trial","32","","0.6,0.4","1:go_a","0",""
"null","","html-keyboard-response","375","844255","0.0-6.0-2.51","","<div style=""font-size:60px;"">+</div>","null","","","","","","",""
"797.6650000200607","","image-keyboard-response","376","845054","0.0-6.0-0.52","","img/yellow.png","32","trial","null","false","0.4,0.6","2:nogo_b","",""
"null","","html-keyboard-response","377","846060","0.0-6.0-1.52","","<img src=""img/yellow-r.png"" border=""10"">","null","trial","null","","0.4,0.6","2:nogo_b","1",""
"null","","html-keyboard-response","378","847064","0.0-6.0-2.52","","<div style=""font-size:60px;"">+</div>","null","","","","","","",""
"652.6500000036322","","image-keyboard-response","379","847718","0.0-6.0-0.53","","img/pink.png","32","trial","null","false","0.4,0.6","4:nogo_d","",""
"null","","html-keyboard-response","380","848725","0.0-6.0-1.53","","<img src=""img/pink-r.png"" border=""10"">","null","trial","null","","0.4,0.6","4:nogo_d","1",""
"null","","html-keyboard-response","381","849729","0.0-6.0-2.53","","<div style=""font-size:60px;"">+</div>","null","","","","","","",""
"400.94500000122935","","image-keyboard-response","382","850131","0.0-6.0-0.54","","img/green.png","32","trial","32","true","0.6,0.4","3:go_c","",""
"null","","html-keyboard-response","383","851134","0.0-6.0-1.54","","<img src=""img/green-n.png"" border=""10"">","null","trial","32","","0.6,0.4","3:go_c","0",""
"null","","html-keyboard-response","384","852138","0.0-6.0-2.54","","<div style=""font-size:60px;"">+</div>","null","","","","","","",""
"346.75500000594184","","image-keyboard-response","385","852486","0.0-6.0-0.55","","img/orange.png","32","trial","32","true","0.6,0.4","1:go_a","",""
"null","","html-keyboard-response","386","853493","0.0-6.0-1.55","","<img src=""img/orange-n.png"" border=""10"">","null","trial","32","","0.6,0.4","1:go_a","0",""
"null","","html-keyboard-response","387","854495","0.0-6.0-2.55","","<div style=""font-size:60px;"">+</div>","null","","","","","","",""
"453.1100000021979","","image-keyboard-response","388","854949","0.0-6.0-0.56","","img/yellow.png","32","trial","null","false","0.4,0.6","2:nogo_b","",""
"null","","html-keyboard-response","389","855952","0.0-6.0-1.56","","<img src=""img/yellow-r.png"" border=""10"">","null","trial","null","","0.4,0.6","2:nogo_b","1",""
"null","","html-keyboard-response","390","856956","0.0-6.0-2.56","","<div style=""font-size:60px;"">+</div>","null","","","","","","",""
"null","","image-keyboard-response","391","858459","0.0-6.0-0.57","","img/orange.png","null","trial","32","false","0.6,0.4","1:go_a","",""
"null","","html-keyboard-response","392","859464","0.0-6.0-1.57","","<img src=""img/orange-n.png"">","null","trial","32","","0.6,0.4","1:go_a","0",""
"null","","html-keyboard-response","393","860468","0.0-6.0-2.57","","<div style=""font-size:60px;"">+</div>","null","","","","","","",""
"455.02499997382984","","image-keyboard-response","394","860924","0.0-6.0-0.58","","img/green.png","32","trial","32","true","0.6,0.4","3:go_c","",""
"null","","html-keyboard-response","395","861931","0.0-6.0-1.58","","<img src=""img/green-r.png"" border=""10"">","null","trial","32","","0.6,0.4","3:go_c","1",""
"null","","html-keyboard-response","396","862935","0.0-6.0-2.58","","<div style=""font-size:60px;"">+</div>","null","","","","","","",""
"339.3400000059046","","image-keyboard-response","397","863276","0.0-6.0-0.59","","img/pink.png","32","trial","null","false","0.4,0.6","4:nogo_d","",""
"null","","html-keyboard-response","398","864281","0.0-6.0-1.59","","<img src=""img/pink-r.png"" border=""10"">","null","trial","null","","0.4,0.6","4:nogo_d","1",""
"null","","html-keyboard-response","399","865286","0.0-6.0-2.59","","<div style=""font-size:60px;"">+</div>","null","","","","","","",""
"518.4000000008382","","image-keyboard-response","400","865805","0.0-6.0-0.60","","img/green.png","32","trial","32","true","0.6,0.4","3:go_c","",""
"null","","html-keyboard-response","401","866812","0.0-6.0-1.60","","<img src=""img/green-n.png"" border=""10"">","null","trial","32","","0.6,0.4","3:go_c","0",""
"null","","html-keyboard-response","402","867816","0.0-6.0-2.60","","<div style=""font-size:60px;"">+</div>","null","","","","","","",""
"402.79000002192333","","image-keyboard-response","403","868221","0.0-6.0-0.61","","img/orange.png","32","trial","32","true","0.6,0.4","1:go_a","",""
"null","","html-keyboard-response","404","869227","0.0-6.0-1.61","","<img src=""img/orange-n.png"" border=""10"">","null","trial","32","","0.6,0.4","1:go_a","0",""
"null","","html-keyboard-response","405","870232","0.0-6.0-2.61","","<div style=""font-size:60px;"">+</div>","null","","","","","","",""
"621.259999985341","","image-keyboard-response","406","870854","0.0-6.0-0.62","","img/pink.png","32","trial","null","false","0.4,0.6","4:nogo_d","",""
"null","","html-keyboard-response","407","871859","0.0-6.0-1.62","","<img src=""img/pink-n.png"" border=""10"">","null","trial","null","","0.4,0.6","4:nogo_d","0",""
"null","","html-keyboard-response","408","872860","0.0-6.0-2.62","","<div style=""font-size:60px;"">+</div>","null","","","","","","",""
"null","","image-keyboard-response","409","874366","0.0-6.0-0.63","","img/yellow.png","null","trial","null","true","0.4,0.6","2:nogo_b","",""
"null","","html-keyboard-response","410","875369","0.0-6.0-1.63","","<img src=""img/yellow-n.png"">","null","trial","null","","0.4,0.6","2:nogo_b","0",""
"null","","html-keyboard-response","411","876373","0.0-6.0-2.63","","<div style=""font-size:60px;"">+</div>","null","","","","","","",""
"334.2399999964982","","image-keyboard-response","412","876709","0.0-6.0-0.64","","img/yellow.png","32","trial","null","false","0.4,0.6","2:nogo_b","",""
"null","","html-keyboard-response","413","877714","0.0-6.0-1.64","","<img src=""img/yellow-n.png"" border=""10"">","null","trial","null","","0.4,0.6","2:nogo_b","0",""
"null","","html-keyboard-response","414","878719","0.0-6.0-2.64","","<div style=""font-size:60px;"">+</div>","null","","","","","","",""
"333.3250000141561","","image-keyboard-response","415","879053","0.0-6.0-0.65","","img/green.png","32","trial","32","true","0.6,0.4","3:go_c","",""
"null","","html-keyboard-response","416","880059","0.0-6.0-1.65","","<img src=""img/green-n.png"" border=""10"">","null","trial","32","","0.6,0.4","3:go_c","0",""
"null","","html-keyboard-response","417","881063","0.0-6.0-2.65","","<div style=""font-size:60px;"">+</div>","null","","","","","","",""
"292.66000003553927","","image-keyboard-response","418","881357","0.0-6.0-0.66","","img/orange.png","32","trial","32","true","0.6,0.4","1:go_a","",""
"null","","html-keyboard-response","419","882364","0.0-6.0-1.66","","<img src=""img/orange-n.png"" border=""10"">","null","trial","32","","0.6,0.4","1:go_a","0",""
"null","","html-keyboard-response","420","883368","0.0-6.0-2.66","","<div style=""font-size:60px;"">+</div>","null","","","","","","",""
"274.77999997790903","","image-keyboard-response","421","883644","0.0-6.0-0.67","","img/pink.png","32","trial","null","false","0.4,0.6","4:nogo_d","",""
"null","","html-keyboard-response","422","884651","0.0-6.0-1.67","","<img src=""img/pink-n.png"" border=""10"">","null","trial","null","","0.4,0.6","4:nogo_d","0",""
"null","","html-keyboard-response","423","885655","0.0-6.0-2.67","","<div style=""font-size:60px;"">+</div>","null","","","","","","",""
"null","","image-keyboard-response","424","887159","0.0-6.0-0.68","","img/orange.png","null","trial","32","false","0.6,0.4","1:go_a","",""
"null","","html-keyboard-response","425","888162","0.0-6.0-1.68","","<img src=""img/orange-n.png"">","null","trial","32","","0.6,0.4","1:go_a","0",""
"null","","html-keyboard-response","426","889169","0.0-6.0-2.68","","<div style=""font-size:60px;"">+</div>","null","","","","","","",""
"593.0850000004284","","image-keyboard-response","427","889763","0.0-6.0-0.69","","img/yellow.png","32","trial","null","false","0.4,0.6","2:nogo_b","",""
"null","","html-keyboard-response","428","890769","0.0-6.0-1.69","","<img src=""img/yellow-n.png"" border=""10"">","null","trial","null","","0.4,0.6","2:nogo_b","0",""
"null","","html-keyboard-response","429","891773","0.0-6.0-2.69","","<div style=""font-size:60px;"">+</div>","null","","","","","","",""
"453.94500001566485","","image-keyboard-response","430","892229","0.0-6.0-0.70","","img/green.png","32","trial","32","true","0.6,0.4","3:go_c","",""
"null","","html-keyboard-response","431","893236","0.0-6.0-1.70","","<img src=""img/green-r.png"" border=""10"">","null","trial","32","","0.6,0.4","3:go_c","1",""
"null","","html-keyboard-response","432","894240","0.0-6.0-2.70","","<div style=""font-size:60px;"">+</div>","null","","","","","","",""
"395.27500001713634","","image-keyboard-response","433","894637","0.0-6.0-0.71","","img/pink.png","32","trial","null","false","0.4,0.6","4:nogo_d","",""
"null","","html-keyboard-response","434","895643","0.0-6.0-1.71","","<img src=""img/pink-r.png"" border=""10"">","null","trial","null","","0.4,0.6","4:nogo_d","1",""
"null","","html-keyboard-response","435","896645","0.0-6.0-2.71","","<div style=""font-size:60px;"">+</div>","null","","","","","","",""
"670.0049999635667","","image-keyboard-response","436","897316","0.0-6.0-0.72","","img/yellow.png","32","trial","null","false","0.4,0.6","2:nogo_b","",""
"null","","html-keyboard-response","437","898321","0.0-6.0-1.72","","<img src=""img/yellow-r.png"" border=""10"">","null","trial","null","","0.4,0.6","2:nogo_b","1",""
"null","","html-keyboard-response","438","899326","0.0-6.0-2.72","","<div style=""font-size:60px;"">+</div>","null","","","","","","",""
"null","","image-keyboard-response","439","900829","0.0-6.0-0.73","","img/orange.png","null","trial","32","false","0.6,0.4","1:go_a","",""
"null","","html-keyboard-response","440","901833","0.0-6.0-1.73","","<img src=""img/orange-r.png"">","null","trial","32","","0.6,0.4","1:go_a","1",""
"null","","html-keyboard-response","441","902838","0.0-6.0-2.73","","<div style=""font-size:60px;"">+</div>","null","","","","","","",""
"421.4849999989383","","image-keyboard-response","442","903261","0.0-6.0-0.74","","img/green.png","32","trial","32","true","0.6,0.4","3:go_c","",""
"null","","html-keyboard-response","443","904266","0.0-6.0-1.74","","<img src=""img/green-r.png"" border=""10"">","null","trial","32","","0.6,0.4","3:go_c","1",""
"null","","html-keyboard-response","444","905270","0.0-6.0-2.74","","<div style=""font-size:60px;"">+</div>","null","","","","","","",""
"781.7149999900721","","image-keyboard-response","445","906053","0.0-6.0-0.75","","img/pink.png","32","trial","null","false","0.4,0.6","4:nogo_d","",""
"null","","html-keyboard-response","446","907058","0.0-6.0-1.75","","<img src=""img/pink-n.png"" border=""10"">","null","trial","null","","0.4,0.6","4:nogo_d","0",""
"null","","html-keyboard-response","447","908062","0.0-6.0-2.75","","<div style=""font-size:60px;"">+</div>","null","","","","","","",""
"571.1799999698997","","image-keyboard-response","448","908635","0.0-6.0-0.76","","img/pink.png","32","trial","null","false","0.4,0.6","4:nogo_d","",""
"null","","html-keyboard-response","449","909641","0.0-6.0-1.76","","<img src=""img/pink-r.png"" border=""10"">","null","trial","null","","0.4,0.6","4:nogo_d","1",""
"null","","html-keyboard-response","450","910645","0.0-6.0-2.76","","<div style=""font-size:60px;"">+</div>","null","","","","","","",""
"540.7849999610335","","image-keyboard-response","451","911187","0.0-6.0-0.77","","img/orange.png","32","trial","32","true","0.6,0.4","1:go_a","",""
"null","","html-keyboard-response","452","912189","0.0-6.0-1.77","","<img src=""img/orange-n.png"" border=""10"">","null","trial","32","","0.6,0.4","1:go_a","0",""
"null","","html-keyboard-response","453","913194","0.0-6.0-2.77","","<div style=""font-size:60px;"">+</div>","null","","","","","","",""
"443.6899999855086","","image-keyboard-response","454","913639","0.0-6.0-0.78","","img/green.png","32","trial","32","true","0.6,0.4","3:go_c","",""
"null","","html-keyboard-response","455","914645","0.0-6.0-1.78","","<img src=""img/green-r.png"" border=""10"">","null","trial","32","","0.6,0.4","3:go_c","1",""
"null","","html-keyboard-response","456","915649","0.0-6.0-2.78","","<div style=""font-size:60px;"">+</div>","null","","","","","","",""
"330.2399999811314","","image-keyboard-response","457","915981","0.0-6.0-0.79","","img/yellow.png","32","trial","null","false","0.4,0.6","2:nogo_b","",""
"null","","html-keyboard-response","458","916984","0.0-6.0-1.79","","<img src=""img/yellow-r.png"" border=""10"">","null","trial","null","","0.4,0.6","2:nogo_b","1",""
"null","","html-keyboard-response","459","917988","0.0-6.0-2.79","","<div style=""font-size:60px;"">+</div>","null","","","","","","",""
"null","","image-keyboard-response","460","919494","0.0-6.0-0.80","","img/pink.png","null","trial","null","true","0.4,0.6","4:nogo_d","",""
"null","","html-keyboard-response","461","920502","0.0-6.0-1.80","","<img src=""img/pink-r.png"">","null","trial","null","","0.4,0.6","4:nogo_d","1",""
"null","","html-keyboard-response","462","921506","0.0-6.0-2.80","","<div style=""font-size:60px;"">+</div>","null","","","","","","",""
"384.70000005327165","","image-keyboard-response","463","921892","0.0-6.0-0.81","","img/yellow.png","32","trial","null","false","0.4,0.6","2:nogo_b","",""
"null","","html-keyboard-response","464","922899","0.0-6.0-1.81","","<img src=""img/yellow-r.png"" border=""10"">","null","trial","null","","0.4,0.6","2:nogo_b","1",""
"null","","html-keyboard-response","465","923903","0.0-6.0-2.81","","<div style=""font-size:60px;"">+</div>","null","","","","","","",""
"402.11000002454966","","image-keyboard-response","466","924307","0.0-6.0-0.82","","img/green.png","32","trial","32","true","0.6,0.4","3:go_c","",""
"null","","html-keyboard-response","467","925311","0.0-6.0-1.82","","<img src=""img/green-r.png"" border=""10"">","null","trial","32","","0.6,0.4","3:go_c","1",""
"null","","html-keyboard-response","468","926313","0.0-6.0-2.82","","<div style=""font-size:60px;"">+</div>","null","","","","","","",""
"null","","image-keyboard-response","469","927816","0.0-6.0-0.83","","img/orange.png","null","trial","32","false","0.6,0.4","1:go_a","",""
"null","","html-keyboard-response","470","928822","0.0-6.0-1.83","","<img src=""img/orange-r.png"">","null","trial","32","","0.6,0.4","1:go_a","1",""
"null","","html-keyboard-response","471","929824","0.0-6.0-2.83","","<div style=""font-size:60px;"">+</div>","null","","","","","","",""
"353.94499998074025","","image-keyboard-response","472","930180","0.0-6.0-0.84","","img/orange.png","32","trial","32","true","0.6,0.4","1:go_a","",""
"null","","html-keyboard-response","473","931182","0.0-6.0-1.84","","<img src=""img/orange-r.png"" border=""10"">","null","trial","32","","0.6,0.4","1:go_a","1",""
"null","","html-keyboard-response","474","932187","0.0-6.0-2.84","","<div style=""font-size:60px;"">+</div>","null","","","","","","",""
"327.4150000070222","","image-keyboard-response","475","932516","0.0-6.0-0.85","","img/green.png","32","trial","32","true","0.6,0.4","3:go_c","",""
"null","","html-keyboard-response","476","933522","0.0-6.0-1.85","","<img src=""img/green-r.png"" border=""10"">","null","trial","32","","0.6,0.4","3:go_c","1",""
"null","","html-keyboard-response","477","934526","0.0-6.0-2.85","","<div style=""font-size:60px;"">+</div>","null","","","","","","",""
"386.4449999528006","","image-keyboard-response","478","934914","0.0-6.0-0.86","","img/pink.png","32","trial","null","false","0.4,0.6","4:nogo_d","",""
"null","","html-keyboard-response","479","935919","0.0-6.0-1.86","","<img src=""img/pink-n.png"" border=""10"">","null","trial","null","","0.4,0.6","4:nogo_d","0",""
"null","","html-keyboard-response","480","936923","0.0-6.0-2.86","","<div style=""font-size:60px;"">+</div>","null","","","","","","",""
"319.4899999652989","","image-keyboard-response","481","937244","0.0-6.0-0.87","","img/yellow.png","32","trial","null","false","0.4,0.6","2:nogo_b","",""
"null","","html-keyboard-response","482","938247","0.0-6.0-1.87","","<img src=""img/yellow-r.png"" border=""10"">","null","trial","null","","0.4,0.6","2:nogo_b","1",""
"null","","html-keyboard-response","483","939252","0.0-6.0-2.87","","<div style=""font-size:60px;"">+</div>","null","","","","","","",""
"374.3100000428967","","image-keyboard-response","484","939628","0.0-6.0-0.88","","img/pink.png","32","trial","null","false","0.4,0.6","4:nogo_d","",""
"null","","html-keyboard-response","485","940633","0.0-6.0-1.88","","<img src=""img/pink-n.png"" border=""10"">","null","trial","null","","0.4,0.6","4:nogo_d","0",""
"null","","html-keyboard-response","486","941637","0.0-6.0-2.88","","<div style=""font-size:60px;"">+</div>","null","","","","","","",""
"589.090000023134","","image-keyboard-response","487","942228","0.0-6.0-0.89","","img/yellow.png","32","trial","null","false","0.4,0.6","2:nogo_b","",""
"null","","html-keyboard-response","488","943234","0.0-6.0-1.89","","<img src=""img/yellow-n.png"" border=""10"">","null","trial","null","","0.4,0.6","2:nogo_b","0",""
"null","","html-keyboard-response","489","944238","0.0-6.0-2.89","","<div style=""font-size:60px;"">+</div>","null","","","","","","",""
"467.99500001361594","","image-keyboard-response","490","944707","0.0-6.0-0.90","","img/green.png","32","trial","32","true","0.6,0.4","3:go_c","",""
"null","","html-keyboard-response","491","945712","0.0-6.0-1.90","","<img src=""img/green-n.png"" border=""10"">","null","trial","32","","0.6,0.4","3:go_c","0",""
"null","","html-keyboard-response","492","946716","0.0-6.0-2.90","","<div style=""font-size:60px;"">+</div>","null","","","","","","",""
"757.2049999726005","","image-keyboard-response","493","947474","0.0-6.0-0.91","","img/orange.png","32","trial","32","true","0.6,0.4","1:go_a","",""
"null","","html-keyboard-response","494","948481","0.0-6.0-1.91","","<img src=""img/orange-n.png"" border=""10"">","null","trial","32","","0.6,0.4","1:go_a","0",""
"null","","html-keyboard-response","495","949485","0.0-6.0-2.91","","<div style=""font-size:60px;"">+</div>","null","","","","","","",""
"340.42500000214204","","image-keyboard-response","496","949827","0.0-6.0-0.92","","img/yellow.png","32","trial","null","false","0.4,0.6","2:nogo_b","",""
"null","","html-keyboard-response","497","950832","0.0-6.0-1.92","","<img src=""img/yellow-n.png"" border=""10"">","null","trial","null","","0.4,0.6","2:nogo_b","0",""
"null","","html-keyboard-response","498","951836","0.0-6.0-2.92","","<div style=""font-size:60px;"">+</div>","null","","","","","","",""
"null","","image-keyboard-response","499","953339","0.0-6.0-0.93","","img/pink.png","null","trial","null","true","0.4,0.6","4:nogo_d","",""
"null","","html-keyboard-response","500","954344","0.0-6.0-1.93","","<img src=""img/pink-n.png"">","null","trial","null","","0.4,0.6","4:nogo_d","0",""
"null","","html-keyboard-response","501","955348","0.0-6.0-2.93","","<div style=""font-size:60px;"">+</div>","null","","","","","","",""
"453.1800000113435","","image-keyboard-response","502","955804","0.0-6.0-0.94","","img/orange.png","32","trial","32","true","0.6,0.4","1:go_a","",""
"null","","html-keyboard-response","503","956811","0.0-6.0-1.94","","<img src=""img/orange-r.png"" border=""10"">","null","trial","32","","0.6,0.4","1:go_a","1",""
"null","","html-keyboard-response","504","957816","0.0-6.0-2.94","","<div style=""font-size:60px;"">+</div>","null","","","","","","",""
"384.72000003093854","","image-keyboard-response","505","958202","0.0-6.0-0.95","","img/green.png","32","trial","32","true","0.6,0.4","3:go_c","",""
"null","","html-keyboard-response","506","959206","0.0-6.0-1.95","","<img src=""img/green-n.png"" border=""10"">","null","trial","32","","0.6,0.4","3:go_c","0",""
"null","","html-keyboard-response","507","960207","0.0-6.0-2.95","","<div style=""font-size:60px;"">+</div>","null","","","","","","",""
"null","","image-keyboard-response","508","961711","0.0-6.0-0.96","","img/pink.png","null","trial","null","true","0.4,0.6","4:nogo_d","",""
"null","","html-keyboard-response","509","962715","0.0-6.0-1.96","","<img src=""img/pink-n.png"">","null","trial","null","","0.4,0.6","4:nogo_d","0",""
"null","","html-keyboard-response","510","963719","0.0-6.0-2.96","","<div style=""font-size:60px;"">+</div>","null","","","","","","",""
"434.9400000064634","","image-keyboard-response","511","964156","0.0-6.0-0.97","","img/green.png","32","trial","32","true","0.6,0.4","3:go_c","",""
"null","","html-keyboard-response","512","965160","0.0-6.0-1.97","","<img src=""img/green-n.png"" border=""10"">","null","trial","32","","0.6,0.4","3:go_c","0",""
"null","","html-keyboard-response","513","966163","0.0-6.0-2.97","","<div style=""font-size:60px;"">+</div>","null","","","","","","",""
"479.0250000078231","","image-keyboard-response","514","966644","0.0-6.0-0.98","","img/orange.png","32","trial","32","true","0.6,0.4","1:go_a","",""
"null","","html-keyboard-response","515","967649","0.0-6.0-1.98","","<img src=""img/orange-r.png"" border=""10"">","null","trial","32","","0.6,0.4","1:go_a","1",""
"null","","html-keyboard-response","516","968653","0.0-6.0-2.98","","<div style=""font-size:60px;"">+</div>","null","","","","","","",""
"348.3199999900535","","image-keyboard-response","517","969002","0.0-6.0-0.99","","img/yellow.png","32","trial","null","false","0.4,0.6","2:nogo_b","",""
"null","","html-keyboard-response","518","970007","0.0-6.0-1.99","","<img src=""img/yellow-n.png"" border=""10"">","null","trial","null","","0.4,0.6","2:nogo_b","0",""
"null","","html-keyboard-response","519","971010","0.0-6.0-2.99","","<div style=""font-size:60px;"">+</div>","null","","","","","","",""
"775.1550000393763","","image-keyboard-response","520","971787","0.0-6.0-0.100","","img/orange.png","32","trial","32","true","0.6,0.4","1:go_a","",""
"null","","html-keyboard-response","521","972792","0.0-6.0-1.100","","<img src=""img/orange-r.png"" border=""10"">","null","trial","32","","0.6,0.4","1:go_a","1",""
"null","","html-keyboard-response","522","973796","0.0-6.0-2.100","","<div style=""font-size:60px;"">+</div>","null","","","","","","",""
"622.0350000075996","","image-keyboard-response","523","974420","0.0-6.0-0.101","","img/pink.png","32","trial","null","false","0.4,0.6","4:nogo_d","",""
"null","","html-keyboard-response","524","975422","0.0-6.0-1.101","","<img src=""img/pink-n.png"" border=""10"">","null","trial","null","","0.4,0.6","4:nogo_d","0",""
"null","","html-keyboard-response","525","976426","0.0-6.0-2.101","","<div style=""font-size:60px;"">+</div>","null","","","","","","",""
"null","","image-keyboard-response","526","977929","0.0-6.0-0.102","","img/green.png","null","trial","32","false","0.6,0.4","3:go_c","",""
"null","","html-keyboard-response","527","978934","0.0-6.0-1.102","","<img src=""img/green-n.png"">","null","trial","32","","0.6,0.4","3:go_c","0",""
"null","","html-keyboard-response","528","979938","0.0-6.0-2.102","","<div style=""font-size:60px;"">+</div>","null","","","","","","",""
"847.4099999875762","","image-keyboard-response","529","980786","0.0-6.0-0.103","","img/yellow.png","32","trial","null","false","0.4,0.6","2:nogo_b","",""
"null","","html-keyboard-response","530","981789","0.0-6.0-1.103","","<img src=""img/yellow-r.png"" border=""10"">","null","trial","null","","0.4,0.6","2:nogo_b","1",""
"null","","html-keyboard-response","531","982794","0.0-6.0-2.103","","<div style=""font-size:60px;"">+</div>","null","","","","","","",""
"null","","image-keyboard-response","532","984297","0.0-6.0-0.104","","img/green.png","null","trial","32","false","0.6,0.4","3:go_c","",""
"null","","html-keyboard-response","533","985302","0.0-6.0-1.104","","<img src=""img/green-r.png"">","null","trial","32","","0.6,0.4","3:go_c","1",""
"null","","html-keyboard-response","534","986305","0.0-6.0-2.104","","<div style=""font-size:60px;"">+</div>","null","","","","","","",""
"472.59000001940876","","image-keyboard-response","535","986779","0.0-6.0-0.105","","img/pink.png","32","trial","null","false","0.4,0.6","4:nogo_d","",""
"null","","html-keyboard-response","536","987786","0.0-6.0-1.105","","<img src=""img/pink-n.png"" border=""10"">","null","trial","null","","0.4,0.6","4:nogo_d","0",""
"null","","html-keyboard-response","537","988789","0.0-6.0-2.105","","<div style=""font-size:60px;"">+</div>","null","","","","","","",""
"468.5250000329688","","image-keyboard-response","538","989259","0.0-6.0-0.106","","img/orange.png","32","trial","32","true","0.6,0.4","1:go_a","",""
"null","","html-keyboard-response","539","990264","0.0-6.0-1.106","","<img src=""img/orange-r.png"" border=""10"">","null","trial","32","","0.6,0.4","1:go_a","1",""
"null","","html-keyboard-response","540","991268","0.0-6.0-2.106","","<div style=""font-size:60px;"">+</div>","null","","","","","","",""
"460.2100000483915","","image-keyboard-response","541","991730","0.0-6.0-0.107","","img/yellow.png","32","trial","null","false","0.4,0.6","2:nogo_b","",""
"null","","html-keyboard-response","542","992734","0.0-6.0-1.107","","<img src=""img/yellow-n.png"" border=""10"">","null","trial","null","","0.4,0.6","2:nogo_b","0",""
"null","","html-keyboard-response","543","993740","0.0-6.0-2.107","","<div style=""font-size:60px;"">+</div>","null","","","","","","",""
"454.8899999936111","","image-keyboard-response","544","994197","0.0-6.0-0.108","","img/green.png","32","trial","32","true","0.6,0.4","3:go_c","",""
"null","","html-keyboard-response","545","995199","0.0-6.0-1.108","","<img src=""img/green-n.png"" border=""10"">","null","trial","32","","0.6,0.4","3:go_c","0",""
"null","","html-keyboard-response","546","996203","0.0-6.0-2.108","","<div style=""font-size:60px;"">+</div>","null","","","","","","",""
"313.45000001601875","","image-keyboard-response","547","996517","0.0-6.0-0.109","","img/pink.png","32","trial","null","false","0.4,0.6","4:nogo_d","",""
"null","","html-keyboard-response","548","997521","0.0-6.0-1.109","","<img src=""img/pink-r.png"" border=""10"">","null","trial","null","","0.4,0.6","4:nogo_d","1",""
"null","","html-keyboard-response","549","998525","0.0-6.0-2.109","","<div style=""font-size:60px;"">+</div>","null","","","","","","",""
"null","","image-keyboard-response","550","1000028","0.0-6.0-0.110","","img/orange.png","null","trial","32","false","0.6,0.4","1:go_a","",""
"null","","html-keyboard-response","551","1001033","0.0-6.0-1.110","","<img src=""img/orange-n.png"">","null","trial","32","","0.6,0.4","1:go_a","0",""
"null","","html-keyboard-response","552","1002037","0.0-6.0-2.110","","<div style=""font-size:60px;"">+</div>","null","","","","","","",""
"874.0699999616481","","image-keyboard-response","553","1002913","0.0-6.0-0.111","","img/yellow.png","32","trial","null","false","0.4,0.6","2:nogo_b","",""
"null","","html-keyboard-response","554","1003917","0.0-6.0-1.111","","<img src=""img/yellow-n.png"" border=""10"">","null","trial","null","","0.4,0.6","2:nogo_b","0",""
"null","","html-keyboard-response","555","1004922","0.0-6.0-2.111","","<div style=""font-size:60px;"">+</div>","null","","","","","","",""
"439.4149999716319","","image-keyboard-response","556","1005363","0.0-6.0-0.112","","img/pink.png","32","trial","null","false","0.4,0.6","4:nogo_d","",""
"null","","html-keyboard-response","557","1006367","0.0-6.0-1.112","","<img src=""img/pink-n.png"" border=""10"">","null","trial","null","","0.4,0.6","4:nogo_d","0",""
"null","","html-keyboard-response","558","1007372","0.0-6.0-2.112","","<div style=""font-size:60px;"">+</div>","null","","","","","","",""
"453.2300000428222","","image-keyboard-response","559","1007826","0.0-6.0-0.113","","img/green.png","32","trial","32","true","0.6,0.4","3:go_c","",""
"null","","html-keyboard-response","560","1008833","0.0-6.0-1.113","","<img src=""img/green-n.png"" border=""10"">","null","trial","32","","0.6,0.4","3:go_c","0",""
"null","","html-keyboard-response","561","1009839","0.0-6.0-2.113","","<div style=""font-size:60px;"">+</div>","null","","","","","","",""
"474.4250000221655","","image-keyboard-response","562","1010315","0.0-6.0-0.114","","img/orange.png","32","trial","32","true","0.6,0.4","1:go_a","",""
"null","","html-keyboard-response","563","1011325","0.0-6.0-1.114","","<img src=""img/orange-r.png"" border=""10"">","null","trial","32","","0.6,0.4","1:go_a","1",""
"null","","html-keyboard-response","564","1012329","0.0-6.0-2.114","","<div style=""font-size:60px;"">+</div>","null","","","","","","",""
"null","","image-keyboard-response","565","1013832","0.0-6.0-0.115","","img/yellow.png","null","trial","null","true","0.4,0.6","2:nogo_b","",""
"null","","html-keyboard-response","566","1014837","0.0-6.0-1.115","","<img src=""img/yellow-n.png"">","null","trial","null","","0.4,0.6","2:nogo_b","0",""
"null","","html-keyboard-response","567","1015841","0.0-6.0-2.115","","<div style=""font-size:60px;"">+</div>","null","","","","","","",""
"446.689999953378","","image-keyboard-response","568","1016289","0.0-6.0-0.116","","img/orange.png","32","trial","32","true","0.6,0.4","1:go_a","",""
"null","","html-keyboard-response","569","1017292","0.0-6.0-1.116","","<img src=""img/orange-n.png"" border=""10"">","null","trial","32","","0.6,0.4","1:go_a","0",""
"null","","html-keyboard-response","570","1018296","0.0-6.0-2.116","","<div style=""font-size:60px;"">+</div>","null","","","","","","",""
"null","","image-keyboard-response","571","1019800","0.0-6.0-0.117","","img/yellow.png","null","trial","null","true","0.4,0.6","2:nogo_b","",""
"null","","html-keyboard-response","572","1020804","0.0-6.0-1.117","","<img src=""img/yellow-r.png"">","null","trial","null","","0.4,0.6","2:nogo_b","1",""
"null","","html-keyboard-response","573","1021808","0.0-6.0-2.117","","<div style=""font-size:60px;"">+</div>","null","","","","","","",""
"431.2200000276789","","image-keyboard-response","574","1022242","0.0-6.0-0.118","","img/green.png","32","trial","32","true","0.6,0.4","3:go_c","",""
"null","","html-keyboard-response","575","1023248","0.0-6.0-1.118","","<img src=""img/green-n.png"" border=""10"">","null","trial","32","","0.6,0.4","3:go_c","0",""
"null","","html-keyboard-response","576","1024252","0.0-6.0-2.118","","<div style=""font-size:60px;"">+</div>","null","","","","","","",""
"676.3800000189804","","image-keyboard-response","577","1024930","0.0-6.0-0.119","","img/pink.png","32","trial","null","false","0.4,0.6","4:nogo_d","",""
"null","","html-keyboard-response","578","1025936","0.0-6.0-1.119","","<img src=""img/pink-r.png"" border=""10"">","null","trial","null","","0.4,0.6","4:nogo_d","1",""
"null","","html-keyboard-response","579","1026940","0.0-6.0-2.119","","<div style=""font-size:60px;"">+</div>","null","","","","","","",""
"4334323.845000006","","instructions","580","5361175","0.0-7.0","[{""page_index"":0,""viewing_time"":4334322.765000048}]","","","","","","","","",""
"874.5650000050664","","image-keyboard-response","581","5362058","0.0-8.0-0.0","","img/green.png","32","trial","null","false","0.2,0.8","2:nogo_b","",""
"null","","html-keyboard-response","582","5363064","0.0-8.0-1.0","","<img src=""img/green-n.png"" border=""10"">","null","trial","null","","0.2,0.8","2:nogo_b","0",""
"null","","html-keyboard-response","583","5364065","0.0-8.0-2.0","","<div style=""font-size:60px;"">+</div>","null","","","","","","",""
"309.015000006184","","image-keyboard-response","584","5364377","0.0-8.0-0.1","","img/red.png","32","trial","null","false","0.2,0.8","4:nogo_d","",""
"null","","html-keyboard-response","585","5365389","0.0-8.0-1.1","","<img src=""img/red-n.png"" border=""10"">","null","trial","null","","0.2,0.8","4:nogo_d","0",""
"null","","html-keyboard-response","586","5366393","0.0-8.0-2.1","","<div style=""font-size:60px;"">+</div>","null","","","","","","",""
"390.11999999545515","","image-keyboard-response","587","5366785","0.0-8.0-0.2","","img/orange.png","32","trial","32","true","0.8,0.2","1:go_a","",""
"null","","html-keyboard-response","588","5367792","0.0-8.0-1.2","","<img src=""img/orange-r.png"" border=""10"">","null","trial","32","","0.8,0.2","1:go_a","1",""
"null","","html-keyboard-response","589","5368796","0.0-8.0-2.2","","<div style=""font-size:60px;"">+</div>","null","","","","","","",""
"306.79499998223037","","image-keyboard-response","590","5369104","0.0-8.0-0.3","","img/yellow.png","32","trial","32","true","0.8,0.2","3:go_c","",""
"null","","html-keyboard-response","591","5370108","0.0-8.0-1.3","","<img src=""img/yellow-r.png"" border=""10"">","null","trial","32","","0.8,0.2","3:go_c","1",""
"null","","html-keyboard-response","592","5371114","0.0-8.0-2.3","","<div style=""font-size:60px;"">+</div>","null","","","","","","",""
"547.3099999940023","","image-keyboard-response","593","5371663","0.0-8.0-0.4","","img/green.png","32","trial","null","false","0.2,0.8","2:nogo_b","",""
"null","","html-keyboard-response","594","5372668","0.0-8.0-1.4","","<img src=""img/green-n.png"" border=""10"">","null","trial","null","","0.2,0.8","2:nogo_b","0",""
"null","","html-keyboard-response","595","5373672","0.0-8.0-2.4","","<div style=""font-size:60px;"">+</div>","null","","","","","","",""
"558.8550000097603","","image-keyboard-response","596","5374233","0.0-8.0-0.5","","img/orange.png","32","trial","32","true","0.8,0.2","1:go_a","",""
"null","","html-keyboard-response","597","5375238","0.0-8.0-1.5","","<img src=""img/orange-r.png"" border=""10"">","null","trial","32","","0.8,0.2","1:go_a","1",""
"null","","html-keyboard-response","598","5376244","0.0-8.0-2.5","","<div style=""font-size:60px;"">+</div>","null","","","","","","",""
"563.3350000130013","","image-keyboard-response","599","5376809","0.0-8.0-0.6","","img/yellow.png","32","trial","32","true","0.8,0.2","3:go_c","",""
"null","","html-keyboard-response","600","5377816","0.0-8.0-1.6","","<img src=""img/yellow-n.png"" border=""10"">","null","trial","32","","0.8,0.2","3:go_c","0",""
"null","","html-keyboard-response","601","5378821","0.0-8.0-2.6","","<div style=""font-size:60px;"">+</div>","null","","","","","","",""
"null","","image-keyboard-response","602","5380324","0.0-8.0-0.7","","img/red.png","null","trial","null","true","0.2,0.8","4:nogo_d","",""
"null","","html-keyboard-response","603","5381329","0.0-8.0-1.7","","<img src=""img/red-r.png"">","null","trial","null","","0.2,0.8","4:nogo_d","1",""
"null","","html-keyboard-response","604","5382333","0.0-8.0-2.7","","<div style=""font-size:60px;"">+</div>","null","","","","","","",""
"441.09500001650304","","image-keyboard-response","605","5382776","0.0-8.0-0.8","","img/orange.png","32","trial","32","true","0.8,0.2","1:go_a","",""
"null","","html-keyboard-response","606","5383778","0.0-8.0-1.8","","<img src=""img/orange-r.png"" border=""10"">","null","trial","32","","0.8,0.2","1:go_a","1",""
"null","","html-keyboard-response","607","5384783","0.0-8.0-2.8","","<div style=""font-size:60px;"">+</div>","null","","","","","","",""
"446.5949999857694","","image-keyboard-response","608","5385231","0.0-8.0-0.9","","img/red.png","32","trial","null","false","0.2,0.8","4:nogo_d","",""
"null","","html-keyboard-response","609","5386234","0.0-8.0-1.9","","<img src=""img/red-n.png"" border=""10"">","null","trial","null","","0.2,0.8","4:nogo_d","0",""
"null","","html-keyboard-response","610","5387238","0.0-8.0-2.9","","<div style=""font-size:60px;"">+</div>","null","","","","","","",""
"670.9999999729916","","image-keyboard-response","611","5387912","0.0-8.0-0.10","","img/yellow.png","32","trial","32","true","0.8,0.2","3:go_c","",""
"null","","html-keyboard-response","612","5388916","0.0-8.0-1.10","","<img src=""img/yellow-r.png"" border=""10"">","null","trial","32","","0.8,0.2","3:go_c","1",""
"null","","html-keyboard-response","613","5389920","0.0-8.0-2.10","","<div style=""font-size:60px;"">+</div>","null","","","","","","",""
"429.3600000096485","","image-keyboard-response","614","5390352","0.0-8.0-0.11","","img/green.png","32","trial","null","false","0.2,0.8","2:nogo_b","",""
"null","","html-keyboard-response","615","5391354","0.0-8.0-1.11","","<img src=""img/green-n.png"" border=""10"">","null","trial","null","","0.2,0.8","2:nogo_b","0",""
"null","","html-keyboard-response","616","5392359","0.0-8.0-2.11","","<div style=""font-size:60px;"">+</div>","null","","","","","","",""
"472.4500000011176","","image-keyboard-response","617","5392832","0.0-8.0-0.12","","img/yellow.png","32","trial","32","true","0.8,0.2","3:go_c","",""
"null","","html-keyboard-response","618","5393838","0.0-8.0-1.12","","<img src=""img/yellow-r.png"" border=""10"">","null","trial","32","","0.8,0.2","3:go_c","1",""
"null","","html-keyboard-response","619","5394842","0.0-8.0-2.12","","<div style=""font-size:60px;"">+</div>","null","","","","","","",""
"null","","image-keyboard-response","620","5396346","0.0-8.0-0.13","","img/orange.png","null","trial","32","false","0.8,0.2","1:go_a","",""
"null","","html-keyboard-response","621","5397350","0.0-8.0-1.13","","<img src=""img/orange-n.png"">","null","trial","32","","0.8,0.2","1:go_a","0",""
"null","","html-keyboard-response","622","5398354","0.0-8.0-2.13","","<div style=""font-size:60px;"">+</div>","null","","","","","","",""
"451.4600000111386","","image-keyboard-response","623","5398807","0.0-8.0-0.14","","img/red.png","32","trial","null","false","0.2,0.8","4:nogo_d","",""
"null","","html-keyboard-response","624","5399811","0.0-8.0-1.14","","<img src=""img/red-n.png"" border=""10"">","null","trial","null","","0.2,0.8","4:nogo_d","0",""
"null","","html-keyboard-response","625","5400816","0.0-8.0-2.14","","<div style=""font-size:60px;"">+</div>","null","","","","","","",""
"null","","image-keyboard-response","626","5402319","0.0-8.0-0.15","","img/green.png","null","trial","null","true","0.2,0.8","2:nogo_b","",""
"null","","html-keyboard-response","627","5403323","0.0-8.0-1.15","","<img src=""img/green-r.png"">","null","trial","null","","0.2,0.8","2:nogo_b","1",""
"null","","html-keyboard-response","628","5404328","0.0-8.0-2.15","","<div style=""font-size:60px;"">+</div>","null","","","","","","",""
"461.66999998968095","","image-keyboard-response","629","5404791","0.0-8.0-0.16","","img/green.png","32","trial","null","false","0.2,0.8","2:nogo_b","",""
"null","","html-keyboard-response","630","5405796","0.0-8.0-1.16","","<img src=""img/green-n.png"" border=""10"">","null","trial","null","","0.2,0.8","2:nogo_b","0",""
"null","","html-keyboard-response","631","5406801","0.0-8.0-2.16","","<div style=""font-size:60px;"">+</div>","null","","","","","","",""
"325.55000000819564","","image-keyboard-response","632","5407128","0.0-8.0-0.17","","img/orange.png","32","trial","32","true","0.8,0.2","1:go_a","",""
"null","","html-keyboard-response","633","5408135","0.0-8.0-1.17","","<img src=""img/orange-r.png"" border=""10"">","null","trial","32","","0.8,0.2","1:go_a","1",""
"null","","html-keyboard-response","634","5409139","0.0-8.0-2.17","","<div style=""font-size:60px;"">+</div>","null","","","","","","",""
"338.55499996617436","","image-keyboard-response","635","5409480","0.0-8.0-0.18","","img/yellow.png","32","trial","32","true","0.8,0.2","3:go_c","",""
"null","","html-keyboard-response","636","5410486","0.0-8.0-1.18","","<img src=""img/yellow-r.png"" border=""10"">","null","trial","32","","0.8,0.2","3:go_c","1",""
"null","","html-keyboard-response","637","5411491","0.0-8.0-2.18","","<div style=""font-size:60px;"">+</div>","null","","","","","","",""
"null","","image-keyboard-response","638","5412994","0.0-8.0-0.19","","img/red.png","null","trial","null","true","0.2,0.8","4:nogo_d","",""
"null","","html-keyboard-response","639","5413999","0.0-8.0-1.19","","<img src=""img/red-r.png"">","null","trial","null","","0.2,0.8","4:nogo_d","1",""
"null","","html-keyboard-response","640","5415002","0.0-8.0-2.19","","<div style=""font-size:60px;"">+</div>","null","","","","","","",""
"553.2100000418723","","image-keyboard-response","641","5415557","0.0-8.0-0.20","","img/yellow.png","32","trial","32","true","0.8,0.2","3:go_c","",""
"null","","html-keyboard-response","642","5416559","0.0-8.0-1.20","","<img src=""img/yellow-r.png"" border=""10"">","null","trial","32","","0.8,0.2","3:go_c","1",""
"null","","html-keyboard-response","643","5417563","0.0-8.0-2.20","","<div style=""font-size:60px;"">+</div>","null","","","","","","",""
"459.49999999720603","","image-keyboard-response","644","5418023","0.0-8.0-0.21","","img/red.png","32","trial","null","false","0.2,0.8","4:nogo_d","",""
"null","","html-keyboard-response","645","5419027","0.0-8.0-1.21","","<img src=""img/red-n.png"" border=""10"">","null","trial","null","","0.2,0.8","4:nogo_d","0",""
"null","","html-keyboard-response","646","5420030","0.0-8.0-2.21","","<div style=""font-size:60px;"">+</div>","null","","","","","","",""
"327.3449999978766","","image-keyboard-response","647","5420359","0.0-8.0-0.22","","img/orange.png","32","trial","32","true","0.8,0.2","1:go_a","",""
"null","","html-keyboard-response","648","5421365","0.0-8.0-1.22","","<img src=""img/orange-r.png"" border=""10"">","null","trial","32","","0.8,0.2","1:go_a","1",""
"null","","html-keyboard-response","649","5422369","0.0-8.0-2.22","","<div style=""font-size:60px;"">+</div>","null","","","","","","",""
"452.37499999348074","","image-keyboard-response","650","5422823","0.0-8.0-0.23","","img/green.png","32","trial","null","false","0.2,0.8","2:nogo_b","",""
"null","","html-keyboard-response","651","5423826","0.0-8.0-1.23","","<img src=""img/green-r.png"" border=""10"">","null","trial","null","","0.2,0.8","2:nogo_b","1",""
"null","","html-keyboard-response","652","5424830","0.0-8.0-2.23","","<div style=""font-size:60px;"">+</div>","null","","","","","","",""
"null","","image-keyboard-response","653","5426334","0.0-8.0-0.24","","img/yellow.png","null","trial","32","false","0.8,0.2","3:go_c","",""
"null","","html-keyboard-response","654","5427338","0.0-8.0-1.24","","<img src=""img/yellow-r.png"">","null","trial","32","","0.8,0.2","3:go_c","1",""
"null","","html-keyboard-response","655","5428343","0.0-8.0-2.24","","<div style=""font-size:60px;"">+</div>","null","","","","","","",""
"437.32999998610467","","image-keyboard-response","656","5428781","0.0-8.0-0.25","","img/red.png","32","trial","null","false","0.2,0.8","4:nogo_d","",""
"null","","html-keyboard-response","657","5429788","0.0-8.0-1.25","","<img src=""img/red-n.png"" border=""10"">","null","trial","null","","0.2,0.8","4:nogo_d","0",""
"null","","html-keyboard-response","658","5430792","0.0-8.0-2.25","","<div style=""font-size:60px;"">+</div>","null","","","","","","",""
"413.2600000016391","","image-keyboard-response","659","5431207","0.0-8.0-0.26","","img/orange.png","32","trial","32","true","0.8,0.2","1:go_a","",""
"null","","html-keyboard-response","660","5432214","0.0-8.0-1.26","","<img src=""img/orange-r.png"" border=""10"">","null","trial","32","","0.8,0.2","1:go_a","1",""
"null","","html-keyboard-response","661","5433218","0.0-8.0-2.26","","<div style=""font-size:60px;"">+</div>","null","","","","","","",""
"427.2950000008568","","image-keyboard-response","662","5433647","0.0-8.0-0.27","","img/green.png","32","trial","null","false","0.2,0.8","2:nogo_b","",""
"null","","html-keyboard-response","663","5434652","0.0-8.0-1.27","","<img src=""img/green-r.png"" border=""10"">","null","trial","null","","0.2,0.8","2:nogo_b","1",""
"null","","html-keyboard-response","664","5435656","0.0-8.0-2.27","","<div style=""font-size:60px;"">+</div>","null","","","","","","",""
"629.9100000169128","","image-keyboard-response","665","5436287","0.0-8.0-0.28","","img/orange.png","32","trial","32","true","0.8,0.2","1:go_a","",""
"null","","html-keyboard-response","666","5437291","0.0-8.0-1.28","","<img src=""img/orange-r.png"" border=""10"">","null","trial","32","","0.8,0.2","1:go_a","1",""
"null","","html-keyboard-response","667","5438292","0.0-8.0-2.28","","<div style=""font-size:60px;"">+</div>","null","","","","","","",""
"610.7250000350177","","image-keyboard-response","668","5438904","0.0-8.0-0.29","","img/yellow.png","32","trial","32","true","0.8,0.2","3:go_c","",""
"null","","html-keyboard-response","669","5439911","0.0-8.0-1.29","","<img src=""img/yellow-r.png"" border=""10"">","null","trial","32","","0.8,0.2","3:go_c","1",""
