"rt","url","trial_type","trial_index","time_elapsed","internal_node_id","view_history","stimulus","key_press","test_part","correct_response","correct","use_rew","which_stim","reward","responses"
"13972.775000002002","consent.html","external-html","0","14180","0.0-0.0","","","","","","","","","",""
"94678.73000001418","","instructions","1","108859","0.0-1.0","[{""page_index"":0,""viewing_time"":2598.9150000095833},{""page_index"":1,""viewing_time"":34382.50500001595},{""page_index"":2,""viewing_time"":4063.3149999775924},{""page_index"":3,""viewing_time"":19633.540000009816},{""page_index"":4,""viewing_time"":8555.980000004638},{""page_index"":5,""viewing_time"":15653.029999986757},{""page_index"":6,""viewing_time"":9785.795000003418}]","","","","","","","","",""
"null","","image-keyboard-response","2","110366","0.0-2.0-0.0","","img/test3.PNG","null","practice","null","true","","","",""
"null","","html-keyboard-response","3","111372","0.0-2.0-1.0","","<img src=""img/test3-reward.PNG"">","null","","","","","","",""
"null","","html-keyboard-response","4","112373","0.0-2.0-2.0","","<div style=""font-size:60px;"">+</div>","null","","","","","","",""
"617.7599999937229","","image-keyboard-response","5","112992","0.0-2.0-0.1","","img/test1.PNG","32","practice","32","true","","","",""
"null","","html-keyboard-response","6","113998","0.0-2.0-1.1","","<img src=""img/test1-reward.PNG"" border=""10px; grey"">","null","","","","","","",""
"null","","html-keyboard-response","7","115002","0.0-2.0-2.1","","<div style=""font-size:60px;"">+</div>","null","","","","","","",""
"null","","image-keyboard-response","8","116503","0.0-2.0-0.2","","img/test2.PNG","null","practice","null","true","","","",""
"null","","html-keyboard-response","9","117509","0.0-2.0-1.2","","<img src=""img/test2-reward.PNG"">","null","","","","","","",""
"null","","html-keyboard-response","10","118513","0.0-2.0-2.2","","<div style=""font-size:60px;"">+</div>","null","","","","","","",""
"564.0650000132155","","image-keyboard-response","11","119079","0.0-2.0-0.3","","img/test1.PNG","32","practice","32","true","","","",""
"null","","html-keyboard-response","12","120082","0.0-2.0-1.3","","<img src=""img/test1-reward.PNG"" border=""10px; grey"">","null","","","","","","",""
"null","","html-keyboard-response","13","121086","0.0-2.0-2.3","","<div style=""font-size:60px;"">+</div>","null","","","","","","",""
"null","","image-keyboard-response","14","122590","0.0-2.0-0.4","","img/test2.PNG","null","practice","null","true","","","",""
"null","","html-keyboard-response","15","123592","0.0-2.0-1.4","","<img src=""img/test2-reward.PNG"">","null","","","","","","",""
"null","","html-keyboard-response","16","124595","0.0-2.0-2.4","","<div style=""font-size:60px;"">+</div>","null","","","","","","",""
"null","","image-keyboard-response","17","126098","0.0-2.0-0.5","","img/test3.PNG","null","practice","null","true","","","",""
"null","","html-keyboard-response","18","127105","0.0-2.0-1.5","","<img src=""img/test3-reward.PNG"">","null","","","","","","",""
"null","","html-keyboard-response","19","128108","0.0-2.0-2.5","","<div style=""font-size:60px;"">+</div>","null","","","","","","",""
"496.08000001171604","","image-keyboard-response","20","128608","0.0-2.0-0.6","","img/test1.PNG","32","practice","32","true","","","",""
"null","","html-keyboard-response","21","129610","0.0-2.0-1.6","","<img src=""img/test1-reward.PNG"" border=""10px; grey"">","null","","","","","","",""
"null","","html-keyboard-response","22","130614","0.0-2.0-2.6","","<div style=""font-size:60px;"">+</div>","null","","","","","","",""
"null","","image-keyboard-response","23","132121","0.0-2.0-0.7","","img/test3.PNG","null","practice","null","true","","","",""
"null","","html-keyboard-response","24","133122","0.0-2.0-1.7","","<img src=""img/test3-reward.PNG"">","null","","","","","","",""
"null","","html-keyboard-response","25","134124","0.0-2.0-2.7","","<div style=""font-size:60px;"">+</div>","null","","","","","","",""
"null","","image-keyboard-response","26","135628","0.0-2.0-0.8","","img/test2.PNG","null","practice","null","true","","","",""
"null","","html-keyboard-response","27","136635","0.0-2.0-1.8","","<img src=""img/test2-reward.PNG"">","null","","","","","","",""
"null","","html-keyboard-response","28","137637","0.0-2.0-2.8","","<div style=""font-size:60px;"">+</div>","null","","","","","","",""
"430.8500000042841","","image-keyboard-response","29","138070","0.0-2.0-0.9","","img/test1.PNG","32","practice","32","true","","","",""
"null","","html-keyboard-response","30","139072","0.0-2.0-1.9","","<img src=""img/test1-reward.PNG"" border=""10px; grey"">","null","","","","","","",""
"null","","html-keyboard-response","31","140074","0.0-2.0-2.9","","<div style=""font-size:60px;"">+</div>","null","","","","","","",""
"null","","image-keyboard-response","32","141575","0.0-2.0-0.10","","img/test2.PNG","null","practice","null","true","","","",""
"null","","html-keyboard-response","33","142578","0.0-2.0-1.10","","<img src=""img/test2-reward.PNG"">","null","","","","","","",""
"null","","html-keyboard-response","34","143580","0.0-2.0-2.10","","<div style=""font-size:60px;"">+</div>","null","","","","","","",""
"null","","image-keyboard-response","35","145085","0.0-2.0-0.11","","img/test3.PNG","null","practice","null","true","","","",""
"null","","html-keyboard-response","36","146090","0.0-2.0-1.11","","<img src=""img/test3-reward.PNG"">","null","","","","","","",""
"null","","html-keyboard-response","37","147095","0.0-2.0-2.11","","<div style=""font-size:60px;"">+</div>","null","","","","","","",""
"3540.160000004107","","instructions","38","150635","0.0-3.0","[{""page_index"":0,""viewing_time"":3539.725000009639}]","","","","","","","","",""
"759.7850000020117","","image-keyboard-response","39","151397","0.0-4.0-0.0","","img/yellow.png","32","trial","null","false","0.2,0.8","2:nogo_b","",""
"null","","html-keyboard-response","40","152405","0.0-4.0-1.0","","<img src=""img/yellow-n.png"" border=""10"">","null","trial","null","","0.2,0.8","2:nogo_b","0",""
"null","","html-keyboard-response","41","153412","0.0-4.0-2.0","","<div style=""font-size:60px;"">+</div>","null","","","","","","",""
"488.5900000226684","","image-keyboard-response","42","153902","0.0-4.0-0.1","","img/red.png","32","trial","32","true","0.8,0.2","1:go_a","",""
"null","","html-keyboard-response","43","154910","0.0-4.0-1.1","","<img src=""img/red-n.png"" border=""10"">","null","trial","32","","0.8,0.2","1:go_a","0",""
"null","","html-keyboard-response","44","155916","0.0-4.0-2.1","","<div style=""font-size:60px;"">+</div>","null","","","","","","",""
"567.7949999808334","","image-keyboard-response","45","156486","0.0-4.0-0.2","","img/yellow.png","32","trial","null","false","0.2,0.8","2:nogo_b","",""
"null","","html-keyboard-response","46","157488","0.0-4.0-1.2","","<img src=""img/yellow-n.png"" border=""10"">","null","trial","null","","0.2,0.8","2:nogo_b","0",""
"null","","html-keyboard-response","47","158491","0.0-4.0-2.2","","<div style=""font-size:60px;"">+</div>","null","","","","","","",""
"null","","image-keyboard-response","48","159992","0.0-4.0-0.3","","img/red.png","null","trial","32","false","0.8,0.2","1:go_a","",""
"null","","html-keyboard-response","49","160999","0.0-4.0-1.3","","<img src=""img/red-n.png"">","null","trial","32","","0.8,0.2","1:go_a","0",""
"null","","html-keyboard-response","50","162003","0.0-4.0-2.3","","<div style=""font-size:60px;"">+</div>","null","","","","","","",""
"null","","image-keyboard-response","51","163507","0.0-4.0-0.4","","img/red.png","null","trial","32","false","0.8,0.2","1:go_a","",""
"null","","html-keyboard-response","52","164515","0.0-4.0-1.4","","<img src=""img/red-n.png"">","null","trial","32","","0.8,0.2","1:go_a","0",""
"null","","html-keyboard-response","53","165519","0.0-4.0-2.4","","<div style=""font-size:60px;"">+</div>","null","","","","","","",""
"588.9049999823328","","image-keyboard-response","54","166109","0.0-4.0-0.5","","img/yellow.png","32","trial","null","false","0.2,0.8","2:nogo_b","",""
"null","","html-keyboard-response","55","167113","0.0-4.0-1.5","","<img src=""img/yellow-r.png"" border=""10"">","null","trial","null","","0.2,0.8","2:nogo_b","1",""
"null","","html-keyboard-response","56","168116","0.0-4.0-2.5","","<div style=""font-size:60px;"">+</div>","null","","","","","","",""
"599.3250000174157","","image-keyboard-response","57","168717","0.0-4.0-0.6","","img/yellow.png","32","trial","null","false","0.2,0.8","2:nogo_b","",""
"null","","html-keyboard-response","58","169725","0.0-4.0-1.6","","<img src=""img/yellow-n.png"" border=""10"">","null","trial","null","","0.2,0.8","2:nogo_b","0",""
"null","","html-keyboard-response","59","170731","0.0-4.0-2.6","","<div style=""font-size:60px;"">+</div>","null","","","","","","",""
"432.4899999774061","","image-keyboard-response","60","171166","0.0-4.0-0.7","","img/red.png","32","trial","32","true","0.8,0.2","1:go_a","",""
"null","","html-keyboard-response","61","172169","0.0-4.0-1.7","","<img src=""img/red-r.png"" border=""10"">","null","trial","32","","0.8,0.2","1:go_a","1",""
"null","","html-keyboard-response","62","173177","0.0-4.0-2.7","","<div style=""font-size:60px;"">+</div>","null","","","","","","",""
"537.5300000014249","","image-keyboard-response","63","173716","0.0-4.0-0.8","","img/yellow.png","32","trial","null","false","0.2,0.8","2:nogo_b","",""
"null","","html-keyboard-response","64","174718","0.0-4.0-1.8","","<img src=""img/yellow-r.png"" border=""10"">","null","trial","null","","0.2,0.8","2:nogo_b","1",""
"null","","html-keyboard-response","65","175718","0.0-4.0-2.8","","<div style=""font-size:60px;"">+</div>","null","","","","","","",""
"478.72000001370907","","image-keyboard-response","66","176198","0.0-4.0-0.9","","img/red.png","32","trial","32","true","0.8,0.2","1:go_a","",""
"null","","html-keyboard-response","67","177200","0.0-4.0-1.9","","<img src=""img/red-r.png"" border=""10"">","null","trial","32","","0.8,0.2","1:go_a","1",""
"null","","html-keyboard-response","68","178203","0.0-4.0-2.9","","<div style=""font-size:60px;"">+</div>","null","","","","","","",""
"480.36999997566454","","image-keyboard-response","69","178685","0.0-4.0-0.10","","img/red.png","32","trial","32","true","0.8,0.2","1:go_a","",""
"null","","html-keyboard-response","70","179695","0.0-4.0-1.10","","<img src=""img/red-r.png"" border=""10"">","null","trial","32","","0.8,0.2","1:go_a","1",""
"null","","html-keyboard-response","71","180699","0.0-4.0-2.10","","<div style=""font-size:60px;"">+</div>","null","","","","","","",""
"473.1749999918975","","image-keyboard-response","72","181173","0.0-4.0-0.11","","img/yellow.png","32","trial","null","false","0.2,0.8","2:nogo_b","",""
"null","","html-keyboard-response","73","182181","0.0-4.0-1.11","","<img src=""img/yellow-n.png"" border=""10"">","null","trial","null","","0.2,0.8","2:nogo_b","0",""
"null","","html-keyboard-response","74","183182","0.0-4.0-2.11","","<div style=""font-size:60px;"">+</div>","null","","","","","","",""
"549.3350000178907","","image-keyboard-response","75","183733","0.0-4.0-0.12","","img/red.png","32","trial","32","true","0.8,0.2","1:go_a","",""
"null","","html-keyboard-response","76","184741","0.0-4.0-1.12","","<img src=""img/red-r.png"" border=""10"">","null","trial","32","","0.8,0.2","1:go_a","1",""
"null","","html-keyboard-response","77","185743","0.0-4.0-2.12","","<div style=""font-size:60px;"">+</div>","null","","","","","","",""
"null","","image-keyboard-response","78","187250","0.0-4.0-0.13","","img/yellow.png","null","trial","null","true","0.2,0.8","2:nogo_b","",""
"null","","html-keyboard-response","79","188258","0.0-4.0-1.13","","<img src=""img/yellow-r.png"">","null","trial","null","","0.2,0.8","2:nogo_b","1",""
"null","","html-keyboard-response","80","189265","0.0-4.0-2.13","","<div style=""font-size:60px;"">+</div>","null","","","","","","",""
"507.71000000531785","","image-keyboard-response","81","189774","0.0-4.0-0.14","","img/red.png","32","trial","32","true","0.8,0.2","1:go_a","",""
"null","","html-keyboard-response","82","190776","0.0-4.0-1.14","","<img src=""img/red-r.png"" border=""10"">","null","trial","32","","0.8,0.2","1:go_a","1",""
"null","","html-keyboard-response","83","191781","0.0-4.0-2.14","","<div style=""font-size:60px;"">+</div>","null","","","","","","",""
"558.1850000016857","","image-keyboard-response","84","192341","0.0-4.0-0.15","","img/yellow.png","32","trial","null","false","0.2,0.8","2:nogo_b","",""
"null","","html-keyboard-response","85","193489","0.0-4.0-1.15","","<img src=""img/yellow-n.png"" border=""10"">","null","trial","null","","0.2,0.8","2:nogo_b","0",""
"null","","html-keyboard-response","86","194493","0.0-4.0-2.15","","<div style=""font-size:60px;"">+</div>","null","","","","","","",""
"638.8350000197534","","image-keyboard-response","87","195133","0.0-4.0-0.16","","img/yellow.png","32","trial","null","false","0.2,0.8","2:nogo_b","",""
"null","","html-keyboard-response","88","196138","0.0-4.0-1.16","","<img src=""img/yellow-n.png"" border=""10"">","null","trial","null","","0.2,0.8","2:nogo_b","0",""
"null","","html-keyboard-response","89","197144","0.0-4.0-2.16","","<div style=""font-size:60px;"">+</div>","null","","","","","","",""
"587.2950000048149","","image-keyboard-response","90","197733","0.0-4.0-0.17","","img/red.png","32","trial","32","true","0.8,0.2","1:go_a","",""
"null","","html-keyboard-response","91","198739","0.0-4.0-1.17","","<img src=""img/red-n.png"" border=""10"">","null","trial","32","","0.8,0.2","1:go_a","0",""
"null","","html-keyboard-response","92","199746","0.0-4.0-2.17","","<div style=""font-size:60px;"">+</div>","null","","","","","","",""
"null","","image-keyboard-response","93","201250","0.0-4.0-0.18","","img/red.png","null","trial","32","false","0.8,0.2","1:go_a","",""
"null","","html-keyboard-response","94","202255","0.0-4.0-1.18","","<img src=""img/red-n.png"">","null","trial","32","","0.8,0.2","1:go_a","0",""
"null","","html-keyboard-response","95","203261","0.0-4.0-2.18","","<div style=""font-size:60px;"">+</div>","null","","","","","","",""
"null","","image-keyboard-response","96","204765","0.0-4.0-0.19","","img/yellow.png","null","trial","null","true","0.2,0.8","2:nogo_b","",""
"null","","html-keyboard-response","97","205769","0.0-4.0-1.19","","<img src=""img/yellow-r.png"">","null","trial","null","","0.2,0.8","2:nogo_b","1",""
"null","","html-keyboard-response","98","206776","0.0-4.0-2.19","","<div style=""font-size:60px;"">+</div>","null","","","","","","",""
"610.820000001695","","image-keyboard-response","99","207388","0.0-4.0-0.20","","img/red.png","32","trial","32","true","0.8,0.2","1:go_a","",""
"null","","html-keyboard-response","100","208394","0.0-4.0-1.20","","<img src=""img/red-r.png"" border=""10"">","null","trial","32","","0.8,0.2","1:go_a","1",""
"null","","html-keyboard-response","101","209396","0.0-4.0-2.20","","<div style=""font-size:60px;"">+</div>","null","","","","","","",""
"543.7249999959022","","image-keyboard-response","102","209941","0.0-4.0-0.21","","img/yellow.png","32","trial","null","false","0.2,0.8","2:nogo_b","",""
"null","","html-keyboard-response","103","210948","0.0-4.0-1.21","","<img src=""img/yellow-r.png"" border=""10"">","null","trial","null","","0.2,0.8","2:nogo_b","1",""
"null","","html-keyboard-response","104","211949","0.0-4.0-2.21","","<div style=""font-size:60px;"">+</div>","null","","","","","","",""
"477.70499999751337","","image-keyboard-response","105","212429","0.0-4.0-0.22","","img/yellow.png","32","trial","null","false","0.2,0.8","2:nogo_b","",""
"null","","html-keyboard-response","106","213431","0.0-4.0-1.22","","<img src=""img/yellow-n.png"" border=""10"">","null","trial","null","","0.2,0.8","2:nogo_b","0",""
"null","","html-keyboard-response","107","214437","0.0-4.0-2.22","","<div style=""font-size:60px;"">+</div>","null","","","","","","",""
"365.9099999931641","","image-keyboard-response","108","214805","0.0-4.0-0.23","","img/red.png","32","trial","32","true","0.8,0.2","1:go_a","",""
"null","","html-keyboard-response","109","215812","0.0-4.0-1.23","","<img src=""img/red-r.png"" border=""10"">","null","trial","32","","0.8,0.2","1:go_a","1",""
"null","","html-keyboard-response","110","216818","0.0-4.0-2.23","","<div style=""font-size:60px;"">+</div>","null","","","","","","",""
"null","","image-keyboard-response","111","218322","0.0-4.0-0.24","","img/yellow.png","null","trial","null","true","0.2,0.8","2:nogo_b","",""
"null","","html-keyboard-response","112","219327","0.0-4.0-1.24","","<img src=""img/yellow-r.png"">","null","trial","null","","0.2,0.8","2:nogo_b","1",""
"null","","html-keyboard-response","113","220330","0.0-4.0-2.24","","<div style=""font-size:60px;"">+</div>","null","","","","","","",""
"337.6399999833666","","image-keyboard-response","114","220669","0.0-4.0-0.25","","img/red.png","32","trial","32","true","0.8,0.2","1:go_a","",""
"null","","html-keyboard-response","115","221677","0.0-4.0-1.25","","<img src=""img/red-n.png"" border=""10"">","null","trial","32","","0.8,0.2","1:go_a","0",""
"null","","html-keyboard-response","116","222683","0.0-4.0-2.25","","<div style=""font-size:60px;"">+</div>","null","","","","","","",""
"679.9149999860674","","image-keyboard-response","117","223364","0.0-4.0-0.26","","img/yellow.png","32","trial","null","false","0.2,0.8","2:nogo_b","",""
"null","","html-keyboard-response","118","224372","0.0-4.0-1.26","","<img src=""img/yellow-r.png"" border=""10"">","null","trial","null","","0.2,0.8","2:nogo_b","1",""
"null","","html-keyboard-response","119","225374","0.0-4.0-2.26","","<div style=""font-size:60px;"">+</div>","null","","","","","","",""
"null","","image-keyboard-response","120","226881","0.0-4.0-0.27","","img/red.png","null","trial","32","false","0.8,0.2","1:go_a","",""
"null","","html-keyboard-response","121","227918","0.0-4.0-1.27","","<img src=""img/red-n.png"">","null","trial","32","","0.8,0.2","1:go_a","0",""
"null","","html-keyboard-response","122","228919","0.0-4.0-2.27","","<div style=""font-size:60px;"">+</div>","null","","","","","","",""
"620.9300000045914","","image-keyboard-response","123","229541","0.0-4.0-0.28","","img/red.png","32","trial","32","true","0.8,0.2","1:go_a","",""
"null","","html-keyboard-response","124","230543","0.0-4.0-1.28","","<img src=""img/red-r.png"" border=""10"">","null","trial","32","","0.8,0.2","1:go_a","1",""
"null","","html-keyboard-response","125","231548","0.0-4.0-2.28","","<div style=""font-size:60px;"">+</div>","null","","","","","","",""
"504.8299999907613","","image-keyboard-response","126","232055","0.0-4.0-0.29","","img/yellow.png","32","trial","null","false","0.2,0.8","2:nogo_b","",""
"null","","html-keyboard-response","127","233061","0.0-4.0-1.29","","<img src=""img/yellow-n.png"" border=""10"">","null","trial","null","","0.2,0.8","2:nogo_b","0",""
"null","","html-keyboard-response","128","234065","0.0-4.0-2.29","","<div style=""font-size:60px;"">+</div>","null","","","","","","",""
"360.21500002243556","","image-keyboard-response","129","234427","0.0-4.0-0.30","","img/red.png","32","trial","32","true","0.8,0.2","1:go_a","",""
"null","","html-keyboard-response","130","235430","0.0-4.0-1.30","","<img src=""img/red-r.png"" border=""10"">","null","trial","32","","0.8,0.2","1:go_a","1",""
"null","","html-keyboard-response","131","236433","0.0-4.0-2.30","","<div style=""font-size:60px;"">+</div>","null","","","","","","",""
"null","","image-keyboard-response","132","237939","0.0-4.0-0.31","","img/yellow.png","null","trial","null","true","0.2,0.8","2:nogo_b","",""
"null","","html-keyboard-response","133","238941","0.0-4.0-1.31","","<img src=""img/yellow-r.png"">","null","trial","null","","0.2,0.8","2:nogo_b","1",""
"null","","html-keyboard-response","134","239944","0.0-4.0-2.31","","<div style=""font-size:60px;"">+</div>","null","","","","","","",""
"466.89499999047257","","image-keyboard-response","135","240412","0.0-4.0-0.32","","img/red.png","32","trial","32","true","0.8,0.2","1:go_a","",""
"null","","html-keyboard-response","136","241420","0.0-4.0-1.32","","<img src=""img/red-r.png"" border=""10"">","null","trial","32","","0.8,0.2","1:go_a","1",""
"null","","html-keyboard-response","137","242423","0.0-4.0-2.32","","<div style=""font-size:60px;"">+</div>","null","","","","","","",""
"539.8149999964517","","image-keyboard-response","138","242965","0.0-4.0-0.33","","img/yellow.png","32","trial","null","false","0.2,0.8","2:nogo_b","",""
"null","","html-keyboard-response","139","243967","0.0-4.0-1.33","","<img src=""img/yellow-n.png"" border=""10"">","null","trial","null","","0.2,0.8","2:nogo_b","0",""
"null","","html-keyboard-response","140","244968","0.0-4.0-2.33","","<div style=""font-size:60px;"">+</div>","null","","","","","","",""
"650.4450000065845","","image-keyboard-response","141","245620","0.0-4.0-0.34","","img/red.png","32","trial","32","true","0.8,0.2","1:go_a","",""
"null","","html-keyboard-response","142","246628","0.0-4.0-1.34","","<img src=""img/red-r.png"" border=""10"">","null","trial","32","","0.8,0.2","1:go_a","1",""
"null","","html-keyboard-response","143","247634","0.0-4.0-2.34","","<div style=""font-size:60px;"">+</div>","null","","","","","","",""
"null","","image-keyboard-response","144","249137","0.0-4.0-0.35","","img/yellow.png","null","trial","null","true","0.2,0.8","2:nogo_b","",""
"null","","html-keyboard-response","145","250139","0.0-4.0-1.35","","<img src=""img/yellow-n.png"">","null","trial","null","","0.2,0.8","2:nogo_b","0",""
"null","","html-keyboard-response","146","251145","0.0-4.0-2.35","","<div style=""font-size:60px;"">+</div>","null","","","","","","",""
"368.23500000173226","","image-keyboard-response","147","251515","0.0-4.0-0.36","","img/red.png","32","trial","32","true","0.8,0.2","1:go_a","",""
"null","","html-keyboard-response","148","252518","0.0-4.0-1.36","","<img src=""img/red-n.png"" border=""10"">","null","trial","32","","0.8,0.2","1:go_a","0",""
"null","","html-keyboard-response","149","253522","0.0-4.0-2.36","","<div style=""font-size:60px;"">+</div>","null","","","","","","",""
"null","","image-keyboard-response","150","255029","0.0-4.0-0.37","","img/yellow.png","null","trial","null","true","0.2,0.8","2:nogo_b","",""
"null","","html-keyboard-response","151","256034","0.0-4.0-1.37","","<img src=""img/yellow-r.png"">","null","trial","null","","0.2,0.8","2:nogo_b","1",""
"null","","html-keyboard-response","152","257040","0.0-4.0-2.37","","<div style=""font-size:60px;"">+</div>","null","","","","","","",""
"570.3550000034738","","image-keyboard-response","153","257612","0.0-4.0-0.38","","img/red.png","32","trial","32","true","0.8,0.2","1:go_a","",""
"null","","html-keyboard-response","154","258619","0.0-4.0-1.38","","<img src=""img/red-r.png"" border=""10"">","null","trial","32","","0.8,0.2","1:go_a","1",""
"null","","html-keyboard-response","155","259626","0.0-4.0-2.38","","<div style=""font-size:60px;"">+</div>","null","","","","","","",""
"403.50499999476597","","image-keyboard-response","156","260031","0.0-4.0-0.39","","img/yellow.png","32","trial","null","false","0.2,0.8","2:nogo_b","",""
"null","","html-keyboard-response","157","261038","0.0-4.0-1.39","","<img src=""img/yellow-r.png"" border=""10"">","null","trial","null","","0.2,0.8","2:nogo_b","1",""
"null","","html-keyboard-response","158","262044","0.0-4.0-2.39","","<div style=""font-size:60px;"">+</div>","null","","","","","","",""
"541.2450000003446","","image-keyboard-response","159","262586","0.0-4.0-0.40","","img/red.png","32","trial","32","true","0.8,0.2","1:go_a","",""
"null","","html-keyboard-response","160","263588","0.0-4.0-1.40","","<img src=""img/red-n.png"" border=""10"">","null","trial","32","","0.8,0.2","1:go_a","0",""
"null","","html-keyboard-response","161","264591","0.0-4.0-2.40","","<div style=""font-size:60px;"">+</div>","null","","","","","","",""
"322.41999998223037","","image-keyboard-response","162","264914","0.0-4.0-0.41","","img/yellow.png","32","trial","null","false","0.2,0.8","2:nogo_b","",""
"null","","html-keyboard-response","163","265920","0.0-4.0-1.41","","<img src=""img/yellow-n.png"" border=""10"">","null","trial","null","","0.2,0.8","2:nogo_b","0",""
"null","","html-keyboard-response","164","266926","0.0-4.0-2.41","","<div style=""font-size:60px;"">+</div>","null","","","","","","",""
"null","","image-keyboard-response","165","268433","0.0-4.0-0.42","","img/yellow.png","null","trial","null","true","0.2,0.8","2:nogo_b","",""
"null","","html-keyboard-response","166","269437","0.0-4.0-1.42","","<img src=""img/yellow-r.png"">","null","trial","null","","0.2,0.8","2:nogo_b","1",""
"null","","html-keyboard-response","167","270443","0.0-4.0-2.42","","<div style=""font-size:60px;"">+</div>","null","","","","","","",""
"null","","image-keyboard-response","168","271950","0.0-4.0-0.43","","img/red.png","null","trial","32","false","0.8,0.2","1:go_a","",""
"null","","html-keyboard-response","169","272957","0.0-4.0-1.43","","<img src=""img/red-r.png"">","null","trial","32","","0.8,0.2","1:go_a","1",""
"null","","html-keyboard-response","170","273963","0.0-4.0-2.43","","<div style=""font-size:60px;"">+</div>","null","","","","","","",""
"445.9449999849312","","image-keyboard-response","171","274411","0.0-4.0-0.44","","img/yellow.png","32","trial","null","false","0.2,0.8","2:nogo_b","",""
"null","","html-keyboard-response","172","275413","0.0-4.0-1.44","","<img src=""img/yellow-n.png"" border=""10"">","null","trial","null","","0.2,0.8","2:nogo_b","0",""
"null","","html-keyboard-response","173","276415","0.0-4.0-2.44","","<div style=""font-size:60px;"">+</div>","null","","","","","","",""
"298.84999999194406","","image-keyboard-response","174","276715","0.0-4.0-0.45","","img/red.png","32","trial","32","true","0.8,0.2","1:go_a","",""
"null","","html-keyboard-response","175","277718","0.0-4.0-1.45","","<img src=""img/red-r.png"" border=""10"">","null","trial","32","","0.8,0.2","1:go_a","1",""
"null","","html-keyboard-response","176","278722","0.0-4.0-2.45","","<div style=""font-size:60px;"">+</div>","null","","","","","","",""
"711.2900000065565","","image-keyboard-response","177","279435","0.0-4.0-0.46","","img/red.png","32","trial","32","true","0.8,0.2","1:go_a","",""
"null","","html-keyboard-response","178","280443","0.0-4.0-1.46","","<img src=""img/red-n.png"" border=""10"">","null","trial","32","","0.8,0.2","1:go_a","0",""
"null","","html-keyboard-response","179","281444","0.0-4.0-2.46","","<div style=""font-size:60px;"">+</div>","null","","","","","","",""
"349.03500002110377","","image-keyboard-response","180","281793","0.0-4.0-0.47","","img/yellow.png","32","trial","null","false","0.2,0.8","2:nogo_b","",""
"null","","html-keyboard-response","181","282801","0.0-4.0-1.47","","<img src=""img/yellow-r.png"" border=""10"">","null","trial","null","","0.2,0.8","2:nogo_b","1",""
"null","","html-keyboard-response","182","283805","0.0-4.0-2.47","","<div style=""font-size:60px;"">+</div>","null","","","","","","",""
"null","","image-keyboard-response","183","285311","0.0-4.0-0.48","","img/red.png","null","trial","32","false","0.8,0.2","1:go_a","",""
"null","","html-keyboard-response","184","286317","0.0-4.0-1.48","","<img src=""img/red-n.png"">","null","trial","32","","0.8,0.2","1:go_a","0",""
"null","","html-keyboard-response","185","287323","0.0-4.0-2.48","","<div style=""font-size:60px;"">+</div>","null","","","","","","",""
"390.8149999915622","","image-keyboard-response","186","287715","0.0-4.0-0.49","","img/yellow.png","32","trial","null","false","0.2,0.8","2:nogo_b","",""
"null","","html-keyboard-response","187","288720","0.0-4.0-1.49","","<img src=""img/yellow-n.png"" border=""10"">","null","trial","null","","0.2,0.8","2:nogo_b","0",""
"null","","html-keyboard-response","188","289721","0.0-4.0-2.49","","<div style=""font-size:60px;"">+</div>","null","","","","","","",""
"null","","image-keyboard-response","189","291222","0.0-4.0-0.50","","img/yellow.png","null","trial","null","true","0.2,0.8","2:nogo_b","",""
"null","","html-keyboard-response","190","292229","0.0-4.0-1.50","","<img src=""img/yellow-r.png"">","null","trial","null","","0.2,0.8","2:nogo_b","1",""
"null","","html-keyboard-response","191","293233","0.0-4.0-2.50","","<div style=""font-size:60px;"">+</div>","null","","","","","","",""
"null","","image-keyboard-response","192","294740","0.0-4.0-0.51","","img/red.png","null","trial","32","false","0.8,0.2","1:go_a","",""
"null","","html-keyboard-response","193","295746","0.0-4.0-1.51","","<img src=""img/red-n.png"">","null","trial","32","","0.8,0.2","1:go_a","0",""
"null","","html-keyboard-response","194","296748","0.0-4.0-2.51","","<div style=""font-size:60px;"">+</div>","null","","","","","","",""
"472.94000000692904","","image-keyboard-response","195","297222","0.0-4.0-0.52","","img/red.png","32","trial","32","true","0.8,0.2","1:go_a","",""
"null","","html-keyboard-response","196","298230","0.0-4.0-1.52","","<img src=""img/red-n.png"" border=""10"">","null","trial","32","","0.8,0.2","1:go_a","0",""
"null","","html-keyboard-response","197","299234","0.0-4.0-2.52","","<div style=""font-size:60px;"">+</div>","null","","","","","","",""
"411.31500000483356","","image-keyboard-response","198","299647","0.0-4.0-0.53","","img/yellow.png","32","trial","null","false","0.2,0.8","2:nogo_b","",""
"null","","html-keyboard-response","199","300653","0.0-4.0-1.53","","<img src=""img/yellow-n.png"" border=""10"">","null","trial","null","","0.2,0.8","2:nogo_b","0",""
"null","","html-keyboard-response","200","301658","0.0-4.0-2.53","","<div style=""font-size:60px;"">+</div>","null","","","","","","",""
"null","","image-keyboard-response","201","303165","0.0-4.0-0.54","","img/yellow.png","null","trial","null","true","0.2,0.8","2:nogo_b","",""
"null","","html-keyboard-response","202","304172","0.0-4.0-1.54","","<img src=""img/yellow-r.png"">","null","trial","null","","0.2,0.8","2:nogo_b","1",""
"null","","html-keyboard-response","203","305178","0.0-4.0-2.54","","<div style=""font-size:60px;"">+</div>","null","","","","","","",""
"null","","image-keyboard-response","204","306685","0.0-4.0-0.55","","img/red.png","null","trial","32","false","0.8,0.2","1:go_a","",""
"null","","html-keyboard-response","205","307692","0.0-4.0-1.55","","<img src=""img/red-r.png"">","null","trial","32","","0.8,0.2","1:go_a","1",""
"null","","html-keyboard-response","206","308698","0.0-4.0-2.55","","<div style=""font-size:60px;"">+</div>","null","","","","","","",""
"382.26499999291264","","image-keyboard-response","207","309082","0.0-4.0-0.56","","img/yellow.png","32","trial","null","false","0.2,0.8","2:nogo_b","",""
"null","","html-keyboard-response","208","310089","0.0-4.0-1.56","","<img src=""img/yellow-n.png"" border=""10"">","null","trial","null","","0.2,0.8","2:nogo_b","0",""
"null","","html-keyboard-response","209","311095","0.0-4.0-2.56","","<div style=""font-size:60px;"">+</div>","null","","","","","","",""
"370.3699999896344","","image-keyboard-response","210","311467","0.0-4.0-0.57","","img/red.png","32","trial","32","true","0.8,0.2","1:go_a","",""
"null","","html-keyboard-response","211","312475","0.0-4.0-1.57","","<img src=""img/red-r.png"" border=""10"">","null","trial","32","","0.8,0.2","1:go_a","1",""
"null","","html-keyboard-response","212","313478","0.0-4.0-2.57","","<div style=""font-size:60px;"">+</div>","null","","","","","","",""
"347.2300000139512","","image-keyboard-response","213","313826","0.0-4.0-0.58","","img/red.png","32","trial","32","true","0.8,0.2","1:go_a","",""
"null","","html-keyboard-response","214","314834","0.0-4.0-1.58","","<img src=""img/red-r.png"" border=""10"">","null","trial","32","","0.8,0.2","1:go_a","1",""
"null","","html-keyboard-response","215","315840","0.0-4.0-2.58","","<div style=""font-size:60px;"">+</div>","null","","","","","","",""
"369.0549999882933","","image-keyboard-response","216","316211","0.0-4.0-0.59","","img/yellow.png","32","trial","null","false","0.2,0.8","2:nogo_b","",""
"null","","html-keyboard-response","217","317218","0.0-4.0-1.59","","<img src=""img/yellow-n.png"" border=""10"">","null","trial","null","","0.2,0.8","2:nogo_b","0",""
"null","","html-keyboard-response","218","318224","0.0-4.0-2.59","","<div style=""font-size:60px;"">+</div>","null","","","","","","",""
"54539.42499999539","","instructions","219","372764","0.0-5.0","[{""page_index"":0,""viewing_time"":54538.375000003725}]","","","","","","","","",""
"786.7899999837391","","image-keyboard-response","220","373554","0.0-6.0-0.0","","img/green.png","32","trial","null","false","0.2,0.8","2:nogo_b","",""
"null","","html-keyboard-response","221","374558","0.0-6.0-1.0","","<img src=""img/green-n.png"" border=""10"">","null","trial","null","","0.2,0.8","2:nogo_b","0",""
"null","","html-keyboard-response","222","375564","0.0-6.0-2.0","","<div style=""font-size:60px;"">+</div>","null","","","","","","",""
"380.43499999912456","","image-keyboard-response","223","375946","0.0-6.0-0.1","","img/yellow.png","32","trial","null","false","0,1","4:nogo_d","",""
"null","","html-keyboard-response","224","376949","0.0-6.0-1.1","","<img src=""img/yellow-n.png"" border=""10"">","null","trial","null","","0,1","4:nogo_d","0",""
"null","","html-keyboard-response","225","377955","0.0-6.0-2.1","","<div style=""font-size:60px;"">+</div>","null","","","","","","",""
"484.4349999912083","","image-keyboard-response","226","378441","0.0-6.0-0.2","","img/grey.png","32","trial","32","true","0.8,0.2","1:go_a","",""
"null","","html-keyboard-response","227","379447","0.0-6.0-1.2","","<img src=""img/grey-n.png"" border=""10"">","null","trial","32","","0.8,0.2","1:go_a","0",""
"null","","html-keyboard-response","228","380449","0.0-6.0-2.2","","<div style=""font-size:60px;"">+</div>","null","","","","","","",""
"565.1499999803491","","image-keyboard-response","229","381016","0.0-6.0-0.3","","img/purple.png","32","trial","32","true","1,0","3:go_c","",""
"null","","html-keyboard-response","230","382022","0.0-6.0-1.3","","<img src=""img/purple-r.png"" border=""10"">","null","trial","32","","1,0","3:go_c","1",""
"null","","html-keyboard-response","231","383024","0.0-6.0-2.3","","<div style=""font-size:60px;"">+</div>","null","","","","","","",""
"423.800000018673","","image-keyboard-response","232","383449","0.0-6.0-0.4","","img/purple.png","32","trial","32","true","1,0","3:go_c","",""
"null","","html-keyboard-response","233","384454","0.0-6.0-1.4","","<img src=""img/purple-r.png"" border=""10"">","null","trial","32","","1,0","3:go_c","1",""
"null","","html-keyboard-response","234","385458","0.0-6.0-2.4","","<div style=""font-size:60px;"">+</div>","null","","","","","","",""
"782.2300000116229","","image-keyboard-response","235","386242","0.0-6.0-0.5","","img/green.png","32","trial","null","false","0.2,0.8","2:nogo_b","",""
"null","","html-keyboard-response","236","387248","0.0-6.0-1.5","","<img src=""img/green-n.png"" border=""10"">","null","trial","null","","0.2,0.8","2:nogo_b","0",""
"null","","html-keyboard-response","237","388254","0.0-6.0-2.5","","<div style=""font-size:60px;"">+</div>","null","","","","","","",""
"null","","image-keyboard-response","238","389758","0.0-6.0-0.6","","img/yellow.png","null","trial","null","true","0,1","4:nogo_d","",""
"null","","html-keyboard-response","239","390766","0.0-6.0-1.6","","<img src=""img/yellow-r.png"">","null","trial","null","","0,1","4:nogo_d","1",""
"null","","html-keyboard-response","240","391768","0.0-6.0-2.6","","<div style=""font-size:60px;"">+</div>","null","","","","","","",""
"null","","image-keyboard-response","241","393272","0.0-6.0-0.7","","img/grey.png","null","trial","32","false","0.8,0.2","1:go_a","",""
"null","","html-keyboard-response","242","394276","0.0-6.0-1.7","","<img src=""img/grey-n.png"">","null","trial","32","","0.8,0.2","1:go_a","0",""
"null","","html-keyboard-response","243","395283","0.0-6.0-2.7","","<div style=""font-size:60px;"">+</div>","null","","","","","","",""
"500.72999999974854","","image-keyboard-response","244","395785","0.0-6.0-0.8","","img/purple.png","32","trial","32","true","1,0","3:go_c","",""
"null","","html-keyboard-response","245","396789","0.0-6.0-1.8","","<img src=""img/purple-r.png"" border=""10"">","null","trial","32","","1,0","3:go_c","1",""
"null","","html-keyboard-response","246","397795","0.0-6.0-2.8","","<div style=""font-size:60px;"">+</div>","null","","","","","","",""
"null","","image-keyboard-response","247","399302","0.0-6.0-0.9","","img/grey.png","null","trial","32","false","0.8,0.2","1:go_a","",""
"null","","html-keyboard-response","248","400305","0.0-6.0-1.9","","<img src=""img/grey-n.png"">","null","trial","32","","0.8,0.2","1:go_a","0",""
"null","","html-keyboard-response","249","401311","0.0-6.0-2.9","","<div style=""font-size:60px;"">+</div>","null","","","","","","",""
"584.6850000089034","","image-keyboard-response","250","401897","0.0-6.0-0.10","","img/yellow.png","32","trial","null","false","0,1","4:nogo_d","",""
"null","","html-keyboard-response","251","402905","0.0-6.0-1.10","","<img src=""img/yellow-n.png"" border=""10"">","null","trial","null","","0,1","4:nogo_d","0",""
"null","","html-keyboard-response","252","403911","0.0-6.0-2.10","","<div style=""font-size:60px;"">+</div>","null","","","","","","",""
"391.6650000028312","","image-keyboard-response","253","404304","0.0-6.0-0.11","","img/green.png","32","trial","null","false","0.2,0.8","2:nogo_b","",""
"null","","html-keyboard-response","254","405310","0.0-6.0-1.11","","<img src=""img/green-n.png"" border=""10"">","null","trial","null","","0.2,0.8","2:nogo_b","0",""
"null","","html-keyboard-response","255","406312","0.0-6.0-2.11","","<div style=""font-size:60px;"">+</div>","null","","","","","","",""
"null","","image-keyboard-response","256","407819","0.0-6.0-0.12","","img/grey.png","null","trial","32","false","0.8,0.2","1:go_a","",""
"null","","html-keyboard-response","257","408822","0.0-6.0-1.12","","<img src=""img/grey-n.png"">","null","trial","32","","0.8,0.2","1:go_a","0",""
"null","","html-keyboard-response","258","409828","0.0-6.0-2.12","","<div style=""font-size:60px;"">+</div>","null","","","","","","",""
"578.2000000181142","","image-keyboard-response","259","410408","0.0-6.0-0.13","","img/yellow.png","32","trial","null","false","0,1","4:nogo_d","",""
"null","","html-keyboard-response","260","411416","0.0-6.0-1.13","","<img src=""img/yellow-n.png"" border=""10"">","null","trial","null","","0,1","4:nogo_d","0",""
"null","","html-keyboard-response","261","412419","0.0-6.0-2.13","","<div style=""font-size:60px;"">+</div>","null","","","","","","",""
"null","","image-keyboard-response","262","413925","0.0-6.0-0.14","","img/green.png","null","trial","null","true","0.2,0.8","2:nogo_b","",""
"null","","html-keyboard-response","263","414927","0.0-6.0-1.14","","<img src=""img/green-r.png"">","null","trial","null","","0.2,0.8","2:nogo_b","1",""
"null","","html-keyboard-response","264","415933","0.0-6.0-2.14","","<div style=""font-size:60px;"">+</div>","null","","","","","","",""
"450.02499999827705","","image-keyboard-response","265","416385","0.0-6.0-0.15","","img/purple.png","32","trial","32","true","1,0","3:go_c","",""
"null","","html-keyboard-response","266","417391","0.0-6.0-1.15","","<img src=""img/purple-r.png"" border=""10"">","null","trial","32","","1,0","3:go_c","1",""
"null","","html-keyboard-response","267","418395","0.0-6.0-2.15","","<div style=""font-size:60px;"">+</div>","null","","","","","","",""
"651.6999999876134","","image-keyboard-response","268","419049","0.0-6.0-0.16","","img/green.png","32","trial","null","false","0.2,0.8","2:nogo_b","",""
"null","","html-keyboard-response","269","420053","0.0-6.0-1.16","","<img src=""img/green-n.png"" border=""10"">","null","trial","null","","0.2,0.8","2:nogo_b","0",""
"null","","html-keyboard-response","270","421058","0.0-6.0-2.16","","<div style=""font-size:60px;"">+</div>","null","","","","","","",""
"null","","image-keyboard-response","271","422561","0.0-6.0-0.17","","img/grey.png","null","trial","32","false","0.8,0.2","1:go_a","",""
"null","","html-keyboard-response","272","423568","0.0-6.0-1.17","","<img src=""img/grey-n.png"">","null","trial","32","","0.8,0.2","1:go_a","0",""
"null","","html-keyboard-response","273","424575","0.0-6.0-2.17","","<div style=""font-size:60px;"">+</div>","null","","","","","","",""
"null","","image-keyboard-response","274","426081","0.0-6.0-0.18","","img/yellow.png","null","trial","null","true","0,1","4:nogo_d","",""
"null","","html-keyboard-response","275","427087","0.0-6.0-1.18","","<img src=""img/yellow-r.png"">","null","trial","null","","0,1","4:nogo_d","1",""
"null","","html-keyboard-response","276","428089","0.0-6.0-2.18","","<div style=""font-size:60px;"">+</div>","null","","","","","","",""
"463.07999998680316","","image-keyboard-response","277","428553","0.0-6.0-0.19","","img/purple.png","32","trial","32","true","1,0","3:go_c","",""
"null","","html-keyboard-response","278","429557","0.0-6.0-1.19","","<img src=""img/purple-r.png"" border=""10"">","null","trial","32","","1,0","3:go_c","1",""
"null","","html-keyboard-response","279","430560","0.0-6.0-2.19","","<div style=""font-size:60px;"">+</div>","null","","","","","","",""
"558.9200000104029","","image-keyboard-response","280","431120","0.0-6.0-0.20","","img/yellow.png","32","trial","null","false","0,1","4:nogo_d","",""
"null","","html-keyboard-response","281","432127","0.0-6.0-1.20","","<img src=""img/yellow-n.png"" border=""10"">","null","trial","null","","0,1","4:nogo_d","0",""
"null","","html-keyboard-response","282","433129","0.0-6.0-2.20","","<div style=""font-size:60px;"">+</div>","null","","","","","","",""
"837.8250000241678","","image-keyboard-response","283","433968","0.0-6.0-0.21","","img/green.png","32","trial","null","false","0.2,0.8","2:nogo_b","",""
"null","","html-keyboard-response","284","434976","0.0-6.0-1.21","","<img src=""img/green-n.png"" border=""10"">","null","trial","null","","0.2,0.8","2:nogo_b","0",""
"null","","html-keyboard-response","285","435982","0.0-6.0-2.21","","<div style=""font-size:60px;"">+</div>","null","","","","","","",""
"519.7399999888148","","image-keyboard-response","286","436504","0.0-6.0-0.22","","img/purple.png","32","trial","32","true","1,0","3:go_c","",""
"null","","html-keyboard-response","287","437510","0.0-6.0-1.22","","<img src=""img/purple-r.png"" border=""10"">","null","trial","32","","1,0","3:go_c","1",""
"null","","html-keyboard-response","288","438516","0.0-6.0-2.22","","<div style=""font-size:60px;"">+</div>","null","","","","","","",""
"null","","image-keyboard-response","289","440023","0.0-6.0-0.23","","img/grey.png","null","trial","32","false","0.8,0.2","1:go_a","",""
"null","","html-keyboard-response","290","441028","0.0-6.0-1.23","","<img src=""img/grey-n.png"">","null","trial","32","","0.8,0.2","1:go_a","0",""
"null","","html-keyboard-response","291","442029","0.0-6.0-2.23","","<div style=""font-size:60px;"">+</div>","null","","","","","","",""
"497.5799999956507","","image-keyboard-response","292","442529","0.0-6.0-0.24","","img/purple.png","32","trial","32","true","1,0","3:go_c","",""
"null","","html-keyboard-response","293","443534","0.0-6.0-1.24","","<img src=""img/purple-r.png"" border=""10"">","null","trial","32","","1,0","3:go_c","1",""
"null","","html-keyboard-response","294","444536","0.0-6.0-2.24","","<div style=""font-size:60px;"">+</div>","null","","","","","","",""
"null","","image-keyboard-response","295","446044","0.0-6.0-0.25","","img/grey.png","null","trial","32","false","0.8,0.2","1:go_a","",""
"null","","html-keyboard-response","296","447046","0.0-6.0-1.25","","<img src=""img/grey-r.png"">","null","trial","32","","0.8,0.2","1:go_a","1",""
"null","","html-keyboard-response","297","448052","0.0-6.0-2.25","","<div style=""font-size:60px;"">+</div>","null","","","","","","",""
"null","","image-keyboard-response","298","449558","0.0-6.0-0.26","","img/green.png","null","trial","null","true","0.2,0.8","2:nogo_b","",""
"null","","html-keyboard-response","299","450561","0.0-6.0-1.26","","<img src=""img/green-r.png"">","null","trial","null","","0.2,0.8","2:nogo_b","1",""
"null","","html-keyboard-response","300","451566","0.0-6.0-2.26","","<div style=""font-size:60px;"">+</div>","null","","","","","","",""
"null","","image-keyboard-response","301","453073","0.0-6.0-0.27","","img/yellow.png","null","trial","null","true","0,1","4:nogo_d","",""
"null","","html-keyboard-response","302","454080","0.0-6.0-1.27","","<img src=""img/yellow-r.png"">","null","trial","null","","0,1","4:nogo_d","1",""
"null","","html-keyboard-response","303","455084","0.0-6.0-2.27","","<div style=""font-size:60px;"">+</div>","null","","","","","","",""
"443.25000001117587","","image-keyboard-response","304","455529","0.0-6.0-0.28","","img/grey.png","32","trial","32","true","0.8,0.2","1:go_a","",""
"null","","html-keyboard-response","305","456536","0.0-6.0-1.28","","<img src=""img/grey-r.png"" border=""10"">","null","trial","32","","0.8,0.2","1:go_a","1",""
"null","","html-keyboard-response","306","457542","0.0-6.0-2.28","","<div style=""font-size:60px;"">+</div>","null","","","","","","",""
"447.74500001221895","","image-keyboard-response","307","457992","0.0-6.0-0.29","","img/yellow.png","32","trial","null","false","0,1","4:nogo_d","",""
"null","","html-keyboard-response","308","458999","0.0-6.0-1.29","","<img src=""img/yellow-n.png"" border=""10"">","null","trial","null","","0,1","4:nogo_d","0",""
"null","","html-keyboard-response","309","460005","0.0-6.0-2.29","","<div style=""font-size:60px;"">+</div>","null","","","","","","",""
"320.2549999987241","","image-keyboard-response","310","460327","0.0-6.0-0.30","","img/purple.png","32","trial","32","true","1,0","3:go_c","",""
"null","","html-keyboard-response","311","461335","0.0-6.0-1.30","","<img src=""img/purple-r.png"" border=""10"">","null","trial","32","","1,0","3:go_c","1",""
"null","","html-keyboard-response","312","462337","0.0-6.0-2.30","","<div style=""font-size:60px;"">+</div>","null","","","","","","",""
"333.33999998285435","","image-keyboard-response","313","462672","0.0-6.0-0.31","","img/green.png","32","trial","null","false","0.2,0.8","2:nogo_b","",""
"null","","html-keyboard-response","314","463675","0.0-6.0-1.31","","<img src=""img/green-n.png"" border=""10"">","null","trial","null","","0.2,0.8","2:nogo_b","0",""
"null","","html-keyboard-response","315","464681","0.0-6.0-2.31","","<div style=""font-size:60px;"">+</div>","null","","","","","","",""
"429.1899999952875","","image-keyboard-response","316","465111","0.0-6.0-0.32","","img/grey.png","32","trial","32","true","0.8,0.2","1:go_a","",""
"null","","html-keyboard-response","317","466117","0.0-6.0-1.32","","<img src=""img/grey-n.png"" border=""10"">","null","trial","32","","0.8,0.2","1:go_a","0",""
"null","","html-keyboard-response","318","467123","0.0-6.0-2.32","","<div style=""font-size:60px;"">+</div>","null","","","","","","",""
"null","","image-keyboard-response","319","468627","0.0-6.0-0.33","","img/yellow.png","null","trial","null","true","0,1","4:nogo_d","",""
"null","","html-keyboard-response","320","469633","0.0-6.0-1.33","","<img src=""img/yellow-r.png"">","null","trial","null","","0,1","4:nogo_d","1",""
"null","","html-keyboard-response","321","470635","0.0-6.0-2.33","","<div style=""font-size:60px;"">+</div>","null","","","","","","",""
"594.184999994468","","image-keyboard-response","322","471230","0.0-6.0-0.34","","img/green.png","32","trial","null","false","0.2,0.8","2:nogo_b","",""
"null","","html-keyboard-response","323","472233","0.0-6.0-1.34","","<img src=""img/green-n.png"" border=""10"">","null","trial","null","","0.2,0.8","2:nogo_b","0",""
"null","","html-keyboard-response","324","473236","0.0-6.0-2.34","","<div style=""font-size:60px;"">+</div>","null","","","","","","",""
"346.85000000172295","","image-keyboard-response","325","473584","0.0-6.0-0.35","","img/purple.png","32","trial","32","true","1,0","3:go_c","",""
"null","","html-keyboard-response","326","474591","0.0-6.0-1.35","","<img src=""img/purple-r.png"" border=""10"">","null","trial","32","","1,0","3:go_c","1",""
"null","","html-keyboard-response","327","475598","0.0-6.0-2.35","","<div style=""font-size:60px;"">+</div>","null","","","","","","",""
"647.7850000082981","","image-keyboard-response","328","476247","0.0-6.0-0.36","","img/green.png","32","trial","null","false","0.2,0.8","2:nogo_b","",""
"null","","html-keyboard-response","329","477254","0.0-6.0-1.36","","<img src=""img/green-n.png"" border=""10"">","null","trial","null","","0.2,0.8","2:nogo_b","0",""
"null","","html-keyboard-response","330","478260","0.0-6.0-2.36","","<div style=""font-size:60px;"">+</div>","null","","","","","","",""
"null","","image-keyboard-response","331","479767","0.0-6.0-0.37","","img/grey.png","null","trial","32","false","0.8,0.2","1:go_a","",""
"null","","html-keyboard-response","332","480769","0.0-6.0-1.37","","<img src=""img/grey-n.png"">","null","trial","32","","0.8,0.2","1:go_a","0",""
"null","","html-keyboard-response","333","481771","0.0-6.0-2.37","","<div style=""font-size:60px;"">+</div>","null","","","","","","",""
"null","","image-keyboard-response","334","483278","0.0-6.0-0.38","","img/yellow.png","null","trial","null","true","0,1","4:nogo_d","",""
"null","","html-keyboard-response","335","484285","0.0-6.0-1.38","","<img src=""img/yellow-r.png"">","null","trial","null","","0,1","4:nogo_d","1",""
"null","","html-keyboard-response","336","485291","0.0-6.0-2.38","","<div style=""font-size:60px;"">+</div>","null","","","","","","",""
"443.7549999856856","","image-keyboard-response","337","485736","0.0-6.0-0.39","","img/purple.png","32","trial","32","true","1,0","3:go_c","",""
"null","","html-keyboard-response","338","486742","0.0-6.0-1.39","","<img src=""img/purple-r.png"" border=""10"">","null","trial","32","","1,0","3:go_c","1",""
"null","","html-keyboard-response","339","487749","0.0-6.0-2.39","","<div style=""font-size:60px;"">+</div>","null","","","","","","",""
"null","","image-keyboard-response","340","489255","0.0-6.0-0.40","","img/grey.png","null","trial","32","false","0.8,0.2","1:go_a","",""
"null","","html-keyboard-response","341","490263","0.0-6.0-1.40","","<img src=""img/grey-n.png"">","null","trial","32","","0.8,0.2","1:go_a","0",""
"null","","html-keyboard-response","342","491269","0.0-6.0-2.40","","<div style=""font-size:60px;"">+</div>","null","","","","","","",""
"null","","image-keyboard-response","343","492773","0.0-6.0-0.41","","img/green.png","null","trial","null","true","0.2,0.8","2:nogo_b","",""
"null","","html-keyboard-response","344","493780","0.0-6.0-1.41","","<img src=""img/green-r.png"">","null","trial","null","","0.2,0.8","2:nogo_b","1",""
"null","","html-keyboard-response","345","494786","0.0-6.0-2.41","","<div style=""font-size:60px;"">+</div>","null","","","","","","",""
"386.83500001206994","","image-keyboard-response","346","495175","0.0-6.0-0.42","","img/yellow.png","32","trial","null","false","0,1","4:nogo_d","",""
"null","","html-keyboard-response","347","496183","0.0-6.0-1.42","","<img src=""img/yellow-n.png"" border=""10"">","null","trial","null","","0,1","4:nogo_d","0",""
"null","","html-keyboard-response","348","497189","0.0-6.0-2.42","","<div style=""font-size:60px;"">+</div>","null","","","","","","",""
"520.3749999927823","","image-keyboard-response","349","497711","0.0-6.0-0.43","","img/purple.png","32","trial","32","true","1,0","3:go_c","",""
"null","","html-keyboard-response","350","498719","0.0-6.0-1.43","","<img src=""img/purple-r.png"" border=""10"">","null","trial","32","","1,0","3:go_c","1",""
"null","","html-keyboard-response","351","499720","0.0-6.0-2.43","","<div style=""font-size:60px;"">+</div>","null","","","","","","",""
"639.4150000123773","","image-keyboard-response","352","500361","0.0-6.0-0.44","","img/purple.png","32","trial","32","true","1,0","3:go_c","",""
"null","","html-keyboard-response","353","501364","0.0-6.0-1.44","","<img src=""img/purple-r.png"" border=""10"">","null","trial","32","","1,0","3:go_c","1",""
"null","","html-keyboard-response","354","502369","0.0-6.0-2.44","","<div style=""font-size:60px;"">+</div>","null","","","","","","",""
"null","","image-keyboard-response","355","503871","0.0-6.0-0.45","","img/grey.png","null","trial","32","false","0.8,0.2","1:go_a","",""
"null","","html-keyboard-response","356","504874","0.0-6.0-1.45","","<img src=""img/grey-r.png"">","null","trial","32","","0.8,0.2","1:go_a","1",""
"null","","html-keyboard-response","357","505876","0.0-6.0-2.45","","<div style=""font-size:60px;"">+</div>","null","","","","","","",""
"null","","image-keyboard-response","358","507382","0.0-6.0-0.46","","img/yellow.png","null","trial","null","true","0,1","4:nogo_d","",""
"null","","html-keyboard-response","359","508389","0.0-6.0-1.46","","<img src=""img/yellow-r.png"">","null","trial","null","","0,1","4:nogo_d","1",""
"null","","html-keyboard-response","360","509395","0.0-6.0-2.46","","<div style=""font-size:60px;"">+</div>","null","","","","","","",""
"418.1899999966845","","image-keyboard-response","361","509815","0.0-6.0-0.47","","img/green.png","32","trial","null","false","0.2,0.8","2:nogo_b","",""
"null","","html-keyboard-response","362","510817","0.0-6.0-1.47","","<img src=""img/green-n.png"" border=""10"">","null","trial","null","","0.2,0.8","2:nogo_b","0",""
"null","","html-keyboard-response","363","511823","0.0-6.0-2.47","","<div style=""font-size:60px;"">+</div>","null","","","","","","",""
"null","","image-keyboard-response","364","513325","0.0-6.0-0.48","","img/green.png","null","trial","null","true","0.2,0.8","2:nogo_b","",""
"null","","html-keyboard-response","365","514332","0.0-6.0-1.48","","<img src=""img/green-n.png"">","null","trial","null","","0.2,0.8","2:nogo_b","0",""
"null","","html-keyboard-response","366","515338","0.0-6.0-2.48","","<div style=""font-size:60px;"">+</div>","null","","","","","","",""
"586.0450000036508","","image-keyboard-response","367","515926","0.0-6.0-0.49","","img/grey.png","32","trial","32","true","0.8,0.2","1:go_a","",""
"null","","html-keyboard-response","368","516933","0.0-6.0-1.49","","<img src=""img/grey-r.png"" border=""10"">","null","trial","32","","0.8,0.2","1:go_a","1",""
"null","","html-keyboard-response","369","517935","0.0-6.0-2.49","","<div style=""font-size:60px;"">+</div>","null","","","","","","",""
"581.8600000056904","","image-keyboard-response","370","518518","0.0-6.0-0.50","","img/yellow.png","32","trial","null","false","0,1","4:nogo_d","",""
"null","","html-keyboard-response","371","519521","0.0-6.0-1.50","","<img src=""img/yellow-n.png"" border=""10"">","null","trial","null","","0,1","4:nogo_d","0",""
"null","","html-keyboard-response","372","520527","0.0-6.0-2.50","","<div style=""font-size:60px;"">+</div>","null","","","","","","",""
"396.294999984093","","image-keyboard-response","373","520925","0.0-6.0-0.51","","img/purple.png","32","trial","32","true","1,0","3:go_c","",""
"null","","html-keyboard-response","374","521932","0.0-6.0-1.51","","<img src=""img/purple-r.png"" border=""10"">","null","trial","32","","1,0","3:go_c","1",""
"null","","html-keyboard-response","375","522938","0.0-6.0-2.51","","<div style=""font-size:60px;"">+</div>","null","","","","","","",""
"466.55499999178573","","image-keyboard-response","376","523406","0.0-6.0-0.52","","img/purple.png","32","trial","32","true","1,0","3:go_c","",""
"null","","html-keyboard-response","377","524414","0.0-6.0-1.52","","<img src=""img/purple-r.png"" border=""10"">","null","trial","32","","1,0","3:go_c","1",""
"null","","html-keyboard-response","378","525416","0.0-6.0-2.52","","<div style=""font-size:60px;"">+</div>","null","","","","","","",""
"436.9799999985844","","image-keyboard-response","379","525854","0.0-6.0-0.53","","img/grey.png","32","trial","32","true","0.8,0.2","1:go_a","",""
"null","","html-keyboard-response","380","526857","0.0-6.0-1.53","","<img src=""img/grey-r.png"" border=""10"">","null","trial","32","","0.8,0.2","1:go_a","1",""
"null","","html-keyboard-response","381","527862","0.0-6.0-2.53","","<div style=""font-size:60px;"">+</div>","null","","","","","","",""
"null","","image-keyboard-response","382","529364","0.0-6.0-0.54","","img/yellow.png","null","trial","null","true","0,1","4:nogo_d","",""
"null","","html-keyboard-response","383","530366","0.0-6.0-1.54","","<img src=""img/yellow-r.png"">","null","trial","null","","0,1","4:nogo_d","1",""
"null","","html-keyboard-response","384","531370","0.0-6.0-2.54","","<div style=""font-size:60px;"">+</div>","null","","","","","","",""
"null","","image-keyboard-response","385","532873","0.0-6.0-0.55","","img/green.png","null","trial","null","true","0.2,0.8","2:nogo_b","",""
"null","","html-keyboard-response","386","533876","0.0-6.0-1.55","","<img src=""img/green-r.png"">","null","trial","null","","0.2,0.8","2:nogo_b","1",""
"null","","html-keyboard-response","387","534881","0.0-6.0-2.55","","<div style=""font-size:60px;"">+</div>","null","","","","","","",""
"522.2549999889452","","image-keyboard-response","388","535405","0.0-6.0-0.56","","img/grey.png","32","trial","32","true","0.8,0.2","1:go_a","",""
"null","","html-keyboard-response","389","536413","0.0-6.0-1.56","","<img src=""img/grey-r.png"" border=""10"">","null","trial","32","","0.8,0.2","1:go_a","1",""
"null","","html-keyboard-response","390","537419","0.0-6.0-2.56","","<div style=""font-size:60px;"">+</div>","null","","","","","","",""
"515.7300000137184","","image-keyboard-response","391","537936","0.0-6.0-0.57","","img/purple.png","32","trial","32","true","1,0","3:go_c","",""
"null","","html-keyboard-response","392","538942","0.0-6.0-1.57","","<img src=""img/purple-r.png"" border=""10"">","null","trial","32","","1,0","3:go_c","1",""
"null","","html-keyboard-response","393","539949","0.0-6.0-2.57","","<div style=""font-size:60px;"">+</div>","null","","","","","","",""
"344.07999998074956","","image-keyboard-response","394","540294","0.0-6.0-0.58","","img/green.png","32","trial","null","false","0.2,0.8","2:nogo_b","",""
"null","","html-keyboard-response","395","541301","0.0-6.0-1.58","","<img src=""img/green-n.png"" border=""10"">","null","trial","null","","0.2,0.8","2:nogo_b","0",""
"null","","html-keyboard-response","396","542304","0.0-6.0-2.58","","<div style=""font-size:60px;"">+</div>","null","","","","","","",""
"315.5100000149105","","image-keyboard-response","397","542621","0.0-6.0-0.59","","img/yellow.png","32","trial","null","false","0,1","4:nogo_d","",""
"null","","html-keyboard-response","398","543629","0.0-6.0-1.59","","<img src=""img/yellow-n.png"" border=""10"">","null","trial","null","","0,1","4:nogo_d","0",""
"null","","html-keyboard-response","399","544635","0.0-6.0-2.59","","<div style=""font-size:60px;"">+</div>","null","","","","","","",""
"408.55500000179745","","image-keyboard-response","400","545046","0.0-6.0-0.60","","img/grey.png","32","trial","32","true","0.8,0.2","1:go_a","",""
"null","","html-keyboard-response","401","546050","0.0-6.0-1.60","","<img src=""img/grey-r.png"" border=""10"">","null","trial","32","","0.8,0.2","1:go_a","1",""
"null","","html-keyboard-response","402","547057","0.0-6.0-2.60","","<div style=""font-size:60px;"">+</div>","null","","","","","","",""
"null","","image-keyboard-response","403","548559","0.0-6.0-0.61","","img/green.png","null","trial","null","true","0.2,0.8","2:nogo_b","",""
"null","","html-keyboard-response","404","549566","0.0-6.0-1.61","","<img src=""img/green-r.png"">","null","trial","null","","0.2,0.8","2:nogo_b","1",""
"null","","html-keyboard-response","405","550572","0.0-6.0-2.61","","<div style=""font-size:60px;"">+</div>","null","","","","","","",""
"558.7649999943096","","image-keyboard-response","406","551132","0.0-6.0-0.62","","img/purple.png","32","trial","32","true","1,0","3:go_c","",""
"null","","html-keyboard-response","407","552134","0.0-6.0-1.62","","<img src=""img/purple-r.png"" border=""10"">","null","trial","32","","1,0","3:go_c","1",""
"null","","html-keyboard-response","408","553139","0.0-6.0-2.62","","<div style=""font-size:60px;"">+</div>","null","","","","","","",""
"712.904999993043","","image-keyboard-response","409","553854","0.0-6.0-0.63","","img/yellow.png","32","trial","null","false","0,1","4:nogo_d","",""
"null","","html-keyboard-response","410","554861","0.0-6.0-1.63","","<img src=""img/yellow-n.png"" border=""10"">","null","trial","null","","0,1","4:nogo_d","0",""
"null","","html-keyboard-response","411","555864","0.0-6.0-2.63","","<div style=""font-size:60px;"">+</div>","null","","","","","","",""
"516.0699999833014","","image-keyboard-response","412","556381","0.0-6.0-0.64","","img/purple.png","32","trial","32","true","1,0","3:go_c","",""
"null","","html-keyboard-response","413","557387","0.0-6.0-1.64","","<img src=""img/purple-r.png"" border=""10"">","null","trial","32","","1,0","3:go_c","1",""
"null","","html-keyboard-response","414","558389","0.0-6.0-2.64","","<div style=""font-size:60px;"">+</div>","null","","","","","","",""
"null","","image-keyboard-response","415","559892","0.0-6.0-0.65","","img/grey.png","null","trial","32","false","0.8,0.2","1:go_a","",""
"null","","html-keyboard-response","416","560896","0.0-6.0-1.65","","<img src=""img/grey-n.png"">","null","trial","32","","0.8,0.2","1:go_a","0",""
"null","","html-keyboard-response","417","561897","0.0-6.0-2.65","","<div style=""font-size:60px;"">+</div>","null","","","","","","",""
"858.894999983022","","image-keyboard-response","418","562758","0.0-6.0-0.66","","img/yellow.png","32","trial","null","false","0,1","4:nogo_d","",""
"null","","html-keyboard-response","419","563765","0.0-6.0-1.66","","<img src=""img/yellow-n.png"" border=""10"">","null","trial","null","","0,1","4:nogo_d","0",""
"null","","html-keyboard-response","420","564771","0.0-6.0-2.66","","<div style=""font-size:60px;"">+</div>","null","","","","","","",""
"null","","image-keyboard-response","421","566275","0.0-6.0-0.67","","img/green.png","null","trial","null","true","0.2,0.8","2:nogo_b","",""
"null","","html-keyboard-response","422","567282","0.0-6.0-1.67","","<img src=""img/green-r.png"">","null","trial","null","","0.2,0.8","2:nogo_b","1",""
"null","","html-keyboard-response","423","568288","0.0-6.0-2.67","","<div style=""font-size:60px;"">+</div>","null","","","","","","",""
"594.1150000144262","","image-keyboard-response","424","568884","0.0-6.0-0.68","","img/green.png","32","trial","null","false","0.2,0.8","2:nogo_b","",""
"null","","html-keyboard-response","425","569888","0.0-6.0-1.68","","<img src=""img/green-n.png"" border=""10"">","null","trial","null","","0.2,0.8","2:nogo_b","0",""
"null","","html-keyboard-response","426","570897","0.0-6.0-2.68","","<div style=""font-size:60px;"">+</div>","null","","","","","","",""
"442.5199999823235","","image-keyboard-response","427","571341","0.0-6.0-0.69","","img/purple.png","32","trial","32","true","1,0","3:go_c","",""
"null","","html-keyboard-response","428","572349","0.0-6.0-1.69","","<img src=""img/purple-r.png"" border=""10"">","null","trial","32","","1,0","3:go_c","1",""
"null","","html-keyboard-response","429","573355","0.0-6.0-2.69","","<div style=""font-size:60px;"">+</div>","null","","","","","","",""
"null","","image-keyboard-response","430","574858","0.0-6.0-0.70","","img/grey.png","null","trial","32","false","0.8,0.2","1:go_a","",""
"null","","html-keyboard-response","431","575865","0.0-6.0-1.70","","<img src=""img/grey-n.png"">","null","trial","32","","0.8,0.2","1:go_a","0",""
"null","","html-keyboard-response","432","576872","0.0-6.0-2.70","","<div style=""font-size:60px;"">+</div>","null","","","","","","",""
"null","","image-keyboard-response","433","578374","0.0-6.0-0.71","","img/yellow.png","null","trial","null","true","0,1","4:nogo_d","",""
"null","","html-keyboard-response","434","579381","0.0-6.0-1.71","","<img src=""img/yellow-r.png"">","null","trial","null","","0,1","4:nogo_d","1",""
"null","","html-keyboard-response","435","580386","0.0-6.0-2.71","","<div style=""font-size:60px;"">+</div>","null","","","","","","",""
"null","","image-keyboard-response","436","581893","0.0-6.0-0.72","","img/green.png","null","trial","null","true","0.2,0.8","2:nogo_b","",""
"null","","html-keyboard-response","437","582898","0.0-6.0-1.72","","<img src=""img/green-n.png"">","null","trial","null","","0.2,0.8","2:nogo_b","0",""
"null","","html-keyboard-response","438","583904","0.0-6.0-2.72","","<div style=""font-size:60px;"">+</div>","null","","","","","","",""
"443.5300000186544","","image-keyboard-response","439","584349","0.0-6.0-0.73","","img/purple.png","32","trial","32","true","1,0","3:go_c","",""
"null","","html-keyboard-response","440","585353","0.0-6.0-1.73","","<img src=""img/purple-r.png"" border=""10"">","null","trial","32","","1,0","3:go_c","1",""
"null","","html-keyboard-response","441","586355","0.0-6.0-2.73","","<div style=""font-size:60px;"">+</div>","null","","","","","","",""
"839.9400000052992","","image-keyboard-response","442","587197","0.0-6.0-0.74","","img/yellow.png","32","trial","null","false","0,1","4:nogo_d","",""
"null","","html-keyboard-response","443","588199","0.0-6.0-1.74","","<img src=""img/yellow-n.png"" border=""10"">","null","trial","null","","0,1","4:nogo_d","0",""
"null","","html-keyboard-response","444","589201","0.0-6.0-2.74","","<div style=""font-size:60px;"">+</div>","null","","","","","","",""
"378.9049999904819","","image-keyboard-response","445","589581","0.0-6.0-0.75","","img/grey.png","32","trial","32","true","0.8,0.2","1:go_a","",""
"null","","html-keyboard-response","446","590588","0.0-6.0-1.75","","<img src=""img/grey-r.png"" border=""10"">","null","trial","32","","0.8,0.2","1:go_a","1",""
"null","","html-keyboard-response","447","591595","0.0-6.0-2.75","","<div style=""font-size:60px;"">+</div>","null","","","","","","",""
"1064.5899999944959","","image-keyboard-response","448","592661","0.0-6.0-0.76","","img/grey.png","32","trial","32","true","0.8,0.2","1:go_a","",""
"null","","html-keyboard-response","449","593666","0.0-6.0-1.76","","<img src=""img/grey-r.png"" border=""10"">","null","trial","32","","0.8,0.2","1:go_a","1",""
"null","","html-keyboard-response","450","594668","0.0-6.0-2.76","","<div style=""font-size:60px;"">+</div>","null","","","","","","",""
"null","","image-keyboard-response","451","596169","0.0-6.0-0.77","","img/green.png","null","trial","null","true","0.2,0.8","2:nogo_b","",""
"null","","html-keyboard-response","452","597173","0.0-6.0-1.77","","<img src=""img/green-n.png"">","null","trial","null","","0.2,0.8","2:nogo_b","0",""
"null","","html-keyboard-response","453","598175","0.0-6.0-2.77","","<div style=""font-size:60px;"">+</div>","null","","","","","","",""
"null","","image-keyboard-response","454","599680","0.0-6.0-0.78","","img/yellow.png","null","trial","null","true","0,1","4:nogo_d","",""
"null","","html-keyboard-response","455","600682","0.0-6.0-1.78","","<img src=""img/yellow-r.png"">","null","trial","null","","0,1","4:nogo_d","1",""
"null","","html-keyboard-response","456","601685","0.0-6.0-2.78","","<div style=""font-size:60px;"">+</div>","null","","","","","","",""
"469.79500001179986","","image-keyboard-response","457","602156","0.0-6.0-0.79","","img/purple.png","32","trial","32","true","1,0","3:go_c","",""
"null","","html-keyboard-response","458","603161","0.0-6.0-1.79","","<img src=""img/purple-r.png"" border=""10"">","null","trial","32","","1,0","3:go_c","1",""
"null","","html-keyboard-response","459","604162","0.0-6.0-2.79","","<div style=""font-size:60px;"">+</div>","null","","","","","","",""
"911.9899999932386","","image-keyboard-response","460","605076","0.0-6.0-0.80","","img/yellow.png","32","trial","null","false","0,1","4:nogo_d","",""
"null","","html-keyboard-response","461","606084","0.0-6.0-1.80","","<img src=""img/yellow-n.png"" border=""10"">","null","trial","null","","0,1","4:nogo_d","0",""
"null","","html-keyboard-response","462","607089","0.0-6.0-2.80","","<div style=""font-size:60px;"">+</div>","null","","","","","","",""
"641.7750000255182","","image-keyboard-response","463","607732","0.0-6.0-0.81","","img/green.png","32","trial","null","false","0.2,0.8","2:nogo_b","",""
"null","","html-keyboard-response","464","608737","0.0-6.0-1.81","","<img src=""img/green-r.png"" border=""10"">","null","trial","null","","0.2,0.8","2:nogo_b","1",""
"null","","html-keyboard-response","465","609740","0.0-6.0-2.81","","<div style=""font-size:60px;"">+</div>","null","","","","","","",""
"622.8899999987334","","image-keyboard-response","466","610364","0.0-6.0-0.82","","img/grey.png","32","trial","32","true","0.8,0.2","1:go_a","",""
"null","","html-keyboard-response","467","611372","0.0-6.0-1.82","","<img src=""img/grey-n.png"" border=""10"">","null","trial","32","","0.8,0.2","1:go_a","0",""
"null","","html-keyboard-response","468","612374","0.0-6.0-2.82","","<div style=""font-size:60px;"">+</div>","null","","","","","","",""
"397.46999999624677","","image-keyboard-response","469","612773","0.0-6.0-0.83","","img/purple.png","32","trial","32","true","1,0","3:go_c","",""
"null","","html-keyboard-response","470","613776","0.0-6.0-1.83","","<img src=""img/purple-r.png"" border=""10"">","null","trial","32","","1,0","3:go_c","1",""
"null","","html-keyboard-response","471","614779","0.0-6.0-2.83","","<div style=""font-size:60px;"">+</div>","null","","","","","","",""
"null","","image-keyboard-response","472","616286","0.0-6.0-0.84","","img/yellow.png","null","trial","null","true","0,1","4:nogo_d","",""
"null","","html-keyboard-response","473","617290","0.0-6.0-1.84","","<img src=""img/yellow-r.png"">","null","trial","null","","0,1","4:nogo_d","1",""
"null","","html-keyboard-response","474","618293","0.0-6.0-2.84","","<div style=""font-size:60px;"">+</div>","null","","","","","","",""
"469.37499998603016","","image-keyboard-response","475","618764","0.0-6.0-0.85","","img/green.png","32","trial","null","false","0.2,0.8","2:nogo_b","",""
"null","","html-keyboard-response","476","619772","0.0-6.0-1.85","","<img src=""img/green-r.png"" border=""10"">","null","trial","null","","0.2,0.8","2:nogo_b","1",""
"null","","html-keyboard-response","477","620774","0.0-6.0-2.85","","<div style=""font-size:60px;"">+</div>","null","","","","","","",""
"null","","image-keyboard-response","478","622276","0.0-6.0-0.86","","img/grey.png","null","trial","32","false","0.8,0.2","1:go_a","",""
"null","","html-keyboard-response","479","623283","0.0-6.0-1.86","","<img src=""img/grey-n.png"">","null","trial","32","","0.8,0.2","1:go_a","0",""
"null","","html-keyboard-response","480","624288","0.0-6.0-2.86","","<div style=""font-size:60px;"">+</div>","null","","","","","","",""
"450.48500000848435","","image-keyboard-response","481","624741","0.0-6.0-0.87","","img/purple.png","32","trial","32","true","1,0","3:go_c","",""
"null","","html-keyboard-response","482","625747","0.0-6.0-1.87","","<img src=""img/purple-r.png"" border=""10"">","null","trial","32","","1,0","3:go_c","1",""
"null","","html-keyboard-response","483","626754","0.0-6.0-2.87","","<div style=""font-size:60px;"">+</div>","null","","","","","","",""
"null","","image-keyboard-response","484","628260","0.0-6.0-0.88","","img/grey.png","null","trial","32","false","0.8,0.2","1:go_a","",""
"null","","html-keyboard-response","485","629268","0.0-6.0-1.88","","<img src=""img/grey-n.png"">","null","trial","32","","0.8,0.2","1:go_a","0",""
"null","","html-keyboard-response","486","630274","0.0-6.0-2.88","","<div style=""font-size:60px;"">+</div>","null","","","","","","",""
"615.7599999860395","","image-keyboard-response","487","630891","0.0-6.0-0.89","","img/purple.png","32","trial","32","true","1,0","3:go_c","",""
"null","","html-keyboard-response","488","631899","0.0-6.0-1.89","","<img src=""img/purple-r.png"" border=""10"">","null","trial","32","","1,0","3:go_c","1",""
"null","","html-keyboard-response","489","632905","0.0-6.0-2.89","","<div style=""font-size:60px;"">+</div>","null","","","","","","",""
"696.4349999907427","","image-keyboard-response","490","633603","0.0-6.0-0.90","","img/green.png","32","trial","null","false","0.2,0.8","2:nogo_b","",""
"null","","html-keyboard-response","491","634610","0.0-6.0-1.90","","<img src=""img/green-n.png"" border=""10"">","null","trial","null","","0.2,0.8","2:nogo_b","0",""
"null","","html-keyboard-response","492","635616","0.0-6.0-2.90","","<div style=""font-size:60px;"">+</div>","null","","","","","","",""
"354.6199999982491","","image-keyboard-response","493","635973","0.0-6.0-0.91","","img/yellow.png","32","trial","null","false","0,1","4:nogo_d","",""
"null","","html-keyboard-response","494","636980","0.0-6.0-1.91","","<img src=""img/yellow-n.png"" border=""10"">","null","trial","null","","0,1","4:nogo_d","0",""
"null","","html-keyboard-response","495","637986","0.0-6.0-2.91","","<div style=""font-size:60px;"">+</div>","null","","","","","","",""
"null","","image-keyboard-response","496","639490","0.0-6.0-0.92","","img/grey.png","null","trial","32","false","0.8,0.2","1:go_a","",""
"null","","html-keyboard-response","497","640493","0.0-6.0-1.92","","<img src=""img/grey-n.png"">","null","trial","32","","0.8,0.2","1:go_a","0",""
"null","","html-keyboard-response","498","641499","0.0-6.0-2.92","","<div style=""font-size:60px;"">+</div>","null","","","","","","",""
"null","","image-keyboard-response","499","643006","0.0-6.0-0.93","","img/green.png","null","trial","null","true","0.2,0.8","2:nogo_b","",""
"null","","html-keyboard-response","500","644014","0.0-6.0-1.93","","<img src=""img/green-n.png"">","null","trial","null","","0.2,0.8","2:nogo_b","0",""
"null","","html-keyboard-response","501","645020","0.0-6.0-2.93","","<div style=""font-size:60px;"">+</div>","null","","","","","","",""
"461.02000001701526","","image-keyboard-response","502","645483","0.0-6.0-0.94","","img/purple.png","32","trial","32","true","1,0","3:go_c","",""
"null","","html-keyboard-response","503","646490","0.0-6.0-1.94","","<img src=""img/purple-r.png"" border=""10"">","null","trial","32","","1,0","3:go_c","1",""
"null","","html-keyboard-response","504","647491","0.0-6.0-2.94","","<div style=""font-size:60px;"">+</div>","null","","","","","","",""
"null","","image-keyboard-response","505","648998","0.0-6.0-0.95","","img/yellow.png","null","trial","null","true","0,1","4:nogo_d","",""
"null","","html-keyboard-response","506","650001","0.0-6.0-1.95","","<img src=""img/yellow-r.png"">","null","trial","null","","0,1","4:nogo_d","1",""
"null","","html-keyboard-response","507","651007","0.0-6.0-2.95","","<div style=""font-size:60px;"">+</div>","null","","","","","","",""
"740.0900000066031","","image-keyboard-response","508","651749","0.0-6.0-0.96","","img/yellow.png","32","trial","null","false","0,1","4:nogo_d","",""
"null","","html-keyboard-response","509","652751","0.0-6.0-1.96","","<img src=""img/yellow-n.png"" border=""10"">","null","trial","null","","0,1","4:nogo_d","0",""
"null","","html-keyboard-response","510","653754","0.0-6.0-2.96","","<div style=""font-size:60px;"">+</div>","null","","","","","","",""
"423.3799999929033","","image-keyboard-response","511","654178","0.0-6.0-0.97","","img/purple.png","32","trial","32","true","1,0","3:go_c","",""
"null","","html-keyboard-response","512","655185","0.0-6.0-1.97","","<img src=""img/purple-r.png"" border=""10"">","null","trial","32","","1,0","3:go_c","1",""
"null","","html-keyboard-response","513","656190","0.0-6.0-2.97","","<div style=""font-size:60px;"">+</div>","null","","","","","","",""
"null","","image-keyboard-response","514","657693","0.0-6.0-0.98","","img/green.png","null","trial","null","true","0.2,0.8","2:nogo_b","",""
"null","","html-keyboard-response","515","658700","0.0-6.0-1.98","","<img src=""img/green-r.png"">","null","trial","null","","0.2,0.8","2:nogo_b","1",""
"null","","html-keyboard-response","516","659707","0.0-6.0-2.98","","<div style=""font-size:60px;"">+</div>","null","","","","","","",""
"null","","image-keyboard-response","517","661210","0.0-6.0-0.99","","img/grey.png","null","trial","32","false","0.8,0.2","1:go_a","",""
"null","","html-keyboard-response","518","662215","0.0-6.0-1.99","","<img src=""img/grey-n.png"">","null","trial","32","","0.8,0.2","1:go_a","0",""
"null","","html-keyboard-response","519","663222","0.0-6.0-2.99","","<div style=""font-size:60px;"">+</div>","null","","","","","","",""
"null","","image-keyboard-response","520","664726","0.0-6.0-0.100","","img/yellow.png","null","trial","null","true","0,1","4:nogo_d","",""
"null","","html-keyboard-response","521","665733","0.0-6.0-1.100","","<img src=""img/yellow-r.png"">","null","trial","null","","0,1","4:nogo_d","1",""
"null","","html-keyboard-response","522","666737","0.0-6.0-2.100","","<div style=""font-size:60px;"">+</div>","null","","","","","","",""
"395.8050000073854","","image-keyboard-response","523","667135","0.0-6.0-0.101","","img/purple.png","32","trial","32","true","1,0","3:go_c","",""
"null","","html-keyboard-response","524","668140","0.0-6.0-1.101","","<img src=""img/purple-r.png"" border=""10"">","null","trial","32","","1,0","3:go_c","1",""
"null","","html-keyboard-response","525","669146","0.0-6.0-2.101","","<div style=""font-size:60px;"">+</div>","null","","","","","","",""
"470.52000000257976","","image-keyboard-response","526","669618","0.0-6.0-0.102","","img/green.png","32","trial","null","false","0.2,0.8","2:nogo_b","",""
"null","","html-keyboard-response","527","670621","0.0-6.0-1.102","","<img src=""img/green-n.png"" border=""10"">","null","trial","null","","0.2,0.8","2:nogo_b","0",""
"null","","html-keyboard-response","528","671627","0.0-6.0-2.102","","<div style=""font-size:60px;"">+</div>","null","","","","","","",""
"374.73499999032356","","image-keyboard-response","529","672003","0.0-6.0-0.103","","img/grey.png","32","trial","32","true","0.8,0.2","1:go_a","",""
"null","","html-keyboard-response","530","673010","0.0-6.0-1.103","","<img src=""img/grey-r.png"" border=""10"">","null","trial","32","","0.8,0.2","1:go_a","1",""
"null","","html-keyboard-response","531","674016","0.0-6.0-2.103","","<div style=""font-size:60px;"">+</div>","null","","","","","","",""
"400.77999999630265","","image-keyboard-response","532","674419","0.0-6.0-0.104","","img/yellow.png","32","trial","null","false","0,1","4:nogo_d","",""
"null","","html-keyboard-response","533","675422","0.0-6.0-1.104","","<img src=""img/yellow-n.png"" border=""10"">","null","trial","null","","0,1","4:nogo_d","0",""
"null","","html-keyboard-response","534","676428","0.0-6.0-2.104","","<div style=""font-size:60px;"">+</div>","null","","","","","","",""
"734.0899999835528","","image-keyboard-response","535","677164","0.0-6.0-0.105","","img/grey.png","32","trial","32","true","0.8,0.2","1:go_a","",""
"null","","html-keyboard-response","536","678171","0.0-6.0-1.105","","<img src=""img/grey-n.png"" border=""10"">","null","trial","32","","0.8,0.2","1:go_a","0",""
"null","","html-keyboard-response","537","679176","0.0-6.0-2.105","","<div style=""font-size:60px;"">+</div>","null","","","","","","",""
"432.84999998286366","","image-keyboard-response","538","679610","0.0-6.0-0.106","","img/purple.png","32","trial","32","true","1,0","3:go_c","",""
"null","","html-keyboard-response","539","680617","0.0-6.0-1.106","","<img src=""img/purple-r.png"" border=""10"">","null","trial","32","","1,0","3:go_c","1",""
"null","","html-keyboard-response","540","681624","0.0-6.0-2.106","","<div style=""font-size:60px;"">+</div>","null","","","","","","",""
"null","","image-keyboard-response","541","683131","0.0-6.0-0.107","","img/green.png","null","trial","null","true","0.2,0.8","2:nogo_b","",""
"null","","html-keyboard-response","542","684135","0.0-6.0-1.107","","<img src=""img/green-r.png"">","null","trial","null","","0.2,0.8","2:nogo_b","1",""
"null","","html-keyboard-response","543","685141","0.0-6.0-2.107","","<div style=""font-size:60px;"">+</div>","null","","","","","","",""
"null","","image-keyboard-response","544","686648","0.0-6.0-0.108","","img/grey.png","null","trial","32","false","0.8,0.2","1:go_a","",""
"null","","html-keyboard-response","545","687651","0.0-6.0-1.108","","<img src=""img/grey-n.png"">","null","trial","32","","0.8,0.2","1:go_a","0",""
"null","","html-keyboard-response","546","688657","0.0-6.0-2.108","","<div style=""font-size:60px;"">+</div>","null","","","","","","",""
"497.0749999920372","","image-keyboard-response","547","689156","0.0-6.0-0.109","","img/yellow.png","32","trial","null","false","0,1","4:nogo_d","",""
"null","","html-keyboard-response","548","690159","0.0-6.0-1.109","","<img src=""img/yellow-n.png"" border=""10"">","null","trial","null","","0,1","4:nogo_d","0",""
"null","","html-keyboard-response","549","691165","0.0-6.0-2.109","","<div style=""font-size:60px;"">+</div>","null","","","","","","",""
"435.60000002617016","","image-keyboard-response","550","691603","0.0-6.0-0.110","","img/green.png","32","trial","null","false","0.2,0.8","2:nogo_b","",""
"null","","html-keyboard-response","551","692610","0.0-6.0-1.110","","<img src=""img/green-r.png"" border=""10"">","null","trial","null","","0.2,0.8","2:nogo_b","1",""
"null","","html-keyboard-response","552","693617","0.0-6.0-2.110","","<div style=""font-size:60px;"">+</div>","null","","","","","","",""
"528.4749999991618","","image-keyboard-response","553","694147","0.0-6.0-0.111","","img/purple.png","32","trial","32","true","1,0","3:go_c","",""
"null","","html-keyboard-response","554","695153","0.0-6.0-1.111","","<img src=""img/purple-r.png"" border=""10"">","null","trial","32","","1,0","3:go_c","1",""
"null","","html-keyboard-response","555","696159","0.0-6.0-2.111","","<div style=""font-size:60px;"">+</div>","null","","","","","","",""
"null","","image-keyboard-response","556","697662","0.0-6.0-0.112","","img/green.png","null","trial","null","true","0.2,0.8","2:nogo_b","",""
"null","","html-keyboard-response","557","698666","0.0-6.0-1.112","","<img src=""img/green-n.png"">","null","trial","null","","0.2,0.8","2:nogo_b","0",""
"null","","html-keyboard-response","558","699672","0.0-6.0-2.112","","<div style=""font-size:60px;"">+</div>","null","","","","","","",""
"528.5950000106823","","image-keyboard-response","559","700202","0.0-6.0-0.113","","img/grey.png","32","trial","32","true","0.8,0.2","1:go_a","",""
"null","","html-keyboard-response","560","701206","0.0-6.0-1.113","","<img src=""img/grey-r.png"" border=""10"">","null","trial","32","","0.8,0.2","1:go_a","1",""
"null","","html-keyboard-response","561","702212","0.0-6.0-2.113","","<div style=""font-size:60px;"">+</div>","null","","","","","","",""
"468.9399999915622","","image-keyboard-response","562","702682","0.0-6.0-0.114","","img/purple.png","32","trial","32","true","1,0","3:go_c","",""
"null","","html-keyboard-response","563","703686","0.0-6.0-1.114","","<img src=""img/purple-r.png"" border=""10"">","null","trial","32","","1,0","3:go_c","1",""
"null","","html-keyboard-response","564","704692","0.0-6.0-2.114","","<div style=""font-size:60px;"">+</div>","null","","","","","","",""
"null","","image-keyboard-response","565","706198","0.0-6.0-0.115","","img/yellow.png","null","trial","null","true","0,1","4:nogo_d","",""
"null","","html-keyboard-response","566","707206","0.0-6.0-1.115","","<img src=""img/yellow-r.png"">","null","trial","null","","0,1","4:nogo_d","1",""
"null","","html-keyboard-response","567","708210","0.0-6.0-2.115","","<div style=""font-size:60px;"">+</div>","null","","","","","","",""
"830.2949999924749","","image-keyboard-response","568","709042","0.0-6.0-0.116","","img/yellow.png","32","trial","null","false","0,1","4:nogo_d","",""
"null","","html-keyboard-response","569","710045","0.0-6.0-1.116","","<img src=""img/yellow-n.png"" border=""10"">","null","trial","null","","0,1","4:nogo_d","0",""
"null","","html-keyboard-response","570","711051","0.0-6.0-2.116","","<div style=""font-size:60px;"">+</div>","null","","","","","","",""
"null","","image-keyboard-response","571","712553","0.0-6.0-0.117","","img/green.png","null","trial","null","true","0.2,0.8","2:nogo_b","",""
"null","","html-keyboard-response","572","713556","0.0-6.0-1.117","","<img src=""img/green-r.png"">","null","trial","null","","0.2,0.8","2:nogo_b","1",""
"null","","html-keyboard-response","573","714558","0.0-6.0-2.117","","<div style=""font-size:60px;"">+</div>","null","","","","","","",""
"null","","image-keyboard-response","574","716064","0.0-6.0-0.118","","img/grey.png","null","trial","32","false","0.8,0.2","1:go_a","",""
"null","","html-keyboard-response","575","717068","0.0-6.0-1.118","","<img src=""img/grey-n.png"">","null","trial","32","","0.8,0.2","1:go_a","0",""
"null","","html-keyboard-response","576","718070","0.0-6.0-2.118","","<div style=""font-size:60px;"">+</div>","null","","","","","","",""
"458.7100000062492","","image-keyboard-response","577","718531","0.0-6.0-0.119","","img/purple.png","32","trial","32","true","1,0","3:go_c","",""
"null","","html-keyboard-response","578","719535","0.0-6.0-1.119","","<img src=""img/purple-r.png"" border=""10"">","null","trial","32","","1,0","3:go_c","1",""
"null","","html-keyboard-response","579","720538","0.0-6.0-2.119","","<div style=""font-size:60px;"">+</div>","null","","","","","","",""
"106815.6799999997","","instructions","580","827352","0.0-7.0","[{""page_index"":0,""viewing_time"":106814.87000000197}]","","","","","","","","",""
"812.7849999873433","","image-keyboard-response","581","828169","0.0-8.0-0.0","","img/red.png","32","trial","32","true","0.6,0.4","3:go_c","",""
"null","","html-keyboard-response","582","829176","0.0-8.0-1.0","","<img src=""img/red-n.png"" border=""10"">","null","trial","32","","0.6,0.4","3:go_c","0",""
"null","","html-keyboard-response","583","830180","0.0-8.0-2.0","","<div style=""font-size:60px;"">+</div>","null","","","","","","",""
"378.2800000044517","","image-keyboard-response","584","830560","0.0-8.0-0.1","","img/orange.png","32","trial","null","false","0.2,0.8","2:nogo_b","",""
"null","","html-keyboard-response","585","831564","0.0-8.0-1.1","","<img src=""img/orange-n.png"" border=""10"">","null","trial","null","","0.2,0.8","2:nogo_b","0",""
"null","","html-keyboard-response","586","832565","0.0-8.0-2.1","","<div style=""font-size:60px;"">+</div>","null","","","","","","",""
"351.7500000016298","","image-keyboard-response","587","832918","0.0-8.0-0.2","","img/purple.png","32","trial","null","false","0.4,0.6","4:nogo_d","",""
"null","","html-keyboard-response","588","833924","0.0-8.0-1.2","","<img src=""img/purple-r.png"" border=""10"">","null","trial","null","","0.4,0.6","4:nogo_d","1",""
"null","","html-keyboard-response","589","834925","0.0-8.0-2.2","","<div style=""font-size:60px;"">+</div>","null","","","","","","",""
"391.7549999896437","","image-keyboard-response","590","835318","0.0-8.0-0.3","","img/blue.png","32","trial","32","true","0.8,0.2","1:go_a","",""
"null","","html-keyboard-response","591","836320","0.0-8.0-1.3","","<img src=""img/blue-r.png"" border=""10"">","null","trial","32","","0.8,0.2","1:go_a","1",""
"null","","html-keyboard-response","592","837323","0.0-8.0-2.3","","<div style=""font-size:60px;"">+</div>","null","","","","","","",""
"null","","image-keyboard-response","593","838826","0.0-8.0-0.4","","img/orange.png","null","trial","null","true","0.2,0.8","2:nogo_b","",""
"null","","html-keyboard-response","594","839832","0.0-8.0-1.4","","<img src=""img/orange-r.png"">","null","trial","null","","0.2,0.8","2:nogo_b","1",""
"null","","html-keyboard-response","595","840834","0.0-8.0-2.4","","<div style=""font-size:60px;"">+</div>","null","","","","","","",""
"581.1999999859836","","image-keyboard-response","596","841417","0.0-8.0-0.5","","img/blue.png","32","trial","32","true","0.8,0.2","1:go_a","",""
"null","","html-keyboard-response","597","842420","0.0-8.0-1.5","","<img src=""img/blue-r.png"" border=""10"">","null","trial","32","","0.8,0.2","1:go_a","1",""
"null","","html-keyboard-response","598","843423","0.0-8.0-2.5","","<div style=""font-size:60px;"">+</div>","null","","","","","","",""
"445.18999999854714","","image-keyboard-response","599","843870","0.0-8.0-0.6","","img/purple.png","32","trial","null","false","0.4,0.6","4:nogo_d","",""
"null","","html-keyboard-response","600","844878","0.0-8.0-1.6","","<img src=""img/purple-r.png"" border=""10"">","null","trial","null","","0.4,0.6","4:nogo_d","1",""
"null","","html-keyboard-response","601","845884","0.0-8.0-2.6","","<div style=""font-size:60px;"">+</div>","null","","","","","","",""
"null","","image-keyboard-response","602","847388","0.0-8.0-0.7","","img/red.png","null","trial","32","false","0.6,0.4","3:go_c","",""
"null","","html-keyboard-response","603","848396","0.0-8.0-1.7","","<img src=""img/red-n.png"">","null","trial","32","","0.6,0.4","3:go_c","0",""
"null","","html-keyboard-response","604","849398","0.0-8.0-2.7","","<div style=""font-size:60px;"">+</div>","null","","","","","","",""
"null","","image-keyboard-response","605","850901","0.0-8.0-0.8","","img/red.png","null","trial","32","false","0.6,0.4","3:go_c","",""
"null","","html-keyboard-response","606","851906","0.0-8.0-1.8","","<img src=""img/red-n.png"">","null","trial","32","","0.6,0.4","3:go_c","0",""
"null","","html-keyboard-response","607","852913","0.0-8.0-2.8","","<div style=""font-size:60px;"">+</div>","null","","","","","","",""
"null","","image-keyboard-response","608","854419","0.0-8.0-0.9","","img/orange.png","null","trial","null","true","0.2,0.8","2:nogo_b","",""
"null","","html-keyboard-response","609","855427","0.0-8.0-1.9","","<img src=""img/orange-r.png"">","null","trial","null","","0.2,0.8","2:nogo_b","1",""
"null","","html-keyboard-response","610","856433","0.0-8.0-2.9","","<div style=""font-size:60px;"">+</div>","null","","","","","","",""
"557.4249999772292","","image-keyboard-response","611","856992","0.0-8.0-0.10","","img/purple.png","32","trial","null","false","0.4,0.6","4:nogo_d","",""
"null","","html-keyboard-response","612","858000","0.0-8.0-1.10","","<img src=""img/purple-n.png"" border=""10"">","null","trial","null","","0.4,0.6","4:nogo_d","0",""
"null","","html-keyboard-response","613","859006","0.0-8.0-2.10","","<div style=""font-size:60px;"">+</div>","null","","","","","","",""
"351.5999999945052","","image-keyboard-response","614","859360","0.0-8.0-0.11","","img/blue.png","32","trial","32","true","0.8,0.2","1:go_a","",""
"null","","html-keyboard-response","615","860367","0.0-8.0-1.11","","<img src=""img/blue-r.png"" border=""10"">","null","trial","32","","0.8,0.2","1:go_a","1",""
"null","","html-keyboard-response","616","861371","0.0-8.0-2.11","","<div style=""font-size:60px;"">+</div>","null","","","","","","",""
"null","","image-keyboard-response","617","862874","0.0-8.0-0.12","","img/purple.png","null","trial","null","true","0.4,0.6","4:nogo_d","",""
"null","","html-keyboard-response","618","863877","0.0-8.0-1.12","","<img src=""img/purple-n.png"">","null","trial","null","","0.4,0.6","4:nogo_d","0",""
"null","","html-keyboard-response","619","864884","0.0-8.0-2.12","","<div style=""font-size:60px;"">+</div>","null","","","","","","",""
"null","","image-keyboard-response","620","866391","0.0-8.0-0.13","","img/red.png","null","trial","32","false","0.6,0.4","3:go_c","",""
"null","","html-keyboard-response","621","867398","0.0-8.0-1.13","","<img src=""img/red-n.png"">","null","trial","32","","0.6,0.4","3:go_c","0",""
"null","","html-keyboard-response","622","868402","0.0-8.0-2.13","","<div style=""font-size:60px;"">+</div>","null","","","","","","",""
"507.9550000082236","","image-keyboard-response","623","868912","0.0-8.0-0.14","","img/blue.png","32","trial","32","true","0.8,0.2","1:go_a","",""
"null","","html-keyboard-response","624","869915","0.0-8.0-1.14","","<img src=""img/blue-r.png"" border=""10"">","null","trial","32","","0.8,0.2","1:go_a","1",""
"null","","html-keyboard-response","625","870921","0.0-8.0-2.14","","<div style=""font-size:60px;"">+</div>","null","","","","","","",""
"428.2850000017788","","image-keyboard-response","626","871351","0.0-8.0-0.15","","img/orange.png","32","trial","null","false","0.2,0.8","2:nogo_b","",""
"null","","html-keyboard-response","627","872359","0.0-8.0-1.15","","<img src=""img/orange-r.png"" border=""10"">","null","trial","null","","0.2,0.8","2:nogo_b","1",""
"null","","html-keyboard-response","628","873364","0.0-8.0-2.15","","<div style=""font-size:60px;"">+</div>","null","","","","","","",""
"673.4900000155903","","image-keyboard-response","629","874039","0.0-8.0-0.16","","img/blue.png","32","trial","32","true","0.8,0.2","1:go_a","",""
"null","","html-keyboard-response","630","875044","0.0-8.0-1.16","","<img src=""img/blue-n.png"" border=""10"">","null","trial","32","","0.8,0.2","1:go_a","0",""
"null","","html-keyboard-response","631","876050","0.0-8.0-2.16","","<div style=""font-size:60px;"">+</div>","null","","","","","","",""
"null","","image-keyboard-response","632","877557","0.0-8.0-0.17","","img/purple.png","null","trial","null","true","0.4,0.6","4:nogo_d","",""
"null","","html-keyboard-response","633","878564","0.0-8.0-1.17","","<img src=""img/purple-n.png"">","null","trial","null","","0.4,0.6","4:nogo_d","0",""
"null","","html-keyboard-response","634","879570","0.0-8.0-2.17","","<div style=""font-size:60px;"">+</div>","null","","","","","","",""
"523.2799999939743","","image-keyboard-response","635","880095","0.0-8.0-0.18","","img/orange.png","32","trial","null","false","0.2,0.8","2:nogo_b","",""
"null","","html-keyboard-response","636","881100","0.0-8.0-1.18","","<img src=""img/orange-n.png"" border=""10"">","null","trial","null","","0.2,0.8","2:nogo_b","0",""
"null","","html-keyboard-response","637","882106","0.0-8.0-2.18","","<div style=""font-size:60px;"">+</div>","null","","","","","","",""
"371.06499998481013","","image-keyboard-response","638","882479","0.0-8.0-0.19","","img/red.png","32","trial","32","true","0.6,0.4","3:go_c","",""
"null","","html-keyboard-response","639","883487","0.0-8.0-1.19","","<img src=""img/red-r.png"" border=""10"">","null","trial","32","","0.6,0.4","3:go_c","1",""
"null","","html-keyboard-response","640","884493","0.0-8.0-2.19","","<div style=""font-size:60px;"">+</div>","null","","","","","","",""
"584.0450000250712","","image-keyboard-response","641","885079","0.0-8.0-0.20","","img/orange.png","32","trial","null","false","0.2,0.8","2:nogo_b","",""
"null","","html-keyboard-response","642","886084","0.0-8.0-1.20","","<img src=""img/orange-n.png"" border=""10"">","null","trial","null","","0.2,0.8","2:nogo_b","0",""
"null","","html-keyboard-response","643","887086","0.0-8.0-2.20","","<div style=""font-size:60px;"">+</div>","null","","","","","","",""
"null","","image-keyboard-response","644","888592","0.0-8.0-0.21","","img/blue.png","null","trial","32","false","0.8,0.2","1:go_a","",""
"null","","html-keyboard-response","645","889595","0.0-8.0-1.21","","<img src=""img/blue-n.png"">","null","trial","32","","0.8,0.2","1:go_a","0",""
"null","","html-keyboard-response","646","890597","0.0-8.0-2.21","","<div style=""font-size:60px;"">+</div>","null","","","","","","",""
"624.6749999991152","","image-keyboard-response","647","891224","0.0-8.0-0.22","","img/red.png","32","trial","32","true","0.6,0.4","3:go_c","",""
"null","","html-keyboard-response","648","892226","0.0-8.0-1.22","","<img src=""img/red-r.png"" border=""10"">","null","trial","32","","0.6,0.4","3:go_c","1",""
"null","","html-keyboard-response","649","893228","0.0-8.0-2.22","","<div style=""font-size:60px;"">+</div>","null","","","","","","",""
"652.1300000022165","","image-keyboard-response","650","893881","0.0-8.0-0.23","","img/purple.png","32","trial","null","false","0.4,0.6","4:nogo_d","",""
"null","","html-keyboard-response","651","894885","0.0-8.0-1.23","","<img src=""img/purple-r.png"" border=""10"">","null","trial","null","","0.4,0.6","4:nogo_d","1",""
"null","","html-keyboard-response","652","895886","0.0-8.0-2.23","","<div style=""font-size:60px;"">+</div>","null","","","","","","",""
"415.08999999496154","","image-keyboard-response","653","896302","0.0-8.0-0.24","","img/red.png","32","trial","32","true","0.6,0.4","3:go_c","",""
"null","","html-keyboard-response","654","897305","0.0-8.0-1.24","","<img src=""img/red-n.png"" border=""10"">","null","trial","32","","0.6,0.4","3:go_c","0",""
"null","","html-keyboard-response","655","898312","0.0-8.0-2.24","","<div style=""font-size:60px;"">+</div>","null","","","","","","",""
"396.89000000362284","","image-keyboard-response","656","898710","0.0-8.0-0.25","","img/purple.png","32","trial","null","false","0.4,0.6","4:nogo_d","",""
"null","","html-keyboard-response","657","899718","0.0-8.0-1.25","","<img src=""img/purple-n.png"" border=""10"">","null","trial","null","","0.4,0.6","4:nogo_d","0",""
"null","","html-keyboard-response","658","900720","0.0-8.0-2.25","","<div style=""font-size:60px;"">+</div>","null","","","","","","",""
"364.31000000447966","","image-keyboard-response","659","901086","0.0-8.0-0.26","","img/blue.png","32","trial","32","true","0.8,0.2","1:go_a","",""
"null","","html-keyboard-response","660","902094","0.0-8.0-1.26","","<img src=""img/blue-n.png"" border=""10"">","null","trial","32","","0.8,0.2","1:go_a","0",""
"null","","html-keyboard-response","661","903100","0.0-8.0-2.26","","<div style=""font-size:60px;"">+</div>","null","","","","","","",""
"409.8750000121072","","image-keyboard-response","662","903512","0.0-8.0-0.27","","img/orange.png","32","trial","null","false","0.2,0.8","2:nogo_b","",""
"null","","html-keyboard-response","663","904519","0.0-8.0-1.27","","<img src=""img/orange-n.png"" border=""10"">","null","trial","null","","0.2,0.8","2:nogo_b","0",""
"null","","html-keyboard-response","664","905521","0.0-8.0-2.27","","<div style=""font-size:60px;"">+</div>","null","","","","","","",""
"null","","image-keyboard-response","665","907026","0.0-8.0-0.28","","img/purple.png","null","trial","null","true","0.4,0.6","4:nogo_d","",""
"null","","html-keyboard-response","666","908029","0.0-8.0-1.28","","<img src=""img/purple-r.png"">","null","trial","null","","0.4,0.6","4:nogo_d","1",""
"null","","html-keyboard-response","667","909035","0.0-8.0-2.28","","<div style=""font-size:60px;"">+</div>","null","","","","","","",""
"null","","image-keyboard-response","668","910538","0.0-8.0-0.29","","img/orange.png","null","trial","null","true","0.2,0.8","2:nogo_b","",""
"null","","html-keyboard-response","669","911545","0.0-8.0-1.29","","<img src=""img/orange-r.png"">","null","trial","null","","0.2,0.8","2:nogo_b","1",""
"null","","html-keyboard-response","670","912552","0.0-8.0-2.29","","<div style=""font-size:60px;"">+</div>","null","","","","","","",""
"380.4949999903329","","image-keyboard-response","671","912934","0.0-8.0-0.30","","img/blue.png","32","trial","32","true","0.8,0.2","1:go_a","",""
"null","","html-keyboard-response","672","913938","0.0-8.0-1.30","","<img src=""img/blue-r.png"" border=""10"">","null","trial","32","","0.8,0.2","1:go_a","1",""
"null","","html-keyboard-response","673","914942","0.0-8.0-2.30","","<div style=""font-size:60px;"">+</div>","null","","","","","","",""
"367.7299999981187","","image-keyboard-response","674","915311","0.0-8.0-0.31","","img/red.png","32","trial","32","true","0.6,0.4","3:go_c","",""
"null","","html-keyboard-response","675","916319","0.0-8.0-1.31","","<img src=""img/red-r.png"" border=""10"">","null","trial","32","","0.6,0.4","3:go_c","1",""
"null","","html-keyboard-response","676","917323","0.0-8.0-2.31","","<div style=""font-size:60px;"">+</div>","null","","","","","","",""
"329.5949999883305","","image-keyboard-response","677","917654","0.0-8.0-0.32","","img/purple.png","32","trial","null","false","0.4,0.6","4:nogo_d","",""
"null","","html-keyboard-response","678","918662","0.0-8.0-1.32","","<img src=""img/purple-r.png"" border=""10"">","null","trial","null","","0.4,0.6","4:nogo_d","1",""
