"rt","url","trial_type","trial_index","time_elapsed","internal_node_id","view_history","stimulus","key_press","test_part","correct_response","correct","use_rew","which_stim","reward","responses"
"5529.5","consent.html","external-html","0","5587","0.0-0.0","","","","","","","","","",""
"55024.699999928474","","instructions","1","60617","0.0-1.0","[{""page_index"":0,""viewing_time"":2264.1999999284744},{""page_index"":1,""viewing_time"":12465.399999976158},{""page_index"":2,""viewing_time"":3862.7000000476837},{""page_index"":3,""viewing_time"":12869.100000023842},{""page_index"":4,""viewing_time"":7924.100000023842},{""page_index"":5,""viewing_time"":4778.099999904633},{""page_index"":6,""viewing_time"":10859.400000095367}]","","","","","","","","",""
"null","","image-keyboard-response","2","62120","0.0-2.0-0.0","","img/test3.PNG","null","practice","null","true","","","",""
"null","","html-keyboard-response","3","63127","0.0-2.0-1.0","","<img src=""img/test3-reward.PNG"">","null","","","","","","",""
"null","","html-keyboard-response","4","64129","0.0-2.0-2.0","","<div style=""font-size:60px;"">+</div>","null","","","","","","",""
"null","","image-keyboard-response","5","65632","0.0-2.0-0.1","","img/test2.PNG","null","practice","null","true","","","",""
"null","","html-keyboard-response","6","66634","0.0-2.0-1.1","","<img src=""img/test2-reward.PNG"">","null","","","","","","",""
"null","","html-keyboard-response","7","67637","0.0-2.0-2.1","","<div style=""font-size:60px;"">+</div>","null","","","","","","",""
"315.7000000476837","","image-keyboard-response","8","67955","0.0-2.0-0.2","","img/test1.PNG","32","practice","32","true","","","",""
"null","","html-keyboard-response","9","68962","0.0-2.0-1.2","","<img src=""img/test1-reward.PNG"" border=""10px; grey"">","null","","","","","","",""
"null","","html-keyboard-response","10","69967","0.0-2.0-2.2","","<div style=""font-size:60px;"">+</div>","null","","","","","","",""
"null","","image-keyboard-response","11","71470","0.0-2.0-0.3","","img/test2.PNG","null","practice","null","true","","","",""
"null","","html-keyboard-response","12","72474","0.0-2.0-1.3","","<img src=""img/test2-reward.PNG"">","null","","","","","","",""
"null","","html-keyboard-response","13","73479","0.0-2.0-2.3","","<div style=""font-size:60px;"">+</div>","null","","","","","","",""
"334.8000000715256","","image-keyboard-response","14","73817","0.0-2.0-0.4","","img/test1.PNG","32","practice","32","true","","","",""
"null","","html-keyboard-response","15","74822","0.0-2.0-1.4","","<img src=""img/test1-reward.PNG"" border=""10px; grey"">","null","","","","","","",""
"null","","html-keyboard-response","16","75827","0.0-2.0-2.4","","<div style=""font-size:60px;"">+</div>","null","","","","","","",""
"null","","image-keyboard-response","17","77333","0.0-2.0-0.5","","img/test3.PNG","null","practice","null","true","","","",""
"null","","html-keyboard-response","18","78337","0.0-2.0-1.5","","<img src=""img/test3-reward.PNG"">","null","","","","","","",""
"null","","html-keyboard-response","19","79343","0.0-2.0-2.5","","<div style=""font-size:60px;"">+</div>","null","","","","","","",""
"345.10000002384186","","image-keyboard-response","20","79691","0.0-2.0-0.6","","img/test1.PNG","32","practice","32","true","","","",""
"null","","html-keyboard-response","21","80696","0.0-2.0-1.6","","<img src=""img/test1-reward.PNG"" border=""10px; grey"">","null","","","","","","",""
"null","","html-keyboard-response","22","81700","0.0-2.0-2.6","","<div style=""font-size:60px;"">+</div>","null","","","","","","",""
"null","","image-keyboard-response","23","83203","0.0-2.0-0.7","","img/test3.PNG","null","practice","null","true","","","",""
"null","","html-keyboard-response","24","84205","0.0-2.0-1.7","","<img src=""img/test3-reward.PNG"">","null","","","","","","",""
"null","","html-keyboard-response","25","85208","0.0-2.0-2.7","","<div style=""font-size:60px;"">+</div>","null","","","","","","",""
"null","","image-keyboard-response","26","86713","0.0-2.0-0.8","","img/test2.PNG","null","practice","null","true","","","",""
"null","","html-keyboard-response","27","87719","0.0-2.0-1.8","","<img src=""img/test2-reward.PNG"">","null","","","","","","",""
"null","","html-keyboard-response","28","88721","0.0-2.0-2.8","","<div style=""font-size:60px;"">+</div>","null","","","","","","",""
"null","","image-keyboard-response","29","90228","0.0-2.0-0.9","","img/test3.PNG","null","practice","null","true","","","",""
"null","","html-keyboard-response","30","91233","0.0-2.0-1.9","","<img src=""img/test3-reward.PNG"">","null","","","","","","",""
"null","","html-keyboard-response","31","92236","0.0-2.0-2.9","","<div style=""font-size:60px;"">+</div>","null","","","","","","",""
"null","","image-keyboard-response","32","93738","0.0-2.0-0.10","","img/test2.PNG","null","practice","null","true","","","",""
"null","","html-keyboard-response","33","94743","0.0-2.0-1.10","","<img src=""img/test2-reward.PNG"">","null","","","","","","",""
"null","","html-keyboard-response","34","95747","0.0-2.0-2.10","","<div style=""font-size:60px;"">+</div>","null","","","","","","",""
"365.2000000476837","","image-keyboard-response","35","96115","0.0-2.0-0.11","","img/test1.PNG","32","practice","32","true","","","",""
"null","","html-keyboard-response","36","97119","0.0-2.0-1.11","","<img src=""img/test1-reward.PNG"" border=""10px; grey"">","null","","","","","","",""
"null","","html-keyboard-response","37","98125","0.0-2.0-2.11","","<div style=""font-size:60px;"">+</div>","null","","","","","","",""
"1835.7000000476837","","instructions","38","99961","0.0-3.0","[{""page_index"":0,""viewing_time"":1835.2000000476837}]","","","","","","","","",""
"619.6999999284744","","image-keyboard-response","39","100584","0.0-4.0-0.0","","img/green.png","32","trial","null","false","0.2,0.8","2:nogo_b","",""
"null","","html-keyboard-response","40","101591","0.0-4.0-1.0","","<img src=""img/green-n.png"" border=""10"">","null","trial","null","","0.2,0.8","2:nogo_b","0",""
"null","","html-keyboard-response","41","102598","0.0-4.0-2.0","","<div style=""font-size:60px;"">+</div>","null","","","","","","",""
"268.39999997615814","","image-keyboard-response","42","102868","0.0-4.0-0.1","","img/grey.png","32","trial","32","true","0.8,0.2","1:go_a","",""
"null","","html-keyboard-response","43","103875","0.0-4.0-1.1","","<img src=""img/grey-n.png"" border=""10"">","null","trial","32","","0.8,0.2","1:go_a","0",""
"null","","html-keyboard-response","44","104882","0.0-4.0-2.1","","<div style=""font-size:60px;"">+</div>","null","","","","","","",""
"567.8999999761581","","image-keyboard-response","45","105452","0.0-4.0-0.2","","img/green.png","32","trial","null","false","0.2,0.8","2:nogo_b","",""
"null","","html-keyboard-response","46","106460","0.0-4.0-1.2","","<img src=""img/green-n.png"" border=""10"">","null","trial","null","","0.2,0.8","2:nogo_b","0",""
"null","","html-keyboard-response","47","107466","0.0-4.0-2.2","","<div style=""font-size:60px;"">+</div>","null","","","","","","",""
"275.2999999523163","","image-keyboard-response","48","107743","0.0-4.0-0.3","","img/grey.png","32","trial","32","true","0.8,0.2","1:go_a","",""
"null","","html-keyboard-response","49","108750","0.0-4.0-1.3","","<img src=""img/grey-r.png"" border=""10"">","null","trial","32","","0.8,0.2","1:go_a","1",""
"null","","html-keyboard-response","50","109752","0.0-4.0-2.3","","<div style=""font-size:60px;"">+</div>","null","","","","","","",""
"404.5","","image-keyboard-response","51","110159","0.0-4.0-0.4","","img/grey.png","32","trial","32","true","0.8,0.2","1:go_a","",""
"null","","html-keyboard-response","52","111166","0.0-4.0-1.4","","<img src=""img/grey-n.png"" border=""10"">","null","trial","32","","0.8,0.2","1:go_a","0",""
"null","","html-keyboard-response","53","112169","0.0-4.0-2.4","","<div style=""font-size:60px;"">+</div>","null","","","","","","",""
"null","","image-keyboard-response","54","113676","0.0-4.0-0.5","","img/green.png","null","trial","null","true","0.2,0.8","2:nogo_b","",""
"null","","html-keyboard-response","55","114684","0.0-4.0-1.5","","<img src=""img/green-r.png"">","null","trial","null","","0.2,0.8","2:nogo_b","1",""
"null","","html-keyboard-response","56","115685","0.0-4.0-2.5","","<div style=""font-size:60px;"">+</div>","null","","","","","","",""
"495.10000002384186","","image-keyboard-response","57","116183","0.0-4.0-0.6","","img/grey.png","32","trial","32","true","0.8,0.2","1:go_a","",""
"null","","html-keyboard-response","58","117185","0.0-4.0-1.6","","<img src=""img/grey-r.png"" border=""10"">","null","trial","32","","0.8,0.2","1:go_a","1",""
"null","","html-keyboard-response","59","118187","0.0-4.0-2.6","","<div style=""font-size:60px;"">+</div>","null","","","","","","",""
"613.6999999284744","","image-keyboard-response","60","118803","0.0-4.0-0.7","","img/green.png","32","trial","null","false","0.2,0.8","2:nogo_b","",""
"null","","html-keyboard-response","61","119808","0.0-4.0-1.7","","<img src=""img/green-n.png"" border=""10"">","null","trial","null","","0.2,0.8","2:nogo_b","0",""
"null","","html-keyboard-response","62","120815","0.0-4.0-2.7","","<div style=""font-size:60px;"">+</div>","null","","","","","","",""
"640.1999999284744","","image-keyboard-response","63","121457","0.0-4.0-0.8","","img/green.png","32","trial","null","false","0.2,0.8","2:nogo_b","",""
"null","","html-keyboard-response","64","122464","0.0-4.0-1.8","","<img src=""img/green-n.png"" border=""10"">","null","trial","null","","0.2,0.8","2:nogo_b","0",""
"null","","html-keyboard-response","65","123469","0.0-4.0-2.8","","<div style=""font-size:60px;"">+</div>","null","","","","","","",""
"752.4000000953674","","image-keyboard-response","66","124223","0.0-4.0-0.9","","img/grey.png","32","trial","32","true","0.8,0.2","1:go_a","",""
"null","","html-keyboard-response","67","125230","0.0-4.0-1.9","","<img src=""img/grey-r.png"" border=""10"">","null","trial","32","","0.8,0.2","1:go_a","1",""
"null","","html-keyboard-response","68","126235","0.0-4.0-2.9","","<div style=""font-size:60px;"">+</div>","null","","","","","","",""
"669.1999999284744","","image-keyboard-response","69","126907","0.0-4.0-0.10","","img/grey.png","32","trial","32","true","0.8,0.2","1:go_a","",""
"null","","html-keyboard-response","70","127916","0.0-4.0-1.10","","<img src=""img/grey-n.png"" border=""10"">","null","trial","32","","0.8,0.2","1:go_a","0",""
"null","","html-keyboard-response","71","128918","0.0-4.0-2.10","","<div style=""font-size:60px;"">+</div>","null","","","","","","",""
"477.5","","image-keyboard-response","72","129397","0.0-4.0-0.11","","img/green.png","32","trial","null","false","0.2,0.8","2:nogo_b","",""
"null","","html-keyboard-response","73","130402","0.0-4.0-1.11","","<img src=""img/green-n.png"" border=""10"">","null","trial","null","","0.2,0.8","2:nogo_b","0",""
"null","","html-keyboard-response","74","131404","0.0-4.0-2.11","","<div style=""font-size:60px;"">+</div>","null","","","","","","",""
"null","","image-keyboard-response","75","132911","0.0-4.0-0.12","","img/grey.png","null","trial","32","false","0.8,0.2","1:go_a","",""
"null","","html-keyboard-response","76","133918","0.0-4.0-1.12","","<img src=""img/grey-n.png"">","null","trial","32","","0.8,0.2","1:go_a","0",""
"null","","html-keyboard-response","77","134919","0.0-4.0-2.12","","<div style=""font-size:60px;"">+</div>","null","","","","","","",""
"366.6999999284744","","image-keyboard-response","78","135287","0.0-4.0-0.13","","img/green.png","32","trial","null","false","0.2,0.8","2:nogo_b","",""
"null","","html-keyboard-response","79","136291","0.0-4.0-1.13","","<img src=""img/green-n.png"" border=""10"">","null","trial","null","","0.2,0.8","2:nogo_b","0",""
"null","","html-keyboard-response","80","137295","0.0-4.0-2.13","","<div style=""font-size:60px;"">+</div>","null","","","","","","",""
"null","","image-keyboard-response","81","138801","0.0-4.0-0.14","","img/green.png","null","trial","null","true","0.2,0.8","2:nogo_b","",""
"null","","html-keyboard-response","82","139806","0.0-4.0-1.14","","<img src=""img/green-r.png"">","null","trial","null","","0.2,0.8","2:nogo_b","1",""
"null","","html-keyboard-response","83","140811","0.0-4.0-2.14","","<div style=""font-size:60px;"">+</div>","null","","","","","","",""
"354.60000002384186","","image-keyboard-response","84","141167","0.0-4.0-0.15","","img/grey.png","32","trial","32","true","0.8,0.2","1:go_a","",""
"null","","html-keyboard-response","85","142171","0.0-4.0-1.15","","<img src=""img/grey-n.png"" border=""10"">","null","trial","32","","0.8,0.2","1:go_a","0",""
"null","","html-keyboard-response","86","143177","0.0-4.0-2.15","","<div style=""font-size:60px;"">+</div>","null","","","","","","",""
"364.89999997615814","","image-keyboard-response","87","143544","0.0-4.0-0.16","","img/green.png","32","trial","null","false","0.2,0.8","2:nogo_b","",""
"null","","html-keyboard-response","88","144549","0.0-4.0-1.16","","<img src=""img/green-n.png"" border=""10"">","null","trial","null","","0.2,0.8","2:nogo_b","0",""
"null","","html-keyboard-response","89","145553","0.0-4.0-2.16","","<div style=""font-size:60px;"">+</div>","null","","","","","","",""
"753.5","","image-keyboard-response","90","146309","0.0-4.0-0.17","","img/grey.png","32","trial","32","true","0.8,0.2","1:go_a","",""
"null","","html-keyboard-response","91","147316","0.0-4.0-1.17","","<img src=""img/grey-n.png"" border=""10"">","null","trial","32","","0.8,0.2","1:go_a","0",""
"null","","html-keyboard-response","92","148318","0.0-4.0-2.17","","<div style=""font-size:60px;"">+</div>","null","","","","","","",""
"555.6000000238419","","image-keyboard-response","93","148876","0.0-4.0-0.18","","img/green.png","32","trial","null","false","0.2,0.8","2:nogo_b","",""
"null","","html-keyboard-response","94","149883","0.0-4.0-1.18","","<img src=""img/green-n.png"" border=""10"">","null","trial","null","","0.2,0.8","2:nogo_b","0",""
"null","","html-keyboard-response","95","150887","0.0-4.0-2.18","","<div style=""font-size:60px;"">+</div>","null","","","","","","",""
"421.7000000476837","","image-keyboard-response","96","151310","0.0-4.0-0.19","","img/grey.png","32","trial","32","true","0.8,0.2","1:go_a","",""
"null","","html-keyboard-response","97","152318","0.0-4.0-1.19","","<img src=""img/grey-r.png"" border=""10"">","null","trial","32","","0.8,0.2","1:go_a","1",""
"null","","html-keyboard-response","98","153323","0.0-4.0-2.19","","<div style=""font-size:60px;"">+</div>","null","","","","","","",""
"null","","image-keyboard-response","99","154830","0.0-4.0-0.20","","img/green.png","null","trial","null","true","0.2,0.8","2:nogo_b","",""
"null","","html-keyboard-response","100","155834","0.0-4.0-1.20","","<img src=""img/green-r.png"">","null","trial","null","","0.2,0.8","2:nogo_b","1",""
"null","","html-keyboard-response","101","156837","0.0-4.0-2.20","","<div style=""font-size:60px;"">+</div>","null","","","","","","",""
"null","","image-keyboard-response","102","158344","0.0-4.0-0.21","","img/grey.png","null","trial","32","false","0.8,0.2","1:go_a","",""
"null","","html-keyboard-response","103","159351","0.0-4.0-1.21","","<img src=""img/grey-n.png"">","null","trial","32","","0.8,0.2","1:go_a","0",""
"null","","html-keyboard-response","104","160356","0.0-4.0-2.21","","<div style=""font-size:60px;"">+</div>","null","","","","","","",""
"339.7000000476837","","image-keyboard-response","105","160698","0.0-4.0-0.22","","img/green.png","32","trial","null","false","0.2,0.8","2:nogo_b","",""
"null","","html-keyboard-response","106","161701","0.0-4.0-1.22","","<img src=""img/green-n.png"" border=""10"">","null","trial","null","","0.2,0.8","2:nogo_b","0",""
"null","","html-keyboard-response","107","162707","0.0-4.0-2.22","","<div style=""font-size:60px;"">+</div>","null","","","","","","",""
"254.29999995231628","","image-keyboard-response","108","162963","0.0-4.0-0.23","","img/grey.png","32","trial","32","true","0.8,0.2","1:go_a","",""
"null","","html-keyboard-response","109","163968","0.0-4.0-1.23","","<img src=""img/grey-r.png"" border=""10"">","null","trial","32","","0.8,0.2","1:go_a","1",""
"null","","html-keyboard-response","110","164971","0.0-4.0-2.23","","<div style=""font-size:60px;"">+</div>","null","","","","","","",""
"null","","image-keyboard-response","111","166477","0.0-4.0-0.24","","img/green.png","null","trial","null","true","0.2,0.8","2:nogo_b","",""
"null","","html-keyboard-response","112","167484","0.0-4.0-1.24","","<img src=""img/green-r.png"">","null","trial","null","","0.2,0.8","2:nogo_b","1",""
"null","","html-keyboard-response","113","168486","0.0-4.0-2.24","","<div style=""font-size:60px;"">+</div>","null","","","","","","",""
"284.39999997615814","","image-keyboard-response","114","168772","0.0-4.0-0.25","","img/grey.png","32","trial","32","true","0.8,0.2","1:go_a","",""
"null","","html-keyboard-response","115","169780","0.0-4.0-1.25","","<img src=""img/grey-r.png"" border=""10"">","null","trial","32","","0.8,0.2","1:go_a","1",""
"null","","html-keyboard-response","116","170784","0.0-4.0-2.25","","<div style=""font-size:60px;"">+</div>","null","","","","","","",""
"null","","image-keyboard-response","117","172291","0.0-4.0-0.26","","img/grey.png","null","trial","32","false","0.8,0.2","1:go_a","",""
"null","","html-keyboard-response","118","173298","0.0-4.0-1.26","","<img src=""img/grey-n.png"">","null","trial","32","","0.8,0.2","1:go_a","0",""
"null","","html-keyboard-response","119","174300","0.0-4.0-2.26","","<div style=""font-size:60px;"">+</div>","null","","","","","","",""
"304","","image-keyboard-response","120","174606","0.0-4.0-0.27","","img/green.png","32","trial","null","false","0.2,0.8","2:nogo_b","",""
"null","","html-keyboard-response","121","175613","0.0-4.0-1.27","","<img src=""img/green-n.png"" border=""10"">","null","trial","null","","0.2,0.8","2:nogo_b","0",""
"null","","html-keyboard-response","122","176617","0.0-4.0-2.27","","<div style=""font-size:60px;"">+</div>","null","","","","","","",""
"321.89999997615814","","image-keyboard-response","123","176940","0.0-4.0-0.28","","img/green.png","32","trial","null","false","0.2,0.8","2:nogo_b","",""
"null","","html-keyboard-response","124","177946","0.0-4.0-1.28","","<img src=""img/green-r.png"" border=""10"">","null","trial","null","","0.2,0.8","2:nogo_b","1",""
"null","","html-keyboard-response","125","178950","0.0-4.0-2.28","","<div style=""font-size:60px;"">+</div>","null","","","","","","",""
"574.3999999761581","","image-keyboard-response","126","179526","0.0-4.0-0.29","","img/grey.png","32","trial","32","true","0.8,0.2","1:go_a","",""
"null","","html-keyboard-response","127","180534","0.0-4.0-1.29","","<img src=""img/grey-r.png"" border=""10"">","null","trial","32","","0.8,0.2","1:go_a","1",""
"null","","html-keyboard-response","128","181535","0.0-4.0-2.29","","<div style=""font-size:60px;"">+</div>","null","","","","","","",""
"307.10000002384186","","image-keyboard-response","129","181844","0.0-4.0-0.30","","img/grey.png","32","trial","32","true","0.8,0.2","1:go_a","",""
"null","","html-keyboard-response","130","182850","0.0-4.0-1.30","","<img src=""img/grey-r.png"" border=""10"">","null","trial","32","","0.8,0.2","1:go_a","1",""
"null","","html-keyboard-response","131","183857","0.0-4.0-2.30","","<div style=""font-size:60px;"">+</div>","null","","","","","","",""
"null","","image-keyboard-response","132","185364","0.0-4.0-0.31","","img/green.png","null","trial","null","true","0.2,0.8","2:nogo_b","",""
"null","","html-keyboard-response","133","186367","0.0-4.0-1.31","","<img src=""img/green-n.png"">","null","trial","null","","0.2,0.8","2:nogo_b","0",""
"null","","html-keyboard-response","134","187373","0.0-4.0-2.31","","<div style=""font-size:60px;"">+</div>","null","","","","","","",""
"284.3000000715256","","image-keyboard-response","135","187660","0.0-4.0-0.32","","img/green.png","32","trial","null","false","0.2,0.8","2:nogo_b","",""
"null","","html-keyboard-response","136","188667","0.0-4.0-1.32","","<img src=""img/green-n.png"" border=""10"">","null","trial","null","","0.2,0.8","2:nogo_b","0",""
"null","","html-keyboard-response","137","189670","0.0-4.0-2.32","","<div style=""font-size:60px;"">+</div>","null","","","","","","",""
"351.10000002384186","","image-keyboard-response","138","190023","0.0-4.0-0.33","","img/grey.png","32","trial","32","true","0.8,0.2","1:go_a","",""
"null","","html-keyboard-response","139","191028","0.0-4.0-1.33","","<img src=""img/grey-r.png"" border=""10"">","null","trial","32","","0.8,0.2","1:go_a","1",""
"null","","html-keyboard-response","140","192033","0.0-4.0-2.33","","<div style=""font-size:60px;"">+</div>","null","","","","","","",""
"373.5","","image-keyboard-response","141","192408","0.0-4.0-0.34","","img/green.png","32","trial","null","false","0.2,0.8","2:nogo_b","",""
"null","","html-keyboard-response","142","193415","0.0-4.0-1.34","","<img src=""img/green-n.png"" border=""10"">","null","trial","null","","0.2,0.8","2:nogo_b","0",""
"null","","html-keyboard-response","143","194417","0.0-4.0-2.34","","<div style=""font-size:60px;"">+</div>","null","","","","","","",""
"308.2000000476837","","image-keyboard-response","144","194727","0.0-4.0-0.35","","img/grey.png","32","trial","32","true","0.8,0.2","1:go_a","",""
"null","","html-keyboard-response","145","195733","0.0-4.0-1.35","","<img src=""img/grey-n.png"" border=""10"">","null","trial","32","","0.8,0.2","1:go_a","0",""
"null","","html-keyboard-response","146","196739","0.0-4.0-2.35","","<div style=""font-size:60px;"">+</div>","null","","","","","","",""
"383.90000009536743","","image-keyboard-response","147","197124","0.0-4.0-0.36","","img/grey.png","32","trial","32","true","0.8,0.2","1:go_a","",""
"null","","html-keyboard-response","148","198131","0.0-4.0-1.36","","<img src=""img/grey-r.png"" border=""10"">","null","trial","32","","0.8,0.2","1:go_a","1",""
"null","","html-keyboard-response","149","199133","0.0-4.0-2.36","","<div style=""font-size:60px;"">+</div>","null","","","","","","",""
"null","","image-keyboard-response","150","200639","0.0-4.0-0.37","","img/green.png","null","trial","null","true","0.2,0.8","2:nogo_b","",""
"null","","html-keyboard-response","151","201646","0.0-4.0-1.37","","<img src=""img/green-r.png"">","null","trial","null","","0.2,0.8","2:nogo_b","1",""
"null","","html-keyboard-response","152","202650","0.0-4.0-2.37","","<div style=""font-size:60px;"">+</div>","null","","","","","","",""
"null","","image-keyboard-response","153","204154","0.0-4.0-0.38","","img/green.png","null","trial","null","true","0.2,0.8","2:nogo_b","",""
"null","","html-keyboard-response","154","205161","0.0-4.0-1.38","","<img src=""img/green-r.png"">","null","trial","null","","0.2,0.8","2:nogo_b","1",""
"null","","html-keyboard-response","155","206167","0.0-4.0-2.38","","<div style=""font-size:60px;"">+</div>","null","","","","","","",""
"229","","image-keyboard-response","156","206398","0.0-4.0-0.39","","img/grey.png","32","trial","32","true","0.8,0.2","1:go_a","",""
"null","","html-keyboard-response","157","207405","0.0-4.0-1.39","","<img src=""img/grey-n.png"" border=""10"">","null","trial","32","","0.8,0.2","1:go_a","0",""
"null","","html-keyboard-response","158","208408","0.0-4.0-2.39","","<div style=""font-size:60px;"">+</div>","null","","","","","","",""
"333.2999999523163","","image-keyboard-response","159","208743","0.0-4.0-0.40","","img/green.png","32","trial","null","false","0.2,0.8","2:nogo_b","",""
"null","","html-keyboard-response","160","209750","0.0-4.0-1.40","","<img src=""img/green-n.png"" border=""10"">","null","trial","null","","0.2,0.8","2:nogo_b","0",""
"null","","html-keyboard-response","161","210756","0.0-4.0-2.40","","<div style=""font-size:60px;"">+</div>","null","","","","","","",""
"234.20000004768372","","image-keyboard-response","162","210991","0.0-4.0-0.41","","img/grey.png","32","trial","32","true","0.8,0.2","1:go_a","",""
"null","","html-keyboard-response","163","211998","0.0-4.0-1.41","","<img src=""img/grey-r.png"" border=""10"">","null","trial","32","","0.8,0.2","1:go_a","1",""
"null","","html-keyboard-response","164","213000","0.0-4.0-2.41","","<div style=""font-size:60px;"">+</div>","null","","","","","","",""
"255.79999995231628","","image-keyboard-response","165","213257","0.0-4.0-0.42","","img/grey.png","32","trial","32","true","0.8,0.2","1:go_a","",""
"null","","html-keyboard-response","166","214261","0.0-4.0-1.42","","<img src=""img/grey-r.png"" border=""10"">","null","trial","32","","0.8,0.2","1:go_a","1",""
"null","","html-keyboard-response","167","215265","0.0-4.0-2.42","","<div style=""font-size:60px;"">+</div>","null","","","","","","",""
"234.69999992847443","","image-keyboard-response","168","215502","0.0-4.0-0.43","","img/green.png","32","trial","null","false","0.2,0.8","2:nogo_b","",""
"null","","html-keyboard-response","169","216505","0.0-4.0-1.43","","<img src=""img/green-n.png"" border=""10"">","null","trial","null","","0.2,0.8","2:nogo_b","0",""
"null","","html-keyboard-response","170","217508","0.0-4.0-2.43","","<div style=""font-size:60px;"">+</div>","null","","","","","","",""
"null","","image-keyboard-response","171","219011","0.0-4.0-0.44","","img/grey.png","null","trial","32","false","0.8,0.2","1:go_a","",""
"null","","html-keyboard-response","172","220019","0.0-4.0-1.44","","<img src=""img/grey-n.png"">","null","trial","32","","0.8,0.2","1:go_a","0",""
"null","","html-keyboard-response","173","221023","0.0-4.0-2.44","","<div style=""font-size:60px;"">+</div>","null","","","","","","",""
"266","","image-keyboard-response","174","221291","0.0-4.0-0.45","","img/green.png","32","trial","null","false","0.2,0.8","2:nogo_b","",""
"null","","html-keyboard-response","175","222298","0.0-4.0-1.45","","<img src=""img/green-n.png"" border=""10"">","null","trial","null","","0.2,0.8","2:nogo_b","0",""
"null","","html-keyboard-response","176","223304","0.0-4.0-2.45","","<div style=""font-size:60px;"">+</div>","null","","","","","","",""
"255.90000009536743","","image-keyboard-response","177","223562","0.0-4.0-0.46","","img/green.png","32","trial","null","false","0.2,0.8","2:nogo_b","",""
"null","","html-keyboard-response","178","224566","0.0-4.0-1.46","","<img src=""img/green-n.png"" border=""10"">","null","trial","null","","0.2,0.8","2:nogo_b","0",""
"null","","html-keyboard-response","179","225572","0.0-4.0-2.46","","<div style=""font-size:60px;"">+</div>","null","","","","","","",""
"null","","image-keyboard-response","180","227080","0.0-4.0-0.47","","img/grey.png","null","trial","32","false","0.8,0.2","1:go_a","",""
"null","","html-keyboard-response","181","228082","0.0-4.0-1.47","","<img src=""img/grey-r.png"">","null","trial","32","","0.8,0.2","1:go_a","1",""
"null","","html-keyboard-response","182","229086","0.0-4.0-2.47","","<div style=""font-size:60px;"">+</div>","null","","","","","","",""
"223.39999997615814","","image-keyboard-response","183","229312","0.0-4.0-0.48","","img/green.png","32","trial","null","false","0.2,0.8","2:nogo_b","",""
"null","","html-keyboard-response","184","230315","0.0-4.0-1.48","","<img src=""img/green-n.png"" border=""10"">","null","trial","null","","0.2,0.8","2:nogo_b","0",""
"null","","html-keyboard-response","185","231321","0.0-4.0-2.48","","<div style=""font-size:60px;"">+</div>","null","","","","","","",""
"310.10000002384186","","image-keyboard-response","186","231633","0.0-4.0-0.49","","img/grey.png","32","trial","32","true","0.8,0.2","1:go_a","",""
"null","","html-keyboard-response","187","232636","0.0-4.0-1.49","","<img src=""img/grey-n.png"" border=""10"">","null","trial","32","","0.8,0.2","1:go_a","0",""
"null","","html-keyboard-response","188","233641","0.0-4.0-2.49","","<div style=""font-size:60px;"">+</div>","null","","","","","","",""
"231","","image-keyboard-response","189","233874","0.0-4.0-0.50","","img/grey.png","32","trial","32","true","0.8,0.2","1:go_a","",""
"null","","html-keyboard-response","190","234877","0.0-4.0-1.50","","<img src=""img/grey-r.png"" border=""10"">","null","trial","32","","0.8,0.2","1:go_a","1",""
"null","","html-keyboard-response","191","235882","0.0-4.0-2.50","","<div style=""font-size:60px;"">+</div>","null","","","","","","",""
"280.39999997615814","","image-keyboard-response","192","236163","0.0-4.0-0.51","","img/green.png","32","trial","null","false","0.2,0.8","2:nogo_b","",""
"null","","html-keyboard-response","193","237170","0.0-4.0-1.51","","<img src=""img/green-n.png"" border=""10"">","null","trial","null","","0.2,0.8","2:nogo_b","0",""
"null","","html-keyboard-response","194","238175","0.0-4.0-2.51","","<div style=""font-size:60px;"">+</div>","null","","","","","","",""
"null","","image-keyboard-response","195","239680","0.0-4.0-0.52","","img/grey.png","null","trial","32","false","0.8,0.2","1:go_a","",""
"null","","html-keyboard-response","196","240684","0.0-4.0-1.52","","<img src=""img/grey-r.png"">","null","trial","32","","0.8,0.2","1:go_a","1",""
"null","","html-keyboard-response","197","241690","0.0-4.0-2.52","","<div style=""font-size:60px;"">+</div>","null","","","","","","",""
"369.89999997615814","","image-keyboard-response","198","242061","0.0-4.0-0.53","","img/green.png","32","trial","null","false","0.2,0.8","2:nogo_b","",""
"null","","html-keyboard-response","199","243067","0.0-4.0-1.53","","<img src=""img/green-n.png"" border=""10"">","null","trial","null","","0.2,0.8","2:nogo_b","0",""
"null","","html-keyboard-response","200","244073","0.0-4.0-2.53","","<div style=""font-size:60px;"">+</div>","null","","","","","","",""
"null","","image-keyboard-response","201","245580","0.0-4.0-0.54","","img/grey.png","null","trial","32","false","0.8,0.2","1:go_a","",""
"null","","html-keyboard-response","202","246585","0.0-4.0-1.54","","<img src=""img/grey-n.png"">","null","trial","32","","0.8,0.2","1:go_a","0",""
"null","","html-keyboard-response","203","247588","0.0-4.0-2.54","","<div style=""font-size:60px;"">+</div>","null","","","","","","",""
"null","","image-keyboard-response","204","249095","0.0-4.0-0.55","","img/green.png","null","trial","null","true","0.2,0.8","2:nogo_b","",""
"null","","html-keyboard-response","205","250098","0.0-4.0-1.55","","<img src=""img/green-r.png"">","null","trial","null","","0.2,0.8","2:nogo_b","1",""
"null","","html-keyboard-response","206","251104","0.0-4.0-2.55","","<div style=""font-size:60px;"">+</div>","null","","","","","","",""
"540.8999999761581","","image-keyboard-response","207","251647","0.0-4.0-0.56","","img/grey.png","32","trial","32","true","0.8,0.2","1:go_a","",""
"null","","html-keyboard-response","208","252650","0.0-4.0-1.56","","<img src=""img/grey-r.png"" border=""10"">","null","trial","32","","0.8,0.2","1:go_a","1",""
"null","","html-keyboard-response","209","253654","0.0-4.0-2.56","","<div style=""font-size:60px;"">+</div>","null","","","","","","",""
"null","","image-keyboard-response","210","255159","0.0-4.0-0.57","","img/green.png","null","trial","null","true","0.2,0.8","2:nogo_b","",""
"null","","html-keyboard-response","211","256165","0.0-4.0-1.57","","<img src=""img/green-r.png"">","null","trial","null","","0.2,0.8","2:nogo_b","1",""
"null","","html-keyboard-response","212","257169","0.0-4.0-2.57","","<div style=""font-size:60px;"">+</div>","null","","","","","","",""
"332.8000000715256","","image-keyboard-response","213","257504","0.0-4.0-0.58","","img/green.png","32","trial","null","false","0.2,0.8","2:nogo_b","",""
"null","","html-keyboard-response","214","258508","0.0-4.0-1.58","","<img src=""img/green-n.png"" border=""10"">","null","trial","null","","0.2,0.8","2:nogo_b","0",""
"null","","html-keyboard-response","215","259515","0.0-4.0-2.58","","<div style=""font-size:60px;"">+</div>","null","","","","","","",""
"445.09999990463257","","image-keyboard-response","216","259962","0.0-4.0-0.59","","img/grey.png","32","trial","32","true","0.8,0.2","1:go_a","",""
"null","","html-keyboard-response","217","260968","0.0-4.0-1.59","","<img src=""img/grey-r.png"" border=""10"">","null","trial","32","","0.8,0.2","1:go_a","1",""
"null","","html-keyboard-response","218","261973","0.0-4.0-2.59","","<div style=""font-size:60px;"">+</div>","null","","","","","","",""
"140984.70000004768","","instructions","219","402931","0.0-5.0","[{""page_index"":0,""viewing_time"":140984}]","","","","","","","","",""
"null","","image-keyboard-response","220","404440","0.0-6.0-0.0","","img/grey.png","null","trial","32","false","0.8,0.2","1:go_a","",""
"null","","html-keyboard-response","221","405442","0.0-6.0-1.0","","<img src=""img/grey-n.png"">","null","trial","32","","0.8,0.2","1:go_a","0",""
"null","","html-keyboard-response","222","406447","0.0-6.0-2.0","","<div style=""font-size:60px;"">+</div>","null","","","","","","",""
"526.3000000715256","","image-keyboard-response","223","406975","0.0-6.0-0.1","","img/yellow.png","32","trial","32","true","0.8,0.2","3:go_c","",""
"null","","html-keyboard-response","224","407983","0.0-6.0-1.1","","<img src=""img/yellow-n.png"" border=""10"">","null","trial","32","","0.8,0.2","3:go_c","0",""
"null","","html-keyboard-response","225","408988","0.0-6.0-2.1","","<div style=""font-size:60px;"">+</div>","null","","","","","","",""
"null","","image-keyboard-response","226","410493","0.0-6.0-0.2","","img/blue.png","null","trial","null","true","0.2,0.8","2:nogo_b","",""
"null","","html-keyboard-response","227","411498","0.0-6.0-1.2","","<img src=""img/blue-r.png"">","null","trial","null","","0.2,0.8","2:nogo_b","1",""
"null","","html-keyboard-response","228","412503","0.0-6.0-2.2","","<div style=""font-size:60px;"">+</div>","null","","","","","","",""
"513.6999999284744","","image-keyboard-response","229","413019","0.0-6.0-0.3","","img/orange.png","32","trial","null","false","0.2,0.8","4:nogo_d","",""
"null","","html-keyboard-response","230","414023","0.0-6.0-1.3","","<img src=""img/orange-n.png"" border=""10"">","null","trial","null","","0.2,0.8","4:nogo_d","0",""
"null","","html-keyboard-response","231","415026","0.0-6.0-2.3","","<div style=""font-size:60px;"">+</div>","null","","","","","","",""
"null","","image-keyboard-response","232","416531","0.0-6.0-0.4","","img/orange.png","null","trial","null","true","0.2,0.8","4:nogo_d","",""
"null","","html-keyboard-response","233","417537","0.0-6.0-1.4","","<img src=""img/orange-n.png"">","null","trial","null","","0.2,0.8","4:nogo_d","0",""
"null","","html-keyboard-response","234","418539","0.0-6.0-2.4","","<div style=""font-size:60px;"">+</div>","null","","","","","","",""
"null","","image-keyboard-response","235","420046","0.0-6.0-0.5","","img/grey.png","null","trial","32","false","0.8,0.2","1:go_a","",""
"null","","html-keyboard-response","236","421052","0.0-6.0-1.5","","<img src=""img/grey-n.png"">","null","trial","32","","0.8,0.2","1:go_a","0",""
"null","","html-keyboard-response","237","422056","0.0-6.0-2.5","","<div style=""font-size:60px;"">+</div>","null","","","","","","",""
"310.10000002384186","","image-keyboard-response","238","422368","0.0-6.0-0.6","","img/blue.png","32","trial","null","false","0.2,0.8","2:nogo_b","",""
"null","","html-keyboard-response","239","423372","0.0-6.0-1.6","","<img src=""img/blue-r.png"" border=""10"">","null","trial","null","","0.2,0.8","2:nogo_b","1",""
"null","","html-keyboard-response","240","424376","0.0-6.0-2.6","","<div style=""font-size:60px;"">+</div>","null","","","","","","",""
"null","","image-keyboard-response","241","425882","0.0-6.0-0.7","","img/yellow.png","null","trial","32","false","0.8,0.2","3:go_c","",""
"null","","html-keyboard-response","242","426887","0.0-6.0-1.7","","<img src=""img/yellow-n.png"">","null","trial","32","","0.8,0.2","3:go_c","0",""
"null","","html-keyboard-response","243","427889","0.0-6.0-2.7","","<div style=""font-size:60px;"">+</div>","null","","","","","","",""
"null","","image-keyboard-response","244","429396","0.0-6.0-0.8","","img/grey.png","null","trial","32","false","0.8,0.2","1:go_a","",""
"null","","html-keyboard-response","245","430403","0.0-6.0-1.8","","<img src=""img/grey-n.png"">","null","trial","32","","0.8,0.2","1:go_a","0",""
"null","","html-keyboard-response","246","431406","0.0-6.0-2.8","","<div style=""font-size:60px;"">+</div>","null","","","","","","",""
"337.2000000476837","","image-keyboard-response","247","431745","0.0-6.0-0.9","","img/blue.png","32","trial","null","false","0.2,0.8","2:nogo_b","",""
"null","","html-keyboard-response","248","432752","0.0-6.0-1.9","","<img src=""img/blue-n.png"" border=""10"">","null","trial","null","","0.2,0.8","2:nogo_b","0",""
"null","","html-keyboard-response","249","433756","0.0-6.0-2.9","","<div style=""font-size:60px;"">+</div>","null","","","","","","",""
"358.2000000476837","","image-keyboard-response","250","434116","0.0-6.0-0.10","","img/orange.png","32","trial","null","false","0.2,0.8","4:nogo_d","",""
"null","","html-keyboard-response","251","435122","0.0-6.0-1.10","","<img src=""img/orange-r.png"" border=""10"">","null","trial","null","","0.2,0.8","4:nogo_d","1",""
"null","","html-keyboard-response","252","436124","0.0-6.0-2.10","","<div style=""font-size:60px;"">+</div>","null","","","","","","",""
"null","","image-keyboard-response","253","437631","0.0-6.0-0.11","","img/yellow.png","null","trial","32","false","0.8,0.2","3:go_c","",""
"null","","html-keyboard-response","254","438636","0.0-6.0-1.11","","<img src=""img/yellow-r.png"">","null","trial","32","","0.8,0.2","3:go_c","1",""
"null","","html-keyboard-response","255","439639","0.0-6.0-2.11","","<div style=""font-size:60px;"">+</div>","null","","","","","","",""
"318.39999997615814","","image-keyboard-response","256","439959","0.0-6.0-0.12","","img/blue.png","32","trial","null","false","0.2,0.8","2:nogo_b","",""
"null","","html-keyboard-response","257","440964","0.0-6.0-1.12","","<img src=""img/blue-n.png"" border=""10"">","null","trial","null","","0.2,0.8","2:nogo_b","0",""
"null","","html-keyboard-response","258","441970","0.0-6.0-2.12","","<div style=""font-size:60px;"">+</div>","null","","","","","","",""
"732.1000000238419","","image-keyboard-response","259","442704","0.0-6.0-0.13","","img/yellow.png","32","trial","32","true","0.8,0.2","3:go_c","",""
"null","","html-keyboard-response","260","443711","0.0-6.0-1.13","","<img src=""img/yellow-n.png"" border=""10"">","null","trial","32","","0.8,0.2","3:go_c","0",""
"null","","html-keyboard-response","261","444717","0.0-6.0-2.13","","<div style=""font-size:60px;"">+</div>","null","","","","","","",""
"583.7999999523163","","image-keyboard-response","262","445303","0.0-6.0-0.14","","img/grey.png","32","trial","32","true","0.8,0.2","1:go_a","",""
"null","","html-keyboard-response","263","446308","0.0-6.0-1.14","","<img src=""img/grey-r.png"" border=""10"">","null","trial","32","","0.8,0.2","1:go_a","1",""
"null","","html-keyboard-response","264","447314","0.0-6.0-2.14","","<div style=""font-size:60px;"">+</div>","null","","","","","","",""
"330.6999999284744","","image-keyboard-response","265","447646","0.0-6.0-0.15","","img/orange.png","32","trial","null","false","0.2,0.8","4:nogo_d","",""
"null","","html-keyboard-response","266","448653","0.0-6.0-1.15","","<img src=""img/orange-n.png"" border=""10"">","null","trial","null","","0.2,0.8","4:nogo_d","0",""
"null","","html-keyboard-response","267","449655","0.0-6.0-2.15","","<div style=""font-size:60px;"">+</div>","null","","","","","","",""
"null","","image-keyboard-response","268","451161","0.0-6.0-0.16","","img/orange.png","null","trial","null","true","0.2,0.8","4:nogo_d","",""
"null","","html-keyboard-response","269","452164","0.0-6.0-1.16","","<img src=""img/orange-r.png"">","null","trial","null","","0.2,0.8","4:nogo_d","1",""
"null","","html-keyboard-response","270","453169","0.0-6.0-2.16","","<div style=""font-size:60px;"">+</div>","null","","","","","","",""
"579.3999999761581","","image-keyboard-response","271","453751","0.0-6.0-0.17","","img/grey.png","32","trial","32","true","0.8,0.2","1:go_a","",""
"null","","html-keyboard-response","272","454755","0.0-6.0-1.17","","<img src=""img/grey-r.png"" border=""10"">","null","trial","32","","0.8,0.2","1:go_a","1",""
"null","","html-keyboard-response","273","455761","0.0-6.0-2.17","","<div style=""font-size:60px;"">+</div>","null","","","","","","",""
"1062.8000000715256","","image-keyboard-response","274","456826","0.0-6.0-0.18","","img/yellow.png","32","trial","32","true","0.8,0.2","3:go_c","",""
"null","","html-keyboard-response","275","457829","0.0-6.0-1.18","","<img src=""img/yellow-r.png"" border=""10"">","null","trial","32","","0.8,0.2","3:go_c","1",""
"null","","html-keyboard-response","276","458830","0.0-6.0-2.18","","<div style=""font-size:60px;"">+</div>","null","","","","","","",""
"null","","image-keyboard-response","277","460336","0.0-6.0-0.19","","img/blue.png","null","trial","null","true","0.2,0.8","2:nogo_b","",""
"null","","html-keyboard-response","278","461342","0.0-6.0-1.19","","<img src=""img/blue-n.png"">","null","trial","null","","0.2,0.8","2:nogo_b","0",""
"null","","html-keyboard-response","279","462347","0.0-6.0-2.19","","<div style=""font-size:60px;"">+</div>","null","","","","","","",""
"336.7999999523163","","image-keyboard-response","280","462685","0.0-6.0-0.20","","img/blue.png","32","trial","null","false","0.2,0.8","2:nogo_b","",""
"null","","html-keyboard-response","281","463690","0.0-6.0-1.20","","<img src=""img/blue-n.png"" border=""10"">","null","trial","null","","0.2,0.8","2:nogo_b","0",""
"null","","html-keyboard-response","282","464696","0.0-6.0-2.20","","<div style=""font-size:60px;"">+</div>","null","","","","","","",""
"332.2000000476837","","image-keyboard-response","283","465030","0.0-6.0-0.21","","img/grey.png","32","trial","32","true","0.8,0.2","1:go_a","",""
"null","","html-keyboard-response","284","466036","0.0-6.0-1.21","","<img src=""img/grey-r.png"" border=""10"">","null","trial","32","","0.8,0.2","1:go_a","1",""
"null","","html-keyboard-response","285","467039","0.0-6.0-2.21","","<div style=""font-size:60px;"">+</div>","null","","","","","","",""
"359.8000000715256","","image-keyboard-response","286","467400","0.0-6.0-0.22","","img/yellow.png","32","trial","32","true","0.8,0.2","3:go_c","",""
"null","","html-keyboard-response","287","468405","0.0-6.0-1.22","","<img src=""img/yellow-r.png"" border=""10"">","null","trial","32","","0.8,0.2","3:go_c","1",""
"null","","html-keyboard-response","288","469411","0.0-6.0-2.22","","<div style=""font-size:60px;"">+</div>","null","","","","","","",""
"462","","image-keyboard-response","289","469874","0.0-6.0-0.23","","img/orange.png","32","trial","null","false","0.2,0.8","4:nogo_d","",""
"null","","html-keyboard-response","290","470881","0.0-6.0-1.23","","<img src=""img/orange-n.png"" border=""10"">","null","trial","null","","0.2,0.8","4:nogo_d","0",""
"null","","html-keyboard-response","291","471885","0.0-6.0-2.23","","<div style=""font-size:60px;"">+</div>","null","","","","","","",""
"362.40000009536743","","image-keyboard-response","292","472250","0.0-6.0-0.24","","img/grey.png","32","trial","32","true","0.8,0.2","1:go_a","",""
"null","","html-keyboard-response","293","473255","0.0-6.0-1.24","","<img src=""img/grey-r.png"" border=""10"">","null","trial","32","","0.8,0.2","1:go_a","1",""
"null","","html-keyboard-response","294","474261","0.0-6.0-2.24","","<div style=""font-size:60px;"">+</div>","null","","","","","","",""
"1117.2000000476837","","image-keyboard-response","295","475380","0.0-6.0-0.25","","img/yellow.png","32","trial","32","true","0.8,0.2","3:go_c","",""
"null","","html-keyboard-response","296","476382","0.0-6.0-1.25","","<img src=""img/yellow-n.png"" border=""10"">","null","trial","32","","0.8,0.2","3:go_c","0",""
"null","","html-keyboard-response","297","477388","0.0-6.0-2.25","","<div style=""font-size:60px;"">+</div>","null","","","","","","",""
"null","","image-keyboard-response","298","478891","0.0-6.0-0.26","","img/blue.png","null","trial","null","true","0.2,0.8","2:nogo_b","",""
"null","","html-keyboard-response","299","479894","0.0-6.0-1.26","","<img src=""img/blue-r.png"">","null","trial","null","","0.2,0.8","2:nogo_b","1",""
"null","","html-keyboard-response","300","480896","0.0-6.0-2.26","","<div style=""font-size:60px;"">+</div>","null","","","","","","",""
"869.3999999761581","","image-keyboard-response","301","481766","0.0-6.0-0.27","","img/orange.png","32","trial","null","false","0.2,0.8","4:nogo_d","",""
"null","","html-keyboard-response","302","482771","0.0-6.0-1.27","","<img src=""img/orange-n.png"" border=""10"">","null","trial","null","","0.2,0.8","4:nogo_d","0",""
"null","","html-keyboard-response","303","483776","0.0-6.0-2.27","","<div style=""font-size:60px;"">+</div>","null","","","","","","",""
"461.2000000476837","","image-keyboard-response","304","484239","0.0-6.0-0.28","","img/orange.png","32","trial","null","false","0.2,0.8","4:nogo_d","",""
"null","","html-keyboard-response","305","485247","0.0-6.0-1.28","","<img src=""img/orange-n.png"" border=""10"">","null","trial","null","","0.2,0.8","4:nogo_d","0",""
"null","","html-keyboard-response","306","486252","0.0-6.0-2.28","","<div style=""font-size:60px;"">+</div>","null","","","","","","",""
"null","","image-keyboard-response","307","487754","0.0-6.0-0.29","","img/grey.png","null","trial","32","false","0.8,0.2","1:go_a","",""
"null","","html-keyboard-response","308","488759","0.0-6.0-1.29","","<img src=""img/grey-r.png"">","null","trial","32","","0.8,0.2","1:go_a","1",""
"null","","html-keyboard-response","309","489763","0.0-6.0-2.29","","<div style=""font-size:60px;"">+</div>","null","","","","","","",""
"357.10000002384186","","image-keyboard-response","310","490122","0.0-6.0-0.30","","img/yellow.png","32","trial","32","true","0.8,0.2","3:go_c","",""
"null","","html-keyboard-response","311","491129","0.0-6.0-1.30","","<img src=""img/yellow-r.png"" border=""10"">","null","trial","32","","0.8,0.2","3:go_c","1",""
"null","","html-keyboard-response","312","492135","0.0-6.0-2.30","","<div style=""font-size:60px;"">+</div>","null","","","","","","",""
"367.6999999284744","","image-keyboard-response","313","492504","0.0-6.0-0.31","","img/blue.png","32","trial","null","false","0.2,0.8","2:nogo_b","",""
"null","","html-keyboard-response","314","493511","0.0-6.0-1.31","","<img src=""img/blue-n.png"" border=""10"">","null","trial","null","","0.2,0.8","2:nogo_b","0",""
"null","","html-keyboard-response","315","494514","0.0-6.0-2.31","","<div style=""font-size:60px;"">+</div>","null","","","","","","",""
"402.60000002384186","","image-keyboard-response","316","494918","0.0-6.0-0.32","","img/grey.png","32","trial","32","true","0.8,0.2","1:go_a","",""
"null","","html-keyboard-response","317","495921","0.0-6.0-1.32","","<img src=""img/grey-n.png"" border=""10"">","null","trial","32","","0.8,0.2","1:go_a","0",""
"null","","html-keyboard-response","318","496924","0.0-6.0-2.32","","<div style=""font-size:60px;"">+</div>","null","","","","","","",""
"786.0999999046326","","image-keyboard-response","319","497712","0.0-6.0-0.33","","img/blue.png","32","trial","null","false","0.2,0.8","2:nogo_b","",""
"null","","html-keyboard-response","320","498718","0.0-6.0-1.33","","<img src=""img/blue-n.png"" border=""10"">","null","trial","null","","0.2,0.8","2:nogo_b","0",""
"null","","html-keyboard-response","321","499723","0.0-6.0-2.33","","<div style=""font-size:60px;"">+</div>","null","","","","","","",""
"1259.7000000476837","","image-keyboard-response","322","500984","0.0-6.0-0.34","","img/yellow.png","32","trial","32","true","0.8,0.2","3:go_c","",""
"null","","html-keyboard-response","323","501988","0.0-6.0-1.34","","<img src=""img/yellow-r.png"" border=""10"">","null","trial","32","","0.8,0.2","3:go_c","1",""
"null","","html-keyboard-response","324","502994","0.0-6.0-2.34","","<div style=""font-size:60px;"">+</div>","null","","","","","","",""
"917.1000000238419","","image-keyboard-response","325","503913","0.0-6.0-0.35","","img/orange.png","32","trial","null","false","0.2,0.8","4:nogo_d","",""
"null","","html-keyboard-response","326","504917","0.0-6.0-1.35","","<img src=""img/orange-n.png"" border=""10"">","null","trial","null","","0.2,0.8","4:nogo_d","0",""
"null","","html-keyboard-response","327","505921","0.0-6.0-2.35","","<div style=""font-size:60px;"">+</div>","null","","","","","","",""
"465.60000002384186","","image-keyboard-response","328","506388","0.0-6.0-0.36","","img/yellow.png","32","trial","32","true","0.8,0.2","3:go_c","",""
"null","","html-keyboard-response","329","507396","0.0-6.0-1.36","","<img src=""img/yellow-n.png"" border=""10"">","null","trial","32","","0.8,0.2","3:go_c","0",""
"null","","html-keyboard-response","330","508400","0.0-6.0-2.36","","<div style=""font-size:60px;"">+</div>","null","","","","","","",""
"508.39999997615814","","image-keyboard-response","331","508910","0.0-6.0-0.37","","img/grey.png","32","trial","32","true","0.8,0.2","1:go_a","",""
"null","","html-keyboard-response","332","509915","0.0-6.0-1.37","","<img src=""img/grey-r.png"" border=""10"">","null","trial","32","","0.8,0.2","1:go_a","1",""
"null","","html-keyboard-response","333","510921","0.0-6.0-2.37","","<div style=""font-size:60px;"">+</div>","null","","","","","","",""
"null","","image-keyboard-response","334","512427","0.0-6.0-0.38","","img/orange.png","null","trial","null","true","0.2,0.8","4:nogo_d","",""
"null","","html-keyboard-response","335","513434","0.0-6.0-1.38","","<img src=""img/orange-r.png"">","null","trial","null","","0.2,0.8","4:nogo_d","1",""
"null","","html-keyboard-response","336","514437","0.0-6.0-2.38","","<div style=""font-size:60px;"">+</div>","null","","","","","","",""
"353","","image-keyboard-response","337","514792","0.0-6.0-0.39","","img/blue.png","32","trial","null","false","0.2,0.8","2:nogo_b","",""
"null","","html-keyboard-response","338","515800","0.0-6.0-1.39","","<img src=""img/blue-n.png"" border=""10"">","null","trial","null","","0.2,0.8","2:nogo_b","0",""
"null","","html-keyboard-response","339","516804","0.0-6.0-2.39","","<div style=""font-size:60px;"">+</div>","null","","","","","","",""
"429.7000000476837","","image-keyboard-response","340","517236","0.0-6.0-0.40","","img/blue.png","32","trial","null","false","0.2,0.8","2:nogo_b","",""
"null","","html-keyboard-response","341","518243","0.0-6.0-1.40","","<img src=""img/blue-n.png"" border=""10"">","null","trial","null","","0.2,0.8","2:nogo_b","0",""
"null","","html-keyboard-response","342","519246","0.0-6.0-2.40","","<div style=""font-size:60px;"">+</div>","null","","","","","","",""
"605.6000000238419","","image-keyboard-response","343","519853","0.0-6.0-0.41","","img/yellow.png","32","trial","32","true","0.8,0.2","3:go_c","",""
"null","","html-keyboard-response","344","520860","0.0-6.0-1.41","","<img src=""img/yellow-n.png"" border=""10"">","null","trial","32","","0.8,0.2","3:go_c","0",""
"null","","html-keyboard-response","345","521866","0.0-6.0-2.41","","<div style=""font-size:60px;"">+</div>","null","","","","","","",""
"349.89999997615814","","image-keyboard-response","346","522218","0.0-6.0-0.42","","img/grey.png","32","trial","32","true","0.8,0.2","1:go_a","",""
"null","","html-keyboard-response","347","523223","0.0-6.0-1.42","","<img src=""img/grey-r.png"" border=""10"">","null","trial","32","","0.8,0.2","1:go_a","1",""
"null","","html-keyboard-response","348","524229","0.0-6.0-2.42","","<div style=""font-size:60px;"">+</div>","null","","","","","","",""
"1213.5","","image-keyboard-response","349","525444","0.0-6.0-0.43","","img/orange.png","32","trial","null","false","0.2,0.8","4:nogo_d","",""
"null","","html-keyboard-response","350","526448","0.0-6.0-1.43","","<img src=""img/orange-r.png"" border=""10"">","null","trial","null","","0.2,0.8","4:nogo_d","1",""
"null","","html-keyboard-response","351","527454","0.0-6.0-2.43","","<div style=""font-size:60px;"">+</div>","null","","","","","","",""
"null","","image-keyboard-response","352","528960","0.0-6.0-0.44","","img/grey.png","null","trial","32","false","0.8,0.2","1:go_a","",""
"null","","html-keyboard-response","353","529963","0.0-6.0-1.44","","<img src=""img/grey-n.png"">","null","trial","32","","0.8,0.2","1:go_a","0",""
"null","","html-keyboard-response","354","530967","0.0-6.0-2.44","","<div style=""font-size:60px;"">+</div>","null","","","","","","",""
"323.5","","image-keyboard-response","355","531292","0.0-6.0-0.45","","img/blue.png","32","trial","null","false","0.2,0.8","2:nogo_b","",""
"null","","html-keyboard-response","356","532295","0.0-6.0-1.45","","<img src=""img/blue-n.png"" border=""10"">","null","trial","null","","0.2,0.8","2:nogo_b","0",""
"null","","html-keyboard-response","357","533300","0.0-6.0-2.45","","<div style=""font-size:60px;"">+</div>","null","","","","","","",""
"null","","image-keyboard-response","358","534805","0.0-6.0-0.46","","img/orange.png","null","trial","null","true","0.2,0.8","4:nogo_d","",""
"null","","html-keyboard-response","359","535810","0.0-6.0-1.46","","<img src=""img/orange-n.png"">","null","trial","null","","0.2,0.8","4:nogo_d","0",""
"null","","html-keyboard-response","360","536815","0.0-6.0-2.46","","<div style=""font-size:60px;"">+</div>","null","","","","","","",""
"360.2000000476837","","image-keyboard-response","361","537177","0.0-6.0-0.47","","img/yellow.png","32","trial","32","true","0.8,0.2","3:go_c","",""
"null","","html-keyboard-response","362","538183","0.0-6.0-1.47","","<img src=""img/yellow-r.png"" border=""10"">","null","trial","32","","0.8,0.2","3:go_c","1",""
"null","","html-keyboard-response","363","539187","0.0-6.0-2.47","","<div style=""font-size:60px;"">+</div>","null","","","","","","",""
"null","","image-keyboard-response","364","540691","0.0-6.0-0.48","","img/yellow.png","null","trial","32","false","0.8,0.2","3:go_c","",""
"null","","html-keyboard-response","365","541698","0.0-6.0-1.48","","<img src=""img/yellow-r.png"">","null","trial","32","","0.8,0.2","3:go_c","1",""
"null","","html-keyboard-response","366","542703","0.0-6.0-2.48","","<div style=""font-size:60px;"">+</div>","null","","","","","","",""
"465.2999999523163","","image-keyboard-response","367","543170","0.0-6.0-0.49","","img/grey.png","32","trial","32","true","0.8,0.2","1:go_a","",""
"null","","html-keyboard-response","368","544174","0.0-6.0-1.49","","<img src=""img/grey-r.png"" border=""10"">","null","trial","32","","0.8,0.2","1:go_a","1",""
"null","","html-keyboard-response","369","545175","0.0-6.0-2.49","","<div style=""font-size:60px;"">+</div>","null","","","","","","",""
"446.6999999284744","","image-keyboard-response","370","545623","0.0-6.0-0.50","","img/orange.png","32","trial","null","false","0.2,0.8","4:nogo_d","",""
"null","","html-keyboard-response","371","546630","0.0-6.0-1.50","","<img src=""img/orange-r.png"" border=""10"">","null","trial","null","","0.2,0.8","4:nogo_d","1",""
"null","","html-keyboard-response","372","547633","0.0-6.0-2.50","","<div style=""font-size:60px;"">+</div>","null","","","","","","",""
"null","","image-keyboard-response","373","549137","0.0-6.0-0.51","","img/blue.png","null","trial","null","true","0.2,0.8","2:nogo_b","",""
"null","","html-keyboard-response","374","550144","0.0-6.0-1.51","","<img src=""img/blue-r.png"">","null","trial","null","","0.2,0.8","2:nogo_b","1",""
"null","","html-keyboard-response","375","551145","0.0-6.0-2.51","","<div style=""font-size:60px;"">+</div>","null","","","","","","",""
"263.10000002384186","","image-keyboard-response","376","551409","0.0-6.0-0.52","","img/yellow.png","32","trial","32","true","0.8,0.2","3:go_c","",""
"null","","html-keyboard-response","377","552416","0.0-6.0-1.52","","<img src=""img/yellow-r.png"" border=""10"">","null","trial","32","","0.8,0.2","3:go_c","1",""
"null","","html-keyboard-response","378","553420","0.0-6.0-2.52","","<div style=""font-size:60px;"">+</div>","null","","","","","","",""
"425","","image-keyboard-response","379","553847","0.0-6.0-0.53","","img/blue.png","32","trial","null","false","0.2,0.8","2:nogo_b","",""
"null","","html-keyboard-response","380","554854","0.0-6.0-1.53","","<img src=""img/blue-r.png"" border=""10"">","null","trial","null","","0.2,0.8","2:nogo_b","1",""
"null","","html-keyboard-response","381","555855","0.0-6.0-2.53","","<div style=""font-size:60px;"">+</div>","null","","","","","","",""
"null","","image-keyboard-response","382","557362","0.0-6.0-0.54","","img/grey.png","null","trial","32","false","0.8,0.2","1:go_a","",""
"null","","html-keyboard-response","383","558370","0.0-6.0-1.54","","<img src=""img/grey-n.png"">","null","trial","32","","0.8,0.2","1:go_a","0",""
"null","","html-keyboard-response","384","559375","0.0-6.0-2.54","","<div style=""font-size:60px;"">+</div>","null","","","","","","",""
"874.7999999523163","","image-keyboard-response","385","560252","0.0-6.0-0.55","","img/orange.png","32","trial","null","false","0.2,0.8","4:nogo_d","",""
"null","","html-keyboard-response","386","561259","0.0-6.0-1.55","","<img src=""img/orange-n.png"" border=""10"">","null","trial","null","","0.2,0.8","4:nogo_d","0",""
"null","","html-keyboard-response","387","562265","0.0-6.0-2.55","","<div style=""font-size:60px;"">+</div>","null","","","","","","",""
"647.7999999523163","","image-keyboard-response","388","562914","0.0-6.0-0.56","","img/yellow.png","32","trial","32","true","0.8,0.2","3:go_c","",""
"null","","html-keyboard-response","389","563920","0.0-6.0-1.56","","<img src=""img/yellow-r.png"" border=""10"">","null","trial","32","","0.8,0.2","3:go_c","1",""
"null","","html-keyboard-response","390","564926","0.0-6.0-2.56","","<div style=""font-size:60px;"">+</div>","null","","","","","","",""
"null","","image-keyboard-response","391","566431","0.0-6.0-0.57","","img/grey.png","null","trial","32","false","0.8,0.2","1:go_a","",""
"null","","html-keyboard-response","392","567436","0.0-6.0-1.57","","<img src=""img/grey-r.png"">","null","trial","32","","0.8,0.2","1:go_a","1",""
"null","","html-keyboard-response","393","568443","0.0-6.0-2.57","","<div style=""font-size:60px;"">+</div>","null","","","","","","",""
"330.39999997615814","","image-keyboard-response","394","568775","0.0-6.0-0.58","","img/blue.png","32","trial","null","false","0.2,0.8","2:nogo_b","",""
"null","","html-keyboard-response","395","569782","0.0-6.0-1.58","","<img src=""img/blue-n.png"" border=""10"">","null","trial","null","","0.2,0.8","2:nogo_b","0",""
"null","","html-keyboard-response","396","570786","0.0-6.0-2.58","","<div style=""font-size:60px;"">+</div>","null","","","","","","",""
"277","","image-keyboard-response","397","571065","0.0-6.0-0.59","","img/orange.png","32","trial","null","false","0.2,0.8","4:nogo_d","",""
"null","","html-keyboard-response","398","572069","0.0-6.0-1.59","","<img src=""img/orange-n.png"" border=""10"">","null","trial","null","","0.2,0.8","4:nogo_d","0",""
"null","","html-keyboard-response","399","573075","0.0-6.0-2.59","","<div style=""font-size:60px;"">+</div>","null","","","","","","",""
"276.1999999284744","","image-keyboard-response","400","573353","0.0-6.0-0.60","","img/grey.png","32","trial","32","true","0.8,0.2","1:go_a","",""
"null","","html-keyboard-response","401","574361","0.0-6.0-1.60","","<img src=""img/grey-n.png"" border=""10"">","null","trial","32","","0.8,0.2","1:go_a","0",""
"null","","html-keyboard-response","402","575364","0.0-6.0-2.60","","<div style=""font-size:60px;"">+</div>","null","","","","","","",""
"354.89999997615814","","image-keyboard-response","403","575720","0.0-6.0-0.61","","img/blue.png","32","trial","null","false","0.2,0.8","2:nogo_b","",""
"null","","html-keyboard-response","404","576727","0.0-6.0-1.61","","<img src=""img/blue-n.png"" border=""10"">","null","trial","null","","0.2,0.8","2:nogo_b","0",""
"null","","html-keyboard-response","405","577732","0.0-6.0-2.61","","<div style=""font-size:60px;"">+</div>","null","","","","","","",""
"570.5","","image-keyboard-response","406","578304","0.0-6.0-0.62","","img/yellow.png","32","trial","32","true","0.8,0.2","3:go_c","",""
"null","","html-keyboard-response","407","579311","0.0-6.0-1.62","","<img src=""img/yellow-r.png"" border=""10"">","null","trial","32","","0.8,0.2","3:go_c","1",""
"null","","html-keyboard-response","408","580315","0.0-6.0-2.62","","<div style=""font-size:60px;"">+</div>","null","","","","","","",""
"null","","image-keyboard-response","409","581819","0.0-6.0-0.63","","img/orange.png","null","trial","null","true","0.2,0.8","4:nogo_d","",""
"null","","html-keyboard-response","410","582826","0.0-6.0-1.63","","<img src=""img/orange-r.png"">","null","trial","null","","0.2,0.8","4:nogo_d","1",""
"null","","html-keyboard-response","411","583829","0.0-6.0-2.63","","<div style=""font-size:60px;"">+</div>","null","","","","","","",""
"243.5","","image-keyboard-response","412","584074","0.0-6.0-0.64","","img/blue.png","32","trial","null","false","0.2,0.8","2:nogo_b","",""
"null","","html-keyboard-response","413","585078","0.0-6.0-1.64","","<img src=""img/blue-n.png"" border=""10"">","null","trial","null","","0.2,0.8","2:nogo_b","0",""
"null","","html-keyboard-response","414","586081","0.0-6.0-2.64","","<div style=""font-size:60px;"">+</div>","null","","","","","","",""
"465.7999999523163","","image-keyboard-response","415","586549","0.0-6.0-0.65","","img/grey.png","32","trial","32","true","0.8,0.2","1:go_a","",""
"null","","html-keyboard-response","416","587554","0.0-6.0-1.65","","<img src=""img/grey-r.png"" border=""10"">","null","trial","32","","0.8,0.2","1:go_a","1",""
"null","","html-keyboard-response","417","588556","0.0-6.0-2.65","","<div style=""font-size:60px;"">+</div>","null","","","","","","",""
"245.70000004768372","","image-keyboard-response","418","588804","0.0-6.0-0.66","","img/yellow.png","32","trial","32","true","0.8,0.2","3:go_c","",""
"null","","html-keyboard-response","419","589809","0.0-6.0-1.66","","<img src=""img/yellow-r.png"" border=""10"">","null","trial","32","","0.8,0.2","3:go_c","1",""
"null","","html-keyboard-response","420","590815","0.0-6.0-2.66","","<div style=""font-size:60px;"">+</div>","null","","","","","","",""
"null","","image-keyboard-response","421","592320","0.0-6.0-0.67","","img/orange.png","null","trial","null","true","0.2,0.8","4:nogo_d","",""
"null","","html-keyboard-response","422","593323","0.0-6.0-1.67","","<img src=""img/orange-r.png"">","null","trial","null","","0.2,0.8","4:nogo_d","1",""
"null","","html-keyboard-response","423","594330","0.0-6.0-2.67","","<div style=""font-size:60px;"">+</div>","null","","","","","","",""
"null","","image-keyboard-response","424","595837","0.0-6.0-0.68","","img/grey.png","null","trial","32","false","0.8,0.2","1:go_a","",""
"null","","html-keyboard-response","425","596841","0.0-6.0-1.68","","<img src=""img/grey-r.png"">","null","trial","32","","0.8,0.2","1:go_a","1",""
"null","","html-keyboard-response","426","597846","0.0-6.0-2.68","","<div style=""font-size:60px;"">+</div>","null","","","","","","",""
"276.6999999284744","","image-keyboard-response","427","598125","0.0-6.0-0.69","","img/orange.png","32","trial","null","false","0.2,0.8","4:nogo_d","",""
"null","","html-keyboard-response","428","599131","0.0-6.0-1.69","","<img src=""img/orange-n.png"" border=""10"">","null","trial","null","","0.2,0.8","4:nogo_d","0",""
"null","","html-keyboard-response","429","600136","0.0-6.0-2.69","","<div style=""font-size:60px;"">+</div>","null","","","","","","",""
"null","","image-keyboard-response","430","601640","0.0-6.0-0.70","","img/blue.png","null","trial","null","true","0.2,0.8","2:nogo_b","",""
"null","","html-keyboard-response","431","602644","0.0-6.0-1.70","","<img src=""img/blue-r.png"">","null","trial","null","","0.2,0.8","2:nogo_b","1",""
"null","","html-keyboard-response","432","603648","0.0-6.0-2.70","","<div style=""font-size:60px;"">+</div>","null","","","","","","",""
"null","","image-keyboard-response","433","605152","0.0-6.0-0.71","","img/yellow.png","null","trial","32","false","0.8,0.2","3:go_c","",""
"null","","html-keyboard-response","434","606160","0.0-6.0-1.71","","<img src=""img/yellow-n.png"">","null","trial","32","","0.8,0.2","3:go_c","0",""
"null","","html-keyboard-response","435","607164","0.0-6.0-2.71","","<div style=""font-size:60px;"">+</div>","null","","","","","","",""
"null","","image-keyboard-response","436","608667","0.0-6.0-0.72","","img/yellow.png","null","trial","32","false","0.8,0.2","3:go_c","",""
"null","","html-keyboard-response","437","609674","0.0-6.0-1.72","","<img src=""img/yellow-n.png"">","null","trial","32","","0.8,0.2","3:go_c","0",""
"null","","html-keyboard-response","438","610676","0.0-6.0-2.72","","<div style=""font-size:60px;"">+</div>","null","","","","","","",""
"572.2999999523163","","image-keyboard-response","439","611250","0.0-6.0-0.73","","img/grey.png","32","trial","32","true","0.8,0.2","1:go_a","",""
"null","","html-keyboard-response","440","612254","0.0-6.0-1.73","","<img src=""img/grey-n.png"" border=""10"">","null","trial","32","","0.8,0.2","1:go_a","0",""
"null","","html-keyboard-response","441","613261","0.0-6.0-2.73","","<div style=""font-size:60px;"">+</div>","null","","","","","","",""
"1154.9000000953674","","image-keyboard-response","442","614417","0.0-6.0-0.74","","img/blue.png","32","trial","null","false","0.2,0.8","2:nogo_b","",""
"null","","html-keyboard-response","443","615419","0.0-6.0-1.74","","<img src=""img/blue-n.png"" border=""10"">","null","trial","null","","0.2,0.8","2:nogo_b","0",""
"null","","html-keyboard-response","444","616424","0.0-6.0-2.74","","<div style=""font-size:60px;"">+</div>","null","","","","","","",""
"null","","image-keyboard-response","445","617930","0.0-6.0-0.75","","img/orange.png","null","trial","null","true","0.2,0.8","4:nogo_d","",""
"null","","html-keyboard-response","446","618936","0.0-6.0-1.75","","<img src=""img/orange-r.png"">","null","trial","null","","0.2,0.8","4:nogo_d","1",""
"null","","html-keyboard-response","447","619940","0.0-6.0-2.75","","<div style=""font-size:60px;"">+</div>","null","","","","","","",""
"1324.7000000476837","","image-keyboard-response","448","621266","0.0-6.0-0.76","","img/orange.png","32","trial","null","false","0.2,0.8","4:nogo_d","",""
"null","","html-keyboard-response","449","622269","0.0-6.0-1.76","","<img src=""img/orange-n.png"" border=""10"">","null","trial","null","","0.2,0.8","4:nogo_d","0",""
"null","","html-keyboard-response","450","623275","0.0-6.0-2.76","","<div style=""font-size:60px;"">+</div>","null","","","","","","",""
"null","","image-keyboard-response","451","624780","0.0-6.0-0.77","","img/yellow.png","null","trial","32","false","0.8,0.2","3:go_c","",""
"null","","html-keyboard-response","452","625785","0.0-6.0-1.77","","<img src=""img/yellow-n.png"">","null","trial","32","","0.8,0.2","3:go_c","0",""
"null","","html-keyboard-response","453","626790","0.0-6.0-2.77","","<div style=""font-size:60px;"">+</div>","null","","","","","","",""
"null","","image-keyboard-response","454","628297","0.0-6.0-0.78","","img/blue.png","null","trial","null","true","0.2,0.8","2:nogo_b","",""
"null","","html-keyboard-response","455","629302","0.0-6.0-1.78","","<img src=""img/blue-r.png"">","null","trial","null","","0.2,0.8","2:nogo_b","1",""
"null","","html-keyboard-response","456","630307","0.0-6.0-2.78","","<div style=""font-size:60px;"">+</div>","null","","","","","","",""
"null","","image-keyboard-response","457","631813","0.0-6.0-0.79","","img/grey.png","null","trial","32","false","0.8,0.2","1:go_a","",""
"null","","html-keyboard-response","458","632818","0.0-6.0-1.79","","<img src=""img/grey-n.png"">","null","trial","32","","0.8,0.2","1:go_a","0",""
"null","","html-keyboard-response","459","633824","0.0-6.0-2.79","","<div style=""font-size:60px;"">+</div>","null","","","","","","",""
"null","","image-keyboard-response","460","635327","0.0-6.0-0.80","","img/orange.png","null","trial","null","true","0.2,0.8","4:nogo_d","",""
"null","","html-keyboard-response","461","636331","0.0-6.0-1.80","","<img src=""img/orange-r.png"">","null","trial","null","","0.2,0.8","4:nogo_d","1",""
"null","","html-keyboard-response","462","637335","0.0-6.0-2.80","","<div style=""font-size:60px;"">+</div>","null","","","","","","",""
"258.10000002384186","","image-keyboard-response","463","637595","0.0-6.0-0.81","","img/yellow.png","32","trial","32","true","0.8,0.2","3:go_c","",""
"null","","html-keyboard-response","464","638602","0.0-6.0-1.81","","<img src=""img/yellow-n.png"" border=""10"">","null","trial","32","","0.8,0.2","3:go_c","0",""
"null","","html-keyboard-response","465","639606","0.0-6.0-2.81","","<div style=""font-size:60px;"">+</div>","null","","","","","","",""
"274.10000002384186","","image-keyboard-response","466","639882","0.0-6.0-0.82","","img/blue.png","32","trial","null","false","0.2,0.8","2:nogo_b","",""
"null","","html-keyboard-response","467","640888","0.0-6.0-1.82","","<img src=""img/blue-r.png"" border=""10"">","null","trial","null","","0.2,0.8","2:nogo_b","1",""
"null","","html-keyboard-response","468","641893","0.0-6.0-2.82","","<div style=""font-size:60px;"">+</div>","null","","","","","","",""
"296.5","","image-keyboard-response","469","642192","0.0-6.0-0.83","","img/grey.png","32","trial","32","true","0.8,0.2","1:go_a","",""
"null","","html-keyboard-response","470","643196","0.0-6.0-1.83","","<img src=""img/grey-r.png"" border=""10"">","null","trial","32","","0.8,0.2","1:go_a","1",""
"null","","html-keyboard-response","471","644202","0.0-6.0-2.83","","<div style=""font-size:60px;"">+</div>","null","","","","","","",""
"408.10000002384186","","image-keyboard-response","472","644613","0.0-6.0-0.84","","img/yellow.png","32","trial","32","true","0.8,0.2","3:go_c","",""
"null","","html-keyboard-response","473","645618","0.0-6.0-1.84","","<img src=""img/yellow-r.png"" border=""10"">","null","trial","32","","0.8,0.2","3:go_c","1",""
"null","","html-keyboard-response","474","646620","0.0-6.0-2.84","","<div style=""font-size:60px;"">+</div>","null","","","","","","",""
"null","","image-keyboard-response","475","648126","0.0-6.0-0.85","","img/blue.png","null","trial","null","true","0.2,0.8","2:nogo_b","",""
"null","","html-keyboard-response","476","649129","0.0-6.0-1.85","","<img src=""img/blue-n.png"">","null","trial","null","","0.2,0.8","2:nogo_b","0",""
"null","","html-keyboard-response","477","650135","0.0-6.0-2.85","","<div style=""font-size:60px;"">+</div>","null","","","","","","",""
"null","","image-keyboard-response","478","651638","0.0-6.0-0.86","","img/orange.png","null","trial","null","true","0.2,0.8","4:nogo_d","",""
"null","","html-keyboard-response","479","652646","0.0-6.0-1.86","","<img src=""img/orange-r.png"">","null","trial","null","","0.2,0.8","4:nogo_d","1",""
"null","","html-keyboard-response","480","653651","0.0-6.0-2.86","","<div style=""font-size:60px;"">+</div>","null","","","","","","",""
"266.5","","image-keyboard-response","481","653919","0.0-6.0-0.87","","img/grey.png","32","trial","32","true","0.8,0.2","1:go_a","",""
"null","","html-keyboard-response","482","654926","0.0-6.0-1.87","","<img src=""img/grey-r.png"" border=""10"">","null","trial","32","","0.8,0.2","1:go_a","1",""
"null","","html-keyboard-response","483","655929","0.0-6.0-2.87","","<div style=""font-size:60px;"">+</div>","null","","","","","","",""
"240.30000007152557","","image-keyboard-response","484","656171","0.0-6.0-0.88","","img/blue.png","32","trial","null","false","0.2,0.8","2:nogo_b","",""
"null","","html-keyboard-response","485","657179","0.0-6.0-1.88","","<img src=""img/blue-n.png"" border=""10"">","null","trial","null","","0.2,0.8","2:nogo_b","0",""
"null","","html-keyboard-response","486","658185","0.0-6.0-2.88","","<div style=""font-size:60px;"">+</div>","null","","","","","","",""
"null","","image-keyboard-response","487","659691","0.0-6.0-0.89","","img/yellow.png","null","trial","32","false","0.8,0.2","3:go_c","",""
"null","","html-keyboard-response","488","660696","0.0-6.0-1.89","","<img src=""img/yellow-n.png"">","null","trial","32","","0.8,0.2","3:go_c","0",""
"null","","html-keyboard-response","489","661701","0.0-6.0-2.89","","<div style=""font-size:60px;"">+</div>","null","","","","","","",""
"301.5","","image-keyboard-response","490","662005","0.0-6.0-0.90","","img/grey.png","32","trial","32","true","0.8,0.2","1:go_a","",""
"null","","html-keyboard-response","491","663011","0.0-6.0-1.90","","<img src=""img/grey-r.png"" border=""10"">","null","trial","32","","0.8,0.2","1:go_a","1",""
"null","","html-keyboard-response","492","664018","0.0-6.0-2.90","","<div style=""font-size:60px;"">+</div>","null","","","","","","",""
"343.39999997615814","","image-keyboard-response","493","664363","0.0-6.0-0.91","","img/orange.png","32","trial","null","false","0.2,0.8","4:nogo_d","",""
"null","","html-keyboard-response","494","665370","0.0-6.0-1.91","","<img src=""img/orange-n.png"" border=""10"">","null","trial","null","","0.2,0.8","4:nogo_d","0",""
"null","","html-keyboard-response","495","666371","0.0-6.0-2.91","","<div style=""font-size:60px;"">+</div>","null","","","","","","",""
"829.8000000715256","","image-keyboard-response","496","667203","0.0-6.0-0.92","","img/blue.png","32","trial","null","false","0.2,0.8","2:nogo_b","",""
"null","","html-keyboard-response","497","668206","0.0-6.0-1.92","","<img src=""img/blue-r.png"" border=""10"">","null","trial","null","","0.2,0.8","2:nogo_b","1",""
"null","","html-keyboard-response","498","669212","0.0-6.0-2.92","","<div style=""font-size:60px;"">+</div>","null","","","","","","",""
"264.2999999523163","","image-keyboard-response","499","669478","0.0-6.0-0.93","","img/grey.png","32","trial","32","true","0.8,0.2","1:go_a","",""
"null","","html-keyboard-response","500","670484","0.0-6.0-1.93","","<img src=""img/grey-n.png"" border=""10"">","null","trial","32","","0.8,0.2","1:go_a","0",""
"null","","html-keyboard-response","501","671487","0.0-6.0-2.93","","<div style=""font-size:60px;"">+</div>","null","","","","","","",""
"null","","image-keyboard-response","502","672994","0.0-6.0-0.94","","img/yellow.png","null","trial","32","false","0.8,0.2","3:go_c","",""
"null","","html-keyboard-response","503","674001","0.0-6.0-1.94","","<img src=""img/yellow-n.png"">","null","trial","32","","0.8,0.2","3:go_c","0",""
"null","","html-keyboard-response","504","675006","0.0-6.0-2.94","","<div style=""font-size:60px;"">+</div>","null","","","","","","",""
"370.89999997615814","","image-keyboard-response","505","675378","0.0-6.0-0.95","","img/orange.png","32","trial","null","false","0.2,0.8","4:nogo_d","",""
"null","","html-keyboard-response","506","676384","0.0-6.0-1.95","","<img src=""img/orange-n.png"" border=""10"">","null","trial","null","","0.2,0.8","4:nogo_d","0",""
"null","","html-keyboard-response","507","677390","0.0-6.0-2.95","","<div style=""font-size:60px;"">+</div>","null","","","","","","",""
"498.10000002384186","","image-keyboard-response","508","677890","0.0-6.0-0.96","","img/yellow.png","32","trial","32","true","0.8,0.2","3:go_c","",""
"null","","html-keyboard-response","509","678894","0.0-6.0-1.96","","<img src=""img/yellow-r.png"" border=""10"">","null","trial","32","","0.8,0.2","3:go_c","1",""
"null","","html-keyboard-response","510","679901","0.0-6.0-2.96","","<div style=""font-size:60px;"">+</div>","null","","","","","","",""
"368.89999997615814","","image-keyboard-response","511","680271","0.0-6.0-0.97","","img/grey.png","32","trial","32","true","0.8,0.2","1:go_a","",""
"null","","html-keyboard-response","512","681277","0.0-6.0-1.97","","<img src=""img/grey-n.png"" border=""10"">","null","trial","32","","0.8,0.2","1:go_a","0",""
"null","","html-keyboard-response","513","682281","0.0-6.0-2.97","","<div style=""font-size:60px;"">+</div>","null","","","","","","",""
"null","","image-keyboard-response","514","683784","0.0-6.0-0.98","","img/orange.png","null","trial","null","true","0.2,0.8","4:nogo_d","",""
"null","","html-keyboard-response","515","684791","0.0-6.0-1.98","","<img src=""img/orange-n.png"">","null","trial","null","","0.2,0.8","4:nogo_d","0",""
"null","","html-keyboard-response","516","685795","0.0-6.0-2.98","","<div style=""font-size:60px;"">+</div>","null","","","","","","",""
"311","","image-keyboard-response","517","686108","0.0-6.0-0.99","","img/blue.png","32","trial","null","false","0.2,0.8","2:nogo_b","",""
"null","","html-keyboard-response","518","687111","0.0-6.0-1.99","","<img src=""img/blue-r.png"" border=""10"">","null","trial","null","","0.2,0.8","2:nogo_b","1",""
"null","","html-keyboard-response","519","688117","0.0-6.0-2.99","","<div style=""font-size:60px;"">+</div>","null","","","","","","",""
"null","","image-keyboard-response","520","689620","0.0-6.0-0.100","","img/orange.png","null","trial","null","true","0.2,0.8","4:nogo_d","",""
"null","","html-keyboard-response","521","690625","0.0-6.0-1.100","","<img src=""img/orange-r.png"">","null","trial","null","","0.2,0.8","4:nogo_d","1",""
"null","","html-keyboard-response","522","691629","0.0-6.0-2.100","","<div style=""font-size:60px;"">+</div>","null","","","","","","",""
"817.2000000476837","","image-keyboard-response","523","692448","0.0-6.0-0.101","","img/blue.png","32","trial","null","false","0.2,0.8","2:nogo_b","",""
"null","","html-keyboard-response","524","693456","0.0-6.0-1.101","","<img src=""img/blue-n.png"" border=""10"">","null","trial","null","","0.2,0.8","2:nogo_b","0",""
"null","","html-keyboard-response","525","694461","0.0-6.0-2.101","","<div style=""font-size:60px;"">+</div>","null","","","","","","",""
"355.39999997615814","","image-keyboard-response","526","694818","0.0-6.0-0.102","","img/grey.png","32","trial","32","true","0.8,0.2","1:go_a","",""
"null","","html-keyboard-response","527","695826","0.0-6.0-1.102","","<img src=""img/grey-r.png"" border=""10"">","null","trial","32","","0.8,0.2","1:go_a","1",""
"null","","html-keyboard-response","528","696833","0.0-6.0-2.102","","<div style=""font-size:60px;"">+</div>","null","","","","","","",""
"287.7999999523163","","image-keyboard-response","529","697122","0.0-6.0-0.103","","img/yellow.png","32","trial","32","true","0.8,0.2","3:go_c","",""
"null","","html-keyboard-response","530","698127","0.0-6.0-1.103","","<img src=""img/yellow-r.png"" border=""10"">","null","trial","32","","0.8,0.2","3:go_c","1",""
"null","","html-keyboard-response","531","699132","0.0-6.0-2.103","","<div style=""font-size:60px;"">+</div>","null","","","","","","",""
"560.5","","image-keyboard-response","532","699694","0.0-6.0-0.104","","img/yellow.png","32","trial","32","true","0.8,0.2","3:go_c","",""
"null","","html-keyboard-response","533","700700","0.0-6.0-1.104","","<img src=""img/yellow-r.png"" border=""10"">","null","trial","32","","0.8,0.2","3:go_c","1",""
"null","","html-keyboard-response","534","701705","0.0-6.0-2.104","","<div style=""font-size:60px;"">+</div>","null","","","","","","",""
"null","","image-keyboard-response","535","703211","0.0-6.0-0.105","","img/orange.png","null","trial","null","true","0.2,0.8","4:nogo_d","",""
"null","","html-keyboard-response","536","704217","0.0-6.0-1.105","","<img src=""img/orange-r.png"">","null","trial","null","","0.2,0.8","4:nogo_d","1",""
"null","","html-keyboard-response","537","705218","0.0-6.0-2.105","","<div style=""font-size:60px;"">+</div>","null","","","","","","",""
"480.40000009536743","","image-keyboard-response","538","705701","0.0-6.0-0.106","","img/grey.png","32","trial","32","true","0.8,0.2","1:go_a","",""
"null","","html-keyboard-response","539","706704","0.0-6.0-1.106","","<img src=""img/grey-r.png"" border=""10"">","null","trial","32","","0.8,0.2","1:go_a","1",""
"null","","html-keyboard-response","540","707711","0.0-6.0-2.106","","<div style=""font-size:60px;"">+</div>","null","","","","","","",""
"null","","image-keyboard-response","541","709217","0.0-6.0-0.107","","img/blue.png","null","trial","null","true","0.2,0.8","2:nogo_b","",""
"null","","html-keyboard-response","542","710224","0.0-6.0-1.107","","<img src=""img/blue-r.png"">","null","trial","null","","0.2,0.8","2:nogo_b","1",""
"null","","html-keyboard-response","543","711227","0.0-6.0-2.107","","<div style=""font-size:60px;"">+</div>","null","","","","","","",""
"259.60000002384186","","image-keyboard-response","544","711489","0.0-6.0-0.108","","img/orange.png","32","trial","null","false","0.2,0.8","4:nogo_d","",""
"null","","html-keyboard-response","545","712494","0.0-6.0-1.108","","<img src=""img/orange-n.png"" border=""10"">","null","trial","null","","0.2,0.8","4:nogo_d","0",""
"null","","html-keyboard-response","546","713500","0.0-6.0-2.108","","<div style=""font-size:60px;"">+</div>","null","","","","","","",""
"337.60000002384186","","image-keyboard-response","547","713840","0.0-6.0-0.109","","img/grey.png","32","trial","32","true","0.8,0.2","1:go_a","",""
"null","","html-keyboard-response","548","714844","0.0-6.0-1.109","","<img src=""img/grey-r.png"" border=""10"">","null","trial","32","","0.8,0.2","1:go_a","1",""
"null","","html-keyboard-response","549","715850","0.0-6.0-2.109","","<div style=""font-size:60px;"">+</div>","null","","","","","","",""
"298.59999990463257","","image-keyboard-response","550","716151","0.0-6.0-0.110","","img/blue.png","32","trial","null","false","0.2,0.8","2:nogo_b","",""
"null","","html-keyboard-response","551","717158","0.0-6.0-1.110","","<img src=""img/blue-n.png"" border=""10"">","null","trial","null","","0.2,0.8","2:nogo_b","0",""
"null","","html-keyboard-response","552","718160","0.0-6.0-2.110","","<div style=""font-size:60px;"">+</div>","null","","","","","","",""
"null","","image-keyboard-response","553","719667","0.0-6.0-0.111","","img/yellow.png","null","trial","32","false","0.8,0.2","3:go_c","",""
"null","","html-keyboard-response","554","720674","0.0-6.0-1.111","","<img src=""img/yellow-n.png"">","null","trial","32","","0.8,0.2","3:go_c","0",""
"null","","html-keyboard-response","555","721677","0.0-6.0-2.111","","<div style=""font-size:60px;"">+</div>","null","","","","","","",""
"1374.7999999523163","","image-keyboard-response","556","723054","0.0-6.0-0.112","","img/grey.png","32","trial","32","true","0.8,0.2","1:go_a","",""
"null","","html-keyboard-response","557","724056","0.0-6.0-1.112","","<img src=""img/grey-r.png"" border=""10"">","null","trial","32","","0.8,0.2","1:go_a","1",""
"null","","html-keyboard-response","558","725060","0.0-6.0-2.112","","<div style=""font-size:60px;"">+</div>","null","","","","","","",""
"null","","image-keyboard-response","559","726566","0.0-6.0-0.113","","img/orange.png","null","trial","null","true","0.2,0.8","4:nogo_d","",""
"null","","html-keyboard-response","560","727574","0.0-6.0-1.113","","<img src=""img/orange-r.png"">","null","trial","null","","0.2,0.8","4:nogo_d","1",""
"null","","html-keyboard-response","561","728577","0.0-6.0-2.113","","<div style=""font-size:60px;"">+</div>","null","","","","","","",""
"337.5","","image-keyboard-response","562","728916","0.0-6.0-0.114","","img/blue.png","32","trial","null","false","0.2,0.8","2:nogo_b","",""
"null","","html-keyboard-response","563","729923","0.0-6.0-1.114","","<img src=""img/blue-n.png"" border=""10"">","null","trial","null","","0.2,0.8","2:nogo_b","0",""
"null","","html-keyboard-response","564","730927","0.0-6.0-2.114","","<div style=""font-size:60px;"">+</div>","null","","","","","","",""
"460.10000002384186","","image-keyboard-response","565","731388","0.0-6.0-0.115","","img/yellow.png","32","trial","32","true","0.8,0.2","3:go_c","",""
"null","","html-keyboard-response","566","732393","0.0-6.0-1.115","","<img src=""img/yellow-n.png"" border=""10"">","null","trial","32","","0.8,0.2","3:go_c","0",""
"null","","html-keyboard-response","567","733400","0.0-6.0-2.115","","<div style=""font-size:60px;"">+</div>","null","","","","","","",""
"477.60000002384186","","image-keyboard-response","568","733879","0.0-6.0-0.116","","img/blue.png","32","trial","null","false","0.2,0.8","2:nogo_b","",""
"null","","html-keyboard-response","569","734886","0.0-6.0-1.116","","<img src=""img/blue-n.png"" border=""10"">","null","trial","null","","0.2,0.8","2:nogo_b","0",""
"null","","html-keyboard-response","570","735888","0.0-6.0-2.116","","<div style=""font-size:60px;"">+</div>","null","","","","","","",""
"null","","image-keyboard-response","571","737393","0.0-6.0-0.117","","img/orange.png","null","trial","null","true","0.2,0.8","4:nogo_d","",""
"null","","html-keyboard-response","572","738396","0.0-6.0-1.117","","<img src=""img/orange-r.png"">","null","trial","null","","0.2,0.8","4:nogo_d","1",""
"null","","html-keyboard-response","573","739400","0.0-6.0-2.117","","<div style=""font-size:60px;"">+</div>","null","","","","","","",""
"791","","image-keyboard-response","574","740192","0.0-6.0-0.118","","img/yellow.png","32","trial","32","true","0.8,0.2","3:go_c","",""
"null","","html-keyboard-response","575","741195","0.0-6.0-1.118","","<img src=""img/yellow-r.png"" border=""10"">","null","trial","32","","0.8,0.2","3:go_c","1",""
"null","","html-keyboard-response","576","742200","0.0-6.0-2.118","","<div style=""font-size:60px;"">+</div>","null","","","","","","",""
"648.5","","image-keyboard-response","577","742851","0.0-6.0-0.119","","img/grey.png","32","trial","32","true","0.8,0.2","1:go_a","",""
"null","","html-keyboard-response","578","743858","0.0-6.0-1.119","","<img src=""img/grey-n.png"" border=""10"">","null","trial","32","","0.8,0.2","1:go_a","0",""
"null","","html-keyboard-response","579","744861","0.0-6.0-2.119","","<div style=""font-size:60px;"">+</div>","null","","","","","","",""
"153744.29999995232","","instructions","580","898601","0.0-7.0","[{""page_index"":0,""viewing_time"":153744.19999992847}]","","","","","","","","",""
"796.3999999761581","","image-keyboard-response","581","899400","0.0-8.0-0.0","","img/pink.png","32","trial","32","true","0.6,0.4","3:go_c","",""
"null","","html-keyboard-response","582","900404","0.0-8.0-1.0","","<img src=""img/pink-n.png"" border=""10"">","null","trial","32","","0.6,0.4","3:go_c","0",""
"null","","html-keyboard-response","583","901409","0.0-8.0-2.0","","<div style=""font-size:60px;"">+</div>","null","","","","","","",""
"301.10000002384186","","image-keyboard-response","584","901712","0.0-8.0-0.1","","img/blue.png","32","trial","null","false","0.4,0.6","2:nogo_b","",""
"null","","html-keyboard-response","585","902719","0.0-8.0-1.1","","<img src=""img/blue-r.png"" border=""10"">","null","trial","null","","0.4,0.6","2:nogo_b","1",""
"null","","html-keyboard-response","586","903726","0.0-8.0-2.1","","<div style=""font-size:60px;"">+</div>","null","","","","","","",""
"null","","image-keyboard-response","587","905230","0.0-8.0-0.2","","img/red.png","null","trial","null","true","0.4,0.6","4:nogo_d","",""
"null","","html-keyboard-response","588","906236","0.0-8.0-1.2","","<img src=""img/red-n.png"">","null","trial","null","","0.4,0.6","4:nogo_d","0",""
"null","","html-keyboard-response","589","907240","0.0-8.0-2.2","","<div style=""font-size:60px;"">+</div>","null","","","","","","",""
"293","","image-keyboard-response","590","907534","0.0-8.0-0.3","","img/grey.png","32","trial","32","true","0.6,0.4","1:go_a","",""
"null","","html-keyboard-response","591","908539","0.0-8.0-1.3","","<img src=""img/grey-r.png"" border=""10"">","null","trial","32","","0.6,0.4","1:go_a","1",""
"null","","html-keyboard-response","592","909546","0.0-8.0-2.3","","<div style=""font-size:60px;"">+</div>","null","","","","","","",""
"312.09999990463257","","image-keyboard-response","593","909860","0.0-8.0-0.4","","img/red.png","32","trial","null","false","0.4,0.6","4:nogo_d","",""
"null","","html-keyboard-response","594","910867","0.0-8.0-1.4","","<img src=""img/red-r.png"" border=""10"">","null","trial","null","","0.4,0.6","4:nogo_d","1",""
"null","","html-keyboard-response","595","911871","0.0-8.0-2.4","","<div style=""font-size:60px;"">+</div>","null","","","","","","",""
"318.7000000476837","","image-keyboard-response","596","912191","0.0-8.0-0.5","","img/grey.png","32","trial","32","true","0.6,0.4","1:go_a","",""
"null","","html-keyboard-response","597","913196","0.0-8.0-1.5","","<img src=""img/grey-r.png"" border=""10"">","null","trial","32","","0.6,0.4","1:go_a","1",""
"null","","html-keyboard-response","598","914198","0.0-8.0-2.5","","<div style=""font-size:60px;"">+</div>","null","","","","","","",""
"527.9000000953674","","image-keyboard-response","599","914728","0.0-8.0-0.6","","img/pink.png","32","trial","32","true","0.6,0.4","3:go_c","",""
"null","","html-keyboard-response","600","915735","0.0-8.0-1.6","","<img src=""img/pink-r.png"" border=""10"">","null","trial","32","","0.6,0.4","3:go_c","1",""
"null","","html-keyboard-response","601","916741","0.0-8.0-2.6","","<div style=""font-size:60px;"">+</div>","null","","","","","","",""
"532","","image-keyboard-response","602","917275","0.0-8.0-0.7","","img/blue.png","32","trial","null","false","0.4,0.6","2:nogo_b","",""
"null","","html-keyboard-response","603","918279","0.0-8.0-1.7","","<img src=""img/blue-n.png"" border=""10"">","null","trial","null","","0.4,0.6","2:nogo_b","0",""
"null","","html-keyboard-response","604","919285","0.0-8.0-2.7","","<div style=""font-size:60px;"">+</div>","null","","","","","","",""
"412","","image-keyboard-response","605","919699","0.0-8.0-0.8","","img/blue.png","32","trial","null","false","0.4,0.6","2:nogo_b","",""
"null","","html-keyboard-response","606","920706","0.0-8.0-1.8","","<img src=""img/blue-n.png"" border=""10"">","null","trial","null","","0.4,0.6","2:nogo_b","0",""
"null","","html-keyboard-response","607","921710","0.0-8.0-2.8","","<div style=""font-size:60px;"">+</div>","null","","","","","","",""
"null","","image-keyboard-response","608","923213","0.0-8.0-0.9","","img/pink.png","null","trial","32","false","0.6,0.4","3:go_c","",""
"null","","html-keyboard-response","609","924217","0.0-8.0-1.9","","<img src=""img/pink-n.png"">","null","trial","32","","0.6,0.4","3:go_c","0",""
"null","","html-keyboard-response","610","925220","0.0-8.0-2.9","","<div style=""font-size:60px;"">+</div>","null","","","","","","",""
"292.2999999523163","","image-keyboard-response","611","925514","0.0-8.0-0.10","","img/grey.png","32","trial","32","true","0.6,0.4","1:go_a","",""
"null","","html-keyboard-response","612","926521","0.0-8.0-1.10","","<img src=""img/grey-r.png"" border=""10"">","null","trial","32","","0.6,0.4","1:go_a","1",""
"null","","html-keyboard-response","613","927527","0.0-8.0-2.10","","<div style=""font-size:60px;"">+</div>","null","","","","","","",""
"414.60000002384186","","image-keyboard-response","614","927943","0.0-8.0-0.11","","img/red.png","32","trial","null","false","0.4,0.6","4:nogo_d","",""
"null","","html-keyboard-response","615","928946","0.0-8.0-1.11","","<img src=""img/red-r.png"" border=""10"">","null","trial","null","","0.4,0.6","4:nogo_d","1",""
"null","","html-keyboard-response","616","929952","0.0-8.0-2.11","","<div style=""font-size:60px;"">+</div>","null","","","","","","",""
"297.1999999284744","","image-keyboard-response","617","930251","0.0-8.0-0.12","","img/pink.png","32","trial","32","true","0.6,0.4","3:go_c","",""
"null","","html-keyboard-response","618","931258","0.0-8.0-1.12","","<img src=""img/pink-r.png"" border=""10"">","null","trial","32","","0.6,0.4","3:go_c","1",""
"null","","html-keyboard-response","619","932263","0.0-8.0-2.12","","<div style=""font-size:60px;"">+</div>","null","","","","","","",""
"353.89999997615814","","image-keyboard-response","620","932618","0.0-8.0-0.13","","img/red.png","32","trial","null","false","0.4,0.6","4:nogo_d","",""
"null","","html-keyboard-response","621","933626","0.0-8.0-1.13","","<img src=""img/red-r.png"" border=""10"">","null","trial","null","","0.4,0.6","4:nogo_d","1",""
"null","","html-keyboard-response","622","934632","0.0-8.0-2.13","","<div style=""font-size:60px;"">+</div>","null","","","","","","",""
"311","","image-keyboard-response","623","934945","0.0-8.0-0.14","","img/grey.png","32","trial","32","true","0.6,0.4","1:go_a","",""
"null","","html-keyboard-response","624","935949","0.0-8.0-1.14","","<img src=""img/grey-r.png"" border=""10"">","null","trial","32","","0.6,0.4","1:go_a","1",""
"null","","html-keyboard-response","625","936954","0.0-8.0-2.14","","<div style=""font-size:60px;"">+</div>","null","","","","","","",""
"282.6999999284744","","image-keyboard-response","626","937238","0.0-8.0-0.15","","img/blue.png","32","trial","null","false","0.4,0.6","2:nogo_b","",""
"null","","html-keyboard-response","627","938245","0.0-8.0-1.15","","<img src=""img/blue-n.png"" border=""10"">","null","trial","null","","0.4,0.6","2:nogo_b","0",""
"null","","html-keyboard-response","628","939247","0.0-8.0-2.15","","<div style=""font-size:60px;"">+</div>","null","","","","","","",""
"null","","image-keyboard-response","629","940754","0.0-8.0-0.16","","img/pink.png","null","trial","32","false","0.6,0.4","3:go_c","",""
"null","","html-keyboard-response","630","941759","0.0-8.0-1.16","","<img src=""img/pink-r.png"">","null","trial","32","","0.6,0.4","3:go_c","1",""
"null","","html-keyboard-response","631","942762","0.0-8.0-2.16","","<div style=""font-size:60px;"">+</div>","null","","","","","","",""
"266.10000002384186","","image-keyboard-response","632","943030","0.0-8.0-0.17","","img/grey.png","32","trial","32","true","0.6,0.4","1:go_a","",""
"null","","html-keyboard-response","633","944037","0.0-8.0-1.17","","<img src=""img/grey-r.png"" border=""10"">","null","trial","32","","0.6,0.4","1:go_a","1",""
"null","","html-keyboard-response","634","945041","0.0-8.0-2.17","","<div style=""font-size:60px;"">+</div>","null","","","","","","",""
"299.7999999523163","","image-keyboard-response","635","945342","0.0-8.0-0.18","","img/red.png","32","trial","null","false","0.4,0.6","4:nogo_d","",""
"null","","html-keyboard-response","636","946346","0.0-8.0-1.18","","<img src=""img/red-r.png"" border=""10"">","null","trial","null","","0.4,0.6","4:nogo_d","1",""
"null","","html-keyboard-response","637","947348","0.0-8.0-2.18","","<div style=""font-size:60px;"">+</div>","null","","","","","","",""
"323.6999999284744","","image-keyboard-response","638","947673","0.0-8.0-0.19","","img/blue.png","32","trial","null","false","0.4,0.6","2:nogo_b","",""
"null","","html-keyboard-response","639","948678","0.0-8.0-1.19","","<img src=""img/blue-r.png"" border=""10"">","null","trial","null","","0.4,0.6","2:nogo_b","1",""
"null","","html-keyboard-response","640","949680","0.0-8.0-2.19","","<div style=""font-size:60px;"">+</div>","null","","","","","","",""
"376.39999997615814","","image-keyboard-response","641","950058","0.0-8.0-0.20","","img/pink.png","32","trial","32","true","0.6,0.4","3:go_c","",""
"null","","html-keyboard-response","642","951062","0.0-8.0-1.20","","<img src=""img/pink-r.png"" border=""10"">","null","trial","32","","0.6,0.4","3:go_c","1",""
"null","","html-keyboard-response","643","952066","0.0-8.0-2.20","","<div style=""font-size:60px;"">+</div>","null","","","","","","",""
"279.10000002384186","","image-keyboard-response","644","952346","0.0-8.0-0.21","","img/blue.png","32","trial","null","false","0.4,0.6","2:nogo_b","",""
"null","","html-keyboard-response","645","953352","0.0-8.0-1.21","","<img src=""img/blue-n.png"" border=""10"">","null","trial","null","","0.4,0.6","2:nogo_b","0",""
"null","","html-keyboard-response","646","954356","0.0-8.0-2.21","","<div style=""font-size:60px;"">+</div>","null","","","","","","",""
"291.60000002384186","","image-keyboard-response","647","954649","0.0-8.0-0.22","","img/grey.png","32","trial","32","true","0.6,0.4","1:go_a","",""
"null","","html-keyboard-response","648","955652","0.0-8.0-1.22","","<img src=""img/grey-n.png"" border=""10"">","null","trial","32","","0.6,0.4","1:go_a","0",""
"null","","html-keyboard-response","649","956658","0.0-8.0-2.22","","<div style=""font-size:60px;"">+</div>","null","","","","","","",""
"413.89999997615814","","image-keyboard-response","650","957074","0.0-8.0-0.23","","img/red.png","32","trial","null","false","0.4,0.6","4:nogo_d","",""
"null","","html-keyboard-response","651","958079","0.0-8.0-1.23","","<img src=""img/red-n.png"" border=""10"">","null","trial","null","","0.4,0.6","4:nogo_d","0",""
"null","","html-keyboard-response","652","959083","0.0-8.0-2.23","","<div style=""font-size:60px;"">+</div>","null","","","","","","",""
"null","","image-keyboard-response","653","960585","0.0-8.0-0.24","","img/pink.png","null","trial","32","false","0.6,0.4","3:go_c","",""
"null","","html-keyboard-response","654","961593","0.0-8.0-1.24","","<img src=""img/pink-n.png"">","null","trial","32","","0.6,0.4","3:go_c","0",""
"null","","html-keyboard-response","655","962599","0.0-8.0-2.24","","<div style=""font-size:60px;"">+</div>","null","","","","","","",""
"null","","image-keyboard-response","656","964102","0.0-8.0-0.25","","img/grey.png","null","trial","32","false","0.6,0.4","1:go_a","",""
"null","","html-keyboard-response","657","965109","0.0-8.0-1.25","","<img src=""img/grey-r.png"">","null","trial","32","","0.6,0.4","1:go_a","1",""
"null","","html-keyboard-response","658","966112","0.0-8.0-2.25","","<div style=""font-size:60px;"">+</div>","null","","","","","","",""
"283.7999999523163","","image-keyboard-response","659","966398","0.0-8.0-0.26","","img/red.png","32","trial","null","false","0.4,0.6","4:nogo_d","",""
"null","","html-keyboard-response","660","967404","0.0-8.0-1.26","","<img src=""img/red-n.png"" border=""10"">","null","trial","null","","0.4,0.6","4:nogo_d","0",""
"null","","html-keyboard-response","661","968406","0.0-8.0-2.26","","<div style=""font-size:60px;"">+</div>","null","","","","","","",""
"316.59999990463257","","image-keyboard-response","662","968725","0.0-8.0-0.27","","img/blue.png","32","trial","null","false","0.4,0.6","2:nogo_b","",""
"null","","html-keyboard-response","663","969728","0.0-8.0-1.27","","<img src=""img/blue-n.png"" border=""10"">","null","trial","null","","0.4,0.6","2:nogo_b","0",""
"null","","html-keyboard-response","664","970731","0.0-8.0-2.27","","<div style=""font-size:60px;"">+</div>","null","","","","","","",""
"355.6999999284744","","image-keyboard-response","665","971088","0.0-8.0-0.28","","img/red.png","32","trial","null","false","0.4,0.6","4:nogo_d","",""
"null","","html-keyboard-response","666","972095","0.0-8.0-1.28","","<img src=""img/red-n.png"" border=""10"">","null","trial","null","","0.4,0.6","4:nogo_d","0",""
"null","","html-keyboard-response","667","973101","0.0-8.0-2.28","","<div style=""font-size:60px;"">+</div>","null","","","","","","",""
"null","","image-keyboard-response","668","974608","0.0-8.0-0.29","","img/blue.png","null","trial","null","true","0.4,0.6","2:nogo_b","",""
"null","","html-keyboard-response","669","975612","0.0-8.0-1.29","","<img src=""img/blue-r.png"">","null","trial","null","","0.4,0.6","2:nogo_b","1",""
"null","","html-keyboard-response","670","976618","0.0-8.0-2.29","","<div style=""font-size:60px;"">+</div>","null","","","","","","",""
"267.7999999523163","","image-keyboard-response","671","976888","0.0-8.0-0.30","","img/pink.png","32","trial","32","true","0.6,0.4","3:go_c","",""
"null","","html-keyboard-response","672","977895","0.0-8.0-1.30","","<img src=""img/pink-n.png"" border=""10"">","null","trial","32","","0.6,0.4","3:go_c","0",""
"null","","html-keyboard-response","673","978899","0.0-8.0-2.30","","<div style=""font-size:60px;"">+</div>","null","","","","","","",""
"null","","image-keyboard-response","674","980401","0.0-8.0-0.31","","img/grey.png","null","trial","32","false","0.6,0.4","1:go_a","",""
"null","","html-keyboard-response","675","981409","0.0-8.0-1.31","","<img src=""img/grey-n.png"">","null","trial","32","","0.6,0.4","1:go_a","0",""
"null","","html-keyboard-response","676","982412","0.0-8.0-2.31","","<div style=""font-size:60px;"">+</div>","null","","","","","","",""
"625.2999999523163","","image-keyboard-response","677","983039","0.0-8.0-0.32","","img/grey.png","32","trial","32","true","0.6,0.4","1:go_a","",""
