"rt","url","trial_type","trial_index","time_elapsed","internal_node_id","view_history","stimulus","key_press","test_part","correct_response","correct","use_rew","which_stim","reward","responses"
"3627.7399999962654","consent.html","external-html","0","3695","0.0-0.0","","","","","","","","","",""
"165475304.47500002","","instructions","1","165479002","0.0-1.0","[{""page_index"":0,""viewing_time"":34750026.94500001},{""page_index"":1,""viewing_time"":128809200.045},{""page_index"":2,""viewing_time"":5835.659999996424},{""page_index"":3,""viewing_time"":52031.72000002861},{""page_index"":4,""viewing_time"":1471918.5299999416},{""page_index"":5,""viewing_time"":2696.3450000286102},{""page_index"":6,""viewing_time"":383591.6699999869}]","","","","","","","","",""
"null","","image-keyboard-response","2","165480516","0.0-2.0-0.0","","img/test3.PNG","null","practice","null","true","","","",""
"null","","html-keyboard-response","3","165481531","0.0-2.0-1.0","","<img src=""img/test3-reward.PNG"">","null","","","","","","",""
"null","","html-keyboard-response","4","165482547","0.0-2.0-2.0","","<div style=""font-size:60px;"">+</div>","null","","","","","","",""
"387.38499999046326","","image-keyboard-response","5","165482936","0.0-2.0-0.1","","img/test2.PNG","32","practice","null","false","","","",""
"null","","html-keyboard-response","6","165483951","0.0-2.0-1.1","","<img src=""img/test2-neutral.PNG"" border=""10px; grey"">","null","","","","","","",""
"null","","html-keyboard-response","7","165484965","0.0-2.0-2.1","","<div style=""font-size:60px;"">+</div>","null","","","","","","",""
"1013.95999994874","","image-keyboard-response","8","165485981","0.0-2.0-0.2","","img/test1.PNG","32","practice","32","true","","","",""
"null","","html-keyboard-response","9","165486998","0.0-2.0-1.2","","<img src=""img/test1-reward.PNG"" border=""10px; grey"">","null","","","","","","",""
"null","","html-keyboard-response","10","165488004","0.0-2.0-2.2","","<div style=""font-size:60px;"">+</div>","null","","","","","","",""
"990.625","","image-keyboard-response","11","165488996","0.0-2.0-0.3","","img/test2.PNG","32","practice","null","false","","","",""
"null","","html-keyboard-response","12","165490006","0.0-2.0-1.3","","<img src=""img/test2-neutral.PNG"" border=""10px; grey"">","null","","","","","","",""
"null","","html-keyboard-response","13","165491015","0.0-2.0-2.3","","<div style=""font-size:60px;"">+</div>","null","","","","","","",""
"515.2600000202656","","image-keyboard-response","14","165491532","0.0-2.0-0.4","","img/test1.PNG","32","practice","32","true","","","",""
"null","","html-keyboard-response","15","165492545","0.0-2.0-1.4","","<img src=""img/test1-reward.PNG"" border=""10px; grey"">","null","","","","","","",""
"null","","html-keyboard-response","16","165493558","0.0-2.0-2.4","","<div style=""font-size:60px;"">+</div>","null","","","","","","",""
"597.4350000023842","","image-keyboard-response","17","165494157","0.0-2.0-0.5","","img/test3.PNG","32","practice","null","false","","","",""
"null","","html-keyboard-response","18","165495160","0.0-2.0-1.5","","<img src=""img/test3-neutral.PNG"" border=""10px; grey"">","null","","","","","","",""
"null","","html-keyboard-response","19","165496170","0.0-2.0-2.5","","<div style=""font-size:60px;"">+</div>","null","","","","","","",""
"441.1749999821186","","image-keyboard-response","20","165496612","0.0-2.0-0.6","","img/test3.PNG","32","practice","null","false","","","",""
"null","","html-keyboard-response","21","165497625","0.0-2.0-1.6","","<img src=""img/test3-neutral.PNG"" border=""10px; grey"">","null","","","","","","",""
"null","","html-keyboard-response","22","165498634","0.0-2.0-2.6","","<div style=""font-size:60px;"">+</div>","null","","","","","","",""
"642.2350000441074","","image-keyboard-response","23","165499277","0.0-2.0-0.7","","img/test2.PNG","32","practice","null","false","","","",""
"null","","html-keyboard-response","24","165500290","0.0-2.0-1.7","","<img src=""img/test2-neutral.PNG"" border=""10px; grey"">","null","","","","","","",""
"null","","html-keyboard-response","25","165501293","0.0-2.0-2.7","","<div style=""font-size:60px;"">+</div>","null","","","","","","",""
"413.3349999785423","","image-keyboard-response","26","165501708","0.0-2.0-0.8","","img/test1.PNG","32","practice","32","true","","","",""
"null","","html-keyboard-response","27","165502717","0.0-2.0-1.8","","<img src=""img/test1-reward.PNG"" border=""10px; grey"">","null","","","","","","",""
"null","","html-keyboard-response","28","165503721","0.0-2.0-2.8","","<div style=""font-size:60px;"">+</div>","null","","","","","","",""
"770.505000025034","","image-keyboard-response","29","165504493","0.0-2.0-0.9","","img/test3.PNG","32","practice","null","false","","","",""
"null","","html-keyboard-response","30","165505505","0.0-2.0-1.9","","<img src=""img/test3-neutral.PNG"" border=""10px; grey"">","null","","","","","","",""
"null","","html-keyboard-response","31","165506507","0.0-2.0-2.9","","<div style=""font-size:60px;"">+</div>","null","","","","","","",""
"672.9000000059605","","image-keyboard-response","32","165507181","0.0-2.0-0.10","","img/test1.PNG","32","practice","32","true","","","",""
"null","","html-keyboard-response","33","165508193","0.0-2.0-1.10","","<img src=""img/test1-reward.PNG"" border=""10px; grey"">","null","","","","","","",""
"null","","html-keyboard-response","34","165509202","0.0-2.0-2.10","","<div style=""font-size:60px;"">+</div>","null","","","","","","",""
"449.91499999165535","","image-keyboard-response","35","165509652","0.0-2.0-0.11","","img/test2.PNG","32","practice","null","false","","","",""
"null","","html-keyboard-response","36","165510662","0.0-2.0-1.11","","<img src=""img/test2-neutral.PNG"" border=""10px; grey"">","null","","","","","","",""
"null","","html-keyboard-response","37","165511671","0.0-2.0-2.11","","<div style=""font-size:60px;"">+</div>","null","","","","","","",""
"3076.8749999403954","","instructions","38","165514748","0.0-3.0","[{""page_index"":0,""viewing_time"":3076.714999973774}]","","","","","","","","",""
"1071.005000025034","","image-keyboard-response","39","165515820","0.0-4.0-0.0","","img/yellow.png","32","trial","32","true","0.8,0.2","1:go_a","",""
"null","","html-keyboard-response","40","165516828","0.0-4.0-1.0","","<img src=""img/yellow-r.png"" border=""10"">","null","trial","32","","0.8,0.2","1:go_a","1",""
"null","","html-keyboard-response","41","165517836","0.0-4.0-2.0","","<div style=""font-size:60px;"">+</div>","null","","","","","","",""
"415.94500002264977","","image-keyboard-response","42","165518252","0.0-4.0-0.1","","img/red.png","32","trial","null","false","0.2,0.8","2:nogo_b","",""
"null","","html-keyboard-response","43","165519256","0.0-4.0-1.1","","<img src=""img/red-n.png"" border=""10"">","null","trial","null","","0.2,0.8","2:nogo_b","0",""
"null","","html-keyboard-response","44","165520260","0.0-4.0-2.1","","<div style=""font-size:60px;"">+</div>","null","","","","","","",""
"511.69499999284744","","image-keyboard-response","45","165520773","0.0-4.0-0.2","","img/red.png","32","trial","null","false","0.2,0.8","2:nogo_b","",""
"null","","html-keyboard-response","46","165521777","0.0-4.0-1.2","","<img src=""img/red-r.png"" border=""10"">","null","trial","null","","0.2,0.8","2:nogo_b","1",""
"null","","html-keyboard-response","47","165522787","0.0-4.0-2.2","","<div style=""font-size:60px;"">+</div>","null","","","","","","",""
"424.66999995708466","","image-keyboard-response","48","165523213","0.0-4.0-0.3","","img/yellow.png","32","trial","32","true","0.8,0.2","1:go_a","",""
"null","","html-keyboard-response","49","165524218","0.0-4.0-1.3","","<img src=""img/yellow-r.png"" border=""10"">","null","trial","32","","0.8,0.2","1:go_a","1",""
"null","","html-keyboard-response","50","165525226","0.0-4.0-2.3","","<div style=""font-size:60px;"">+</div>","null","","","","","","",""
"609.3600000143051","","image-keyboard-response","51","165525836","0.0-4.0-0.4","","img/red.png","32","trial","null","false","0.2,0.8","2:nogo_b","",""
"null","","html-keyboard-response","52","165526848","0.0-4.0-1.4","","<img src=""img/red-r.png"" border=""10"">","null","trial","null","","0.2,0.8","2:nogo_b","1",""
"null","","html-keyboard-response","53","165527863","0.0-4.0-2.4","","<div style=""font-size:60px;"">+</div>","null","","","","","","",""
"508.22499999403954","","image-keyboard-response","54","165528372","0.0-4.0-0.5","","img/yellow.png","32","trial","32","true","0.8,0.2","1:go_a","",""
"null","","html-keyboard-response","55","165529385","0.0-4.0-1.5","","<img src=""img/yellow-r.png"" border=""10"">","null","trial","32","","0.8,0.2","1:go_a","1",""
"null","","html-keyboard-response","56","165530400","0.0-4.0-2.5","","<div style=""font-size:60px;"">+</div>","null","","","","","","",""
"363.43000000715256","","image-keyboard-response","57","165530766","0.0-4.0-0.6","","img/yellow.png","32","trial","32","true","0.8,0.2","1:go_a","",""
"null","","html-keyboard-response","58","165531774","0.0-4.0-1.6","","<img src=""img/yellow-r.png"" border=""10"">","null","trial","32","","0.8,0.2","1:go_a","1",""
"null","","html-keyboard-response","59","165532778","0.0-4.0-2.6","","<div style=""font-size:60px;"">+</div>","null","","","","","","",""
"321.7650000154972","","image-keyboard-response","60","165533101","0.0-4.0-0.7","","img/red.png","32","trial","null","false","0.2,0.8","2:nogo_b","",""
"null","","html-keyboard-response","61","165534108","0.0-4.0-1.7","","<img src=""img/red-r.png"" border=""10"">","null","trial","null","","0.2,0.8","2:nogo_b","1",""
"null","","html-keyboard-response","62","165535112","0.0-4.0-2.7","","<div style=""font-size:60px;"">+</div>","null","","","","","","",""
"587.8849999904633","","image-keyboard-response","63","165535701","0.0-4.0-0.8","","img/yellow.png","32","trial","32","true","0.8,0.2","1:go_a","",""
"null","","html-keyboard-response","64","165536712","0.0-4.0-1.8","","<img src=""img/yellow-r.png"" border=""10"">","null","trial","32","","0.8,0.2","1:go_a","1",""
"null","","html-keyboard-response","65","165537728","0.0-4.0-2.8","","<div style=""font-size:60px;"">+</div>","null","","","","","","",""
"387.7150000035763","","image-keyboard-response","66","165538117","0.0-4.0-0.9","","img/red.png","32","trial","null","false","0.2,0.8","2:nogo_b","",""
"null","","html-keyboard-response","67","165539131","0.0-4.0-1.9","","<img src=""img/red-r.png"" border=""10"">","null","trial","null","","0.2,0.8","2:nogo_b","1",""
"null","","html-keyboard-response","68","165540141","0.0-4.0-2.9","","<div style=""font-size:60px;"">+</div>","null","","","","","","",""
"439.27000001072884","","image-keyboard-response","69","165540581","0.0-4.0-0.10","","img/red.png","32","trial","null","false","0.2,0.8","2:nogo_b","",""
"null","","html-keyboard-response","70","165541595","0.0-4.0-1.10","","<img src=""img/red-n.png"" border=""10"">","null","trial","null","","0.2,0.8","2:nogo_b","0",""
"null","","html-keyboard-response","71","165542598","0.0-4.0-2.10","","<div style=""font-size:60px;"">+</div>","null","","","","","","",""
"638.1499999463558","","image-keyboard-response","72","165543237","0.0-4.0-0.11","","img/yellow.png","32","trial","32","true","0.8,0.2","1:go_a","",""
"null","","html-keyboard-response","73","165544250","0.0-4.0-1.11","","<img src=""img/yellow-r.png"" border=""10"">","null","trial","32","","0.8,0.2","1:go_a","1",""
"null","","html-keyboard-response","74","165545256","0.0-4.0-2.11","","<div style=""font-size:60px;"">+</div>","null","","","","","","",""
"null","","image-keyboard-response","75","165546759","0.0-4.0-0.12","","img/red.png","null","trial","null","true","0.2,0.8","2:nogo_b","",""
"null","","html-keyboard-response","76","165547767","0.0-4.0-1.12","","<img src=""img/red-n.png"">","null","trial","null","","0.2,0.8","2:nogo_b","0",""
"null","","html-keyboard-response","77","165548780","0.0-4.0-2.12","","<div style=""font-size:60px;"">+</div>","null","","","","","","",""
"495.3149999976158","","image-keyboard-response","78","165549276","0.0-4.0-0.13","","img/yellow.png","32","trial","32","true","0.8,0.2","1:go_a","",""
"null","","html-keyboard-response","79","165550285","0.0-4.0-1.13","","<img src=""img/yellow-r.png"" border=""10"">","null","trial","32","","0.8,0.2","1:go_a","1",""
"null","","html-keyboard-response","80","165551292","0.0-4.0-2.13","","<div style=""font-size:60px;"">+</div>","null","","","","","","",""
"400.6749999821186","","image-keyboard-response","81","165551693","0.0-4.0-0.14","","img/yellow.png","32","trial","32","true","0.8,0.2","1:go_a","",""
"null","","html-keyboard-response","82","165552702","0.0-4.0-1.14","","<img src=""img/yellow-r.png"" border=""10"">","null","trial","32","","0.8,0.2","1:go_a","1",""
"null","","html-keyboard-response","83","165553716","0.0-4.0-2.14","","<div style=""font-size:60px;"">+</div>","null","","","","","","",""
"496.5100000202656","","image-keyboard-response","84","165554213","0.0-4.0-0.15","","img/red.png","32","trial","null","false","0.2,0.8","2:nogo_b","",""
"null","","html-keyboard-response","85","165555220","0.0-4.0-1.15","","<img src=""img/red-n.png"" border=""10"">","null","trial","null","","0.2,0.8","2:nogo_b","0",""
"null","","html-keyboard-response","86","165556222","0.0-4.0-2.15","","<div style=""font-size:60px;"">+</div>","null","","","","","","",""
"470.19499999284744","","image-keyboard-response","87","165556693","0.0-4.0-0.16","","img/yellow.png","32","trial","32","true","0.8,0.2","1:go_a","",""
"null","","html-keyboard-response","88","165557708","0.0-4.0-1.16","","<img src=""img/yellow-r.png"" border=""10"">","null","trial","32","","0.8,0.2","1:go_a","1",""
"null","","html-keyboard-response","89","165558717","0.0-4.0-2.16","","<div style=""font-size:60px;"">+</div>","null","","","","","","",""
"534.4849999845028","","image-keyboard-response","90","165559253","0.0-4.0-0.17","","img/red.png","32","trial","null","false","0.2,0.8","2:nogo_b","",""
"null","","html-keyboard-response","91","165560256","0.0-4.0-1.17","","<img src=""img/red-r.png"" border=""10"">","null","trial","null","","0.2,0.8","2:nogo_b","1",""
"null","","html-keyboard-response","92","165561263","0.0-4.0-2.17","","<div style=""font-size:60px;"">+</div>","null","","","","","","",""
"956.4750000238419","","image-keyboard-response","93","165562220","0.0-4.0-0.18","","img/red.png","32","trial","null","false","0.2,0.8","2:nogo_b","",""
"null","","html-keyboard-response","94","165563238","0.0-4.0-1.18","","<img src=""img/red-n.png"" border=""10"">","null","trial","null","","0.2,0.8","2:nogo_b","0",""
"null","","html-keyboard-response","95","165564253","0.0-4.0-2.18","","<div style=""font-size:60px;"">+</div>","null","","","","","","",""
"998.705000013113","","image-keyboard-response","96","165565253","0.0-4.0-0.19","","img/yellow.png","32","trial","32","true","0.8,0.2","1:go_a","",""
"null","","html-keyboard-response","97","165566262","0.0-4.0-1.19","","<img src=""img/yellow-n.png"" border=""10"">","null","trial","32","","0.8,0.2","1:go_a","0",""
"null","","html-keyboard-response","98","165567277","0.0-4.0-2.19","","<div style=""font-size:60px;"">+</div>","null","","","","","","",""
"415.21000000834465","","image-keyboard-response","99","165567693","0.0-4.0-0.20","","img/red.png","32","trial","null","false","0.2,0.8","2:nogo_b","",""
"null","","html-keyboard-response","100","165568702","0.0-4.0-1.20","","<img src=""img/red-n.png"" border=""10"">","null","trial","null","","0.2,0.8","2:nogo_b","0",""
"null","","html-keyboard-response","101","165569716","0.0-4.0-2.20","","<div style=""font-size:60px;"">+</div>","null","","","","","","",""
"431.2049999535084","","image-keyboard-response","102","165570148","0.0-4.0-0.21","","img/yellow.png","32","trial","32","true","0.8,0.2","1:go_a","",""
"null","","html-keyboard-response","103","165571154","0.0-4.0-1.21","","<img src=""img/yellow-r.png"" border=""10"">","null","trial","32","","0.8,0.2","1:go_a","1",""
"null","","html-keyboard-response","104","165572155","0.0-4.0-2.21","","<div style=""font-size:60px;"">+</div>","null","","","","","","",""
"344.24000000953674","","image-keyboard-response","105","165572501","0.0-4.0-0.22","","img/yellow.png","32","trial","32","true","0.8,0.2","1:go_a","",""
"null","","html-keyboard-response","106","165573502","0.0-4.0-1.22","","<img src=""img/yellow-r.png"" border=""10"">","null","trial","32","","0.8,0.2","1:go_a","1",""
"null","","html-keyboard-response","107","165574505","0.0-4.0-2.22","","<div style=""font-size:60px;"">+</div>","null","","","","","","",""
"514.3899999558926","","image-keyboard-response","108","165575021","0.0-4.0-0.23","","img/red.png","32","trial","null","false","0.2,0.8","2:nogo_b","",""
"null","","html-keyboard-response","109","165576033","0.0-4.0-1.23","","<img src=""img/red-r.png"" border=""10"">","null","trial","null","","0.2,0.8","2:nogo_b","1",""
"null","","html-keyboard-response","110","165577048","0.0-4.0-2.23","","<div style=""font-size:60px;"">+</div>","null","","","","","","",""
"348.22999998927116","","image-keyboard-response","111","165577397","0.0-4.0-0.24","","img/red.png","32","trial","null","false","0.2,0.8","2:nogo_b","",""
"null","","html-keyboard-response","112","165578414","0.0-4.0-1.24","","<img src=""img/red-n.png"" border=""10"">","null","trial","null","","0.2,0.8","2:nogo_b","0",""
"null","","html-keyboard-response","113","165579419","0.0-4.0-2.24","","<div style=""font-size:60px;"">+</div>","null","","","","","","",""
"368.9450000524521","","image-keyboard-response","114","165579789","0.0-4.0-0.25","","img/yellow.png","32","trial","32","true","0.8,0.2","1:go_a","",""
"null","","html-keyboard-response","115","165580791","0.0-4.0-1.25","","<img src=""img/yellow-r.png"" border=""10"">","null","trial","32","","0.8,0.2","1:go_a","1",""
"null","","html-keyboard-response","116","165581807","0.0-4.0-2.25","","<div style=""font-size:60px;"">+</div>","null","","","","","","",""
"1379.6450000405312","","image-keyboard-response","117","165583188","0.0-4.0-0.26","","img/yellow.png","32","trial","32","true","0.8,0.2","1:go_a","",""
"null","","html-keyboard-response","118","165584192","0.0-4.0-1.26","","<img src=""img/yellow-r.png"" border=""10"">","null","trial","32","","0.8,0.2","1:go_a","1",""
"null","","html-keyboard-response","119","165585206","0.0-4.0-2.26","","<div style=""font-size:60px;"">+</div>","null","","","","","","",""
"485.4950000345707","","image-keyboard-response","120","165585693","0.0-4.0-0.27","","img/red.png","32","trial","null","false","0.2,0.8","2:nogo_b","",""
"null","","html-keyboard-response","121","165586706","0.0-4.0-1.27","","<img src=""img/red-r.png"" border=""10"">","null","trial","null","","0.2,0.8","2:nogo_b","1",""
"null","","html-keyboard-response","122","165587709","0.0-4.0-2.27","","<div style=""font-size:60px;"">+</div>","null","","","","","","",""
"663.1550000011921","","image-keyboard-response","123","165588373","0.0-4.0-0.28","","img/red.png","32","trial","null","false","0.2,0.8","2:nogo_b","",""
"null","","html-keyboard-response","124","165589386","0.0-4.0-1.28","","<img src=""img/red-n.png"" border=""10"">","null","trial","null","","0.2,0.8","2:nogo_b","0",""
"null","","html-keyboard-response","125","165590397","0.0-4.0-2.28","","<div style=""font-size:60px;"">+</div>","null","","","","","","",""
"511.44999998807907","","image-keyboard-response","126","165590909","0.0-4.0-0.29","","img/yellow.png","32","trial","32","true","0.8,0.2","1:go_a","",""
"null","","html-keyboard-response","127","165591924","0.0-4.0-1.29","","<img src=""img/yellow-n.png"" border=""10"">","null","trial","32","","0.8,0.2","1:go_a","0",""
"null","","html-keyboard-response","128","165592936","0.0-4.0-2.29","","<div style=""font-size:60px;"">+</div>","null","","","","","","",""
"660.3499999642372","","image-keyboard-response","129","165593597","0.0-4.0-0.30","","img/red.png","32","trial","null","false","0.2,0.8","2:nogo_b","",""
"null","","html-keyboard-response","130","165594612","0.0-4.0-1.30","","<img src=""img/red-n.png"" border=""10"">","null","trial","null","","0.2,0.8","2:nogo_b","0",""
"null","","html-keyboard-response","131","165595613","0.0-4.0-2.30","","<div style=""font-size:60px;"">+</div>","null","","","","","","",""
"null","","image-keyboard-response","132","165597127","0.0-4.0-0.31","","img/yellow.png","null","trial","32","false","0.8,0.2","1:go_a","",""
"null","","html-keyboard-response","133","165598134","0.0-4.0-1.31","","<img src=""img/yellow-n.png"">","null","trial","32","","0.8,0.2","1:go_a","0",""
"null","","html-keyboard-response","134","165599147","0.0-4.0-2.31","","<div style=""font-size:60px;"">+</div>","null","","","","","","",""
"449.6800000369549","","image-keyboard-response","135","165599597","0.0-4.0-0.32","","img/yellow.png","32","trial","32","true","0.8,0.2","1:go_a","",""
"null","","html-keyboard-response","136","165600599","0.0-4.0-1.32","","<img src=""img/yellow-r.png"" border=""10"">","null","trial","32","","0.8,0.2","1:go_a","1",""
"null","","html-keyboard-response","137","165601615","0.0-4.0-2.32","","<div style=""font-size:60px;"">+</div>","null","","","","","","",""
"453.1599999666214","","image-keyboard-response","138","165602069","0.0-4.0-0.33","","img/red.png","32","trial","null","false","0.2,0.8","2:nogo_b","",""
"null","","html-keyboard-response","139","165603079","0.0-4.0-1.33","","<img src=""img/red-n.png"" border=""10"">","null","trial","null","","0.2,0.8","2:nogo_b","0",""
"null","","html-keyboard-response","140","165604086","0.0-4.0-2.33","","<div style=""font-size:60px;"">+</div>","null","","","","","","",""
"526.0799999833107","","image-keyboard-response","141","165604613","0.0-4.0-0.34","","img/red.png","32","trial","null","false","0.2,0.8","2:nogo_b","",""
"null","","html-keyboard-response","142","165605616","0.0-4.0-1.34","","<img src=""img/red-n.png"" border=""10"">","null","trial","null","","0.2,0.8","2:nogo_b","0",""
"null","","html-keyboard-response","143","165606619","0.0-4.0-2.34","","<div style=""font-size:60px;"">+</div>","null","","","","","","",""
"448.4800000190735","","image-keyboard-response","144","165607069","0.0-4.0-0.35","","img/yellow.png","32","trial","32","true","0.8,0.2","1:go_a","",""
"null","","html-keyboard-response","145","165608075","0.0-4.0-1.35","","<img src=""img/yellow-n.png"" border=""10"">","null","trial","32","","0.8,0.2","1:go_a","0",""
"null","","html-keyboard-response","146","165609078","0.0-4.0-2.35","","<div style=""font-size:60px;"">+</div>","null","","","","","","",""
"470.2900000214577","","image-keyboard-response","147","165609549","0.0-4.0-0.36","","img/yellow.png","32","trial","32","true","0.8,0.2","1:go_a","",""
"null","","html-keyboard-response","148","165610560","0.0-4.0-1.36","","<img src=""img/yellow-r.png"" border=""10"">","null","trial","32","","0.8,0.2","1:go_a","1",""
"null","","html-keyboard-response","149","165611571","0.0-4.0-2.36","","<div style=""font-size:60px;"">+</div>","null","","","","","","",""
"1208.6700000166893","","image-keyboard-response","150","165612781","0.0-4.0-0.37","","img/red.png","32","trial","null","false","0.2,0.8","2:nogo_b","",""
"null","","html-keyboard-response","151","165613794","0.0-4.0-1.37","","<img src=""img/red-n.png"" border=""10"">","null","trial","null","","0.2,0.8","2:nogo_b","0",""
"null","","html-keyboard-response","152","165614798","0.0-4.0-2.37","","<div style=""font-size:60px;"">+</div>","null","","","","","","",""
"397.1449999809265","","image-keyboard-response","153","165615196","0.0-4.0-0.38","","img/yellow.png","32","trial","32","true","0.8,0.2","1:go_a","",""
"null","","html-keyboard-response","154","165616205","0.0-4.0-1.38","","<img src=""img/yellow-r.png"" border=""10"">","null","trial","32","","0.8,0.2","1:go_a","1",""
"null","","html-keyboard-response","155","165617216","0.0-4.0-2.38","","<div style=""font-size:60px;"">+</div>","null","","","","","","",""
"435.625","","image-keyboard-response","156","165617653","0.0-4.0-0.39","","img/red.png","32","trial","null","false","0.2,0.8","2:nogo_b","",""
"null","","html-keyboard-response","157","165618664","0.0-4.0-1.39","","<img src=""img/red-n.png"" border=""10"">","null","trial","null","","0.2,0.8","2:nogo_b","0",""
"null","","html-keyboard-response","158","165619678","0.0-4.0-2.39","","<div style=""font-size:60px;"">+</div>","null","","","","","","",""
"269.77000001072884","","image-keyboard-response","159","165619949","0.0-4.0-0.40","","img/red.png","32","trial","null","false","0.2,0.8","2:nogo_b","",""
"null","","html-keyboard-response","160","165620961","0.0-4.0-1.40","","<img src=""img/red-n.png"" border=""10"">","null","trial","null","","0.2,0.8","2:nogo_b","0",""
"null","","html-keyboard-response","161","165621963","0.0-4.0-2.40","","<div style=""font-size:60px;"">+</div>","null","","","","","","",""
"320.9000000655651","","image-keyboard-response","162","165622285","0.0-4.0-0.41","","img/yellow.png","32","trial","32","true","0.8,0.2","1:go_a","",""
"null","","html-keyboard-response","163","165623290","0.0-4.0-1.41","","<img src=""img/yellow-n.png"" border=""10"">","null","trial","32","","0.8,0.2","1:go_a","0",""
"null","","html-keyboard-response","164","165624293","0.0-4.0-2.41","","<div style=""font-size:60px;"">+</div>","null","","","","","","",""
"447.7450000047684","","image-keyboard-response","165","165624741","0.0-4.0-0.42","","img/yellow.png","32","trial","32","true","0.8,0.2","1:go_a","",""
"null","","html-keyboard-response","166","165625750","0.0-4.0-1.42","","<img src=""img/yellow-r.png"" border=""10"">","null","trial","32","","0.8,0.2","1:go_a","1",""
"null","","html-keyboard-response","167","165626766","0.0-4.0-2.42","","<div style=""font-size:60px;"">+</div>","null","","","","","","",""
"1254.3550000190735","","image-keyboard-response","168","165628021","0.0-4.0-0.43","","img/red.png","32","trial","null","false","0.2,0.8","2:nogo_b","",""
"null","","html-keyboard-response","169","165629031","0.0-4.0-1.43","","<img src=""img/red-n.png"" border=""10"">","null","trial","null","","0.2,0.8","2:nogo_b","0",""
"null","","html-keyboard-response","170","165630043","0.0-4.0-2.43","","<div style=""font-size:60px;"">+</div>","null","","","","","","",""
"799.9849999845028","","image-keyboard-response","171","165630844","0.0-4.0-0.44","","img/yellow.png","32","trial","32","true","0.8,0.2","1:go_a","",""
"null","","html-keyboard-response","172","165631846","0.0-4.0-1.44","","<img src=""img/yellow-r.png"" border=""10"">","null","trial","32","","0.8,0.2","1:go_a","1",""
"null","","html-keyboard-response","173","165632850","0.0-4.0-2.44","","<div style=""font-size:60px;"">+</div>","null","","","","","","",""
"425.794999986887","","image-keyboard-response","174","165633277","0.0-4.0-0.45","","img/red.png","32","trial","null","false","0.2,0.8","2:nogo_b","",""
"null","","html-keyboard-response","175","165634294","0.0-4.0-1.45","","<img src=""img/red-n.png"" border=""10"">","null","trial","null","","0.2,0.8","2:nogo_b","0",""
"null","","html-keyboard-response","176","165635301","0.0-4.0-2.45","","<div style=""font-size:60px;"">+</div>","null","","","","","","",""
"558.9600000083447","","image-keyboard-response","177","165635861","0.0-4.0-0.46","","img/yellow.png","32","trial","32","true","0.8,0.2","1:go_a","",""
"null","","html-keyboard-response","178","165636872","0.0-4.0-1.46","","<img src=""img/yellow-r.png"" border=""10"">","null","trial","32","","0.8,0.2","1:go_a","1",""
"null","","html-keyboard-response","179","165637887","0.0-4.0-2.46","","<div style=""font-size:60px;"">+</div>","null","","","","","","",""
"180.71499997377396","","image-keyboard-response","180","165638069","0.0-4.0-0.47","","img/red.png","32","trial","null","false","0.2,0.8","2:nogo_b","",""
"null","","html-keyboard-response","181","165639084","0.0-4.0-1.47","","<img src=""img/red-n.png"" border=""10"">","null","trial","null","","0.2,0.8","2:nogo_b","0",""
"null","","html-keyboard-response","182","165640099","0.0-4.0-2.47","","<div style=""font-size:60px;"">+</div>","null","","","","","","",""
"1496.3899999856949","","image-keyboard-response","183","165641596","0.0-4.0-0.48","","img/red.png","32","trial","null","false","0.2,0.8","2:nogo_b","",""
"null","","html-keyboard-response","184","165642605","0.0-4.0-1.48","","<img src=""img/red-n.png"" border=""10"">","null","trial","null","","0.2,0.8","2:nogo_b","0",""
"null","","html-keyboard-response","185","165643614","0.0-4.0-2.48","","<div style=""font-size:60px;"">+</div>","null","","","","","","",""
"662.3449999392033","","image-keyboard-response","186","165644277","0.0-4.0-0.49","","img/yellow.png","32","trial","32","true","0.8,0.2","1:go_a","",""
"null","","html-keyboard-response","187","165645289","0.0-4.0-1.49","","<img src=""img/yellow-r.png"" border=""10"">","null","trial","32","","0.8,0.2","1:go_a","1",""
"null","","html-keyboard-response","188","165646304","0.0-4.0-2.49","","<div style=""font-size:60px;"">+</div>","null","","","","","","",""
"null","","image-keyboard-response","189","165647808","0.0-4.0-0.50","","img/red.png","null","trial","null","true","0.2,0.8","2:nogo_b","",""
"null","","html-keyboard-response","190","165648823","0.0-4.0-1.50","","<img src=""img/red-r.png"">","null","trial","null","","0.2,0.8","2:nogo_b","1",""
"null","","html-keyboard-response","191","165649839","0.0-4.0-2.50","","<div style=""font-size:60px;"">+</div>","null","","","","","","",""
"645.0200000107288","","image-keyboard-response","192","165650485","0.0-4.0-0.51","","img/yellow.png","32","trial","32","true","0.8,0.2","1:go_a","",""
"null","","html-keyboard-response","193","165651493","0.0-4.0-1.51","","<img src=""img/yellow-r.png"" border=""10"">","null","trial","32","","0.8,0.2","1:go_a","1",""
"null","","html-keyboard-response","194","165652501","0.0-4.0-2.51","","<div style=""font-size:60px;"">+</div>","null","","","","","","",""
"254.58500000834465","","image-keyboard-response","195","165652757","0.0-4.0-0.52","","img/red.png","32","trial","null","false","0.2,0.8","2:nogo_b","",""
"null","","html-keyboard-response","196","165653759","0.0-4.0-1.52","","<img src=""img/red-n.png"" border=""10"">","null","trial","null","","0.2,0.8","2:nogo_b","0",""
"null","","html-keyboard-response","197","165654762","0.0-4.0-2.52","","<div style=""font-size:60px;"">+</div>","null","","","","","","",""
"1002.5649999976158","","image-keyboard-response","198","165655765","0.0-4.0-0.53","","img/yellow.png","32","trial","32","true","0.8,0.2","1:go_a","",""
"null","","html-keyboard-response","199","165656782","0.0-4.0-1.53","","<img src=""img/yellow-r.png"" border=""10"">","null","trial","32","","0.8,0.2","1:go_a","1",""
"null","","html-keyboard-response","200","165657789","0.0-4.0-2.53","","<div style=""font-size:60px;"">+</div>","null","","","","","","",""
"1390.3949999809265","","image-keyboard-response","201","165659180","0.0-4.0-0.54","","img/red.png","32","trial","null","false","0.2,0.8","2:nogo_b","",""
"null","","html-keyboard-response","202","165660197","0.0-4.0-1.54","","<img src=""img/red-n.png"" border=""10"">","null","trial","null","","0.2,0.8","2:nogo_b","0",""
"null","","html-keyboard-response","203","165661199","0.0-4.0-2.54","","<div style=""font-size:60px;"">+</div>","null","","","","","","",""
"485.080000013113","","image-keyboard-response","204","165661684","0.0-4.0-0.55","","img/yellow.png","32","trial","32","true","0.8,0.2","1:go_a","",""
"null","","html-keyboard-response","205","165662694","0.0-4.0-1.55","","<img src=""img/yellow-r.png"" border=""10"">","null","trial","32","","0.8,0.2","1:go_a","1",""
"null","","html-keyboard-response","206","165663710","0.0-4.0-2.55","","<div style=""font-size:60px;"">+</div>","null","","","","","","",""
"533.285000026226","","image-keyboard-response","207","165664245","0.0-4.0-0.56","","img/red.png","32","trial","null","false","0.2,0.8","2:nogo_b","",""
"null","","html-keyboard-response","208","165665248","0.0-4.0-1.56","","<img src=""img/red-n.png"" border=""10"">","null","trial","null","","0.2,0.8","2:nogo_b","0",""
"null","","html-keyboard-response","209","165666254","0.0-4.0-2.56","","<div style=""font-size:60px;"">+</div>","null","","","","","","",""
"445.8850000500679","","image-keyboard-response","210","165666701","0.0-4.0-0.57","","img/yellow.png","32","trial","32","true","0.8,0.2","1:go_a","",""
"null","","html-keyboard-response","211","165667709","0.0-4.0-1.57","","<img src=""img/yellow-r.png"" border=""10"">","null","trial","32","","0.8,0.2","1:go_a","1",""
"null","","html-keyboard-response","212","165668720","0.0-4.0-2.57","","<div style=""font-size:60px;"">+</div>","null","","","","","","",""
"1052.2100000083447","","image-keyboard-response","213","165669773","0.0-4.0-0.58","","img/yellow.png","32","trial","32","true","0.8,0.2","1:go_a","",""
"null","","html-keyboard-response","214","165670774","0.0-4.0-1.58","","<img src=""img/yellow-r.png"" border=""10"">","null","trial","32","","0.8,0.2","1:go_a","1",""
"null","","html-keyboard-response","215","165671780","0.0-4.0-2.58","","<div style=""font-size:60px;"">+</div>","null","","","","","","",""
"199.67500004172325","","image-keyboard-response","216","165671981","0.0-4.0-0.59","","img/red.png","32","trial","null","false","0.2,0.8","2:nogo_b","",""
"null","","html-keyboard-response","217","165672990","0.0-4.0-1.59","","<img src=""img/red-n.png"" border=""10"">","null","trial","null","","0.2,0.8","2:nogo_b","0",""
"null","","html-keyboard-response","218","165674005","0.0-4.0-2.59","","<div style=""font-size:60px;"">+</div>","null","","","","","","",""
"2495.225000023842","","instructions","219","165676500","0.0-5.0","[{""page_index"":0,""viewing_time"":2495.0250000059605}]","","","","","","","","",""
"1215.619999974966","","image-keyboard-response","220","165677717","0.0-6.0-0.0","","img/orange.png","32","trial","32","true","0.8,0.2","3:go_c","",""
"null","","html-keyboard-response","221","165678730","0.0-6.0-1.0","","<img src=""img/orange-r.png"" border=""10"">","null","trial","32","","0.8,0.2","3:go_c","1",""
"null","","html-keyboard-response","222","165679746","0.0-6.0-2.0","","<div style=""font-size:60px;"">+</div>","null","","","","","","",""
"754.5450000166893","","image-keyboard-response","223","165680501","0.0-6.0-0.1","","img/purple.png","32","trial","null","false","0.2,0.8","2:nogo_b","",""
"null","","html-keyboard-response","224","165681509","0.0-6.0-1.1","","<img src=""img/purple-r.png"" border=""10"">","null","trial","null","","0.2,0.8","2:nogo_b","1",""
"null","","html-keyboard-response","225","165682516","0.0-6.0-2.1","","<div style=""font-size:60px;"">+</div>","null","","","","","","",""
"607.0250000357628","","image-keyboard-response","226","165683124","0.0-6.0-0.2","","img/red.png","32","trial","null","false","0.2,0.8","4:nogo_d","",""
"null","","html-keyboard-response","227","165684137","0.0-6.0-1.2","","<img src=""img/red-n.png"" border=""10"">","null","trial","null","","0.2,0.8","4:nogo_d","0",""
"null","","html-keyboard-response","228","165685143","0.0-6.0-2.2","","<div style=""font-size:60px;"">+</div>","null","","","","","","",""
"5.615000009536743","","image-keyboard-response","229","165685149","0.0-6.0-0.3","","img/green.png","32","trial","32","true","0.8,0.2","1:go_a","",""
"null","","html-keyboard-response","230","165686157","0.0-6.0-1.3","","<img src=""img/green-r.png"" border=""10"">","null","trial","32","","0.8,0.2","1:go_a","1",""
"null","","html-keyboard-response","231","165687169","0.0-6.0-2.3","","<div style=""font-size:60px;"">+</div>","null","","","","","","",""
"1233.0650000274181","","image-keyboard-response","232","165688405","0.0-6.0-0.4","","img/orange.png","32","trial","32","true","0.8,0.2","3:go_c","",""
"null","","html-keyboard-response","233","165689411","0.0-6.0-1.4","","<img src=""img/orange-n.png"" border=""10"">","null","trial","32","","0.8,0.2","3:go_c","0",""
"null","","html-keyboard-response","234","165690418","0.0-6.0-2.4","","<div style=""font-size:60px;"">+</div>","null","","","","","","",""
"425.6550000011921","","image-keyboard-response","235","165690845","0.0-6.0-0.5","","img/red.png","32","trial","null","false","0.2,0.8","4:nogo_d","",""
"null","","html-keyboard-response","236","165691860","0.0-6.0-1.5","","<img src=""img/red-n.png"" border=""10"">","null","trial","null","","0.2,0.8","4:nogo_d","0",""
"null","","html-keyboard-response","237","165692865","0.0-6.0-2.5","","<div style=""font-size:60px;"">+</div>","null","","","","","","",""
"null","","image-keyboard-response","238","165694381","0.0-6.0-0.6","","img/purple.png","null","trial","null","true","0.2,0.8","2:nogo_b","",""
"null","","html-keyboard-response","239","165695391","0.0-6.0-1.6","","<img src=""img/purple-r.png"">","null","trial","null","","0.2,0.8","2:nogo_b","1",""
"null","","html-keyboard-response","240","165696406","0.0-6.0-2.6","","<div style=""font-size:60px;"">+</div>","null","","","","","","",""
"437.9200000166893","","image-keyboard-response","241","165696845","0.0-6.0-0.7","","img/green.png","32","trial","32","true","0.8,0.2","1:go_a","",""
"null","","html-keyboard-response","242","165697856","0.0-6.0-1.7","","<img src=""img/green-n.png"" border=""10"">","null","trial","32","","0.8,0.2","1:go_a","0",""
"null","","html-keyboard-response","243","165698862","0.0-6.0-2.7","","<div style=""font-size:60px;"">+</div>","null","","","","","","",""
"598.6799999773502","","image-keyboard-response","244","165699461","0.0-6.0-0.8","","img/green.png","32","trial","32","true","0.8,0.2","1:go_a","",""
"null","","html-keyboard-response","245","165700463","0.0-6.0-1.8","","<img src=""img/green-r.png"" border=""10"">","null","trial","32","","0.8,0.2","1:go_a","1",""
"null","","html-keyboard-response","246","165701466","0.0-6.0-2.8","","<div style=""font-size:60px;"">+</div>","null","","","","","","",""
"513.9350000023842","","image-keyboard-response","247","165701981","0.0-6.0-0.9","","img/red.png","32","trial","null","false","0.2,0.8","4:nogo_d","",""
"null","","html-keyboard-response","248","165702983","0.0-6.0-1.9","","<img src=""img/red-n.png"" border=""10"">","null","trial","null","","0.2,0.8","4:nogo_d","0",""
"null","","html-keyboard-response","249","165703989","0.0-6.0-2.9","","<div style=""font-size:60px;"">+</div>","null","","","","","","",""
"null","","image-keyboard-response","250","165705500","0.0-6.0-0.10","","img/purple.png","null","trial","null","true","0.2,0.8","2:nogo_b","",""
"null","","html-keyboard-response","251","165706513","0.0-6.0-1.10","","<img src=""img/purple-r.png"">","null","trial","null","","0.2,0.8","2:nogo_b","1",""
"null","","html-keyboard-response","252","165707524","0.0-6.0-2.10","","<div style=""font-size:60px;"">+</div>","null","","","","","","",""
"null","","image-keyboard-response","253","165709029","0.0-6.0-0.11","","img/orange.png","null","trial","32","false","0.8,0.2","3:go_c","",""
"null","","html-keyboard-response","254","165710031","0.0-6.0-1.11","","<img src=""img/orange-n.png"">","null","trial","32","","0.8,0.2","3:go_c","0",""
"null","","html-keyboard-response","255","165711038","0.0-6.0-2.11","","<div style=""font-size:60px;"">+</div>","null","","","","","","",""
"null","","image-keyboard-response","256","165712552","0.0-6.0-0.12","","img/purple.png","null","trial","null","true","0.2,0.8","2:nogo_b","",""
"null","","html-keyboard-response","257","165713562","0.0-6.0-1.12","","<img src=""img/purple-r.png"">","null","trial","null","","0.2,0.8","2:nogo_b","1",""
"null","","html-keyboard-response","258","165714574","0.0-6.0-2.12","","<div style=""font-size:60px;"">+</div>","null","","","","","","",""
"null","","image-keyboard-response","259","165716090","0.0-6.0-0.13","","img/orange.png","null","trial","32","false","0.8,0.2","3:go_c","",""
"null","","html-keyboard-response","260","165717096","0.0-6.0-1.13","","<img src=""img/orange-n.png"">","null","trial","32","","0.8,0.2","3:go_c","0",""
"null","","html-keyboard-response","261","165718098","0.0-6.0-2.13","","<div style=""font-size:60px;"">+</div>","null","","","","","","",""
"1289.4900000095367","","image-keyboard-response","262","165719389","0.0-6.0-0.14","","img/green.png","32","trial","32","true","0.8,0.2","1:go_a","",""
"null","","html-keyboard-response","263","165720403","0.0-6.0-1.14","","<img src=""img/green-r.png"" border=""10"">","null","trial","32","","0.8,0.2","1:go_a","1",""
"null","","html-keyboard-response","264","165721420","0.0-6.0-2.14","","<div style=""font-size:60px;"">+</div>","null","","","","","","",""
"264.8349999785423","","image-keyboard-response","265","165721686","0.0-6.0-0.15","","img/red.png","32","trial","null","false","0.2,0.8","4:nogo_d","",""
"null","","html-keyboard-response","266","165722703","0.0-6.0-1.15","","<img src=""img/red-r.png"" border=""10"">","null","trial","null","","0.2,0.8","4:nogo_d","1",""
"null","","html-keyboard-response","267","165723716","0.0-6.0-2.15","","<div style=""font-size:60px;"">+</div>","null","","","","","","",""
"423.495000064373","","image-keyboard-response","268","165724140","0.0-6.0-0.16","","img/orange.png","32","trial","32","true","0.8,0.2","3:go_c","",""
"null","","html-keyboard-response","269","165725142","0.0-6.0-1.16","","<img src=""img/orange-r.png"" border=""10"">","null","trial","32","","0.8,0.2","3:go_c","1",""
"null","","html-keyboard-response","270","165726148","0.0-6.0-2.16","","<div style=""font-size:60px;"">+</div>","null","","","","","","",""
"448.07499995827675","","image-keyboard-response","271","165726597","0.0-6.0-0.17","","img/purple.png","32","trial","null","false","0.2,0.8","2:nogo_b","",""
"null","","html-keyboard-response","272","165727611","0.0-6.0-1.17","","<img src=""img/purple-n.png"" border=""10"">","null","trial","null","","0.2,0.8","2:nogo_b","0",""
"null","","html-keyboard-response","273","165728619","0.0-6.0-2.17","","<div style=""font-size:60px;"">+</div>","null","","","","","","",""
"537.4199999272823","","image-keyboard-response","274","165729157","0.0-6.0-0.18","","img/green.png","32","trial","32","true","0.8,0.2","1:go_a","",""
"null","","html-keyboard-response","275","165730164","0.0-6.0-1.18","","<img src=""img/green-r.png"" border=""10"">","null","trial","32","","0.8,0.2","1:go_a","1",""
"null","","html-keyboard-response","276","165731179","0.0-6.0-2.18","","<div style=""font-size:60px;"">+</div>","null","","","","","","",""
"576.5900000333786","","image-keyboard-response","277","165731757","0.0-6.0-0.19","","img/red.png","32","trial","null","false","0.2,0.8","4:nogo_d","",""
"null","","html-keyboard-response","278","165732764","0.0-6.0-1.19","","<img src=""img/red-n.png"" border=""10"">","null","trial","null","","0.2,0.8","4:nogo_d","0",""
"null","","html-keyboard-response","279","165733768","0.0-6.0-2.19","","<div style=""font-size:60px;"">+</div>","null","","","","","","",""
"669.080000013113","","image-keyboard-response","280","165734438","0.0-6.0-0.20","","img/red.png","32","trial","null","false","0.2,0.8","4:nogo_d","",""
"null","","html-keyboard-response","281","165735453","0.0-6.0-1.20","","<img src=""img/red-n.png"" border=""10"">","null","trial","null","","0.2,0.8","4:nogo_d","0",""
"null","","html-keyboard-response","282","165736455","0.0-6.0-2.20","","<div style=""font-size:60px;"">+</div>","null","","","","","","",""
"356.8299999833107","","image-keyboard-response","283","165736812","0.0-6.0-0.21","","img/purple.png","32","trial","null","false","0.2,0.8","2:nogo_b","",""
"null","","html-keyboard-response","284","165737828","0.0-6.0-1.21","","<img src=""img/purple-n.png"" border=""10"">","null","trial","null","","0.2,0.8","2:nogo_b","0",""
"null","","html-keyboard-response","285","165738844","0.0-6.0-2.21","","<div style=""font-size:60px;"">+</div>","null","","","","","","",""
"447.90000000596046","","image-keyboard-response","286","165739293","0.0-6.0-0.22","","img/orange.png","32","trial","32","true","0.8,0.2","3:go_c","",""
"null","","html-keyboard-response","287","165740306","0.0-6.0-1.22","","<img src=""img/orange-r.png"" border=""10"">","null","trial","32","","0.8,0.2","3:go_c","1",""
"null","","html-keyboard-response","288","165741307","0.0-6.0-2.22","","<div style=""font-size:60px;"">+</div>","null","","","","","","",""
"null","","image-keyboard-response","289","165742822","0.0-6.0-0.23","","img/green.png","null","trial","32","false","0.8,0.2","1:go_a","",""
"null","","html-keyboard-response","290","165743829","0.0-6.0-1.23","","<img src=""img/green-n.png"">","null","trial","32","","0.8,0.2","1:go_a","0",""
"null","","html-keyboard-response","291","165744835","0.0-6.0-2.23","","<div style=""font-size:60px;"">+</div>","null","","","","","","",""
"577.0849999785423","","image-keyboard-response","292","165745413","0.0-6.0-0.24","","img/purple.png","32","trial","null","false","0.2,0.8","2:nogo_b","",""
"null","","html-keyboard-response","293","165746420","0.0-6.0-1.24","","<img src=""img/purple-n.png"" border=""10"">","null","trial","null","","0.2,0.8","2:nogo_b","0",""
"null","","html-keyboard-response","294","165747422","0.0-6.0-2.24","","<div style=""font-size:60px;"">+</div>","null","","","","","","",""
"837.5799999833107","","image-keyboard-response","295","165748260","0.0-6.0-0.25","","img/orange.png","32","trial","32","true","0.8,0.2","3:go_c","",""
"null","","html-keyboard-response","296","165749267","0.0-6.0-1.25","","<img src=""img/orange-r.png"" border=""10"">","null","trial","32","","0.8,0.2","3:go_c","1",""
"null","","html-keyboard-response","297","165750269","0.0-6.0-2.25","","<div style=""font-size:60px;"">+</div>","null","","","","","","",""
"null","","image-keyboard-response","298","165751783","0.0-6.0-0.26","","img/red.png","null","trial","null","true","0.2,0.8","4:nogo_d","",""
"null","","html-keyboard-response","299","165752784","0.0-6.0-1.26","","<img src=""img/red-r.png"">","null","trial","null","","0.2,0.8","4:nogo_d","1",""
"null","","html-keyboard-response","300","165753787","0.0-6.0-2.26","","<div style=""font-size:60px;"">+</div>","null","","","","","","",""
"841.0800000429153","","image-keyboard-response","301","165754629","0.0-6.0-0.27","","img/green.png","32","trial","32","true","0.8,0.2","1:go_a","",""
"null","","html-keyboard-response","302","165755639","0.0-6.0-1.27","","<img src=""img/green-r.png"" border=""10"">","null","trial","32","","0.8,0.2","1:go_a","1",""
"null","","html-keyboard-response","303","165756643","0.0-6.0-2.27","","<div style=""font-size:60px;"">+</div>","null","","","","","","",""
"385.27500000596046","","image-keyboard-response","304","165757029","0.0-6.0-0.28","","img/green.png","32","trial","32","true","0.8,0.2","1:go_a","",""
"null","","html-keyboard-response","305","165758044","0.0-6.0-1.28","","<img src=""img/green-r.png"" border=""10"">","null","trial","32","","0.8,0.2","1:go_a","1",""
"null","","html-keyboard-response","306","165759060","0.0-6.0-2.28","","<div style=""font-size:60px;"">+</div>","null","","","","","","",""
"487.5","","image-keyboard-response","307","165759548","0.0-6.0-0.29","","img/purple.png","32","trial","null","false","0.2,0.8","2:nogo_b","",""
"null","","html-keyboard-response","308","165760556","0.0-6.0-1.29","","<img src=""img/purple-n.png"" border=""10"">","null","trial","null","","0.2,0.8","2:nogo_b","0",""
"null","","html-keyboard-response","309","165761567","0.0-6.0-2.29","","<div style=""font-size:60px;"">+</div>","null","","","","","","",""
"370.0600000023842","","image-keyboard-response","310","165761941","0.0-6.0-0.30","","img/orange.png","32","trial","32","true","0.8,0.2","3:go_c","",""
"null","","html-keyboard-response","311","165762956","0.0-6.0-1.30","","<img src=""img/orange-r.png"" border=""10"">","null","trial","32","","0.8,0.2","3:go_c","1",""
"null","","html-keyboard-response","312","165763971","0.0-6.0-2.30","","<div style=""font-size:60px;"">+</div>","null","","","","","","",""
"null","","image-keyboard-response","313","165765483","0.0-6.0-0.31","","img/red.png","null","trial","null","true","0.2,0.8","4:nogo_d","",""
"null","","html-keyboard-response","314","165766500","0.0-6.0-1.31","","<img src=""img/red-r.png"">","null","trial","null","","0.2,0.8","4:nogo_d","1",""
"null","","html-keyboard-response","315","165767505","0.0-6.0-2.31","","<div style=""font-size:60px;"">+</div>","null","","","","","","",""
"698.3200000226498","","image-keyboard-response","316","165768204","0.0-6.0-0.32","","img/orange.png","32","trial","32","true","0.8,0.2","3:go_c","",""
"null","","html-keyboard-response","317","165769213","0.0-6.0-1.32","","<img src=""img/orange-r.png"" border=""10"">","null","trial","32","","0.8,0.2","3:go_c","1",""
"null","","html-keyboard-response","318","165770220","0.0-6.0-2.32","","<div style=""font-size:60px;"">+</div>","null","","","","","","",""
"607.9800000488758","","image-keyboard-response","319","165770829","0.0-6.0-0.33","","img/red.png","32","trial","null","false","0.2,0.8","4:nogo_d","",""
"null","","html-keyboard-response","320","165771840","0.0-6.0-1.33","","<img src=""img/red-n.png"" border=""10"">","null","trial","null","","0.2,0.8","4:nogo_d","0",""
"null","","html-keyboard-response","321","165772844","0.0-6.0-2.33","","<div style=""font-size:60px;"">+</div>","null","","","","","","",""
"519.7450000047684","","image-keyboard-response","322","165773364","0.0-6.0-0.34","","img/green.png","32","trial","32","true","0.8,0.2","1:go_a","",""
"null","","html-keyboard-response","323","165774370","0.0-6.0-1.34","","<img src=""img/green-r.png"" border=""10"">","null","trial","32","","0.8,0.2","1:go_a","1",""
"null","","html-keyboard-response","324","165775386","0.0-6.0-2.34","","<div style=""font-size:60px;"">+</div>","null","","","","","","",""
"210.0949999988079","","image-keyboard-response","325","165775597","0.0-6.0-0.35","","img/purple.png","32","trial","null","false","0.2,0.8","2:nogo_b","",""
"null","","html-keyboard-response","326","165776604","0.0-6.0-1.35","","<img src=""img/purple-r.png"" border=""10"">","null","trial","null","","0.2,0.8","2:nogo_b","1",""
"null","","html-keyboard-response","327","165777616","0.0-6.0-2.35","","<div style=""font-size:60px;"">+</div>","null","","","","","","",""
"667.0450000166893","","image-keyboard-response","328","165778284","0.0-6.0-0.36","","img/purple.png","32","trial","null","false","0.2,0.8","2:nogo_b","",""
"null","","html-keyboard-response","329","165779294","0.0-6.0-1.36","","<img src=""img/purple-n.png"" border=""10"">","null","trial","null","","0.2,0.8","2:nogo_b","0",""
"null","","html-keyboard-response","330","165780306","0.0-6.0-2.36","","<div style=""font-size:60px;"">+</div>","null","","","","","","",""
"682.6299999952316","","image-keyboard-response","331","165780989","0.0-6.0-0.37","","img/orange.png","32","trial","32","true","0.8,0.2","3:go_c","",""
"null","","html-keyboard-response","332","165781998","0.0-6.0-1.37","","<img src=""img/orange-r.png"" border=""10"">","null","trial","32","","0.8,0.2","3:go_c","1",""
"null","","html-keyboard-response","333","165783015","0.0-6.0-2.37","","<div style=""font-size:60px;"">+</div>","null","","","","","","",""
"245.3449999988079","","image-keyboard-response","334","165783261","0.0-6.0-0.38","","img/green.png","32","trial","32","true","0.8,0.2","1:go_a","",""
"null","","html-keyboard-response","335","165784271","0.0-6.0-1.38","","<img src=""img/green-r.png"" border=""10"">","null","trial","32","","0.8,0.2","1:go_a","1",""
"null","","html-keyboard-response","336","165785273","0.0-6.0-2.38","","<div style=""font-size:60px;"">+</div>","null","","","","","","",""
"282.27500000596046","","image-keyboard-response","337","165785556","0.0-6.0-0.39","","img/red.png","32","trial","null","false","0.2,0.8","4:nogo_d","",""
"null","","html-keyboard-response","338","165786571","0.0-6.0-1.39","","<img src=""img/red-n.png"" border=""10"">","null","trial","null","","0.2,0.8","4:nogo_d","0",""
"null","","html-keyboard-response","339","165787573","0.0-6.0-2.39","","<div style=""font-size:60px;"">+</div>","null","","","","","","",""
"766.7749999761581","","image-keyboard-response","340","165788341","0.0-6.0-0.40","","img/orange.png","32","trial","32","true","0.8,0.2","3:go_c","",""
"null","","html-keyboard-response","341","165789353","0.0-6.0-1.40","","<img src=""img/orange-r.png"" border=""10"">","null","trial","32","","0.8,0.2","3:go_c","1",""
"null","","html-keyboard-response","342","165790357","0.0-6.0-2.40","","<div style=""font-size:60px;"">+</div>","null","","","","","","",""
"518.9500000178814","","image-keyboard-response","343","165790877","0.0-6.0-0.41","","img/purple.png","32","trial","null","false","0.2,0.8","2:nogo_b","",""
"null","","html-keyboard-response","344","165791880","0.0-6.0-1.41","","<img src=""img/purple-n.png"" border=""10"">","null","trial","null","","0.2,0.8","2:nogo_b","0",""
"null","","html-keyboard-response","345","165792883","0.0-6.0-2.41","","<div style=""font-size:60px;"">+</div>","null","","","","","","",""
"472.82499998807907","","image-keyboard-response","346","165793357","0.0-6.0-0.42","","img/red.png","32","trial","null","false","0.2,0.8","4:nogo_d","",""
"null","","html-keyboard-response","347","165794370","0.0-6.0-1.42","","<img src=""img/red-n.png"" border=""10"">","null","trial","null","","0.2,0.8","4:nogo_d","0",""
"null","","html-keyboard-response","348","165795378","0.0-6.0-2.42","","<div style=""font-size:60px;"">+</div>","null","","","","","","",""
"497.41499999165535","","image-keyboard-response","349","165795876","0.0-6.0-0.43","","img/green.png","32","trial","32","true","0.8,0.2","1:go_a","",""
"null","","html-keyboard-response","350","165796884","0.0-6.0-1.43","","<img src=""img/green-r.png"" border=""10"">","null","trial","32","","0.8,0.2","1:go_a","1",""
"null","","html-keyboard-response","351","165797888","0.0-6.0-2.43","","<div style=""font-size:60px;"">+</div>","null","","","","","","",""
"547.5299999713898","","image-keyboard-response","352","165798436","0.0-6.0-0.44","","img/purple.png","32","trial","null","false","0.2,0.8","2:nogo_b","",""
"null","","html-keyboard-response","353","165799453","0.0-6.0-1.44","","<img src=""img/purple-n.png"" border=""10"">","null","trial","null","","0.2,0.8","2:nogo_b","0",""
"null","","html-keyboard-response","354","165800462","0.0-6.0-2.44","","<div style=""font-size:60px;"">+</div>","null","","","","","","",""
"549.3499999642372","","image-keyboard-response","355","165801013","0.0-6.0-0.45","","img/orange.png","32","trial","32","true","0.8,0.2","3:go_c","",""
"null","","html-keyboard-response","356","165802021","0.0-6.0-1.45","","<img src=""img/orange-r.png"" border=""10"">","null","trial","32","","0.8,0.2","3:go_c","1",""
"null","","html-keyboard-response","357","165803027","0.0-6.0-2.45","","<div style=""font-size:60px;"">+</div>","null","","","","","","",""
"896.7999999821186","","image-keyboard-response","358","165803925","0.0-6.0-0.46","","img/green.png","32","trial","32","true","0.8,0.2","1:go_a","",""
"null","","html-keyboard-response","359","165804938","0.0-6.0-1.46","","<img src=""img/green-r.png"" border=""10"">","null","trial","32","","0.8,0.2","1:go_a","1",""
"null","","html-keyboard-response","360","165805942","0.0-6.0-2.46","","<div style=""font-size:60px;"">+</div>","null","","","","","","",""
"294.5049999952316","","image-keyboard-response","361","165806237","0.0-6.0-0.47","","img/red.png","32","trial","null","false","0.2,0.8","4:nogo_d","",""
"null","","html-keyboard-response","362","165807254","0.0-6.0-1.47","","<img src=""img/red-n.png"" border=""10"">","null","trial","null","","0.2,0.8","4:nogo_d","0",""
"null","","html-keyboard-response","363","165808267","0.0-6.0-2.47","","<div style=""font-size:60px;"">+</div>","null","","","","","","",""
"32.84000000357628","","image-keyboard-response","364","165808301","0.0-6.0-0.48","","img/red.png","32","trial","null","false","0.2,0.8","4:nogo_d","",""
"null","","html-keyboard-response","365","165809308","0.0-6.0-1.48","","<img src=""img/red-n.png"" border=""10"">","null","trial","null","","0.2,0.8","4:nogo_d","0",""
"null","","html-keyboard-response","366","165810323","0.0-6.0-2.48","","<div style=""font-size:60px;"">+</div>","null","","","","","","",""
"392.7349999845028","","image-keyboard-response","367","165810717","0.0-6.0-0.49","","img/orange.png","32","trial","32","true","0.8,0.2","3:go_c","",""
"null","","html-keyboard-response","368","165811726","0.0-6.0-1.49","","<img src=""img/orange-r.png"" border=""10"">","null","trial","32","","0.8,0.2","3:go_c","1",""
"null","","html-keyboard-response","369","165812729","0.0-6.0-2.49","","<div style=""font-size:60px;"">+</div>","null","","","","","","",""
"403.6200000047684","","image-keyboard-response","370","165813133","0.0-6.0-0.50","","img/purple.png","32","trial","null","false","0.2,0.8","2:nogo_b","",""
"null","","html-keyboard-response","371","165814142","0.0-6.0-1.50","","<img src=""img/purple-n.png"" border=""10"">","null","trial","null","","0.2,0.8","2:nogo_b","0",""
"null","","html-keyboard-response","372","165815155","0.0-6.0-2.50","","<div style=""font-size:60px;"">+</div>","null","","","","","","",""
"257.0849999785423","","image-keyboard-response","373","165815413","0.0-6.0-0.51","","img/green.png","32","trial","32","true","0.8,0.2","1:go_a","",""
"null","","html-keyboard-response","374","165816415","0.0-6.0-1.51","","<img src=""img/green-n.png"" border=""10"">","null","trial","32","","0.8,0.2","1:go_a","0",""
"null","","html-keyboard-response","375","165817416","0.0-6.0-2.51","","<div style=""font-size:60px;"">+</div>","null","","","","","","",""
"227.3949999809265","","image-keyboard-response","376","165817645","0.0-6.0-0.52","","img/orange.png","32","trial","32","true","0.8,0.2","3:go_c","",""
"null","","html-keyboard-response","377","165818655","0.0-6.0-1.52","","<img src=""img/orange-r.png"" border=""10"">","null","trial","32","","0.8,0.2","3:go_c","1",""
"null","","html-keyboard-response","378","165819669","0.0-6.0-2.52","","<div style=""font-size:60px;"">+</div>","null","","","","","","",""
"182.8799999654293","","image-keyboard-response","379","165819853","0.0-6.0-0.53","","img/red.png","32","trial","null","false","0.2,0.8","4:nogo_d","",""
"null","","html-keyboard-response","380","165820865","0.0-6.0-1.53","","<img src=""img/red-r.png"" border=""10"">","null","trial","null","","0.2,0.8","4:nogo_d","1",""
"null","","html-keyboard-response","381","165821870","0.0-6.0-2.53","","<div style=""font-size:60px;"">+</div>","null","","","","","","",""
"173.5949999988079","","image-keyboard-response","382","165822045","0.0-6.0-0.54","","img/purple.png","32","trial","null","false","0.2,0.8","2:nogo_b","",""
"null","","html-keyboard-response","383","165823058","0.0-6.0-1.54","","<img src=""img/purple-r.png"" border=""10"">","null","trial","null","","0.2,0.8","2:nogo_b","1",""
"null","","html-keyboard-response","384","165824065","0.0-6.0-2.54","","<div style=""font-size:60px;"">+</div>","null","","","","","","",""
"396.5649999976158","","image-keyboard-response","385","165824462","0.0-6.0-0.55","","img/green.png","32","trial","32","true","0.8,0.2","1:go_a","",""
"null","","html-keyboard-response","386","165825472","0.0-6.0-1.55","","<img src=""img/green-r.png"" border=""10"">","null","trial","32","","0.8,0.2","1:go_a","1",""
"null","","html-keyboard-response","387","165826478","0.0-6.0-2.55","","<div style=""font-size:60px;"">+</div>","null","","","","","","",""
"213.45500001311302","","image-keyboard-response","388","165826692","0.0-6.0-0.56","","img/orange.png","32","trial","32","true","0.8,0.2","3:go_c","",""
"null","","html-keyboard-response","389","165827696","0.0-6.0-1.56","","<img src=""img/orange-r.png"" border=""10"">","null","trial","32","","0.8,0.2","3:go_c","1",""
"null","","html-keyboard-response","390","165828712","0.0-6.0-2.56","","<div style=""font-size:60px;"">+</div>","null","","","","","","",""
"235.2199999988079","","image-keyboard-response","391","165828949","0.0-6.0-0.57","","img/red.png","32","trial","null","false","0.2,0.8","4:nogo_d","",""
"null","","html-keyboard-response","392","165829951","0.0-6.0-1.57","","<img src=""img/red-n.png"" border=""10"">","null","trial","null","","0.2,0.8","4:nogo_d","0",""
"null","","html-keyboard-response","393","165830961","0.0-6.0-2.57","","<div style=""font-size:60px;"">+</div>","null","","","","","","",""
"378.3050000369549","","image-keyboard-response","394","165831341","0.0-6.0-0.58","","img/green.png","32","trial","32","true","0.8,0.2","1:go_a","",""
"null","","html-keyboard-response","395","165832351","0.0-6.0-1.58","","<img src=""img/green-n.png"" border=""10"">","null","trial","32","","0.8,0.2","1:go_a","0",""
"null","","html-keyboard-response","396","165833357","0.0-6.0-2.58","","<div style=""font-size:60px;"">+</div>","null","","","","","","",""
"278.875","","image-keyboard-response","397","165833637","0.0-6.0-0.59","","img/purple.png","32","trial","null","false","0.2,0.8","2:nogo_b","",""
"null","","html-keyboard-response","398","165834645","0.0-6.0-1.59","","<img src=""img/purple-n.png"" border=""10"">","null","trial","null","","0.2,0.8","2:nogo_b","0",""
"null","","html-keyboard-response","399","165835657","0.0-6.0-2.59","","<div style=""font-size:60px;"">+</div>","null","","","","","","",""
"227.70500004291534","","image-keyboard-response","400","165835885","0.0-6.0-0.60","","img/purple.png","32","trial","null","false","0.2,0.8","2:nogo_b","",""
"null","","html-keyboard-response","401","165836898","0.0-6.0-1.60","","<img src=""img/purple-r.png"" border=""10"">","null","trial","null","","0.2,0.8","2:nogo_b","1",""
"null","","html-keyboard-response","402","165837899","0.0-6.0-2.60","","<div style=""font-size:60px;"">+</div>","null","","","","","","",""
"280.4699999988079","","image-keyboard-response","403","165838181","0.0-6.0-0.61","","img/green.png","32","trial","32","true","0.8,0.2","1:go_a","",""
"null","","html-keyboard-response","404","165839187","0.0-6.0-1.61","","<img src=""img/green-r.png"" border=""10"">","null","trial","32","","0.8,0.2","1:go_a","1",""
"null","","html-keyboard-response","405","165840194","0.0-6.0-2.61","","<div style=""font-size:60px;"">+</div>","null","","","","","","",""
"402.60499998927116","","image-keyboard-response","406","165840597","0.0-6.0-0.62","","img/orange.png","32","trial","32","true","0.8,0.2","3:go_c","",""
"null","","html-keyboard-response","407","165841603","0.0-6.0-1.62","","<img src=""img/orange-r.png"" border=""10"">","null","trial","32","","0.8,0.2","3:go_c","1",""
"null","","html-keyboard-response","408","165842611","0.0-6.0-2.62","","<div style=""font-size:60px;"">+</div>","null","","","","","","",""
"null","","image-keyboard-response","409","165844115","0.0-6.0-0.63","","img/red.png","null","trial","null","true","0.2,0.8","4:nogo_d","",""
"null","","html-keyboard-response","410","165845123","0.0-6.0-1.63","","<img src=""img/red-n.png"">","null","trial","null","","0.2,0.8","4:nogo_d","0",""
"null","","html-keyboard-response","411","165846128","0.0-6.0-2.63","","<div style=""font-size:60px;"">+</div>","null","","","","","","",""
"443.3400000035763","","image-keyboard-response","412","165846573","0.0-6.0-0.64","","img/purple.png","32","trial","null","false","0.2,0.8","2:nogo_b","",""
"null","","html-keyboard-response","413","165847575","0.0-6.0-1.64","","<img src=""img/purple-n.png"" border=""10"">","null","trial","null","","0.2,0.8","2:nogo_b","0",""
"null","","html-keyboard-response","414","165848583","0.0-6.0-2.64","","<div style=""font-size:60px;"">+</div>","null","","","","","","",""
"573.5400000214577","","image-keyboard-response","415","165849157","0.0-6.0-0.65","","img/red.png","32","trial","null","false","0.2,0.8","4:nogo_d","",""
"null","","html-keyboard-response","416","165850168","0.0-6.0-1.65","","<img src=""img/red-r.png"" border=""10"">","null","trial","null","","0.2,0.8","4:nogo_d","1",""
"null","","html-keyboard-response","417","165851178","0.0-6.0-2.65","","<div style=""font-size:60px;"">+</div>","null","","","","","","",""
"513.3749999701977","","image-keyboard-response","418","165851692","0.0-6.0-0.66","","img/green.png","32","trial","32","true","0.8,0.2","1:go_a","",""
"null","","html-keyboard-response","419","165852700","0.0-6.0-1.66","","<img src=""img/green-n.png"" border=""10"">","null","trial","32","","0.8,0.2","1:go_a","0",""
"null","","html-keyboard-response","420","165853716","0.0-6.0-2.66","","<div style=""font-size:60px;"">+</div>","null","","","","","","",""
"351.82499995827675","","image-keyboard-response","421","165854069","0.0-6.0-0.67","","img/orange.png","32","trial","32","true","0.8,0.2","3:go_c","",""
"null","","html-keyboard-response","422","165855084","0.0-6.0-1.67","","<img src=""img/orange-r.png"" border=""10"">","null","trial","32","","0.8,0.2","3:go_c","1",""
"null","","html-keyboard-response","423","165856099","0.0-6.0-2.67","","<div style=""font-size:60px;"">+</div>","null","","","","","","",""
"592.5549999773502","","image-keyboard-response","424","165856692","0.0-6.0-0.68","","img/orange.png","32","trial","32","true","0.8,0.2","3:go_c","",""
"null","","html-keyboard-response","425","165857709","0.0-6.0-1.68","","<img src=""img/orange-n.png"" border=""10"">","null","trial","32","","0.8,0.2","3:go_c","0",""
"null","","html-keyboard-response","426","165858713","0.0-6.0-2.68","","<div style=""font-size:60px;"">+</div>","null","","","","","","",""
"826.8650000095367","","image-keyboard-response","427","165859541","0.0-6.0-0.69","","img/purple.png","32","trial","null","false","0.2,0.8","2:nogo_b","",""
"null","","html-keyboard-response","428","165860552","0.0-6.0-1.69","","<img src=""img/purple-n.png"" border=""10"">","null","trial","null","","0.2,0.8","2:nogo_b","0",""
"null","","html-keyboard-response","429","165861562","0.0-6.0-2.69","","<div style=""font-size:60px;"">+</div>","null","","","","","","",""
"657.6150000393391","","image-keyboard-response","430","165862221","0.0-6.0-0.70","","img/red.png","32","trial","null","false","0.2,0.8","4:nogo_d","",""
"null","","html-keyboard-response","431","165863233","0.0-6.0-1.70","","<img src=""img/red-r.png"" border=""10"">","null","trial","null","","0.2,0.8","4:nogo_d","1",""
"null","","html-keyboard-response","432","165864249","0.0-6.0-2.70","","<div style=""font-size:60px;"">+</div>","null","","","","","","",""
"227.3149999678135","","image-keyboard-response","433","165864477","0.0-6.0-0.71","","img/green.png","32","trial","32","true","0.8,0.2","1:go_a","",""
"null","","html-keyboard-response","434","165865484","0.0-6.0-1.71","","<img src=""img/green-n.png"" border=""10"">","null","trial","32","","0.8,0.2","1:go_a","0",""
"null","","html-keyboard-response","435","165866489","0.0-6.0-2.71","","<div style=""font-size:60px;"">+</div>","null","","","","","","",""
"218.24500000476837","","image-keyboard-response","436","165866708","0.0-6.0-0.72","","img/green.png","32","trial","32","true","0.8,0.2","1:go_a","",""
"null","","html-keyboard-response","437","165867722","0.0-6.0-1.72","","<img src=""img/green-r.png"" border=""10"">","null","trial","32","","0.8,0.2","1:go_a","1",""
"null","","html-keyboard-response","438","165868724","0.0-6.0-2.72","","<div style=""font-size:60px;"">+</div>","null","","","","","","",""
"255.56999999284744","","image-keyboard-response","439","165868981","0.0-6.0-0.73","","img/orange.png","32","trial","32","true","0.8,0.2","3:go_c","",""
"null","","html-keyboard-response","440","165869985","0.0-6.0-1.73","","<img src=""img/orange-r.png"" border=""10"">","null","trial","32","","0.8,0.2","3:go_c","1",""
"null","","html-keyboard-response","441","165870997","0.0-6.0-2.73","","<div style=""font-size:60px;"">+</div>","null","","","","","","",""
"254.90000000596046","","image-keyboard-response","442","165871253","0.0-6.0-0.74","","img/purple.png","32","trial","null","false","0.2,0.8","2:nogo_b","",""
"null","","html-keyboard-response","443","165872268","0.0-6.0-1.74","","<img src=""img/purple-n.png"" border=""10"">","null","trial","null","","0.2,0.8","2:nogo_b","0",""
"null","","html-keyboard-response","444","165873284","0.0-6.0-2.74","","<div style=""font-size:60px;"">+</div>","null","","","","","","",""
"1160.0099999904633","","image-keyboard-response","445","165874445","0.0-6.0-0.75","","img/red.png","32","trial","null","false","0.2,0.8","4:nogo_d","",""
"null","","html-keyboard-response","446","165875449","0.0-6.0-1.75","","<img src=""img/red-n.png"" border=""10"">","null","trial","null","","0.2,0.8","4:nogo_d","0",""
"null","","html-keyboard-response","447","165876463","0.0-6.0-2.75","","<div style=""font-size:60px;"">+</div>","null","","","","","","",""
"525.0199999809265","","image-keyboard-response","448","165876989","0.0-6.0-0.76","","img/red.png","32","trial","null","false","0.2,0.8","4:nogo_d","",""
"null","","html-keyboard-response","449","165878005","0.0-6.0-1.76","","<img src=""img/red-n.png"" border=""10"">","null","trial","null","","0.2,0.8","4:nogo_d","0",""
"null","","html-keyboard-response","450","165879016","0.0-6.0-2.76","","<div style=""font-size:60px;"">+</div>","null","","","","","","",""
"35.75000002980232","","image-keyboard-response","451","165879053","0.0-6.0-0.77","","img/purple.png","32","trial","null","false","0.2,0.8","2:nogo_b","",""
"null","","html-keyboard-response","452","165880061","0.0-6.0-1.77","","<img src=""img/purple-n.png"" border=""10"">","null","trial","null","","0.2,0.8","2:nogo_b","0",""
"null","","html-keyboard-response","453","165881067","0.0-6.0-2.77","","<div style=""font-size:60px;"">+</div>","null","","","","","","",""
"280.4399999976158","","image-keyboard-response","454","165881349","0.0-6.0-0.78","","img/orange.png","32","trial","32","true","0.8,0.2","3:go_c","",""
"null","","html-keyboard-response","455","165882352","0.0-6.0-1.78","","<img src=""img/orange-n.png"" border=""10"">","null","trial","32","","0.8,0.2","3:go_c","0",""
"null","","html-keyboard-response","456","165883367","0.0-6.0-2.78","","<div style=""font-size:60px;"">+</div>","null","","","","","","",""
"1197.494999974966","","image-keyboard-response","457","165884565","0.0-6.0-0.79","","img/green.png","32","trial","32","true","0.8,0.2","1:go_a","",""
"null","","html-keyboard-response","458","165885572","0.0-6.0-1.79","","<img src=""img/green-r.png"" border=""10"">","null","trial","32","","0.8,0.2","1:go_a","1",""
"null","","html-keyboard-response","459","165886578","0.0-6.0-2.79","","<div style=""font-size:60px;"">+</div>","null","","","","","","",""
"1161.5949999690056","","image-keyboard-response","460","165887741","0.0-6.0-0.80","","img/green.png","32","trial","32","true","0.8,0.2","1:go_a","",""
"null","","html-keyboard-response","461","165888746","0.0-6.0-1.80","","<img src=""img/green-r.png"" border=""10"">","null","trial","32","","0.8,0.2","1:go_a","1",""
"null","","html-keyboard-response","462","165889762","0.0-6.0-2.80","","<div style=""font-size:60px;"">+</div>","null","","","","","","",""
"370.0150000154972","","image-keyboard-response","463","165890133","0.0-6.0-0.81","","img/purple.png","32","trial","null","false","0.2,0.8","2:nogo_b","",""
"null","","html-keyboard-response","464","165891149","0.0-6.0-1.81","","<img src=""img/purple-n.png"" border=""10"">","null","trial","null","","0.2,0.8","2:nogo_b","0",""
"null","","html-keyboard-response","465","165892154","0.0-6.0-2.81","","<div style=""font-size:60px;"">+</div>","null","","","","","","",""
"785.1049999594688","","image-keyboard-response","466","165892940","0.0-6.0-0.82","","img/orange.png","32","trial","32","true","0.8,0.2","3:go_c","",""
"null","","html-keyboard-response","467","165893941","0.0-6.0-1.82","","<img src=""img/orange-r.png"" border=""10"">","null","trial","32","","0.8,0.2","3:go_c","1",""
"null","","html-keyboard-response","468","165894957","0.0-6.0-2.82","","<div style=""font-size:60px;"">+</div>","null","","","","","","",""
"503.6599999964237","","image-keyboard-response","469","165895461","0.0-6.0-0.83","","img/red.png","32","trial","null","false","0.2,0.8","4:nogo_d","",""
"null","","html-keyboard-response","470","165896469","0.0-6.0-1.83","","<img src=""img/red-r.png"" border=""10"">","null","trial","null","","0.2,0.8","4:nogo_d","1",""
"null","","html-keyboard-response","471","165897485","0.0-6.0-2.83","","<div style=""font-size:60px;"">+</div>","null","","","","","","",""
"null","","image-keyboard-response","472","165898988","0.0-6.0-0.84","","img/red.png","null","trial","null","true","0.2,0.8","4:nogo_d","",""
"null","","html-keyboard-response","473","165899993","0.0-6.0-1.84","","<img src=""img/red-r.png"">","null","trial","null","","0.2,0.8","4:nogo_d","1",""
"null","","html-keyboard-response","474","165901008","0.0-6.0-2.84","","<div style=""font-size:60px;"">+</div>","null","","","","","","",""
"1371.3649999797344","","image-keyboard-response","475","165902380","0.0-6.0-0.85","","img/orange.png","32","trial","32","true","0.8,0.2","3:go_c","",""
"null","","html-keyboard-response","476","165903384","0.0-6.0-1.85","","<img src=""img/orange-r.png"" border=""10"">","null","trial","32","","0.8,0.2","3:go_c","1",""
"null","","html-keyboard-response","477","165904399","0.0-6.0-2.85","","<div style=""font-size:60px;"">+</div>","null","","","","","","",""
"332.27999997138977","","image-keyboard-response","478","165904732","0.0-6.0-0.86","","img/purple.png","32","trial","null","false","0.2,0.8","2:nogo_b","",""
"null","","html-keyboard-response","479","165905736","0.0-6.0-1.86","","<img src=""img/purple-n.png"" border=""10"">","null","trial","null","","0.2,0.8","2:nogo_b","0",""
"null","","html-keyboard-response","480","165906750","0.0-6.0-2.86","","<div style=""font-size:60px;"">+</div>","null","","","","","","",""
"477.24000003933907","","image-keyboard-response","481","165907228","0.0-6.0-0.87","","img/green.png","32","trial","32","true","0.8,0.2","1:go_a","",""
"null","","html-keyboard-response","482","165908231","0.0-6.0-1.87","","<img src=""img/green-r.png"" border=""10"">","null","trial","32","","0.8,0.2","1:go_a","1",""
"null","","html-keyboard-response","483","165909245","0.0-6.0-2.87","","<div style=""font-size:60px;"">+</div>","null","","","","","","",""
"1119.035000026226","","image-keyboard-response","484","165910364","0.0-6.0-0.88","","img/red.png","32","trial","null","false","0.2,0.8","4:nogo_d","",""
"null","","html-keyboard-response","485","165911367","0.0-6.0-1.88","","<img src=""img/red-r.png"" border=""10"">","null","trial","null","","0.2,0.8","4:nogo_d","1",""
"null","","html-keyboard-response","486","165912377","0.0-6.0-2.88","","<div style=""font-size:60px;"">+</div>","null","","","","","","",""
"1425.509999960661","","image-keyboard-response","487","165913805","0.0-6.0-0.89","","img/green.png","32","trial","32","true","0.8,0.2","1:go_a","",""
"null","","html-keyboard-response","488","165914807","0.0-6.0-1.89","","<img src=""img/green-r.png"" border=""10"">","null","trial","32","","0.8,0.2","1:go_a","1",""
"null","","html-keyboard-response","489","165915811","0.0-6.0-2.89","","<div style=""font-size:60px;"">+</div>","null","","","","","","",""
"945.0049999952316","","image-keyboard-response","490","165916756","0.0-6.0-0.90","","img/purple.png","32","trial","null","false","0.2,0.8","2:nogo_b","",""
"null","","html-keyboard-response","491","165917760","0.0-6.0-1.90","","<img src=""img/purple-n.png"" border=""10"">","null","trial","null","","0.2,0.8","2:nogo_b","0",""
"null","","html-keyboard-response","492","165918761","0.0-6.0-2.90","","<div style=""font-size:60px;"">+</div>","null","","","","","","",""
"1226.4800000190735","","image-keyboard-response","493","165919989","0.0-6.0-0.91","","img/orange.png","32","trial","32","true","0.8,0.2","3:go_c","",""
"null","","html-keyboard-response","494","165920995","0.0-6.0-1.91","","<img src=""img/orange-n.png"" border=""10"">","null","trial","32","","0.8,0.2","3:go_c","0",""
"null","","html-keyboard-response","495","165922007","0.0-6.0-2.91","","<div style=""font-size:60px;"">+</div>","null","","","","","","",""
"276.30500000715256","","image-keyboard-response","496","165922284","0.0-6.0-0.92","","img/purple.png","32","trial","null","false","0.2,0.8","2:nogo_b","",""
"null","","html-keyboard-response","497","165923297","0.0-6.0-1.92","","<img src=""img/purple-n.png"" border=""10"">","null","trial","null","","0.2,0.8","2:nogo_b","0",""
"null","","html-keyboard-response","498","165924301","0.0-6.0-2.92","","<div style=""font-size:60px;"">+</div>","null","","","","","","",""
"190.02499994635582","","image-keyboard-response","499","165924492","0.0-6.0-0.93","","img/red.png","32","trial","null","false","0.2,0.8","4:nogo_d","",""
"null","","html-keyboard-response","500","165925494","0.0-6.0-1.93","","<img src=""img/red-n.png"" border=""10"">","null","trial","null","","0.2,0.8","4:nogo_d","0",""
"null","","html-keyboard-response","501","165926496","0.0-6.0-2.93","","<div style=""font-size:60px;"">+</div>","null","","","","","","",""
"683.2000000178814","","image-keyboard-response","502","165927180","0.0-6.0-0.94","","img/green.png","32","trial","32","true","0.8,0.2","1:go_a","",""
"null","","html-keyboard-response","503","165928186","0.0-6.0-1.94","","<img src=""img/green-r.png"" border=""10"">","null","trial","32","","0.8,0.2","1:go_a","1",""
"null","","html-keyboard-response","504","165929189","0.0-6.0-2.94","","<div style=""font-size:60px;"">+</div>","null","","","","","","",""
"null","","image-keyboard-response","505","165930692","0.0-6.0-0.95","","img/orange.png","null","trial","32","false","0.8,0.2","3:go_c","",""
"null","","html-keyboard-response","506","165931703","0.0-6.0-1.95","","<img src=""img/orange-n.png"">","null","trial","32","","0.8,0.2","3:go_c","0",""
"null","","html-keyboard-response","507","165932713","0.0-6.0-2.95","","<div style=""font-size:60px;"">+</div>","null","","","","","","",""
"794.8799999952316","","image-keyboard-response","508","165933509","0.0-6.0-0.96","","img/purple.png","32","trial","null","false","0.2,0.8","2:nogo_b","",""
"null","","html-keyboard-response","509","165934513","0.0-6.0-1.96","","<img src=""img/purple-n.png"" border=""10"">","null","trial","null","","0.2,0.8","2:nogo_b","0",""
"null","","html-keyboard-response","510","165935526","0.0-6.0-2.96","","<div style=""font-size:60px;"">+</div>","null","","","","","","",""
"397.2450000047684","","image-keyboard-response","511","165935924","0.0-6.0-0.97","","img/orange.png","32","trial","32","true","0.8,0.2","3:go_c","",""
"null","","html-keyboard-response","512","165936929","0.0-6.0-1.97","","<img src=""img/orange-r.png"" border=""10"">","null","trial","32","","0.8,0.2","3:go_c","1",""
"null","","html-keyboard-response","513","165937930","0.0-6.0-2.97","","<div style=""font-size:60px;"">+</div>","null","","","","","","",""
"361.0149999856949","","image-keyboard-response","514","165938292","0.0-6.0-0.98","","img/red.png","32","trial","null","false","0.2,0.8","4:nogo_d","",""
"null","","html-keyboard-response","515","165939298","0.0-6.0-1.98","","<img src=""img/red-n.png"" border=""10"">","null","trial","null","","0.2,0.8","4:nogo_d","0",""
"null","","html-keyboard-response","516","165940313","0.0-6.0-2.98","","<div style=""font-size:60px;"">+</div>","null","","","","","","",""
"1034.4300000071526","","image-keyboard-response","517","165941348","0.0-6.0-0.99","","img/green.png","32","trial","32","true","0.8,0.2","1:go_a","",""
"null","","html-keyboard-response","518","165942364","0.0-6.0-1.99","","<img src=""img/green-r.png"" border=""10"">","null","trial","32","","0.8,0.2","1:go_a","1",""
"null","","html-keyboard-response","519","165943371","0.0-6.0-2.99","","<div style=""font-size:60px;"">+</div>","null","","","","","","",""
"144.5","","image-keyboard-response","520","165943516","0.0-6.0-0.100","","img/green.png","32","trial","32","true","0.8,0.2","1:go_a","",""
"null","","html-keyboard-response","521","165944518","0.0-6.0-1.100","","<img src=""img/green-r.png"" border=""10"">","null","trial","32","","0.8,0.2","1:go_a","1",""
"null","","html-keyboard-response","522","165945523","0.0-6.0-2.100","","<div style=""font-size:60px;"">+</div>","null","","","","","","",""
"880.8049999475479","","image-keyboard-response","523","165946404","0.0-6.0-0.101","","img/orange.png","32","trial","32","true","0.8,0.2","3:go_c","",""
"null","","html-keyboard-response","524","165947412","0.0-6.0-1.101","","<img src=""img/orange-r.png"" border=""10"">","null","trial","32","","0.8,0.2","3:go_c","1",""
"null","","html-keyboard-response","525","165948425","0.0-6.0-2.101","","<div style=""font-size:60px;"">+</div>","null","","","","","","",""
"null","","image-keyboard-response","526","165949929","0.0-6.0-0.102","","img/purple.png","null","trial","null","true","0.2,0.8","2:nogo_b","",""
"null","","html-keyboard-response","527","165950946","0.0-6.0-1.102","","<img src=""img/purple-r.png"">","null","trial","null","","0.2,0.8","2:nogo_b","1",""
"null","","html-keyboard-response","528","165951951","0.0-6.0-2.102","","<div style=""font-size:60px;"">+</div>","null","","","","","","",""
"null","","image-keyboard-response","529","165953459","0.0-6.0-0.103","","img/red.png","null","trial","null","true","0.2,0.8","4:nogo_d","",""
"null","","html-keyboard-response","530","165954475","0.0-6.0-1.103","","<img src=""img/red-r.png"">","null","trial","null","","0.2,0.8","4:nogo_d","1",""
"null","","html-keyboard-response","531","165955486","0.0-6.0-2.103","","<div style=""font-size:60px;"">+</div>","null","","","","","","",""
"581.2149999439716","","image-keyboard-response","532","165956068","0.0-6.0-0.104","","img/purple.png","32","trial","null","false","0.2,0.8","2:nogo_b","",""
"null","","html-keyboard-response","533","165957076","0.0-6.0-1.104","","<img src=""img/purple-n.png"" border=""10"">","null","trial","null","","0.2,0.8","2:nogo_b","0",""
"null","","html-keyboard-response","534","165958085","0.0-6.0-2.104","","<div style=""font-size:60px;"">+</div>","null","","","","","","",""
"215.26499992609024","","image-keyboard-response","535","165958301","0.0-6.0-0.105","","img/green.png","32","trial","32","true","0.8,0.2","1:go_a","",""
"null","","html-keyboard-response","536","165959317","0.0-6.0-1.105","","<img src=""img/green-r.png"" border=""10"">","null","trial","32","","0.8,0.2","1:go_a","1",""
"null","","html-keyboard-response","537","165960322","0.0-6.0-2.105","","<div style=""font-size:60px;"">+</div>","null","","","","","","",""
"337.3449999988079","","image-keyboard-response","538","165960660","0.0-6.0-0.106","","img/orange.png","32","trial","32","true","0.8,0.2","3:go_c","",""
"null","","html-keyboard-response","539","165961664","0.0-6.0-1.106","","<img src=""img/orange-r.png"" border=""10"">","null","trial","32","","0.8,0.2","3:go_c","1",""
"null","","html-keyboard-response","540","165962665","0.0-6.0-2.106","","<div style=""font-size:60px;"">+</div>","null","","","","","","",""
"610.2349999547005","","image-keyboard-response","541","165963277","0.0-6.0-0.107","","img/red.png","32","trial","null","false","0.2,0.8","4:nogo_d","",""
"null","","html-keyboard-response","542","165964285","0.0-6.0-1.107","","<img src=""img/red-n.png"" border=""10"">","null","trial","null","","0.2,0.8","4:nogo_d","0",""
"null","","html-keyboard-response","543","165965298","0.0-6.0-2.107","","<div style=""font-size:60px;"">+</div>","null","","","","","","",""
"761.1799999773502","","image-keyboard-response","544","165966060","0.0-6.0-0.108","","img/green.png","32","trial","32","true","0.8,0.2","1:go_a","",""
"null","","html-keyboard-response","545","165967064","0.0-6.0-1.108","","<img src=""img/green-r.png"" border=""10"">","null","trial","32","","0.8,0.2","1:go_a","1",""
"null","","html-keyboard-response","546","165968068","0.0-6.0-2.108","","<div style=""font-size:60px;"">+</div>","null","","","","","","",""
"1494.550000011921","","image-keyboard-response","547","165969564","0.0-6.0-0.109","","img/red.png","32","trial","null","false","0.2,0.8","4:nogo_d","",""
"null","","html-keyboard-response","548","165970568","0.0-6.0-1.109","","<img src=""img/red-n.png"" border=""10"">","null","trial","null","","0.2,0.8","4:nogo_d","0",""
"null","","html-keyboard-response","549","165971583","0.0-6.0-2.109","","<div style=""font-size:60px;"">+</div>","null","","","","","","",""
"1301.2700000703335","","image-keyboard-response","550","165972885","0.0-6.0-0.110","","img/purple.png","32","trial","null","false","0.2,0.8","2:nogo_b","",""
"null","","html-keyboard-response","551","165973892","0.0-6.0-1.110","","<img src=""img/purple-r.png"" border=""10"">","null","trial","null","","0.2,0.8","2:nogo_b","1",""
"null","","html-keyboard-response","552","165974904","0.0-6.0-2.110","","<div style=""font-size:60px;"">+</div>","null","","","","","","",""
"331.6399999856949","","image-keyboard-response","553","165975237","0.0-6.0-0.111","","img/orange.png","32","trial","32","true","0.8,0.2","3:go_c","",""
"null","","html-keyboard-response","554","165976253","0.0-6.0-1.111","","<img src=""img/orange-r.png"" border=""10"">","null","trial","32","","0.8,0.2","3:go_c","1",""
"null","","html-keyboard-response","555","165977264","0.0-6.0-2.111","","<div style=""font-size:60px;"">+</div>","null","","","","","","",""
"475.7800000309944","","image-keyboard-response","556","165977741","0.0-6.0-0.112","","img/red.png","32","trial","null","false","0.2,0.8","4:nogo_d","",""
"null","","html-keyboard-response","557","165978743","0.0-6.0-1.112","","<img src=""img/red-n.png"" border=""10"">","null","trial","null","","0.2,0.8","4:nogo_d","0",""
"null","","html-keyboard-response","558","165979745","0.0-6.0-2.112","","<div style=""font-size:60px;"">+</div>","null","","","","","","",""
"714.8200000226498","","image-keyboard-response","559","165980460","0.0-6.0-0.113","","img/purple.png","32","trial","null","false","0.2,0.8","2:nogo_b","",""
"null","","html-keyboard-response","560","165981475","0.0-6.0-1.113","","<img src=""img/purple-n.png"" border=""10"">","null","trial","null","","0.2,0.8","2:nogo_b","0",""
"null","","html-keyboard-response","561","165982489","0.0-6.0-2.113","","<div style=""font-size:60px;"">+</div>","null","","","","","","",""
"425.9050000011921","","image-keyboard-response","562","165982916","0.0-6.0-0.114","","img/orange.png","32","trial","32","true","0.8,0.2","3:go_c","",""
"null","","html-keyboard-response","563","165983919","0.0-6.0-1.114","","<img src=""img/orange-r.png"" border=""10"">","null","trial","32","","0.8,0.2","3:go_c","1",""
"null","","html-keyboard-response","564","165984932","0.0-6.0-2.114","","<div style=""font-size:60px;"">+</div>","null","","","","","","",""
"423.57499998807907","","image-keyboard-response","565","165985357","0.0-6.0-0.115","","img/green.png","32","trial","32","true","0.8,0.2","1:go_a","",""
"null","","html-keyboard-response","566","165986371","0.0-6.0-1.115","","<img src=""img/green-r.png"" border=""10"">","null","trial","32","","0.8,0.2","1:go_a","1",""
"null","","html-keyboard-response","567","165987373","0.0-6.0-2.115","","<div style=""font-size:60px;"">+</div>","null","","","","","","",""
"581.8700000047684","","image-keyboard-response","568","165987956","0.0-6.0-0.116","","img/purple.png","32","trial","null","false","0.2,0.8","2:nogo_b","",""
"null","","html-keyboard-response","569","165988960","0.0-6.0-1.116","","<img src=""img/purple-r.png"" border=""10"">","null","trial","null","","0.2,0.8","2:nogo_b","1",""
"null","","html-keyboard-response","570","165989965","0.0-6.0-2.116","","<div style=""font-size:60px;"">+</div>","null","","","","","","",""
"734.244999974966","","image-keyboard-response","571","165990700","0.0-6.0-0.117","","img/red.png","32","trial","null","false","0.2,0.8","4:nogo_d","",""
"null","","html-keyboard-response","572","165991713","0.0-6.0-1.117","","<img src=""img/red-r.png"" border=""10"">","null","trial","null","","0.2,0.8","4:nogo_d","1",""
"null","","html-keyboard-response","573","165992720","0.0-6.0-2.117","","<div style=""font-size:60px;"">+</div>","null","","","","","","",""
"683.8799999654293","","image-keyboard-response","574","165993404","0.0-6.0-0.118","","img/green.png","32","trial","32","true","0.8,0.2","1:go_a","",""
"null","","html-keyboard-response","575","165994422","0.0-6.0-1.118","","<img src=""img/green-r.png"" border=""10"">","null","trial","32","","0.8,0.2","1:go_a","1",""
"null","","html-keyboard-response","576","165995423","0.0-6.0-2.118","","<div style=""font-size:60px;"">+</div>","null","","","","","","",""
"516.0349999666214","","image-keyboard-response","577","165995940","0.0-6.0-0.119","","img/orange.png","32","trial","32","true","0.8,0.2","3:go_c","",""
"null","","html-keyboard-response","578","165996950","0.0-6.0-1.119","","<img src=""img/orange-r.png"" border=""10"">","null","trial","32","","0.8,0.2","3:go_c","1",""
"null","","html-keyboard-response","579","165997962","0.0-6.0-2.119","","<div style=""font-size:60px;"">+</div>","null","","","","","","",""
"3193.1700000464916","","instructions","580","166001156","0.0-7.0","[{""page_index"":0,""viewing_time"":3192.9749999940395}]","","","","","","","","",""
"null","","image-keyboard-response","581","166002660","0.0-8.0-0.0","","img/green.png","null","trial","32","false","0.8,0.2","1:go_a","",""
"null","","html-keyboard-response","582","166003677","0.0-8.0-1.0","","<img src=""img/green-n.png"">","null","trial","32","","0.8,0.2","1:go_a","0",""
"null","","html-keyboard-response","583","166004685","0.0-8.0-2.0","","<div style=""font-size:60px;"">+</div>","null","","","","","","",""
"613.755000025034","","image-keyboard-response","584","166005300","0.0-8.0-0.1","","img/orange.png","32","trial","null","false","0,1","4:nogo_d","",""
"null","","html-keyboard-response","585","166006305","0.0-8.0-1.1","","<img src=""img/orange-n.png"" border=""10"">","null","trial","null","","0,1","4:nogo_d","0",""
"null","","html-keyboard-response","586","166007321","0.0-8.0-2.1","","<div style=""font-size:60px;"">+</div>","null","","","","","","",""
"642.8199999928474","","image-keyboard-response","587","166007964","0.0-8.0-0.2","","img/grey.png","32","trial","32","true","1,0","3:go_c","",""
"null","","html-keyboard-response","588","166008969","0.0-8.0-1.2","","<img src=""img/grey-r.png"" border=""10"">","null","trial","32","","1,0","3:go_c","1",""
"null","","html-keyboard-response","589","166009974","0.0-8.0-2.2","","<div style=""font-size:60px;"">+</div>","null","","","","","","",""
"645.7999999821186","","image-keyboard-response","590","166010620","0.0-8.0-0.3","","img/pink.png","32","trial","null","false","0.2,0.8","2:nogo_b","",""
"null","","html-keyboard-response","591","166011624","0.0-8.0-1.3","","<img src=""img/pink-n.png"" border=""10"">","null","trial","null","","0.2,0.8","2:nogo_b","0",""
"null","","html-keyboard-response","592","166012628","0.0-8.0-2.3","","<div style=""font-size:60px;"">+</div>","null","","","","","","",""
"223.375","","image-keyboard-response","593","166012853","0.0-8.0-0.4","","img/green.png","32","trial","32","true","0.8,0.2","1:go_a","",""
"null","","html-keyboard-response","594","166013857","0.0-8.0-1.4","","<img src=""img/green-r.png"" border=""10"">","null","trial","32","","0.8,0.2","1:go_a","1",""
"null","","html-keyboard-response","595","166014863","0.0-8.0-2.4","","<div style=""font-size:60px;"">+</div>","null","","","","","","",""
"468.2199999690056","","image-keyboard-response","596","166015333","0.0-8.0-0.5","","img/pink.png","32","trial","null","false","0.2,0.8","2:nogo_b","",""
"null","","html-keyboard-response","597","166016340","0.0-8.0-1.5","","<img src=""img/pink-r.png"" border=""10"">","null","trial","null","","0.2,0.8","2:nogo_b","1",""
"null","","html-keyboard-response","598","166017356","0.0-8.0-2.5","","<div style=""font-size:60px;"">+</div>","null","","","","","","",""
"351.2999999821186","","image-keyboard-response","599","166017709","0.0-8.0-0.6","","img/grey.png","32","trial","32","true","1,0","3:go_c","",""
"null","","html-keyboard-response","600","166018721","0.0-8.0-1.6","","<img src=""img/grey-r.png"" border=""10"">","null","trial","32","","1,0","3:go_c","1",""
"null","","html-keyboard-response","601","166019736","0.0-8.0-2.6","","<div style=""font-size:60px;"">+</div>","null","","","","","","",""
"555.4950000345707","","image-keyboard-response","602","166020292","0.0-8.0-0.7","","img/orange.png","32","trial","null","false","0,1","4:nogo_d","",""
"null","","html-keyboard-response","603","166021296","0.0-8.0-1.7","","<img src=""img/orange-n.png"" border=""10"">","null","trial","null","","0,1","4:nogo_d","0",""
"null","","html-keyboard-response","604","166022306","0.0-8.0-2.7","","<div style=""font-size:60px;"">+</div>","null","","","","","","",""
"401.2999999523163","","image-keyboard-response","605","166022709","0.0-8.0-0.8","","img/pink.png","32","trial","null","false","0.2,0.8","2:nogo_b","",""
"null","","html-keyboard-response","606","166023717","0.0-8.0-1.8","","<img src=""img/pink-r.png"" border=""10"">","null","trial","null","","0.2,0.8","2:nogo_b","1",""
"null","","html-keyboard-response","607","166024733","0.0-8.0-2.8","","<div style=""font-size:60px;"">+</div>","null","","","","","","",""
"302.59500002861023","","image-keyboard-response","608","166025036","0.0-8.0-0.9","","img/green.png","32","trial","32","true","0.8,0.2","1:go_a","",""
"null","","html-keyboard-response","609","166026044","0.0-8.0-1.9","","<img src=""img/green-r.png"" border=""10"">","null","trial","32","","0.8,0.2","1:go_a","1",""
"null","","html-keyboard-response","610","166027057","0.0-8.0-2.9","","<div style=""font-size:60px;"">+</div>","null","","","","","","",""
"10.030000030994415","","image-keyboard-response","611","166027068","0.0-8.0-0.10","","img/grey.png","32","trial","32","true","1,0","3:go_c","",""
"null","","html-keyboard-response","612","166028084","0.0-8.0-1.10","","<img src=""img/grey-r.png"" border=""10"">","null","trial","32","","1,0","3:go_c","1",""
"null","","html-keyboard-response","613","166029093","0.0-8.0-2.10","","<div style=""font-size:60px;"">+</div>","null","","","","","","",""
"407.0549999475479","","image-keyboard-response","614","166029501","0.0-8.0-0.11","","img/orange.png","32","trial","null","false","0,1","4:nogo_d","",""
"null","","html-keyboard-response","615","166030505","0.0-8.0-1.11","","<img src=""img/orange-n.png"" border=""10"">","null","trial","null","","0,1","4:nogo_d","0",""
"null","","html-keyboard-response","616","166031510","0.0-8.0-2.11","","<div style=""font-size:60px;"">+</div>","null","","","","","","",""
"533.3499999940395","","image-keyboard-response","617","166032045","0.0-8.0-0.12","","img/pink.png","32","trial","null","false","0.2,0.8","2:nogo_b","",""
"null","","html-keyboard-response","618","166033056","0.0-8.0-1.12","","<img src=""img/pink-n.png"" border=""10"">","null","trial","null","","0.2,0.8","2:nogo_b","0",""
"null","","html-keyboard-response","619","166034069","0.0-8.0-2.12","","<div style=""font-size:60px;"">+</div>","null","","","","","","",""
"454.36999997496605","","image-keyboard-response","620","166034525","0.0-8.0-0.13","","img/grey.png","32","trial","32","true","1,0","3:go_c","",""
"null","","html-keyboard-response","621","166035528","0.0-8.0-1.13","","<img src=""img/grey-r.png"" border=""10"">","null","trial","32","","1,0","3:go_c","1",""
"null","","html-keyboard-response","622","166036542","0.0-8.0-2.13","","<div style=""font-size:60px;"">+</div>","null","","","","","","",""
"413.3349999785423","","image-keyboard-response","623","166036957","0.0-8.0-0.14","","img/orange.png","32","trial","null","false","0,1","4:nogo_d","",""
"null","","html-keyboard-response","624","166037971","0.0-8.0-1.14","","<img src=""img/orange-n.png"" border=""10"">","null","trial","null","","0,1","4:nogo_d","0",""
"null","","html-keyboard-response","625","166038985","0.0-8.0-2.14","","<div style=""font-size:60px;"">+</div>","null","","","","","","",""
"530.5650000274181","","image-keyboard-response","626","166039516","0.0-8.0-0.15","","img/green.png","32","trial","32","true","0.8,0.2","1:go_a","",""
"null","","html-keyboard-response","627","166040524","0.0-8.0-1.15","","<img src=""img/green-n.png"" border=""10"">","null","trial","32","","0.8,0.2","1:go_a","0",""
"null","","html-keyboard-response","628","166041535","0.0-8.0-2.15","","<div style=""font-size:60px;"">+</div>","null","","","","","","",""
"645.7250000238419","","image-keyboard-response","629","166042181","0.0-8.0-0.16","","img/pink.png","32","trial","null","false","0.2,0.8","2:nogo_b","",""
"null","","html-keyboard-response","630","166043183","0.0-8.0-1.16","","<img src=""img/pink-n.png"" border=""10"">","null","trial","null","","0.2,0.8","2:nogo_b","0",""
"null","","html-keyboard-response","631","166044196","0.0-8.0-2.16","","<div style=""font-size:60px;"">+</div>","null","","","","","","",""
"31.694999992847443","","image-keyboard-response","632","166044229","0.0-8.0-0.17","","img/orange.png","32","trial","null","false","0,1","4:nogo_d","",""
"null","","html-keyboard-response","633","166045232","0.0-8.0-1.17","","<img src=""img/orange-n.png"" border=""10"">","null","trial","null","","0,1","4:nogo_d","0",""
"null","","html-keyboard-response","634","166046241","0.0-8.0-2.17","","<div style=""font-size:60px;"">+</div>","null","","","","","","",""
"667.2299999594688","","image-keyboard-response","635","166046909","0.0-8.0-0.18","","img/grey.png","32","trial","32","true","1,0","3:go_c","",""
"null","","html-keyboard-response","636","166047913","0.0-8.0-1.18","","<img src=""img/grey-r.png"" border=""10"">","null","trial","32","","1,0","3:go_c","1",""
"null","","html-keyboard-response","637","166048927","0.0-8.0-2.18","","<div style=""font-size:60px;"">+</div>","null","","","","","","",""
"173.28000006079674","","image-keyboard-response","638","166049101","0.0-8.0-0.19","","img/green.png","32","trial","32","true","0.8,0.2","1:go_a","",""
"null","","html-keyboard-response","639","166050107","0.0-8.0-1.19","","<img src=""img/green-r.png"" border=""10"">","null","trial","32","","0.8,0.2","1:go_a","1",""
"null","","html-keyboard-response","640","166051111","0.0-8.0-2.19","","<div style=""font-size:60px;"">+</div>","null","","","","","","",""
"180.89500001072884","","image-keyboard-response","641","166051292","0.0-8.0-0.20","","img/pink.png","32","trial","null","false","0.2,0.8","2:nogo_b","",""
"null","","html-keyboard-response","642","166052296","0.0-8.0-1.20","","<img src=""img/pink-r.png"" border=""10"">","null","trial","null","","0.2,0.8","2:nogo_b","1",""
"null","","html-keyboard-response","643","166053301","0.0-8.0-2.20","","<div style=""font-size:60px;"">+</div>","null","","","","","","",""
"590.2049999535084","","image-keyboard-response","644","166053892","0.0-8.0-0.21","","img/orange.png","32","trial","null","false","0,1","4:nogo_d","",""
"null","","html-keyboard-response","645","166054905","0.0-8.0-1.21","","<img src=""img/orange-n.png"" border=""10"">","null","trial","null","","0,1","4:nogo_d","0",""
"null","","html-keyboard-response","646","166055908","0.0-8.0-2.21","","<div style=""font-size:60px;"">+</div>","null","","","","","","",""
"543.0650000274181","","image-keyboard-response","647","166056452","0.0-8.0-0.22","","img/grey.png","32","trial","32","true","1,0","3:go_c","",""
"null","","html-keyboard-response","648","166057469","0.0-8.0-1.22","","<img src=""img/grey-r.png"" border=""10"">","null","trial","32","","1,0","3:go_c","1",""
"null","","html-keyboard-response","649","166058481","0.0-8.0-2.22","","<div style=""font-size:60px;"">+</div>","null","","","","","","",""
"98.60500001907349","","image-keyboard-response","650","166058581","0.0-8.0-0.23","","img/green.png","32","trial","32","true","0.8,0.2","1:go_a","",""
"null","","html-keyboard-response","651","166059586","0.0-8.0-1.23","","<img src=""img/green-r.png"" border=""10"">","null","trial","32","","0.8,0.2","1:go_a","1",""
"null","","html-keyboard-response","652","166060597","0.0-8.0-2.23","","<div style=""font-size:60px;"">+</div>","null","","","","","","",""
