"rt","url","trial_type","trial_index","time_elapsed","internal_node_id","view_history","stimulus","key_press","test_part","correct_response","correct","use_rew","which_stim","reward","responses"
"5992.199999978766","consent.html","external-html","0","6101","0.0-0.0","","","","","","","","","",""
"38475.609999964945","","instructions","1","44578","0.0-1.0","[{""page_index"":0,""viewing_time"":2263.8399999705143},{""page_index"":1,""viewing_time"":7230.229999986477},{""page_index"":2,""viewing_time"":8482.030000013765},{""page_index"":3,""viewing_time"":4106.290000025183},{""page_index"":4,""viewing_time"":5040.289999975357},{""page_index"":5,""viewing_time"":2046.3200000231154},{""page_index"":6,""viewing_time"":9305.534999992233}]","","","","","","","","",""
"null","","image-keyboard-response","2","46094","0.0-2.0-0.0","","img/test1.PNG","null","practice","32","false","","","",""
"null","","html-keyboard-response","3","47110","0.0-2.0-1.0","","<img src=""img/test1-neutral.PNG"">","null","","","","","","",""
"null","","html-keyboard-response","4","48112","0.0-2.0-2.0","","<div style=""font-size:60px;"">+</div>","null","","","","","","",""
"null","","image-keyboard-response","5","49615","0.0-2.0-0.1","","img/test2.PNG","null","practice","null","true","","","",""
"null","","html-keyboard-response","6","50617","0.0-2.0-1.1","","<img src=""img/test2-reward.PNG"">","null","","","","","","",""
"null","","html-keyboard-response","7","51625","0.0-2.0-2.1","","<div style=""font-size:60px;"">+</div>","null","","","","","","",""
"1002.3950000177138","","image-keyboard-response","8","52629","0.0-2.0-0.2","","img/test3.PNG","32","practice","null","false","","","",""
"null","","html-keyboard-response","9","53636","0.0-2.0-1.2","","<img src=""img/test3-neutral.PNG"" border=""10px; grey"">","null","","","","","","",""
"null","","html-keyboard-response","10","54637","0.0-2.0-2.2","","<div style=""font-size:60px;"">+</div>","null","","","","","","",""
"null","","image-keyboard-response","11","56140","0.0-2.0-0.3","","img/test1.PNG","null","practice","32","false","","","",""
"null","","html-keyboard-response","12","57145","0.0-2.0-1.3","","<img src=""img/test1-neutral.PNG"">","null","","","","","","",""
"null","","html-keyboard-response","13","58147","0.0-2.0-2.3","","<div style=""font-size:60px;"">+</div>","null","","","","","","",""
"null","","image-keyboard-response","14","59661","0.0-2.0-0.4","","img/test2.PNG","null","practice","null","true","","","",""
"null","","html-keyboard-response","15","60664","0.0-2.0-1.4","","<img src=""img/test2-reward.PNG"">","null","","","","","","",""
"null","","html-keyboard-response","16","61673","0.0-2.0-2.4","","<div style=""font-size:60px;"">+</div>","null","","","","","","",""
"null","","image-keyboard-response","17","63181","0.0-2.0-0.5","","img/test3.PNG","null","practice","null","true","","","",""
"null","","html-keyboard-response","18","64184","0.0-2.0-1.5","","<img src=""img/test3-reward.PNG"">","null","","","","","","",""
"null","","html-keyboard-response","19","65191","0.0-2.0-2.5","","<div style=""font-size:60px;"">+</div>","null","","","","","","",""
"null","","image-keyboard-response","20","66698","0.0-2.0-0.6","","img/test2.PNG","null","practice","null","true","","","",""
"null","","html-keyboard-response","21","67700","0.0-2.0-1.6","","<img src=""img/test2-reward.PNG"">","null","","","","","","",""
"null","","html-keyboard-response","22","68717","0.0-2.0-2.6","","<div style=""font-size:60px;"">+</div>","null","","","","","","",""
"null","","image-keyboard-response","23","70231","0.0-2.0-0.7","","img/test1.PNG","null","practice","32","false","","","",""
"null","","html-keyboard-response","24","71233","0.0-2.0-1.7","","<img src=""img/test1-neutral.PNG"">","null","","","","","","",""
"null","","html-keyboard-response","25","72240","0.0-2.0-2.7","","<div style=""font-size:60px;"">+</div>","null","","","","","","",""
"null","","image-keyboard-response","26","73743","0.0-2.0-0.8","","img/test3.PNG","null","practice","null","true","","","",""
"null","","html-keyboard-response","27","74757","0.0-2.0-1.8","","<img src=""img/test3-reward.PNG"">","null","","","","","","",""
"null","","html-keyboard-response","28","75758","0.0-2.0-2.8","","<div style=""font-size:60px;"">+</div>","null","","","","","","",""
"null","","image-keyboard-response","29","77260","0.0-2.0-0.9","","img/test1.PNG","null","practice","32","false","","","",""
"null","","html-keyboard-response","30","78275","0.0-2.0-1.9","","<img src=""img/test1-neutral.PNG"">","null","","","","","","",""
"null","","html-keyboard-response","31","79277","0.0-2.0-2.9","","<div style=""font-size:60px;"">+</div>","null","","","","","","",""
"null","","image-keyboard-response","32","80785","0.0-2.0-0.10","","img/test3.PNG","null","practice","null","true","","","",""
"null","","html-keyboard-response","33","81792","0.0-2.0-1.10","","<img src=""img/test3-reward.PNG"">","null","","","","","","",""
"null","","html-keyboard-response","34","82807","0.0-2.0-2.10","","<div style=""font-size:60px;"">+</div>","null","","","","","","",""
"null","","image-keyboard-response","35","84319","0.0-2.0-0.11","","img/test2.PNG","null","practice","null","true","","","",""
"null","","html-keyboard-response","36","85325","0.0-2.0-1.11","","<img src=""img/test2-reward.PNG"">","null","","","","","","",""
"null","","html-keyboard-response","37","86339","0.0-2.0-2.11","","<div style=""font-size:60px;"">+</div>","null","","","","","","",""
"4482.004999998026","","instructions","38","90821","0.0-3.0","[{""page_index"":0,""viewing_time"":4481.599999999162}]","","","","","","","","",""
"null","","image-keyboard-response","39","92333","0.0-4.0-0.0","","img/red.png","null","trial","32","false","0.8,0.2","1:go_a","",""
"null","","html-keyboard-response","40","93337","0.0-4.0-1.0","","<img src=""img/red-n.png"">","null","trial","32","","0.8,0.2","1:go_a","0",""
"null","","html-keyboard-response","41","94346","0.0-4.0-2.0","","<div style=""font-size:60px;"">+</div>","null","","","","","","",""
"1166.4549999986775","","image-keyboard-response","42","95513","0.0-4.0-0.1","","img/orange.png","32","trial","null","false","0.2,0.8","2:nogo_b","",""
"null","","html-keyboard-response","43","96519","0.0-4.0-1.1","","<img src=""img/orange-n.png"" border=""10"">","null","trial","null","","0.2,0.8","2:nogo_b","0",""
"null","","html-keyboard-response","44","97521","0.0-4.0-2.1","","<div style=""font-size:60px;"">+</div>","null","","","","","","",""
"1298.9599999855272","","image-keyboard-response","45","98821","0.0-4.0-0.2","","img/red.png","32","trial","32","true","0.8,0.2","1:go_a","",""
"null","","html-keyboard-response","46","99828","0.0-4.0-1.2","","<img src=""img/red-r.png"" border=""10"">","null","trial","32","","0.8,0.2","1:go_a","1",""
"null","","html-keyboard-response","47","100840","0.0-4.0-2.2","","<div style=""font-size:60px;"">+</div>","null","","","","","","",""
"null","","image-keyboard-response","48","102349","0.0-4.0-0.3","","img/orange.png","null","trial","null","true","0.2,0.8","2:nogo_b","",""
"null","","html-keyboard-response","49","103351","0.0-4.0-1.3","","<img src=""img/orange-r.png"">","null","trial","null","","0.2,0.8","2:nogo_b","1",""
"null","","html-keyboard-response","50","104359","0.0-4.0-2.3","","<div style=""font-size:60px;"">+</div>","null","","","","","","",""
"null","","image-keyboard-response","51","105862","0.0-4.0-0.4","","img/orange.png","null","trial","null","true","0.2,0.8","2:nogo_b","",""
"null","","html-keyboard-response","52","106874","0.0-4.0-1.4","","<img src=""img/orange-r.png"">","null","trial","null","","0.2,0.8","2:nogo_b","1",""
"null","","html-keyboard-response","53","107880","0.0-4.0-2.4","","<div style=""font-size:60px;"">+</div>","null","","","","","","",""
"null","","image-keyboard-response","54","109382","0.0-4.0-0.5","","img/red.png","null","trial","32","false","0.8,0.2","1:go_a","",""
"null","","html-keyboard-response","55","110391","0.0-4.0-1.5","","<img src=""img/red-n.png"">","null","trial","32","","0.8,0.2","1:go_a","0",""
"null","","html-keyboard-response","56","111408","0.0-4.0-2.5","","<div style=""font-size:60px;"">+</div>","null","","","","","","",""
"null","","image-keyboard-response","57","112910","0.0-4.0-0.6","","img/orange.png","null","trial","null","true","0.2,0.8","2:nogo_b","",""
"null","","html-keyboard-response","58","113915","0.0-4.0-1.6","","<img src=""img/orange-r.png"">","null","trial","null","","0.2,0.8","2:nogo_b","1",""
"null","","html-keyboard-response","59","114926","0.0-4.0-2.6","","<div style=""font-size:60px;"">+</div>","null","","","","","","",""
"null","","image-keyboard-response","60","116443","0.0-4.0-0.7","","img/red.png","null","trial","32","false","0.8,0.2","1:go_a","",""
"null","","html-keyboard-response","61","117446","0.0-4.0-1.7","","<img src=""img/red-n.png"">","null","trial","32","","0.8,0.2","1:go_a","0",""
"null","","html-keyboard-response","62","118450","0.0-4.0-2.7","","<div style=""font-size:60px;"">+</div>","null","","","","","","",""
"null","","image-keyboard-response","63","119953","0.0-4.0-0.8","","img/red.png","null","trial","32","false","0.8,0.2","1:go_a","",""
"null","","html-keyboard-response","64","120955","0.0-4.0-1.8","","<img src=""img/red-n.png"">","null","trial","32","","0.8,0.2","1:go_a","0",""
"null","","html-keyboard-response","65","121960","0.0-4.0-2.8","","<div style=""font-size:60px;"">+</div>","null","","","","","","",""
"null","","image-keyboard-response","66","123470","0.0-4.0-0.9","","img/orange.png","null","trial","null","true","0.2,0.8","2:nogo_b","",""
"null","","html-keyboard-response","67","124478","0.0-4.0-1.9","","<img src=""img/orange-r.png"">","null","trial","null","","0.2,0.8","2:nogo_b","1",""
"null","","html-keyboard-response","68","125486","0.0-4.0-2.9","","<div style=""font-size:60px;"">+</div>","null","","","","","","",""
"null","","image-keyboard-response","69","126993","0.0-4.0-0.10","","img/orange.png","null","trial","null","true","0.2,0.8","2:nogo_b","",""
"null","","html-keyboard-response","70","128010","0.0-4.0-1.10","","<img src=""img/orange-r.png"">","null","trial","null","","0.2,0.8","2:nogo_b","1",""
"null","","html-keyboard-response","71","129020","0.0-4.0-2.10","","<div style=""font-size:60px;"">+</div>","null","","","","","","",""
"null","","image-keyboard-response","72","130530","0.0-4.0-0.11","","img/red.png","null","trial","32","false","0.8,0.2","1:go_a","",""
"null","","html-keyboard-response","73","131541","0.0-4.0-1.11","","<img src=""img/red-r.png"">","null","trial","32","","0.8,0.2","1:go_a","1",""
"null","","html-keyboard-response","74","132549","0.0-4.0-2.11","","<div style=""font-size:60px;"">+</div>","null","","","","","","",""
"null","","image-keyboard-response","75","134050","0.0-4.0-0.12","","img/red.png","null","trial","32","false","0.8,0.2","1:go_a","",""
"null","","html-keyboard-response","76","135052","0.0-4.0-1.12","","<img src=""img/red-n.png"">","null","trial","32","","0.8,0.2","1:go_a","0",""
"null","","html-keyboard-response","77","136061","0.0-4.0-2.12","","<div style=""font-size:60px;"">+</div>","null","","","","","","",""
"null","","image-keyboard-response","78","137566","0.0-4.0-0.13","","img/orange.png","null","trial","null","true","0.2,0.8","2:nogo_b","",""
"null","","html-keyboard-response","79","138570","0.0-4.0-1.13","","<img src=""img/orange-r.png"">","null","trial","null","","0.2,0.8","2:nogo_b","1",""
"null","","html-keyboard-response","80","139573","0.0-4.0-2.13","","<div style=""font-size:60px;"">+</div>","null","","","","","","",""
"null","","image-keyboard-response","81","141077","0.0-4.0-0.14","","img/red.png","null","trial","32","false","0.8,0.2","1:go_a","",""
"null","","html-keyboard-response","82","142079","0.0-4.0-1.14","","<img src=""img/red-n.png"">","null","trial","32","","0.8,0.2","1:go_a","0",""
"null","","html-keyboard-response","83","143087","0.0-4.0-2.14","","<div style=""font-size:60px;"">+</div>","null","","","","","","",""
"null","","image-keyboard-response","84","144590","0.0-4.0-0.15","","img/orange.png","null","trial","null","true","0.2,0.8","2:nogo_b","",""
"null","","html-keyboard-response","85","145603","0.0-4.0-1.15","","<img src=""img/orange-r.png"">","null","trial","null","","0.2,0.8","2:nogo_b","1",""
"null","","html-keyboard-response","86","146604","0.0-4.0-2.15","","<div style=""font-size:60px;"">+</div>","null","","","","","","",""
"null","","image-keyboard-response","87","148106","0.0-4.0-0.16","","img/red.png","null","trial","32","false","0.8,0.2","1:go_a","",""
"null","","html-keyboard-response","88","149121","0.0-4.0-1.16","","<img src=""img/red-n.png"">","null","trial","32","","0.8,0.2","1:go_a","0",""
"null","","html-keyboard-response","89","150128","0.0-4.0-2.16","","<div style=""font-size:60px;"">+</div>","null","","","","","","",""
"665.500000002794","","image-keyboard-response","90","150795","0.0-4.0-0.17","","img/orange.png","32","trial","null","false","0.2,0.8","2:nogo_b","",""
"null","","html-keyboard-response","91","151805","0.0-4.0-1.17","","<img src=""img/orange-n.png"" border=""10"">","null","trial","null","","0.2,0.8","2:nogo_b","0",""
"null","","html-keyboard-response","92","152811","0.0-4.0-2.17","","<div style=""font-size:60px;"">+</div>","null","","","","","","",""
"null","","image-keyboard-response","93","154313","0.0-4.0-0.18","","img/orange.png","null","trial","null","true","0.2,0.8","2:nogo_b","",""
"null","","html-keyboard-response","94","155318","0.0-4.0-1.18","","<img src=""img/orange-n.png"">","null","trial","null","","0.2,0.8","2:nogo_b","0",""
"null","","html-keyboard-response","95","156319","0.0-4.0-2.18","","<div style=""font-size:60px;"">+</div>","null","","","","","","",""
"596.5049999649636","","image-keyboard-response","96","156917","0.0-4.0-0.19","","img/red.png","32","trial","32","true","0.8,0.2","1:go_a","",""
"null","","html-keyboard-response","97","157919","0.0-4.0-1.19","","<img src=""img/red-r.png"" border=""10"">","null","trial","32","","0.8,0.2","1:go_a","1",""
"null","","html-keyboard-response","98","158936","0.0-4.0-2.19","","<div style=""font-size:60px;"">+</div>","null","","","","","","",""
"634.7599999862723","","image-keyboard-response","99","159572","0.0-4.0-0.20","","img/red.png","32","trial","32","true","0.8,0.2","1:go_a","",""
"null","","html-keyboard-response","100","160581","0.0-4.0-1.20","","<img src=""img/red-n.png"" border=""10"">","null","trial","32","","0.8,0.2","1:go_a","0",""
"null","","html-keyboard-response","101","161594","0.0-4.0-2.20","","<div style=""font-size:60px;"">+</div>","null","","","","","","",""
"568.0450000218116","","image-keyboard-response","102","162162","0.0-4.0-0.21","","img/orange.png","32","trial","null","false","0.2,0.8","2:nogo_b","",""
"null","","html-keyboard-response","103","163172","0.0-4.0-1.21","","<img src=""img/orange-r.png"" border=""10"">","null","trial","null","","0.2,0.8","2:nogo_b","1",""
"null","","html-keyboard-response","104","164175","0.0-4.0-2.21","","<div style=""font-size:60px;"">+</div>","null","","","","","","",""
"1055.960000026971","","image-keyboard-response","105","165234","0.0-4.0-0.22","","img/red.png","32","trial","32","true","0.8,0.2","1:go_a","",""
"null","","html-keyboard-response","106","166238","0.0-4.0-1.22","","<img src=""img/red-r.png"" border=""10"">","null","trial","32","","0.8,0.2","1:go_a","1",""
"null","","html-keyboard-response","107","167254","0.0-4.0-2.22","","<div style=""font-size:60px;"">+</div>","null","","","","","","",""
"null","","image-keyboard-response","108","168756","0.0-4.0-0.23","","img/orange.png","null","trial","null","true","0.2,0.8","2:nogo_b","",""
"null","","html-keyboard-response","109","169766","0.0-4.0-1.23","","<img src=""img/orange-r.png"">","null","trial","null","","0.2,0.8","2:nogo_b","1",""
"null","","html-keyboard-response","110","170768","0.0-4.0-2.23","","<div style=""font-size:60px;"">+</div>","null","","","","","","",""
"498.2750000199303","","image-keyboard-response","111","171267","0.0-4.0-0.24","","img/red.png","32","trial","32","true","0.8,0.2","1:go_a","",""
"null","","html-keyboard-response","112","172284","0.0-4.0-1.24","","<img src=""img/red-r.png"" border=""10"">","null","trial","32","","0.8,0.2","1:go_a","1",""
"null","","html-keyboard-response","113","173290","0.0-4.0-2.24","","<div style=""font-size:60px;"">+</div>","null","","","","","","",""
"162.5099999946542","","image-keyboard-response","114","173454","0.0-4.0-0.25","","img/orange.png","32","trial","null","false","0.2,0.8","2:nogo_b","",""
"null","","html-keyboard-response","115","174460","0.0-4.0-1.25","","<img src=""img/orange-n.png"" border=""10"">","null","trial","null","","0.2,0.8","2:nogo_b","0",""
"null","","html-keyboard-response","116","175466","0.0-4.0-2.25","","<div style=""font-size:60px;"">+</div>","null","","","","","","",""
"null","","image-keyboard-response","117","176981","0.0-4.0-0.26","","img/orange.png","null","trial","null","true","0.2,0.8","2:nogo_b","",""
"null","","html-keyboard-response","118","177985","0.0-4.0-1.26","","<img src=""img/orange-n.png"">","null","trial","null","","0.2,0.8","2:nogo_b","0",""
"null","","html-keyboard-response","119","178993","0.0-4.0-2.26","","<div style=""font-size:60px;"">+</div>","null","","","","","","",""
"613.9449999900535","","image-keyboard-response","120","179608","0.0-4.0-0.27","","img/red.png","32","trial","32","true","0.8,0.2","1:go_a","",""
"null","","html-keyboard-response","121","180610","0.0-4.0-1.27","","<img src=""img/red-r.png"" border=""10"">","null","trial","32","","0.8,0.2","1:go_a","1",""
"null","","html-keyboard-response","122","181620","0.0-4.0-2.27","","<div style=""font-size:60px;"">+</div>","null","","","","","","",""
"null","","image-keyboard-response","123","183137","0.0-4.0-0.28","","img/orange.png","null","trial","null","true","0.2,0.8","2:nogo_b","",""
"null","","html-keyboard-response","124","184139","0.0-4.0-1.28","","<img src=""img/orange-r.png"">","null","trial","null","","0.2,0.8","2:nogo_b","1",""
"null","","html-keyboard-response","125","185144","0.0-4.0-2.28","","<div style=""font-size:60px;"">+</div>","null","","","","","","",""
"null","","image-keyboard-response","126","186648","0.0-4.0-0.29","","img/red.png","null","trial","32","false","0.8,0.2","1:go_a","",""
"null","","html-keyboard-response","127","187651","0.0-4.0-1.29","","<img src=""img/red-n.png"">","null","trial","32","","0.8,0.2","1:go_a","0",""
"null","","html-keyboard-response","128","188653","0.0-4.0-2.29","","<div style=""font-size:60px;"">+</div>","null","","","","","","",""
"847.635000012815","","image-keyboard-response","129","189502","0.0-4.0-0.30","","img/orange.png","32","trial","null","false","0.2,0.8","2:nogo_b","",""
"null","","html-keyboard-response","130","190513","0.0-4.0-1.30","","<img src=""img/orange-n.png"" border=""10"">","null","trial","null","","0.2,0.8","2:nogo_b","0",""
"null","","html-keyboard-response","131","191520","0.0-4.0-2.30","","<div style=""font-size:60px;"">+</div>","null","","","","","","",""
"1084.659999993164","","image-keyboard-response","132","192605","0.0-4.0-0.31","","img/red.png","32","trial","32","true","0.8,0.2","1:go_a","",""
"null","","html-keyboard-response","133","193617","0.0-4.0-1.31","","<img src=""img/red-r.png"" border=""10"">","null","trial","32","","0.8,0.2","1:go_a","1",""
"null","","html-keyboard-response","134","194629","0.0-4.0-2.31","","<div style=""font-size:60px;"">+</div>","null","","","","","","",""
"676.5700000105426","","image-keyboard-response","135","195307","0.0-4.0-0.32","","img/orange.png","32","trial","null","false","0.2,0.8","2:nogo_b","",""
"null","","html-keyboard-response","136","196310","0.0-4.0-1.32","","<img src=""img/orange-r.png"" border=""10"">","null","trial","null","","0.2,0.8","2:nogo_b","1",""
"null","","html-keyboard-response","137","197324","0.0-4.0-2.32","","<div style=""font-size:60px;"">+</div>","null","","","","","","",""
"627.5899999891408","","image-keyboard-response","138","197952","0.0-4.0-0.33","","img/red.png","32","trial","32","true","0.8,0.2","1:go_a","",""
"null","","html-keyboard-response","139","198964","0.0-4.0-1.33","","<img src=""img/red-r.png"" border=""10"">","null","trial","32","","0.8,0.2","1:go_a","1",""
"null","","html-keyboard-response","140","199966","0.0-4.0-2.33","","<div style=""font-size:60px;"">+</div>","null","","","","","","",""
"599.1250000079162","","image-keyboard-response","141","200566","0.0-4.0-0.34","","img/red.png","32","trial","32","true","0.8,0.2","1:go_a","",""
"null","","html-keyboard-response","142","201575","0.0-4.0-1.34","","<img src=""img/red-r.png"" border=""10"">","null","trial","32","","0.8,0.2","1:go_a","1",""
"null","","html-keyboard-response","143","202578","0.0-4.0-2.34","","<div style=""font-size:60px;"">+</div>","null","","","","","","",""
"952.2850000066683","","image-keyboard-response","144","203531","0.0-4.0-0.35","","img/orange.png","32","trial","null","false","0.2,0.8","2:nogo_b","",""
"null","","html-keyboard-response","145","204536","0.0-4.0-1.35","","<img src=""img/orange-n.png"" border=""10"">","null","trial","null","","0.2,0.8","2:nogo_b","0",""
"null","","html-keyboard-response","146","205543","0.0-4.0-2.35","","<div style=""font-size:60px;"">+</div>","null","","","","","","",""
"666.4549999986775","","image-keyboard-response","147","206210","0.0-4.0-0.36","","img/red.png","32","trial","32","true","0.8,0.2","1:go_a","",""
"null","","html-keyboard-response","148","207222","0.0-4.0-1.36","","<img src=""img/red-r.png"" border=""10"">","null","trial","32","","0.8,0.2","1:go_a","1",""
"null","","html-keyboard-response","149","208229","0.0-4.0-2.36","","<div style=""font-size:60px;"">+</div>","null","","","","","","",""
"692.5349999801256","","image-keyboard-response","150","208923","0.0-4.0-0.37","","img/orange.png","32","trial","null","false","0.2,0.8","2:nogo_b","",""
"null","","html-keyboard-response","151","209925","0.0-4.0-1.37","","<img src=""img/orange-n.png"" border=""10"">","null","trial","null","","0.2,0.8","2:nogo_b","0",""
"null","","html-keyboard-response","152","210940","0.0-4.0-2.37","","<div style=""font-size:60px;"">+</div>","null","","","","","","",""
"null","","image-keyboard-response","153","212870","0.0-4.0-0.38","","img/orange.png","null","trial","null","true","0.2,0.8","2:nogo_b","",""
"null","","html-keyboard-response","154","214864","0.0-4.0-1.38","","<img src=""img/orange-r.png"">","null","trial","null","","0.2,0.8","2:nogo_b","1",""
"null","","html-keyboard-response","155","215876","0.0-4.0-2.38","","<div style=""font-size:60px;"">+</div>","null","","","","","","",""
"768.8649999909103","","image-keyboard-response","156","216646","0.0-4.0-0.39","","img/red.png","32","trial","32","true","0.8,0.2","1:go_a","",""
"null","","html-keyboard-response","157","217650","0.0-4.0-1.39","","<img src=""img/red-r.png"" border=""10"">","null","trial","32","","0.8,0.2","1:go_a","1",""
"null","","html-keyboard-response","158","218652","0.0-4.0-2.39","","<div style=""font-size:60px;"">+</div>","null","","","","","","",""
"null","","image-keyboard-response","159","220168","0.0-4.0-0.40","","img/red.png","null","trial","32","false","0.8,0.2","1:go_a","",""
"null","","html-keyboard-response","160","221171","0.0-4.0-1.40","","<img src=""img/red-n.png"">","null","trial","32","","0.8,0.2","1:go_a","0",""
"null","","html-keyboard-response","161","222173","0.0-4.0-2.40","","<div style=""font-size:60px;"">+</div>","null","","","","","","",""
"null","","image-keyboard-response","162","223690","0.0-4.0-0.41","","img/orange.png","null","trial","null","true","0.2,0.8","2:nogo_b","",""
"null","","html-keyboard-response","163","224703","0.0-4.0-1.41","","<img src=""img/orange-n.png"">","null","trial","null","","0.2,0.8","2:nogo_b","0",""
"null","","html-keyboard-response","164","225713","0.0-4.0-2.41","","<div style=""font-size:60px;"">+</div>","null","","","","","","",""
"673.0399999651127","","image-keyboard-response","165","226387","0.0-4.0-0.42","","img/orange.png","32","trial","null","false","0.2,0.8","2:nogo_b","",""
"null","","html-keyboard-response","166","227398","0.0-4.0-1.42","","<img src=""img/orange-n.png"" border=""10"">","null","trial","null","","0.2,0.8","2:nogo_b","0",""
"null","","html-keyboard-response","167","228409","0.0-4.0-2.42","","<div style=""font-size:60px;"">+</div>","null","","","","","","",""
"1209.2999999877065","","image-keyboard-response","168","229619","0.0-4.0-0.43","","img/red.png","32","trial","32","true","0.8,0.2","1:go_a","",""
"null","","html-keyboard-response","169","230621","0.0-4.0-1.43","","<img src=""img/red-r.png"" border=""10"">","null","trial","32","","0.8,0.2","1:go_a","1",""
"null","","html-keyboard-response","170","231632","0.0-4.0-2.43","","<div style=""font-size:60px;"">+</div>","null","","","","","","",""
"1047.744999988936","","image-keyboard-response","171","232681","0.0-4.0-0.44","","img/red.png","32","trial","32","true","0.8,0.2","1:go_a","",""
"null","","html-keyboard-response","172","233687","0.0-4.0-1.44","","<img src=""img/red-r.png"" border=""10"">","null","trial","32","","0.8,0.2","1:go_a","1",""
"null","","html-keyboard-response","173","234694","0.0-4.0-2.44","","<div style=""font-size:60px;"">+</div>","null","","","","","","",""
"769.9700000230223","","image-keyboard-response","174","235465","0.0-4.0-0.45","","img/orange.png","32","trial","null","false","0.2,0.8","2:nogo_b","",""
"null","","html-keyboard-response","175","236467","0.0-4.0-1.45","","<img src=""img/orange-n.png"" border=""10"">","null","trial","null","","0.2,0.8","2:nogo_b","0",""
"null","","html-keyboard-response","176","237474","0.0-4.0-2.45","","<div style=""font-size:60px;"">+</div>","null","","","","","","",""
"679.8249999992549","","image-keyboard-response","177","238155","0.0-4.0-0.46","","img/red.png","32","trial","32","true","0.8,0.2","1:go_a","",""
"null","","html-keyboard-response","178","239161","0.0-4.0-1.46","","<img src=""img/red-n.png"" border=""10"">","null","trial","32","","0.8,0.2","1:go_a","0",""
"null","","html-keyboard-response","179","240163","0.0-4.0-2.46","","<div style=""font-size:60px;"">+</div>","null","","","","","","",""
"820.1099999714643","","image-keyboard-response","180","240984","0.0-4.0-0.47","","img/orange.png","32","trial","null","false","0.2,0.8","2:nogo_b","",""
"null","","html-keyboard-response","181","241996","0.0-4.0-1.47","","<img src=""img/orange-n.png"" border=""10"">","null","trial","null","","0.2,0.8","2:nogo_b","0",""
"null","","html-keyboard-response","182","242997","0.0-4.0-2.47","","<div style=""font-size:60px;"">+</div>","null","","","","","","",""
"864.3799999845214","","image-keyboard-response","183","243862","0.0-4.0-0.48","","img/orange.png","32","trial","null","false","0.2,0.8","2:nogo_b","",""
"null","","html-keyboard-response","184","244871","0.0-4.0-1.48","","<img src=""img/orange-n.png"" border=""10"">","null","trial","null","","0.2,0.8","2:nogo_b","0",""
"null","","html-keyboard-response","185","245874","0.0-4.0-2.48","","<div style=""font-size:60px;"">+</div>","null","","","","","","",""
"733.7649999535643","","image-keyboard-response","186","246609","0.0-4.0-0.49","","img/red.png","32","trial","32","true","0.8,0.2","1:go_a","",""
"null","","html-keyboard-response","187","247618","0.0-4.0-1.49","","<img src=""img/red-r.png"" border=""10"">","null","trial","32","","0.8,0.2","1:go_a","1",""
"null","","html-keyboard-response","188","248631","0.0-4.0-2.49","","<div style=""font-size:60px;"">+</div>","null","","","","","","",""
"650.9899999946356","","image-keyboard-response","189","249284","0.0-4.0-0.50","","img/orange.png","32","trial","null","false","0.2,0.8","2:nogo_b","",""
"null","","html-keyboard-response","190","250286","0.0-4.0-1.50","","<img src=""img/orange-r.png"" border=""10"">","null","trial","null","","0.2,0.8","2:nogo_b","1",""
"null","","html-keyboard-response","191","251290","0.0-4.0-2.50","","<div style=""font-size:60px;"">+</div>","null","","","","","","",""
"750.4099999787286","","image-keyboard-response","192","252041","0.0-4.0-0.51","","img/red.png","32","trial","32","true","0.8,0.2","1:go_a","",""
"null","","html-keyboard-response","193","253055","0.0-4.0-1.51","","<img src=""img/red-r.png"" border=""10"">","null","trial","32","","0.8,0.2","1:go_a","1",""
"null","","html-keyboard-response","194","254059","0.0-4.0-2.51","","<div style=""font-size:60px;"">+</div>","null","","","","","","",""
"null","","image-keyboard-response","195","255573","0.0-4.0-0.52","","img/orange.png","null","trial","null","true","0.2,0.8","2:nogo_b","",""
"null","","html-keyboard-response","196","256579","0.0-4.0-1.52","","<img src=""img/orange-r.png"">","null","trial","null","","0.2,0.8","2:nogo_b","1",""
"null","","html-keyboard-response","197","257594","0.0-4.0-2.52","","<div style=""font-size:60px;"">+</div>","null","","","","","","",""
"1442.3449999885634","","image-keyboard-response","198","259037","0.0-4.0-0.53","","img/red.png","32","trial","32","true","0.8,0.2","1:go_a","",""
"null","","html-keyboard-response","199","260056","0.0-4.0-1.53","","<img src=""img/red-r.png"" border=""10"">","null","trial","32","","0.8,0.2","1:go_a","1",""
"null","","html-keyboard-response","200","261066","0.0-4.0-2.53","","<div style=""font-size:60px;"">+</div>","null","","","","","","",""
"805.579999985639","","image-keyboard-response","201","261872","0.0-4.0-0.54","","img/orange.png","32","trial","null","false","0.2,0.8","2:nogo_b","",""
"null","","html-keyboard-response","202","262876","0.0-4.0-1.54","","<img src=""img/orange-n.png"" border=""10"">","null","trial","null","","0.2,0.8","2:nogo_b","0",""
"null","","html-keyboard-response","203","263878","0.0-4.0-2.54","","<div style=""font-size:60px;"">+</div>","null","","","","","","",""
"678.1300000147894","","image-keyboard-response","204","264557","0.0-4.0-0.55","","img/red.png","32","trial","32","true","0.8,0.2","1:go_a","",""
"null","","html-keyboard-response","205","265562","0.0-4.0-1.55","","<img src=""img/red-r.png"" border=""10"">","null","trial","32","","0.8,0.2","1:go_a","1",""
"null","","html-keyboard-response","206","266577","0.0-4.0-2.55","","<div style=""font-size:60px;"">+</div>","null","","","","","","",""
"858.8400000007823","","image-keyboard-response","207","267437","0.0-4.0-0.56","","img/red.png","32","trial","32","true","0.8,0.2","1:go_a","",""
"null","","html-keyboard-response","208","268440","0.0-4.0-1.56","","<img src=""img/red-r.png"" border=""10"">","null","trial","32","","0.8,0.2","1:go_a","1",""
"null","","html-keyboard-response","209","269449","0.0-4.0-2.56","","<div style=""font-size:60px;"">+</div>","null","","","","","","",""
"408.7099999887869","","image-keyboard-response","210","269859","0.0-4.0-0.57","","img/orange.png","32","trial","null","false","0.2,0.8","2:nogo_b","",""
"null","","html-keyboard-response","211","270863","0.0-4.0-1.57","","<img src=""img/orange-r.png"" border=""10"">","null","trial","null","","0.2,0.8","2:nogo_b","1",""
"null","","html-keyboard-response","212","271878","0.0-4.0-2.57","","<div style=""font-size:60px;"">+</div>","null","","","","","","",""
"937.2299999813549","","image-keyboard-response","213","272817","0.0-4.0-0.58","","img/red.png","32","trial","32","true","0.8,0.2","1:go_a","",""
"null","","html-keyboard-response","214","273822","0.0-4.0-1.58","","<img src=""img/red-r.png"" border=""10"">","null","trial","32","","0.8,0.2","1:go_a","1",""
"null","","html-keyboard-response","215","274823","0.0-4.0-2.58","","<div style=""font-size:60px;"">+</div>","null","","","","","","",""
"785.9449999523349","","image-keyboard-response","216","275611","0.0-4.0-0.59","","img/orange.png","32","trial","null","false","0.2,0.8","2:nogo_b","",""
"null","","html-keyboard-response","217","276613","0.0-4.0-1.59","","<img src=""img/orange-n.png"" border=""10"">","null","trial","null","","0.2,0.8","2:nogo_b","0",""
"null","","html-keyboard-response","218","277617","0.0-4.0-2.59","","<div style=""font-size:60px;"">+</div>","null","","","","","","",""
"2861.594999965746","","instructions","219","280479","0.0-5.0","[{""page_index"":0,""viewing_time"":2861.1650000093505}]","","","","","","","","",""
"725.7899999967776","","image-keyboard-response","220","281206","0.0-6.0-0.0","","img/red.png","32","trial","32","true","0.8,0.2","1:go_a","",""
"null","","html-keyboard-response","221","282210","0.0-6.0-1.0","","<img src=""img/red-r.png"" border=""10"">","null","trial","32","","0.8,0.2","1:go_a","1",""
"null","","html-keyboard-response","222","283220","0.0-6.0-2.0","","<div style=""font-size:60px;"">+</div>","null","","","","","","",""
"649.3849999969825","","image-keyboard-response","223","283870","0.0-6.0-0.1","","img/green.png","32","trial","32","true","1,0","3:go_c","",""
"null","","html-keyboard-response","224","284882","0.0-6.0-1.1","","<img src=""img/green-r.png"" border=""10"">","null","trial","32","","1,0","3:go_c","1",""
"null","","html-keyboard-response","225","285893","0.0-6.0-2.1","","<div style=""font-size:60px;"">+</div>","null","","","","","","",""
"272.6099999854341","","image-keyboard-response","226","286166","0.0-6.0-0.2","","img/purple.png","32","trial","null","false","0,1","4:nogo_d","",""
"null","","html-keyboard-response","227","287171","0.0-6.0-1.2","","<img src=""img/purple-n.png"" border=""10"">","null","trial","null","","0,1","4:nogo_d","0",""
"null","","html-keyboard-response","228","288173","0.0-6.0-2.2","","<div style=""font-size:60px;"">+</div>","null","","","","","","",""
"316.47000001976267","","image-keyboard-response","229","288491","0.0-6.0-0.3","","img/orange.png","32","trial","null","false","0.2,0.8","2:nogo_b","",""
"null","","html-keyboard-response","230","289498","0.0-6.0-1.3","","<img src=""img/orange-n.png"" border=""10"">","null","trial","null","","0.2,0.8","2:nogo_b","0",""
"null","","html-keyboard-response","231","290501","0.0-6.0-2.3","","<div style=""font-size:60px;"">+</div>","null","","","","","","",""
"581.6200000117533","","image-keyboard-response","232","291084","0.0-6.0-0.4","","img/green.png","32","trial","32","true","1,0","3:go_c","",""
"null","","html-keyboard-response","233","292086","0.0-6.0-1.4","","<img src=""img/green-r.png"" border=""10"">","null","trial","32","","1,0","3:go_c","1",""
"null","","html-keyboard-response","234","293096","0.0-6.0-2.4","","<div style=""font-size:60px;"">+</div>","null","","","","","","",""
"623.8000000012107","","image-keyboard-response","235","293714","0.0-6.0-0.5","","img/red.png","32","trial","32","true","0.8,0.2","1:go_a","",""
"null","","html-keyboard-response","236","294724","0.0-6.0-1.5","","<img src=""img/red-r.png"" border=""10"">","null","trial","32","","0.8,0.2","1:go_a","1",""
"null","","html-keyboard-response","237","295737","0.0-6.0-2.5","","<div style=""font-size:60px;"">+</div>","null","","","","","","",""
"985.4600000544451","","image-keyboard-response","238","296724","0.0-6.0-0.6","","img/orange.png","32","trial","null","false","0.2,0.8","2:nogo_b","",""
"null","","html-keyboard-response","239","297734","0.0-6.0-1.6","","<img src=""img/orange-n.png"" border=""10"">","null","trial","null","","0.2,0.8","2:nogo_b","0",""
"null","","html-keyboard-response","240","298741","0.0-6.0-2.6","","<div style=""font-size:60px;"">+</div>","null","","","","","","",""
"742.8650000365451","","image-keyboard-response","241","299485","0.0-6.0-0.7","","img/purple.png","32","trial","null","false","0,1","4:nogo_d","",""
"null","","html-keyboard-response","242","300504","0.0-6.0-1.7","","<img src=""img/purple-n.png"" border=""10"">","null","trial","null","","0,1","4:nogo_d","0",""
"null","","html-keyboard-response","243","301510","0.0-6.0-2.7","","<div style=""font-size:60px;"">+</div>","null","","","","","","",""
"246.2499999674037","","image-keyboard-response","244","301757","0.0-6.0-0.8","","img/red.png","32","trial","32","true","0.8,0.2","1:go_a","",""
"null","","html-keyboard-response","245","302767","0.0-6.0-1.8","","<img src=""img/red-r.png"" border=""10"">","null","trial","32","","0.8,0.2","1:go_a","1",""
"null","","html-keyboard-response","246","303778","0.0-6.0-2.8","","<div style=""font-size:60px;"">+</div>","null","","","","","","",""
"610.3449999936856","","image-keyboard-response","247","304390","0.0-6.0-0.9","","img/purple.png","32","trial","null","false","0,1","4:nogo_d","",""
"null","","html-keyboard-response","248","305403","0.0-6.0-1.9","","<img src=""img/purple-n.png"" border=""10"">","null","trial","null","","0,1","4:nogo_d","0",""
"null","","html-keyboard-response","249","306417","0.0-6.0-2.9","","<div style=""font-size:60px;"">+</div>","null","","","","","","",""
"1021.7650000122376","","image-keyboard-response","250","307439","0.0-6.0-0.10","","img/orange.png","32","trial","null","false","0.2,0.8","2:nogo_b","",""
"null","","html-keyboard-response","251","308442","0.0-6.0-1.10","","<img src=""img/orange-r.png"" border=""10"">","null","trial","null","","0.2,0.8","2:nogo_b","1",""
"null","","html-keyboard-response","252","309448","0.0-6.0-2.10","","<div style=""font-size:60px;"">+</div>","null","","","","","","",""
"1046.15000000922","","image-keyboard-response","253","310495","0.0-6.0-0.11","","img/green.png","32","trial","32","true","1,0","3:go_c","",""
"null","","html-keyboard-response","254","311508","0.0-6.0-1.11","","<img src=""img/green-r.png"" border=""10"">","null","trial","32","","1,0","3:go_c","1",""
"null","","html-keyboard-response","255","312514","0.0-6.0-2.11","","<div style=""font-size:60px;"">+</div>","null","","","","","","",""
"653.5349999903701","","image-keyboard-response","256","313168","0.0-6.0-0.12","","img/green.png","32","trial","32","true","1,0","3:go_c","",""
"null","","html-keyboard-response","257","314184","0.0-6.0-1.12","","<img src=""img/green-r.png"" border=""10"">","null","trial","32","","1,0","3:go_c","1",""
"null","","html-keyboard-response","258","315199","0.0-6.0-2.12","","<div style=""font-size:60px;"">+</div>","null","","","","","","",""
"723.0200000340119","","image-keyboard-response","259","315923","0.0-6.0-0.13","","img/orange.png","32","trial","null","false","0.2,0.8","2:nogo_b","",""
"null","","html-keyboard-response","260","316936","0.0-6.0-1.13","","<img src=""img/orange-n.png"" border=""10"">","null","trial","null","","0.2,0.8","2:nogo_b","0",""
"null","","html-keyboard-response","261","317937","0.0-6.0-2.13","","<div style=""font-size:60px;"">+</div>","null","","","","","","",""
"763.9099999796599","","image-keyboard-response","262","318702","0.0-6.0-0.14","","img/red.png","32","trial","32","true","0.8,0.2","1:go_a","",""
"null","","html-keyboard-response","263","319717","0.0-6.0-1.14","","<img src=""img/red-r.png"" border=""10"">","null","trial","32","","0.8,0.2","1:go_a","1",""
"null","","html-keyboard-response","264","320719","0.0-6.0-2.14","","<div style=""font-size:60px;"">+</div>","null","","","","","","",""
"1014.5999999949709","","image-keyboard-response","265","321736","0.0-6.0-0.15","","img/purple.png","32","trial","null","false","0,1","4:nogo_d","",""
"null","","html-keyboard-response","266","322752","0.0-6.0-1.15","","<img src=""img/purple-n.png"" border=""10"">","null","trial","null","","0,1","4:nogo_d","0",""
"null","","html-keyboard-response","267","323765","0.0-6.0-2.15","","<div style=""font-size:60px;"">+</div>","null","","","","","","",""
"825.8499999647029","","image-keyboard-response","268","324592","0.0-6.0-0.16","","img/orange.png","32","trial","null","false","0.2,0.8","2:nogo_b","",""
"null","","html-keyboard-response","269","325599","0.0-6.0-1.16","","<img src=""img/orange-r.png"" border=""10"">","null","trial","null","","0.2,0.8","2:nogo_b","1",""
"null","","html-keyboard-response","270","326611","0.0-6.0-2.16","","<div style=""font-size:60px;"">+</div>","null","","","","","","",""
"947.054999996908","","image-keyboard-response","271","327560","0.0-6.0-0.17","","img/purple.png","32","trial","null","false","0,1","4:nogo_d","",""
"null","","html-keyboard-response","272","328562","0.0-6.0-1.17","","<img src=""img/purple-n.png"" border=""10"">","null","trial","null","","0,1","4:nogo_d","0",""
"null","","html-keyboard-response","273","329574","0.0-6.0-2.17","","<div style=""font-size:60px;"">+</div>","null","","","","","","",""
"816.3950000307523","","image-keyboard-response","274","330392","0.0-6.0-0.18","","img/red.png","32","trial","32","true","0.8,0.2","1:go_a","",""
"null","","html-keyboard-response","275","331395","0.0-6.0-1.18","","<img src=""img/red-r.png"" border=""10"">","null","trial","32","","0.8,0.2","1:go_a","1",""
"null","","html-keyboard-response","276","332396","0.0-6.0-2.18","","<div style=""font-size:60px;"">+</div>","null","","","","","","",""
"886.3799999817275","","image-keyboard-response","277","333284","0.0-6.0-0.19","","img/green.png","32","trial","32","true","1,0","3:go_c","",""
"null","","html-keyboard-response","278","334293","0.0-6.0-1.19","","<img src=""img/green-r.png"" border=""10"">","null","trial","32","","1,0","3:go_c","1",""
"null","","html-keyboard-response","279","335295","0.0-6.0-2.19","","<div style=""font-size:60px;"">+</div>","null","","","","","","",""
"812.984999967739","","image-keyboard-response","280","336109","0.0-6.0-0.20","","img/green.png","32","trial","32","true","1,0","3:go_c","",""
"null","","html-keyboard-response","281","337119","0.0-6.0-1.20","","<img src=""img/green-r.png"" border=""10"">","null","trial","32","","1,0","3:go_c","1",""
"null","","html-keyboard-response","282","338121","0.0-6.0-2.20","","<div style=""font-size:60px;"">+</div>","null","","","","","","",""
"895.3800000017509","","image-keyboard-response","283","339017","0.0-6.0-0.21","","img/purple.png","32","trial","null","false","0,1","4:nogo_d","",""
"null","","html-keyboard-response","284","340027","0.0-6.0-1.21","","<img src=""img/purple-n.png"" border=""10"">","null","trial","null","","0,1","4:nogo_d","0",""
"null","","html-keyboard-response","285","341040","0.0-6.0-2.21","","<div style=""font-size:60px;"">+</div>","null","","","","","","",""
"871.2600000435486","","image-keyboard-response","286","341912","0.0-6.0-0.22","","img/orange.png","32","trial","null","false","0.2,0.8","2:nogo_b","",""
"null","","html-keyboard-response","287","342928","0.0-6.0-1.22","","<img src=""img/orange-n.png"" border=""10"">","null","trial","null","","0.2,0.8","2:nogo_b","0",""
"null","","html-keyboard-response","288","343931","0.0-6.0-2.22","","<div style=""font-size:60px;"">+</div>","null","","","","","","",""
"619.5099999895319","","image-keyboard-response","289","344551","0.0-6.0-0.23","","img/red.png","32","trial","32","true","0.8,0.2","1:go_a","",""
"null","","html-keyboard-response","290","345554","0.0-6.0-1.23","","<img src=""img/red-r.png"" border=""10"">","null","trial","32","","0.8,0.2","1:go_a","1",""
"null","","html-keyboard-response","291","346557","0.0-6.0-2.23","","<div style=""font-size:60px;"">+</div>","null","","","","","","",""
"778.3550000167452","","image-keyboard-response","292","347337","0.0-6.0-0.24","","img/red.png","32","trial","32","true","0.8,0.2","1:go_a","",""
"null","","html-keyboard-response","293","348349","0.0-6.0-1.24","","<img src=""img/red-r.png"" border=""10"">","null","trial","32","","0.8,0.2","1:go_a","1",""
"null","","html-keyboard-response","294","349361","0.0-6.0-2.24","","<div style=""font-size:60px;"">+</div>","null","","","","","","",""
"872.7899999939837","","image-keyboard-response","295","350236","0.0-6.0-0.25","","img/purple.png","32","trial","null","false","0,1","4:nogo_d","",""
"null","","html-keyboard-response","296","351238","0.0-6.0-1.25","","<img src=""img/purple-n.png"" border=""10"">","null","trial","null","","0,1","4:nogo_d","0",""
"null","","html-keyboard-response","297","352250","0.0-6.0-2.25","","<div style=""font-size:60px;"">+</div>","null","","","","","","",""
"599.675000004936","","image-keyboard-response","298","352851","0.0-6.0-0.26","","img/green.png","32","trial","32","true","1,0","3:go_c","",""
"null","","html-keyboard-response","299","353860","0.0-6.0-1.26","","<img src=""img/green-r.png"" border=""10"">","null","trial","32","","1,0","3:go_c","1",""
"null","","html-keyboard-response","300","354872","0.0-6.0-2.26","","<div style=""font-size:60px;"">+</div>","null","","","","","","",""
"701.6949999961071","","image-keyboard-response","301","355576","0.0-6.0-0.27","","img/orange.png","32","trial","null","false","0.2,0.8","2:nogo_b","",""
"null","","html-keyboard-response","302","356586","0.0-6.0-1.27","","<img src=""img/orange-r.png"" border=""10"">","null","trial","null","","0.2,0.8","2:nogo_b","1",""
"null","","html-keyboard-response","303","357594","0.0-6.0-2.27","","<div style=""font-size:60px;"">+</div>","null","","","","","","",""
"620.0799999642186","","image-keyboard-response","304","358215","0.0-6.0-0.28","","img/orange.png","32","trial","null","false","0.2,0.8","2:nogo_b","",""
"null","","html-keyboard-response","305","359223","0.0-6.0-1.28","","<img src=""img/orange-n.png"" border=""10"">","null","trial","null","","0.2,0.8","2:nogo_b","0",""
"null","","html-keyboard-response","306","360224","0.0-6.0-2.28","","<div style=""font-size:60px;"">+</div>","null","","","","","","",""
"688.5400000028312","","image-keyboard-response","307","360914","0.0-6.0-0.29","","img/green.png","32","trial","32","true","1,0","3:go_c","",""
"null","","html-keyboard-response","308","361923","0.0-6.0-1.29","","<img src=""img/green-r.png"" border=""10"">","null","trial","32","","1,0","3:go_c","1",""
"null","","html-keyboard-response","309","362925","0.0-6.0-2.29","","<div style=""font-size:60px;"">+</div>","null","","","","","","",""
"648.3700000098906","","image-keyboard-response","310","363575","0.0-6.0-0.30","","img/red.png","32","trial","32","true","0.8,0.2","1:go_a","",""
"null","","html-keyboard-response","311","364591","0.0-6.0-1.30","","<img src=""img/red-r.png"" border=""10"">","null","trial","32","","0.8,0.2","1:go_a","1",""
"null","","html-keyboard-response","312","365604","0.0-6.0-2.30","","<div style=""font-size:60px;"">+</div>","null","","","","","","",""
"651.0700000217184","","image-keyboard-response","313","366256","0.0-6.0-0.31","","img/purple.png","32","trial","null","false","0,1","4:nogo_d","",""
"null","","html-keyboard-response","314","367272","0.0-6.0-1.31","","<img src=""img/purple-n.png"" border=""10"">","null","trial","null","","0,1","4:nogo_d","0",""
"null","","html-keyboard-response","315","368273","0.0-6.0-2.31","","<div style=""font-size:60px;"">+</div>","null","","","","","","",""
"679.0499999769963","","image-keyboard-response","316","368953","0.0-6.0-0.32","","img/green.png","32","trial","32","true","1,0","3:go_c","",""
"null","","html-keyboard-response","317","369961","0.0-6.0-1.32","","<img src=""img/green-r.png"" border=""10"">","null","trial","32","","1,0","3:go_c","1",""
"null","","html-keyboard-response","318","370972","0.0-6.0-2.32","","<div style=""font-size:60px;"">+</div>","null","","","","","","",""
"1264.5649999612942","","image-keyboard-response","319","372238","0.0-6.0-0.33","","img/purple.png","32","trial","null","false","0,1","4:nogo_d","",""
"null","","html-keyboard-response","320","373253","0.0-6.0-1.33","","<img src=""img/purple-n.png"" border=""10"">","null","trial","null","","0,1","4:nogo_d","0",""
"null","","html-keyboard-response","321","374266","0.0-6.0-2.33","","<div style=""font-size:60px;"">+</div>","null","","","","","","",""
"802.6299999910407","","image-keyboard-response","322","375070","0.0-6.0-0.34","","img/orange.png","32","trial","null","false","0.2,0.8","2:nogo_b","",""
"null","","html-keyboard-response","323","376083","0.0-6.0-1.34","","<img src=""img/orange-n.png"" border=""10"">","null","trial","null","","0.2,0.8","2:nogo_b","0",""
"null","","html-keyboard-response","324","377098","0.0-6.0-2.34","","<div style=""font-size:60px;"">+</div>","null","","","","","","",""
"891.9749999768101","","image-keyboard-response","325","377991","0.0-6.0-0.35","","img/red.png","32","trial","32","true","0.8,0.2","1:go_a","",""
"null","","html-keyboard-response","326","379000","0.0-6.0-1.35","","<img src=""img/red-n.png"" border=""10"">","null","trial","32","","0.8,0.2","1:go_a","0",""
"null","","html-keyboard-response","327","380002","0.0-6.0-2.35","","<div style=""font-size:60px;"">+</div>","null","","","","","","",""
"1085.8899999875575","","image-keyboard-response","328","381089","0.0-6.0-0.36","","img/orange.png","32","trial","null","false","0.2,0.8","2:nogo_b","",""
"null","","html-keyboard-response","329","382092","0.0-6.0-1.36","","<img src=""img/orange-n.png"" border=""10"">","null","trial","null","","0.2,0.8","2:nogo_b","0",""
"null","","html-keyboard-response","330","383095","0.0-6.0-2.36","","<div style=""font-size:60px;"">+</div>","null","","","","","","",""
"969.1650000168011","","image-keyboard-response","331","384066","0.0-6.0-0.37","","img/green.png","32","trial","32","true","1,0","3:go_c","",""
"null","","html-keyboard-response","332","385075","0.0-6.0-1.37","","<img src=""img/green-r.png"" border=""10"">","null","trial","32","","1,0","3:go_c","1",""
"null","","html-keyboard-response","333","386077","0.0-6.0-2.37","","<div style=""font-size:60px;"">+</div>","null","","","","","","",""
"829.3449999764562","","image-keyboard-response","334","386907","0.0-6.0-0.38","","img/red.png","32","trial","32","true","0.8,0.2","1:go_a","",""
"null","","html-keyboard-response","335","387923","0.0-6.0-1.38","","<img src=""img/red-r.png"" border=""10"">","null","trial","32","","0.8,0.2","1:go_a","1",""
"null","","html-keyboard-response","336","388936","0.0-6.0-2.38","","<div style=""font-size:60px;"">+</div>","null","","","","","","",""
"879.6549999970011","","image-keyboard-response","337","389817","0.0-6.0-0.39","","img/purple.png","32","trial","null","false","0,1","4:nogo_d","",""
"null","","html-keyboard-response","338","390819","0.0-6.0-1.39","","<img src=""img/purple-n.png"" border=""10"">","null","trial","null","","0,1","4:nogo_d","0",""
"null","","html-keyboard-response","339","391824","0.0-6.0-2.39","","<div style=""font-size:60px;"">+</div>","null","","","","","","",""
"587.3849999625236","","image-keyboard-response","340","392412","0.0-6.0-0.40","","img/purple.png","32","trial","null","false","0,1","4:nogo_d","",""
"null","","html-keyboard-response","341","393418","0.0-6.0-1.40","","<img src=""img/purple-n.png"" border=""10"">","null","trial","null","","0,1","4:nogo_d","0",""
"null","","html-keyboard-response","342","394429","0.0-6.0-2.40","","<div style=""font-size:60px;"">+</div>","null","","","","","","",""
"730.9150000219233","","image-keyboard-response","343","395162","0.0-6.0-0.41","","img/orange.png","32","trial","null","false","0.2,0.8","2:nogo_b","",""
"null","","html-keyboard-response","344","396165","0.0-6.0-1.41","","<img src=""img/orange-r.png"" border=""10"">","null","trial","null","","0.2,0.8","2:nogo_b","1",""
"null","","html-keyboard-response","345","397167","0.0-6.0-2.41","","<div style=""font-size:60px;"">+</div>","null","","","","","","",""
"null","","image-keyboard-response","346","398670","0.0-6.0-0.42","","img/green.png","null","trial","32","false","1,0","3:go_c","",""
"null","","html-keyboard-response","347","399684","0.0-6.0-1.42","","<img src=""img/green-n.png"">","null","trial","32","","1,0","3:go_c","0",""
"null","","html-keyboard-response","348","400685","0.0-6.0-2.42","","<div style=""font-size:60px;"">+</div>","null","","","","","","",""
"727.6249999995343","","image-keyboard-response","349","401414","0.0-6.0-0.43","","img/red.png","32","trial","32","true","0.8,0.2","1:go_a","",""
"null","","html-keyboard-response","350","402425","0.0-6.0-1.43","","<img src=""img/red-r.png"" border=""10"">","null","trial","32","","0.8,0.2","1:go_a","1",""
"null","","html-keyboard-response","351","403428","0.0-6.0-2.43","","<div style=""font-size:60px;"">+</div>","null","","","","","","",""
"603.4600000130013","","image-keyboard-response","352","404032","0.0-6.0-0.44","","img/orange.png","32","trial","null","false","0.2,0.8","2:nogo_b","",""
"null","","html-keyboard-response","353","405040","0.0-6.0-1.44","","<img src=""img/orange-n.png"" border=""10"">","null","trial","null","","0.2,0.8","2:nogo_b","0",""
"null","","html-keyboard-response","354","406042","0.0-6.0-2.44","","<div style=""font-size:60px;"">+</div>","null","","","","","","",""
"1482.8599999891594","","image-keyboard-response","355","407526","0.0-6.0-0.45","","img/red.png","32","trial","32","true","0.8,0.2","1:go_a","",""
"null","","html-keyboard-response","356","408539","0.0-6.0-1.45","","<img src=""img/red-r.png"" border=""10"">","null","trial","32","","0.8,0.2","1:go_a","1",""
"null","","html-keyboard-response","357","409541","0.0-6.0-2.45","","<div style=""font-size:60px;"">+</div>","null","","","","","","",""
"666.6449999902397","","image-keyboard-response","358","410209","0.0-6.0-0.46","","img/purple.png","32","trial","null","false","0,1","4:nogo_d","",""
"null","","html-keyboard-response","359","411224","0.0-6.0-1.46","","<img src=""img/purple-n.png"" border=""10"">","null","trial","null","","0,1","4:nogo_d","0",""
"null","","html-keyboard-response","360","412239","0.0-6.0-2.46","","<div style=""font-size:60px;"">+</div>","null","","","","","","",""
"669.1700000083074","","image-keyboard-response","361","412909","0.0-6.0-0.47","","img/green.png","32","trial","32","true","1,0","3:go_c","",""
"null","","html-keyboard-response","362","413920","0.0-6.0-1.47","","<img src=""img/green-r.png"" border=""10"">","null","trial","32","","1,0","3:go_c","1",""
"null","","html-keyboard-response","363","414936","0.0-6.0-2.47","","<div style=""font-size:60px;"">+</div>","null","","","","","","",""
"145.14999999664724","","image-keyboard-response","364","415082","0.0-6.0-0.48","","img/orange.png","32","trial","null","false","0.2,0.8","2:nogo_b","",""
"null","","html-keyboard-response","365","416094","0.0-6.0-1.48","","<img src=""img/orange-n.png"" border=""10"">","null","trial","null","","0.2,0.8","2:nogo_b","0",""
"null","","html-keyboard-response","366","417103","0.0-6.0-2.48","","<div style=""font-size:60px;"">+</div>","null","","","","","","",""
"278.92999997129664","","image-keyboard-response","367","417383","0.0-6.0-0.49","","img/red.png","32","trial","32","true","0.8,0.2","1:go_a","",""
"null","","html-keyboard-response","368","418386","0.0-6.0-1.49","","<img src=""img/red-r.png"" border=""10"">","null","trial","32","","0.8,0.2","1:go_a","1",""
"null","","html-keyboard-response","369","419401","0.0-6.0-2.49","","<div style=""font-size:60px;"">+</div>","null","","","","","","",""
"277.5549999787472","","image-keyboard-response","370","419680","0.0-6.0-0.50","","img/purple.png","32","trial","null","false","0,1","4:nogo_d","",""
"null","","html-keyboard-response","371","420685","0.0-6.0-1.50","","<img src=""img/purple-n.png"" border=""10"">","null","trial","null","","0,1","4:nogo_d","0",""
"null","","html-keyboard-response","372","421693","0.0-6.0-2.50","","<div style=""font-size:60px;"">+</div>","null","","","","","","",""
"573.7950000329874","","image-keyboard-response","373","422268","0.0-6.0-0.51","","img/green.png","32","trial","32","true","1,0","3:go_c","",""
"null","","html-keyboard-response","374","423276","0.0-6.0-1.51","","<img src=""img/green-r.png"" border=""10"">","null","trial","32","","1,0","3:go_c","1",""
"null","","html-keyboard-response","375","424279","0.0-6.0-2.51","","<div style=""font-size:60px;"">+</div>","null","","","","","","",""
"null","","image-keyboard-response","376","425796","0.0-6.0-0.52","","img/orange.png","null","trial","null","true","0.2,0.8","2:nogo_b","",""
"null","","html-keyboard-response","377","426798","0.0-6.0-1.52","","<img src=""img/orange-r.png"">","null","trial","null","","0.2,0.8","2:nogo_b","1",""
"null","","html-keyboard-response","378","427800","0.0-6.0-2.52","","<div style=""font-size:60px;"">+</div>","null","","","","","","",""
"478.0449999962002","","image-keyboard-response","379","428280","0.0-6.0-0.53","","img/green.png","32","trial","32","true","1,0","3:go_c","",""
"null","","html-keyboard-response","380","429295","0.0-6.0-1.53","","<img src=""img/green-r.png"" border=""10"">","null","trial","32","","1,0","3:go_c","1",""
"null","","html-keyboard-response","381","430297","0.0-6.0-2.53","","<div style=""font-size:60px;"">+</div>","null","","","","","","",""
"1023.3449999941513","","image-keyboard-response","382","431321","0.0-6.0-0.54","","img/red.png","32","trial","32","true","0.8,0.2","1:go_a","",""
"null","","html-keyboard-response","383","432324","0.0-6.0-1.54","","<img src=""img/red-r.png"" border=""10"">","null","trial","32","","0.8,0.2","1:go_a","1",""
"null","","html-keyboard-response","384","433332","0.0-6.0-2.54","","<div style=""font-size:60px;"">+</div>","null","","","","","","",""
"66.37000001501292","","image-keyboard-response","385","433399","0.0-6.0-0.55","","img/purple.png","32","trial","null","false","0,1","4:nogo_d","",""
"null","","html-keyboard-response","386","434404","0.0-6.0-1.55","","<img src=""img/purple-n.png"" border=""10"">","null","trial","null","","0,1","4:nogo_d","0",""
"null","","html-keyboard-response","387","435414","0.0-6.0-2.55","","<div style=""font-size:60px;"">+</div>","null","","","","","","",""
"699.0799999912269","","image-keyboard-response","388","436114","0.0-6.0-0.56","","img/red.png","32","trial","32","true","0.8,0.2","1:go_a","",""
"null","","html-keyboard-response","389","437123","0.0-6.0-1.56","","<img src=""img/red-r.png"" border=""10"">","null","trial","32","","0.8,0.2","1:go_a","1",""
"null","","html-keyboard-response","390","438137","0.0-6.0-2.56","","<div style=""font-size:60px;"">+</div>","null","","","","","","",""
"398.72499997727573","","image-keyboard-response","391","438537","0.0-6.0-0.57","","img/green.png","32","trial","32","true","1,0","3:go_c","",""
"null","","html-keyboard-response","392","439545","0.0-6.0-1.57","","<img src=""img/green-r.png"" border=""10"">","null","trial","32","","1,0","3:go_c","1",""
"null","","html-keyboard-response","393","440547","0.0-6.0-2.57","","<div style=""font-size:60px;"">+</div>","null","","","","","","",""
"572.9699999792501","","image-keyboard-response","394","441121","0.0-6.0-0.58","","img/purple.png","32","trial","null","false","0,1","4:nogo_d","",""
"null","","html-keyboard-response","395","442124","0.0-6.0-1.58","","<img src=""img/purple-n.png"" border=""10"">","null","trial","null","","0,1","4:nogo_d","0",""
"null","","html-keyboard-response","396","443126","0.0-6.0-2.58","","<div style=""font-size:60px;"">+</div>","null","","","","","","",""
"701.0149999987334","","image-keyboard-response","397","443828","0.0-6.0-0.59","","img/orange.png","32","trial","null","false","0.2,0.8","2:nogo_b","",""
"null","","html-keyboard-response","398","444840","0.0-6.0-1.59","","<img src=""img/orange-n.png"" border=""10"">","null","trial","null","","0.2,0.8","2:nogo_b","0",""
"null","","html-keyboard-response","399","445841","0.0-6.0-2.59","","<div style=""font-size:60px;"">+</div>","null","","","","","","",""
"562.9199999966659","","image-keyboard-response","400","446405","0.0-6.0-0.60","","img/purple.png","32","trial","null","false","0,1","4:nogo_d","",""
"null","","html-keyboard-response","401","447409","0.0-6.0-1.60","","<img src=""img/purple-n.png"" border=""10"">","null","trial","null","","0,1","4:nogo_d","0",""
"null","","html-keyboard-response","402","448416","0.0-6.0-2.60","","<div style=""font-size:60px;"">+</div>","null","","","","","","",""
"163.7149999733083","","image-keyboard-response","403","448581","0.0-6.0-0.61","","img/green.png","32","trial","32","true","1,0","3:go_c","",""
"null","","html-keyboard-response","404","449583","0.0-6.0-1.61","","<img src=""img/green-r.png"" border=""10"">","null","trial","32","","1,0","3:go_c","1",""
"null","","html-keyboard-response","405","450593","0.0-6.0-2.61","","<div style=""font-size:60px;"">+</div>","null","","","","","","",""
"492.2149999765679","","image-keyboard-response","406","451087","0.0-6.0-0.62","","img/orange.png","32","trial","null","false","0.2,0.8","2:nogo_b","",""
"null","","html-keyboard-response","407","452090","0.0-6.0-1.62","","<img src=""img/orange-n.png"" border=""10"">","null","trial","null","","0.2,0.8","2:nogo_b","0",""
"null","","html-keyboard-response","408","453093","0.0-6.0-2.62","","<div style=""font-size:60px;"">+</div>","null","","","","","","",""
"783.9599999715574","","image-keyboard-response","409","453878","0.0-6.0-0.63","","img/red.png","32","trial","32","true","0.8,0.2","1:go_a","",""
"null","","html-keyboard-response","410","454886","0.0-6.0-1.63","","<img src=""img/red-r.png"" border=""10"">","null","trial","32","","0.8,0.2","1:go_a","1",""
"null","","html-keyboard-response","411","455898","0.0-6.0-2.63","","<div style=""font-size:60px;"">+</div>","null","","","","","","",""
"593.9549999893643","","image-keyboard-response","412","456493","0.0-6.0-0.64","","img/purple.png","32","trial","null","false","0,1","4:nogo_d","",""
"null","","html-keyboard-response","413","457496","0.0-6.0-1.64","","<img src=""img/purple-n.png"" border=""10"">","null","trial","null","","0,1","4:nogo_d","0",""
"null","","html-keyboard-response","414","458499","0.0-6.0-2.64","","<div style=""font-size:60px;"">+</div>","null","","","","","","",""
"436.54999998398125","","image-keyboard-response","415","458937","0.0-6.0-0.65","","img/orange.png","32","trial","null","false","0.2,0.8","2:nogo_b","",""
"null","","html-keyboard-response","416","459947","0.0-6.0-1.65","","<img src=""img/orange-r.png"" border=""10"">","null","trial","null","","0.2,0.8","2:nogo_b","1",""
"null","","html-keyboard-response","417","460951","0.0-6.0-2.65","","<div style=""font-size:60px;"">+</div>","null","","","","","","",""
"839.9000000208616","","image-keyboard-response","418","461792","0.0-6.0-0.66","","img/green.png","32","trial","32","true","1,0","3:go_c","",""
"null","","html-keyboard-response","419","462802","0.0-6.0-1.66","","<img src=""img/green-r.png"" border=""10"">","null","trial","32","","1,0","3:go_c","1",""
"null","","html-keyboard-response","420","463809","0.0-6.0-2.66","","<div style=""font-size:60px;"">+</div>","null","","","","","","",""
"1411.7950000218116","","image-keyboard-response","421","465221","0.0-6.0-0.67","","img/red.png","32","trial","32","true","0.8,0.2","1:go_a","",""
"null","","html-keyboard-response","422","466231","0.0-6.0-1.67","","<img src=""img/red-r.png"" border=""10"">","null","trial","32","","0.8,0.2","1:go_a","1",""
"null","","html-keyboard-response","423","467245","0.0-6.0-2.67","","<div style=""font-size:60px;"">+</div>","null","","","","","","",""
"null","","image-keyboard-response","424","468751","0.0-6.0-0.68","","img/red.png","null","trial","32","false","0.8,0.2","1:go_a","",""
"null","","html-keyboard-response","425","469754","0.0-6.0-1.68","","<img src=""img/red-r.png"">","null","trial","32","","0.8,0.2","1:go_a","1",""
"null","","html-keyboard-response","426","470766","0.0-6.0-2.68","","<div style=""font-size:60px;"">+</div>","null","","","","","","",""
"null","","image-keyboard-response","427","472268","0.0-6.0-0.69","","img/orange.png","null","trial","null","true","0.2,0.8","2:nogo_b","",""
"null","","html-keyboard-response","428","473274","0.0-6.0-1.69","","<img src=""img/orange-r.png"">","null","trial","null","","0.2,0.8","2:nogo_b","1",""
"null","","html-keyboard-response","429","474291","0.0-6.0-2.69","","<div style=""font-size:60px;"">+</div>","null","","","","","","",""
"null","","image-keyboard-response","430","475794","0.0-6.0-0.70","","img/green.png","null","trial","32","false","1,0","3:go_c","",""
"null","","html-keyboard-response","431","476796","0.0-6.0-1.70","","<img src=""img/green-n.png"">","null","trial","32","","1,0","3:go_c","0",""
"null","","html-keyboard-response","432","477807","0.0-6.0-2.70","","<div style=""font-size:60px;"">+</div>","null","","","","","","",""
"null","","image-keyboard-response","433","479323","0.0-6.0-0.71","","img/purple.png","null","trial","null","true","0,1","4:nogo_d","",""
"null","","html-keyboard-response","434","480335","0.0-6.0-1.71","","<img src=""img/purple-r.png"">","null","trial","null","","0,1","4:nogo_d","1",""
"null","","html-keyboard-response","435","481346","0.0-6.0-2.71","","<div style=""font-size:60px;"">+</div>","null","","","","","","",""
"null","","image-keyboard-response","436","482856","0.0-6.0-0.72","","img/purple.png","null","trial","null","true","0,1","4:nogo_d","",""
"null","","html-keyboard-response","437","483859","0.0-6.0-1.72","","<img src=""img/purple-r.png"">","null","trial","null","","0,1","4:nogo_d","1",""
"null","","html-keyboard-response","438","484871","0.0-6.0-2.72","","<div style=""font-size:60px;"">+</div>","null","","","","","","",""
"605.0600000307895","","image-keyboard-response","439","485477","0.0-6.0-0.73","","img/orange.png","32","trial","null","false","0.2,0.8","2:nogo_b","",""
"null","","html-keyboard-response","440","486490","0.0-6.0-1.73","","<img src=""img/orange-n.png"" border=""10"">","null","trial","null","","0.2,0.8","2:nogo_b","0",""
"null","","html-keyboard-response","441","487497","0.0-6.0-2.73","","<div style=""font-size:60px;"">+</div>","null","","","","","","",""
"null","","image-keyboard-response","442","488999","0.0-6.0-0.74","","img/green.png","null","trial","32","false","1,0","3:go_c","",""
"null","","html-keyboard-response","443","490016","0.0-6.0-1.74","","<img src=""img/green-n.png"">","null","trial","32","","1,0","3:go_c","0",""
"null","","html-keyboard-response","444","491024","0.0-6.0-2.74","","<div style=""font-size:60px;"">+</div>","null","","","","","","",""
"828.185000049416","","image-keyboard-response","445","491853","0.0-6.0-0.75","","img/red.png","32","trial","32","true","0.8,0.2","1:go_a","",""
"null","","html-keyboard-response","446","492859","0.0-6.0-1.75","","<img src=""img/red-r.png"" border=""10"">","null","trial","32","","0.8,0.2","1:go_a","1",""
"null","","html-keyboard-response","447","493866","0.0-6.0-2.75","","<div style=""font-size:60px;"">+</div>","null","","","","","","",""
"783.5849999682978","","image-keyboard-response","448","494651","0.0-6.0-0.76","","img/green.png","32","trial","32","true","1,0","3:go_c","",""
"null","","html-keyboard-response","449","495654","0.0-6.0-1.76","","<img src=""img/green-r.png"" border=""10"">","null","trial","32","","1,0","3:go_c","1",""
"null","","html-keyboard-response","450","496661","0.0-6.0-2.76","","<div style=""font-size:60px;"">+</div>","null","","","","","","",""
"672.3500000080094","","image-keyboard-response","451","497334","0.0-6.0-0.77","","img/purple.png","32","trial","null","false","0,1","4:nogo_d","",""
"null","","html-keyboard-response","452","498349","0.0-6.0-1.77","","<img src=""img/purple-n.png"" border=""10"">","null","trial","null","","0,1","4:nogo_d","0",""
"null","","html-keyboard-response","453","499352","0.0-6.0-2.77","","<div style=""font-size:60px;"">+</div>","null","","","","","","",""
"638.5250000166707","","image-keyboard-response","454","499991","0.0-6.0-0.78","","img/red.png","32","trial","32","true","0.8,0.2","1:go_a","",""
"null","","html-keyboard-response","455","501001","0.0-6.0-1.78","","<img src=""img/red-r.png"" border=""10"">","null","trial","32","","0.8,0.2","1:go_a","1",""
"null","","html-keyboard-response","456","502009","0.0-6.0-2.78","","<div style=""font-size:60px;"">+</div>","null","","","","","","",""
"424.0550000104122","","image-keyboard-response","457","502435","0.0-6.0-0.79","","img/orange.png","32","trial","null","false","0.2,0.8","2:nogo_b","",""
"null","","html-keyboard-response","458","503438","0.0-6.0-1.79","","<img src=""img/orange-n.png"" border=""10"">","null","trial","null","","0.2,0.8","2:nogo_b","0",""
"null","","html-keyboard-response","459","504452","0.0-6.0-2.79","","<div style=""font-size:60px;"">+</div>","null","","","","","","",""
"813.1500000017695","","image-keyboard-response","460","505267","0.0-6.0-0.80","","img/orange.png","32","trial","null","false","0.2,0.8","2:nogo_b","",""
"null","","html-keyboard-response","461","506273","0.0-6.0-1.80","","<img src=""img/orange-n.png"" border=""10"">","null","trial","null","","0.2,0.8","2:nogo_b","0",""
"null","","html-keyboard-response","462","507282","0.0-6.0-2.80","","<div style=""font-size:60px;"">+</div>","null","","","","","","",""
"458.6799999815412","","image-keyboard-response","463","507742","0.0-6.0-0.81","","img/red.png","32","trial","32","true","0.8,0.2","1:go_a","",""
"null","","html-keyboard-response","464","508754","0.0-6.0-1.81","","<img src=""img/red-r.png"" border=""10"">","null","trial","32","","0.8,0.2","1:go_a","1",""
"null","","html-keyboard-response","465","509756","0.0-6.0-2.81","","<div style=""font-size:60px;"">+</div>","null","","","","","","",""
"637.0050000259653","","image-keyboard-response","466","510394","0.0-6.0-0.82","","img/purple.png","32","trial","null","false","0,1","4:nogo_d","",""
"null","","html-keyboard-response","467","511397","0.0-6.0-1.82","","<img src=""img/purple-n.png"" border=""10"">","null","trial","null","","0,1","4:nogo_d","0",""
"null","","html-keyboard-response","468","512411","0.0-6.0-2.82","","<div style=""font-size:60px;"">+</div>","null","","","","","","",""
"716.7400000034831","","image-keyboard-response","469","513129","0.0-6.0-0.83","","img/green.png","32","trial","32","true","1,0","3:go_c","",""
"null","","html-keyboard-response","470","514145","0.0-6.0-1.83","","<img src=""img/green-r.png"" border=""10"">","null","trial","32","","1,0","3:go_c","1",""
"null","","html-keyboard-response","471","515161","0.0-6.0-2.83","","<div style=""font-size:60px;"">+</div>","null","","","","","","",""
"862.3299999744631","","image-keyboard-response","472","516025","0.0-6.0-0.84","","img/orange.png","32","trial","null","false","0.2,0.8","2:nogo_b","",""
"null","","html-keyboard-response","473","517034","0.0-6.0-1.84","","<img src=""img/orange-n.png"" border=""10"">","null","trial","null","","0.2,0.8","2:nogo_b","0",""
"null","","html-keyboard-response","474","518047","0.0-6.0-2.84","","<div style=""font-size:60px;"">+</div>","null","","","","","","",""
"160.5449999915436","","image-keyboard-response","475","518209","0.0-6.0-0.85","","img/purple.png","32","trial","null","false","0,1","4:nogo_d","",""
"null","","html-keyboard-response","476","519213","0.0-6.0-1.85","","<img src=""img/purple-n.png"" border=""10"">","null","trial","null","","0,1","4:nogo_d","0",""
"null","","html-keyboard-response","477","520220","0.0-6.0-2.85","","<div style=""font-size:60px;"">+</div>","null","","","","","","",""
"121.86000001383945","","image-keyboard-response","478","520343","0.0-6.0-0.86","","img/green.png","32","trial","32","true","1,0","3:go_c","",""
"null","","html-keyboard-response","479","521345","0.0-6.0-1.86","","<img src=""img/green-r.png"" border=""10"">","null","trial","32","","1,0","3:go_c","1",""
"null","","html-keyboard-response","480","522346","0.0-6.0-2.86","","<div style=""font-size:60px;"">+</div>","null","","","","","","",""
"647.5700000301003","","image-keyboard-response","481","522995","0.0-6.0-0.87","","img/red.png","32","trial","32","true","0.8,0.2","1:go_a","",""
"null","","html-keyboard-response","482","524008","0.0-6.0-1.87","","<img src=""img/red-r.png"" border=""10"">","null","trial","32","","0.8,0.2","1:go_a","1",""
"null","","html-keyboard-response","483","525011","0.0-6.0-2.87","","<div style=""font-size:60px;"">+</div>","null","","","","","","",""
"744.5899999584071","","image-keyboard-response","484","525757","0.0-6.0-0.88","","img/green.png","32","trial","32","true","1,0","3:go_c","",""
"null","","html-keyboard-response","485","526759","0.0-6.0-1.88","","<img src=""img/green-r.png"" border=""10"">","null","trial","32","","1,0","3:go_c","1",""
"null","","html-keyboard-response","486","527766","0.0-6.0-2.88","","<div style=""font-size:60px;"">+</div>","null","","","","","","",""
"214.8049999959767","","image-keyboard-response","487","527982","0.0-6.0-0.89","","img/red.png","32","trial","32","true","0.8,0.2","1:go_a","",""
"null","","html-keyboard-response","488","528999","0.0-6.0-1.89","","<img src=""img/red-n.png"" border=""10"">","null","trial","32","","0.8,0.2","1:go_a","0",""
"null","","html-keyboard-response","489","530001","0.0-6.0-2.89","","<div style=""font-size:60px;"">+</div>","null","","","","","","",""
"628.969999961555","","image-keyboard-response","490","530632","0.0-6.0-0.90","","img/orange.png","32","trial","null","false","0.2,0.8","2:nogo_b","",""
"null","","html-keyboard-response","491","531641","0.0-6.0-1.90","","<img src=""img/orange-n.png"" border=""10"">","null","trial","null","","0.2,0.8","2:nogo_b","0",""
"null","","html-keyboard-response","492","532654","0.0-6.0-2.90","","<div style=""font-size:60px;"">+</div>","null","","","","","","",""
"615.2050000382587","","image-keyboard-response","493","533270","0.0-6.0-0.91","","img/purple.png","32","trial","null","false","0,1","4:nogo_d","",""
"null","","html-keyboard-response","494","534273","0.0-6.0-1.91","","<img src=""img/purple-n.png"" border=""10"">","null","trial","null","","0,1","4:nogo_d","0",""
"null","","html-keyboard-response","495","535291","0.0-6.0-2.91","","<div style=""font-size:60px;"">+</div>","null","","","","","","",""
"589.6349999820814","","image-keyboard-response","496","535882","0.0-6.0-0.92","","img/purple.png","32","trial","null","false","0,1","4:nogo_d","",""
"null","","html-keyboard-response","497","536884","0.0-6.0-1.92","","<img src=""img/purple-n.png"" border=""10"">","null","trial","null","","0,1","4:nogo_d","0",""
"null","","html-keyboard-response","498","537886","0.0-6.0-2.92","","<div style=""font-size:60px;"">+</div>","null","","","","","","",""
"638.9649999910034","","image-keyboard-response","499","538526","0.0-6.0-0.93","","img/green.png","32","trial","32","true","1,0","3:go_c","",""
"null","","html-keyboard-response","500","539543","0.0-6.0-1.93","","<img src=""img/green-r.png"" border=""10"">","null","trial","32","","1,0","3:go_c","1",""
"null","","html-keyboard-response","501","540555","0.0-6.0-2.93","","<div style=""font-size:60px;"">+</div>","null","","","","","","",""
"934.6050000167452","","image-keyboard-response","502","541491","0.0-6.0-0.94","","img/red.png","32","trial","32","true","0.8,0.2","1:go_a","",""
"null","","html-keyboard-response","503","542505","0.0-6.0-1.94","","<img src=""img/red-r.png"" border=""10"">","null","trial","32","","0.8,0.2","1:go_a","1",""
"null","","html-keyboard-response","504","543506","0.0-6.0-2.94","","<div style=""font-size:60px;"">+</div>","null","","","","","","",""
"705.3699999814853","","image-keyboard-response","505","544213","0.0-6.0-0.95","","img/orange.png","32","trial","null","false","0.2,0.8","2:nogo_b","",""
"null","","html-keyboard-response","506","545226","0.0-6.0-1.95","","<img src=""img/orange-n.png"" border=""10"">","null","trial","null","","0.2,0.8","2:nogo_b","0",""
"null","","html-keyboard-response","507","546242","0.0-6.0-2.95","","<div style=""font-size:60px;"">+</div>","null","","","","","","",""
"891.219999990426","","image-keyboard-response","508","547134","0.0-6.0-0.96","","img/orange.png","32","trial","null","false","0.2,0.8","2:nogo_b","",""
"null","","html-keyboard-response","509","548138","0.0-6.0-1.96","","<img src=""img/orange-n.png"" border=""10"">","null","trial","null","","0.2,0.8","2:nogo_b","0",""
"null","","html-keyboard-response","510","549142","0.0-6.0-2.96","","<div style=""font-size:60px;"">+</div>","null","","","","","","",""
"339.0699999872595","","image-keyboard-response","511","549482","0.0-6.0-0.97","","img/red.png","32","trial","32","true","0.8,0.2","1:go_a","",""
"null","","html-keyboard-response","512","550486","0.0-6.0-1.97","","<img src=""img/red-r.png"" border=""10"">","null","trial","32","","0.8,0.2","1:go_a","1",""
"null","","html-keyboard-response","513","551492","0.0-6.0-2.97","","<div style=""font-size:60px;"">+</div>","null","","","","","","",""
"548.9100000122562","","image-keyboard-response","514","552041","0.0-6.0-0.98","","img/purple.png","32","trial","null","false","0,1","4:nogo_d","",""
"null","","html-keyboard-response","515","553054","0.0-6.0-1.98","","<img src=""img/purple-n.png"" border=""10"">","null","trial","null","","0,1","4:nogo_d","0",""
"null","","html-keyboard-response","516","554055","0.0-6.0-2.98","","<div style=""font-size:60px;"">+</div>","null","","","","","","",""
"676.4100000145845","","image-keyboard-response","517","554732","0.0-6.0-0.99","","img/green.png","32","trial","32","true","1,0","3:go_c","",""
"null","","html-keyboard-response","518","555742","0.0-6.0-1.99","","<img src=""img/green-r.png"" border=""10"">","null","trial","32","","1,0","3:go_c","1",""
"null","","html-keyboard-response","519","556750","0.0-6.0-2.99","","<div style=""font-size:60px;"">+</div>","null","","","","","","",""
"766.109999967739","","image-keyboard-response","520","557517","0.0-6.0-0.100","","img/orange.png","32","trial","null","false","0.2,0.8","2:nogo_b","",""
"null","","html-keyboard-response","521","558521","0.0-6.0-1.100","","<img src=""img/orange-r.png"" border=""10"">","null","trial","null","","0.2,0.8","2:nogo_b","1",""
"null","","html-keyboard-response","522","559529","0.0-6.0-2.100","","<div style=""font-size:60px;"">+</div>","null","","","","","","",""
"658.9050000184216","","image-keyboard-response","523","560189","0.0-6.0-0.101","","img/purple.png","32","trial","null","false","0,1","4:nogo_d","",""
"null","","html-keyboard-response","524","561205","0.0-6.0-1.101","","<img src=""img/purple-n.png"" border=""10"">","null","trial","null","","0,1","4:nogo_d","0",""
"null","","html-keyboard-response","525","562207","0.0-6.0-2.101","","<div style=""font-size:60px;"">+</div>","null","","","","","","",""
"603.5150000243448","","image-keyboard-response","526","562812","0.0-6.0-0.102","","img/red.png","32","trial","32","true","0.8,0.2","1:go_a","",""
"null","","html-keyboard-response","527","563817","0.0-6.0-1.102","","<img src=""img/red-n.png"" border=""10"">","null","trial","32","","0.8,0.2","1:go_a","0",""
"null","","html-keyboard-response","528","564827","0.0-6.0-2.102","","<div style=""font-size:60px;"">+</div>","null","","","","","","",""
"464.16999999200925","","image-keyboard-response","529","565292","0.0-6.0-0.103","","img/green.png","32","trial","32","true","1,0","3:go_c","",""
"null","","html-keyboard-response","530","566294","0.0-6.0-1.103","","<img src=""img/green-r.png"" border=""10"">","null","trial","32","","1,0","3:go_c","1",""
"null","","html-keyboard-response","531","567311","0.0-6.0-2.103","","<div style=""font-size:60px;"">+</div>","null","","","","","","",""
"800.4800000344403","","image-keyboard-response","532","568112","0.0-6.0-0.104","","img/red.png","32","trial","32","true","0.8,0.2","1:go_a","",""
"null","","html-keyboard-response","533","569123","0.0-6.0-1.104","","<img src=""img/red-r.png"" border=""10"">","null","trial","32","","0.8,0.2","1:go_a","1",""
"null","","html-keyboard-response","534","570126","0.0-6.0-2.104","","<div style=""font-size:60px;"">+</div>","null","","","","","","",""
"608.0800000345334","","image-keyboard-response","535","570735","0.0-6.0-0.105","","img/orange.png","32","trial","null","false","0.2,0.8","2:nogo_b","",""
"null","","html-keyboard-response","536","571743","0.0-6.0-1.105","","<img src=""img/orange-r.png"" border=""10"">","null","trial","null","","0.2,0.8","2:nogo_b","1",""
"null","","html-keyboard-response","537","572745","0.0-6.0-2.105","","<div style=""font-size:60px;"">+</div>","null","","","","","","",""
"null","","image-keyboard-response","538","574247","0.0-6.0-0.106","","img/purple.png","null","trial","null","true","0,1","4:nogo_d","",""
"null","","html-keyboard-response","539","575249","0.0-6.0-1.106","","<img src=""img/purple-r.png"">","null","trial","null","","0,1","4:nogo_d","1",""
"null","","html-keyboard-response","540","576252","0.0-6.0-2.106","","<div style=""font-size:60px;"">+</div>","null","","","","","","",""
"528.2850000075996","","image-keyboard-response","541","576781","0.0-6.0-0.107","","img/green.png","32","trial","32","true","1,0","3:go_c","",""
"null","","html-keyboard-response","542","577794","0.0-6.0-1.107","","<img src=""img/green-r.png"" border=""10"">","null","trial","32","","1,0","3:go_c","1",""
"null","","html-keyboard-response","543","578796","0.0-6.0-2.107","","<div style=""font-size:60px;"">+</div>","null","","","","","","",""
"492.9099999717437","","image-keyboard-response","544","579290","0.0-6.0-0.108","","img/green.png","32","trial","32","true","1,0","3:go_c","",""
"null","","html-keyboard-response","545","580293","0.0-6.0-1.108","","<img src=""img/green-r.png"" border=""10"">","null","trial","32","","1,0","3:go_c","1",""
"null","","html-keyboard-response","546","581295","0.0-6.0-2.108","","<div style=""font-size:60px;"">+</div>","null","","","","","","",""
"155.88000003481284","","image-keyboard-response","547","581452","0.0-6.0-0.109","","img/purple.png","32","trial","null","false","0,1","4:nogo_d","",""
"null","","html-keyboard-response","548","582466","0.0-6.0-1.109","","<img src=""img/purple-n.png"" border=""10"">","null","trial","null","","0,1","4:nogo_d","0",""
"null","","html-keyboard-response","549","583472","0.0-6.0-2.109","","<div style=""font-size:60px;"">+</div>","null","","","","","","",""
"84.80000001145527","","image-keyboard-response","550","583558","0.0-6.0-0.110","","img/red.png","32","trial","32","true","0.8,0.2","1:go_a","",""
"null","","html-keyboard-response","551","584563","0.0-6.0-1.110","","<img src=""img/red-r.png"" border=""10"">","null","trial","32","","0.8,0.2","1:go_a","1",""
"null","","html-keyboard-response","552","585570","0.0-6.0-2.110","","<div style=""font-size:60px;"">+</div>","null","","","","","","",""
"244.2000000155531","","image-keyboard-response","553","585815","0.0-6.0-0.111","","img/orange.png","32","trial","null","false","0.2,0.8","2:nogo_b","",""
"null","","html-keyboard-response","554","586818","0.0-6.0-1.111","","<img src=""img/orange-n.png"" border=""10"">","null","trial","null","","0.2,0.8","2:nogo_b","0",""
"null","","html-keyboard-response","555","587820","0.0-6.0-2.111","","<div style=""font-size:60px;"">+</div>","null","","","","","","",""
"583.3099999581464","","image-keyboard-response","556","588405","0.0-6.0-0.112","","img/red.png","32","trial","32","true","0.8,0.2","1:go_a","",""
"null","","html-keyboard-response","557","589418","0.0-6.0-1.112","","<img src=""img/red-n.png"" border=""10"">","null","trial","32","","0.8,0.2","1:go_a","0",""
"null","","html-keyboard-response","558","590419","0.0-6.0-2.112","","<div style=""font-size:60px;"">+</div>","null","","","","","","",""
"608.3199999993667","","image-keyboard-response","559","591029","0.0-6.0-0.113","","img/orange.png","32","trial","null","false","0.2,0.8","2:nogo_b","",""
"null","","html-keyboard-response","560","592039","0.0-6.0-1.113","","<img src=""img/orange-r.png"" border=""10"">","null","trial","null","","0.2,0.8","2:nogo_b","1",""
"null","","html-keyboard-response","561","593056","0.0-6.0-2.113","","<div style=""font-size:60px;"">+</div>","null","","","","","","",""
"261.95000001462176","","image-keyboard-response","562","593319","0.0-6.0-0.114","","img/purple.png","32","trial","null","false","0,1","4:nogo_d","",""
"null","","html-keyboard-response","563","594335","0.0-6.0-1.114","","<img src=""img/purple-n.png"" border=""10"">","null","trial","null","","0,1","4:nogo_d","0",""
"null","","html-keyboard-response","564","595343","0.0-6.0-2.114","","<div style=""font-size:60px;"">+</div>","null","","","","","","",""
"696.4300000108778","","image-keyboard-response","565","596041","0.0-6.0-0.115","","img/green.png","32","trial","32","true","1,0","3:go_c","",""
"null","","html-keyboard-response","566","597055","0.0-6.0-1.115","","<img src=""img/green-r.png"" border=""10"">","null","trial","32","","1,0","3:go_c","1",""
"null","","html-keyboard-response","567","598064","0.0-6.0-2.115","","<div style=""font-size:60px;"">+</div>","null","","","","","","",""
"781.4200000138953","","image-keyboard-response","568","598846","0.0-6.0-0.116","","img/purple.png","32","trial","null","false","0,1","4:nogo_d","",""
"null","","html-keyboard-response","569","599852","0.0-6.0-1.116","","<img src=""img/purple-n.png"" border=""10"">","null","trial","null","","0,1","4:nogo_d","0",""
"null","","html-keyboard-response","570","600856","0.0-6.0-2.116","","<div style=""font-size:60px;"">+</div>","null","","","","","","",""
"188.65500000538304","","image-keyboard-response","571","601046","0.0-6.0-0.117","","img/green.png","32","trial","32","true","1,0","3:go_c","",""
"null","","html-keyboard-response","572","602050","0.0-6.0-1.117","","<img src=""img/green-r.png"" border=""10"">","null","trial","32","","1,0","3:go_c","1",""
"null","","html-keyboard-response","573","603058","0.0-6.0-2.117","","<div style=""font-size:60px;"">+</div>","null","","","","","","",""
"148.15000002272427","","image-keyboard-response","574","603208","0.0-6.0-0.118","","img/orange.png","32","trial","null","false","0.2,0.8","2:nogo_b","",""
"null","","html-keyboard-response","575","604210","0.0-6.0-1.118","","<img src=""img/orange-n.png"" border=""10"">","null","trial","null","","0.2,0.8","2:nogo_b","0",""
"null","","html-keyboard-response","576","605212","0.0-6.0-2.118","","<div style=""font-size:60px;"">+</div>","null","","","","","","",""
"1146.790000027977","","image-keyboard-response","577","606360","0.0-6.0-0.119","","img/red.png","32","trial","32","true","0.8,0.2","1:go_a","",""
"null","","html-keyboard-response","578","607372","0.0-6.0-1.119","","<img src=""img/red-r.png"" border=""10"">","null","trial","32","","0.8,0.2","1:go_a","1",""
"null","","html-keyboard-response","579","608373","0.0-6.0-2.119","","<div style=""font-size:60px;"">+</div>","null","","","","","","",""
"14788.059999991674","","instructions","580","623161","0.0-7.0","[{""page_index"":0,""viewing_time"":14787.650000012945}]","","","","","","","","",""
"null","","image-keyboard-response","581","624674","0.0-8.0-0.0","","img/grey.png","null","trial","32","false","0.8,0.2","3:go_c","",""
"null","","html-keyboard-response","582","625683","0.0-8.0-1.0","","<img src=""img/grey-n.png"">","null","trial","32","","0.8,0.2","3:go_c","0",""
"null","","html-keyboard-response","583","626685","0.0-8.0-2.0","","<div style=""font-size:60px;"">+</div>","null","","","","","","",""
"636.9650000124238","","image-keyboard-response","584","627323","0.0-8.0-0.1","","img/pink.png","32","trial","null","false","0.2,0.8","4:nogo_d","",""
"null","","html-keyboard-response","585","628325","0.0-8.0-1.1","","<img src=""img/pink-r.png"" border=""10"">","null","trial","null","","0.2,0.8","4:nogo_d","1",""
"null","","html-keyboard-response","586","629330","0.0-8.0-2.1","","<div style=""font-size:60px;"">+</div>","null","","","","","","",""
"null","","image-keyboard-response","587","630837","0.0-8.0-0.2","","img/yellow.png","null","trial","32","false","0.8,0.2","1:go_a","",""
"null","","html-keyboard-response","588","631848","0.0-8.0-1.2","","<img src=""img/yellow-n.png"">","null","trial","32","","0.8,0.2","1:go_a","0",""
"null","","html-keyboard-response","589","632850","0.0-8.0-2.2","","<div style=""font-size:60px;"">+</div>","null","","","","","","",""
"805.6000000215136","","image-keyboard-response","590","633657","0.0-8.0-0.3","","img/purple.png","32","trial","null","false","0.2,0.8","2:nogo_b","",""
"null","","html-keyboard-response","591","634674","0.0-8.0-1.3","","<img src=""img/purple-n.png"" border=""10"">","null","trial","null","","0.2,0.8","2:nogo_b","0",""
"null","","html-keyboard-response","592","635687","0.0-8.0-2.3","","<div style=""font-size:60px;"">+</div>","null","","","","","","",""
"15.22499998100102","","image-keyboard-response","593","635703","0.0-8.0-0.4","","img/pink.png","32","trial","null","false","0.2,0.8","4:nogo_d","",""
"null","","html-keyboard-response","594","636706","0.0-8.0-1.4","","<img src=""img/pink-n.png"" border=""10"">","null","trial","null","","0.2,0.8","4:nogo_d","0",""
"null","","html-keyboard-response","595","637719","0.0-8.0-2.4","","<div style=""font-size:60px;"">+</div>","null","","","","","","",""
"134.35999996727332","","image-keyboard-response","596","637855","0.0-8.0-0.5","","img/grey.png","32","trial","32","true","0.8,0.2","3:go_c","",""
"null","","html-keyboard-response","597","638857","0.0-8.0-1.5","","<img src=""img/grey-n.png"" border=""10"">","null","trial","32","","0.8,0.2","3:go_c","0",""
"null","","html-keyboard-response","598","639865","0.0-8.0-2.5","","<div style=""font-size:60px;"">+</div>","null","","","","","","",""
"681.879999989178","","image-keyboard-response","599","640548","0.0-8.0-0.6","","img/yellow.png","32","trial","32","true","0.8,0.2","1:go_a","",""
"null","","html-keyboard-response","600","641554","0.0-8.0-1.6","","<img src=""img/yellow-r.png"" border=""10"">","null","trial","32","","0.8,0.2","1:go_a","1",""
"null","","html-keyboard-response","601","642559","0.0-8.0-2.6","","<div style=""font-size:60px;"">+</div>","null","","","","","","",""
"830.3750000195578","","image-keyboard-response","602","643390","0.0-8.0-0.7","","img/purple.png","32","trial","null","false","0.2,0.8","2:nogo_b","",""
"null","","html-keyboard-response","603","644399","0.0-8.0-1.7","","<img src=""img/purple-n.png"" border=""10"">","null","trial","null","","0.2,0.8","2:nogo_b","0",""
"null","","html-keyboard-response","604","645401","0.0-8.0-2.7","","<div style=""font-size:60px;"">+</div>","null","","","","","","",""
"771.9550000037998","","image-keyboard-response","605","646174","0.0-8.0-0.8","","img/pink.png","32","trial","null","false","0.2,0.8","4:nogo_d","",""
"null","","html-keyboard-response","606","647181","0.0-8.0-1.8","","<img src=""img/pink-n.png"" border=""10"">","null","trial","null","","0.2,0.8","4:nogo_d","0",""
"null","","html-keyboard-response","607","648182","0.0-8.0-2.8","","<div style=""font-size:60px;"">+</div>","null","","","","","","",""
"1323.6049999832176","","image-keyboard-response","608","649507","0.0-8.0-0.9","","img/purple.png","32","trial","null","false","0.2,0.8","2:nogo_b","",""
"null","","html-keyboard-response","609","650519","0.0-8.0-1.9","","<img src=""img/purple-n.png"" border=""10"">","null","trial","null","","0.2,0.8","2:nogo_b","0",""
"null","","html-keyboard-response","610","651531","0.0-8.0-2.9","","<div style=""font-size:60px;"">+</div>","null","","","","","","",""
"1080.9149999986403","","image-keyboard-response","611","652613","0.0-8.0-0.10","","img/yellow.png","32","trial","32","true","0.8,0.2","1:go_a","",""
"null","","html-keyboard-response","612","653617","0.0-8.0-1.10","","<img src=""img/yellow-n.png"" border=""10"">","null","trial","32","","0.8,0.2","1:go_a","0",""
"null","","html-keyboard-response","613","654629","0.0-8.0-2.10","","<div style=""font-size:60px;"">+</div>","null","","","","","","",""
"1137.8399999812245","","image-keyboard-response","614","655767","0.0-8.0-0.11","","img/grey.png","32","trial","32","true","0.8,0.2","3:go_c","",""
"null","","html-keyboard-response","615","656773","0.0-8.0-1.11","","<img src=""img/grey-r.png"" border=""10"">","null","trial","32","","0.8,0.2","3:go_c","1",""
"null","","html-keyboard-response","616","657780","0.0-8.0-2.11","","<div style=""font-size:60px;"">+</div>","null","","","","","","",""
"null","","image-keyboard-response","617","659285","0.0-8.0-0.12","","img/purple.png","null","trial","null","true","0.2,0.8","2:nogo_b","",""
"null","","html-keyboard-response","618","660287","0.0-8.0-1.12","","<img src=""img/purple-r.png"">","null","trial","null","","0.2,0.8","2:nogo_b","1",""
"null","","html-keyboard-response","619","661292","0.0-8.0-2.12","","<div style=""font-size:60px;"">+</div>","null","","","","","","",""
"null","","image-keyboard-response","620","662801","0.0-8.0-0.13","","img/pink.png","null","trial","null","true","0.2,0.8","4:nogo_d","",""
"null","","html-keyboard-response","621","663810","0.0-8.0-1.13","","<img src=""img/pink-n.png"">","null","trial","null","","0.2,0.8","4:nogo_d","0",""
"null","","html-keyboard-response","622","664816","0.0-8.0-2.13","","<div style=""font-size:60px;"">+</div>","null","","","","","","",""
"null","","image-keyboard-response","623","666319","0.0-8.0-0.14","","img/grey.png","null","trial","32","false","0.8,0.2","3:go_c","",""
"null","","html-keyboard-response","624","667335","0.0-8.0-1.14","","<img src=""img/grey-n.png"">","null","trial","32","","0.8,0.2","3:go_c","0",""
"null","","html-keyboard-response","625","668345","0.0-8.0-2.14","","<div style=""font-size:60px;"">+</div>","null","","","","","","",""
"633.185000042431","","image-keyboard-response","626","668979","0.0-8.0-0.15","","img/yellow.png","32","trial","32","true","0.8,0.2","1:go_a","",""
"null","","html-keyboard-response","627","669982","0.0-8.0-1.15","","<img src=""img/yellow-n.png"" border=""10"">","null","trial","32","","0.8,0.2","1:go_a","0",""
"null","","html-keyboard-response","628","670992","0.0-8.0-2.15","","<div style=""font-size:60px;"">+</div>","null","","","","","","",""
"null","","image-keyboard-response","629","672495","0.0-8.0-0.16","","img/purple.png","null","trial","null","true","0.2,0.8","2:nogo_b","",""
"null","","html-keyboard-response","630","673509","0.0-8.0-1.16","","<img src=""img/purple-r.png"">","null","trial","null","","0.2,0.8","2:nogo_b","1",""
"null","","html-keyboard-response","631","674515","0.0-8.0-2.16","","<div style=""font-size:60px;"">+</div>","null","","","","","","",""
"null","","image-keyboard-response","632","676018","0.0-8.0-0.17","","img/yellow.png","null","trial","32","false","0.8,0.2","1:go_a","",""
"null","","html-keyboard-response","633","677023","0.0-8.0-1.17","","<img src=""img/yellow-n.png"">","null","trial","32","","0.8,0.2","1:go_a","0",""
"null","","html-keyboard-response","634","678038","0.0-8.0-2.17","","<div style=""font-size:60px;"">+</div>","null","","","","","","",""
"null","","image-keyboard-response","635","679553","0.0-8.0-0.18","","img/grey.png","null","trial","32","false","0.8,0.2","3:go_c","",""
"null","","html-keyboard-response","636","680556","0.0-8.0-1.18","","<img src=""img/grey-n.png"">","null","trial","32","","0.8,0.2","3:go_c","0",""
"null","","html-keyboard-response","637","681562","0.0-8.0-2.18","","<div style=""font-size:60px;"">+</div>","null","","","","","","",""
"523.8400000380352","","image-keyboard-response","638","682087","0.0-8.0-0.19","","img/pink.png","32","trial","null","false","0.2,0.8","4:nogo_d","",""
"null","","html-keyboard-response","639","683103","0.0-8.0-1.19","","<img src=""img/pink-r.png"" border=""10"">","null","trial","null","","0.2,0.8","4:nogo_d","1",""
"null","","html-keyboard-response","640","684105","0.0-8.0-2.19","","<div style=""font-size:60px;"">+</div>","null","","","","","","",""
"null","","image-keyboard-response","641","685620","0.0-8.0-0.20","","img/yellow.png","null","trial","32","false","0.8,0.2","1:go_a","",""
"null","","html-keyboard-response","642","686631","0.0-8.0-1.20","","<img src=""img/yellow-n.png"">","null","trial","32","","0.8,0.2","1:go_a","0",""
"null","","html-keyboard-response","643","687648","0.0-8.0-2.20","","<div style=""font-size:60px;"">+</div>","null","","","","","","",""
"279.90999998291954","","image-keyboard-response","644","687929","0.0-8.0-0.21","","img/grey.png","32","trial","32","true","0.8,0.2","3:go_c","",""
"null","","html-keyboard-response","645","688933","0.0-8.0-1.21","","<img src=""img/grey-r.png"" border=""10"">","null","trial","32","","0.8,0.2","3:go_c","1",""
"null","","html-keyboard-response","646","689935","0.0-8.0-2.21","","<div style=""font-size:60px;"">+</div>","null","","","","","","",""
"321.349999983795","","image-keyboard-response","647","690257","0.0-8.0-0.22","","img/pink.png","32","trial","null","false","0.2,0.8","4:nogo_d","",""
"null","","html-keyboard-response","648","691263","0.0-8.0-1.22","","<img src=""img/pink-n.png"" border=""10"">","null","trial","null","","0.2,0.8","4:nogo_d","0",""
"null","","html-keyboard-response","649","692268","0.0-8.0-2.22","","<div style=""font-size:60px;"">+</div>","null","","","","","","",""
"870.1299999956973","","image-keyboard-response","650","693139","0.0-8.0-0.23","","img/purple.png","32","trial","null","false","0.2,0.8","2:nogo_b","",""
"null","","html-keyboard-response","651","694141","0.0-8.0-1.23","","<img src=""img/purple-n.png"" border=""10"">","null","trial","null","","0.2,0.8","2:nogo_b","0",""
"null","","html-keyboard-response","652","695145","0.0-8.0-2.23","","<div style=""font-size:60px;"">+</div>","null","","","","","","",""
"162.5099999946542","","image-keyboard-response","653","695309","0.0-8.0-0.24","","img/yellow.png","32","trial","32","true","0.8,0.2","1:go_a","",""
"null","","html-keyboard-response","654","696316","0.0-8.0-1.24","","<img src=""img/yellow-n.png"" border=""10"">","null","trial","32","","0.8,0.2","1:go_a","0",""
"null","","html-keyboard-response","655","697327","0.0-8.0-2.24","","<div style=""font-size:60px;"">+</div>","null","","","","","","",""
"29.57000001333654","","image-keyboard-response","656","697358","0.0-8.0-0.25","","img/grey.png","32","trial","32","true","0.8,0.2","3:go_c","",""
"null","","html-keyboard-response","657","698362","0.0-8.0-1.25","","<img src=""img/grey-r.png"" border=""10"">","null","trial","32","","0.8,0.2","3:go_c","1",""
"null","","html-keyboard-response","658","699375","0.0-8.0-2.25","","<div style=""font-size:60px;"">+</div>","null","","","","","","",""
"null","","image-keyboard-response","659","700883","0.0-8.0-0.26","","img/purple.png","null","trial","null","true","0.2,0.8","2:nogo_b","",""
"null","","html-keyboard-response","660","701894","0.0-8.0-1.26","","<img src=""img/purple-r.png"">","null","trial","null","","0.2,0.8","2:nogo_b","1",""
"null","","html-keyboard-response","661","702896","0.0-8.0-2.26","","<div style=""font-size:60px;"">+</div>","null","","","","","","",""
"295.8999999682419","","image-keyboard-response","662","703193","0.0-8.0-0.27","","img/pink.png","32","trial","null","false","0.2,0.8","4:nogo_d","",""
"null","","html-keyboard-response","663","704196","0.0-8.0-1.27","","<img src=""img/pink-n.png"" border=""10"">","null","trial","null","","0.2,0.8","4:nogo_d","0",""
"null","","html-keyboard-response","664","705208","0.0-8.0-2.27","","<div style=""font-size:60px;"">+</div>","null","","","","","","",""
"181.80999998003244","","image-keyboard-response","665","705391","0.0-8.0-0.28","","img/grey.png","32","trial","32","true","0.8,0.2","3:go_c","",""
"null","","html-keyboard-response","666","706397","0.0-8.0-1.28","","<img src=""img/grey-r.png"" border=""10"">","null","trial","32","","0.8,0.2","3:go_c","1",""
"null","","html-keyboard-response","667","707399","0.0-8.0-2.28","","<div style=""font-size:60px;"">+</div>","null","","","","","","",""
"218.3599999989383","","image-keyboard-response","668","707619","0.0-8.0-0.29","","img/yellow.png","32","trial","32","true","0.8,0.2","1:go_a","",""
"null","","html-keyboard-response","669","708865","0.0-8.0-1.29","","<img src=""img/yellow-r.png"" border=""10"">","null","trial","32","","0.8,0.2","1:go_a","1",""
"null","","html-keyboard-response","670","710839","0.0-8.0-2.29","","<div style=""font-size:60px;"">+</div>","null","","","","","","",""
"743.784999998752","","image-keyboard-response","671","711587","0.0-8.0-0.30","","img/pink.png","32","trial","null","false","0.2,0.8","4:nogo_d","",""
"null","","html-keyboard-response","672","712604","0.0-8.0-1.30","","<img src=""img/pink-n.png"" border=""10"">","null","trial","null","","0.2,0.8","4:nogo_d","0",""
"null","","html-keyboard-response","673","713605","0.0-8.0-2.30","","<div style=""font-size:60px;"">+</div>","null","","","","","","",""
"333.56499997898936","","image-keyboard-response","674","713940","0.0-8.0-0.31","","img/purple.png","32","trial","null","false","0.2,0.8","2:nogo_b","",""
