"rt","url","trial_type","trial_index","time_elapsed","internal_node_id","view_history","stimulus","key_press","test_part","correct_response","correct","use_rew","which_stim","reward","responses"
"25348.19500008598","consent.html","external-html","0","25416","0.0-0.0","","","","","","","","","",""
"189686.05000001844","","instructions","1","215110","0.0-1.0","[{""page_index"":0,""viewing_time"":3453.5049999831244},{""page_index"":1,""viewing_time"":29623.59000009019},{""page_index"":2,""viewing_time"":57672.395000001416},{""page_index"":3,""viewing_time"":34047.90999996476},{""page_index"":4,""viewing_time"":13639.850000035949},{""page_index"":5,""viewing_time"":10664.064999902621},{""page_index"":6,""viewing_time"":40583.96000007633}]","","","","","","","","",""
"606.1999999219552","","image-keyboard-response","2","215718","0.0-2.0-0.0","","img/test1.PNG","32","practice","32","true","","","",""
"null","","html-keyboard-response","3","216733","0.0-2.0-1.0","","<img src=""img/test1-reward.PNG"" border=""10px; grey"">","null","","","","","","",""
"null","","html-keyboard-response","4","217749","0.0-2.0-2.0","","<div style=""font-size:60px;"">+</div>","null","","","","","","",""
"null","","image-keyboard-response","5","219265","0.0-2.0-0.1","","img/test2.PNG","null","practice","null","true","","","",""
"null","","html-keyboard-response","6","220273","0.0-2.0-1.1","","<img src=""img/test2-reward.PNG"">","null","","","","","","",""
"null","","html-keyboard-response","7","221279","0.0-2.0-2.1","","<div style=""font-size:60px;"">+</div>","null","","","","","","",""
"null","","image-keyboard-response","8","222784","0.0-2.0-0.2","","img/test3.PNG","null","practice","null","true","","","",""
"null","","html-keyboard-response","9","223786","0.0-2.0-1.2","","<img src=""img/test3-reward.PNG"">","null","","","","","","",""
"null","","html-keyboard-response","10","224789","0.0-2.0-2.2","","<div style=""font-size:60px;"">+</div>","null","","","","","","",""
"525.7950000232086","","image-keyboard-response","11","225317","0.0-2.0-0.3","","img/test1.PNG","32","practice","32","true","","","",""
"null","","html-keyboard-response","12","226322","0.0-2.0-1.3","","<img src=""img/test1-reward.PNG"" border=""10px; grey"">","null","","","","","","",""
"null","","html-keyboard-response","13","227325","0.0-2.0-2.3","","<div style=""font-size:60px;"">+</div>","null","","","","","","",""
"null","","image-keyboard-response","14","228838","0.0-2.0-0.4","","img/test3.PNG","null","practice","null","true","","","",""
"null","","html-keyboard-response","15","229842","0.0-2.0-1.4","","<img src=""img/test3-reward.PNG"">","null","","","","","","",""
"null","","html-keyboard-response","16","230854","0.0-2.0-2.4","","<div style=""font-size:60px;"">+</div>","null","","","","","","",""
"null","","image-keyboard-response","17","232370","0.0-2.0-0.5","","img/test2.PNG","null","practice","null","true","","","",""
"null","","html-keyboard-response","18","233377","0.0-2.0-1.5","","<img src=""img/test2-reward.PNG"">","null","","","","","","",""
"null","","html-keyboard-response","19","234387","0.0-2.0-2.5","","<div style=""font-size:60px;"">+</div>","null","","","","","","",""
"null","","image-keyboard-response","20","235902","0.0-2.0-0.6","","img/test2.PNG","null","practice","null","true","","","",""
"null","","html-keyboard-response","21","236906","0.0-2.0-1.6","","<img src=""img/test2-reward.PNG"">","null","","","","","","",""
"null","","html-keyboard-response","22","237916","0.0-2.0-2.6","","<div style=""font-size:60px;"">+</div>","null","","","","","","",""
"null","","image-keyboard-response","23","239430","0.0-2.0-0.7","","img/test3.PNG","null","practice","null","true","","","",""
"null","","html-keyboard-response","24","240441","0.0-2.0-1.7","","<img src=""img/test3-reward.PNG"">","null","","","","","","",""
"null","","html-keyboard-response","25","241453","0.0-2.0-2.7","","<div style=""font-size:60px;"">+</div>","null","","","","","","",""
"683.0899999476969","","image-keyboard-response","26","242139","0.0-2.0-0.8","","img/test1.PNG","32","practice","32","true","","","",""
"null","","html-keyboard-response","27","243141","0.0-2.0-1.8","","<img src=""img/test1-reward.PNG"" border=""10px; grey"">","null","","","","","","",""
"null","","html-keyboard-response","28","244143","0.0-2.0-2.8","","<div style=""font-size:60px;"">+</div>","null","","","","","","",""
"null","","image-keyboard-response","29","245648","0.0-2.0-0.9","","img/test2.PNG","null","practice","null","true","","","",""
"null","","html-keyboard-response","30","246662","0.0-2.0-1.9","","<img src=""img/test2-reward.PNG"">","null","","","","","","",""
"null","","html-keyboard-response","31","247670","0.0-2.0-2.9","","<div style=""font-size:60px;"">+</div>","null","","","","","","",""
"null","","image-keyboard-response","32","249175","0.0-2.0-0.10","","img/test3.PNG","null","practice","null","true","","","",""
"null","","html-keyboard-response","33","250192","0.0-2.0-1.10","","<img src=""img/test3-reward.PNG"">","null","","","","","","",""
"null","","html-keyboard-response","34","251198","0.0-2.0-2.10","","<div style=""font-size:60px;"">+</div>","null","","","","","","",""
"538.7649999465793","","image-keyboard-response","35","251739","0.0-2.0-0.11","","img/test1.PNG","32","practice","32","true","","","",""
"null","","html-keyboard-response","36","252756","0.0-2.0-1.11","","<img src=""img/test1-reward.PNG"" border=""10px; grey"">","null","","","","","","",""
"null","","html-keyboard-response","37","253762","0.0-2.0-2.11","","<div style=""font-size:60px;"">+</div>","null","","","","","","",""
"284378.60499997623","","instructions","38","538141","0.0-3.0","[{""page_index"":0,""viewing_time"":284378.3499998972}]","","","","","","","","",""
"638.7800000375137","","image-keyboard-response","39","538781","0.0-4.0-0.0","","img/orange.png","32","trial","32","true","0.8,0.2","1:go_a","",""
"null","","html-keyboard-response","40","539784","0.0-4.0-1.0","","<img src=""img/orange-r.png"" border=""10"">","null","trial","32","","0.8,0.2","1:go_a","1",""
"null","","html-keyboard-response","41","540800","0.0-4.0-2.0","","<div style=""font-size:60px;"">+</div>","null","","","","","","",""
"725.6050000432879","","image-keyboard-response","42","541528","0.0-4.0-0.1","","img/green.png","32","trial","null","false","0.2,0.8","2:nogo_b","",""
"null","","html-keyboard-response","43","542532","0.0-4.0-1.1","","<img src=""img/green-n.png"" border=""10"">","null","trial","null","","0.2,0.8","2:nogo_b","0",""
"null","","html-keyboard-response","44","543536","0.0-4.0-2.1","","<div style=""font-size:60px;"">+</div>","null","","","","","","",""
"628.2549999887124","","image-keyboard-response","45","544165","0.0-4.0-0.2","","img/orange.png","32","trial","32","true","0.8,0.2","1:go_a","",""
"null","","html-keyboard-response","46","545169","0.0-4.0-1.2","","<img src=""img/orange-r.png"" border=""10"">","null","trial","32","","0.8,0.2","1:go_a","1",""
"null","","html-keyboard-response","47","546180","0.0-4.0-2.2","","<div style=""font-size:60px;"">+</div>","null","","","","","","",""
"null","","image-keyboard-response","48","547695","0.0-4.0-0.3","","img/green.png","null","trial","null","true","0.2,0.8","2:nogo_b","",""
"null","","html-keyboard-response","49","548704","0.0-4.0-1.3","","<img src=""img/green-r.png"">","null","trial","null","","0.2,0.8","2:nogo_b","1",""
"null","","html-keyboard-response","50","549706","0.0-4.0-2.3","","<div style=""font-size:60px;"">+</div>","null","","","","","","",""
"null","","image-keyboard-response","51","551221","0.0-4.0-0.4","","img/green.png","null","trial","null","true","0.2,0.8","2:nogo_b","",""
"null","","html-keyboard-response","52","552223","0.0-4.0-1.4","","<img src=""img/green-r.png"">","null","trial","null","","0.2,0.8","2:nogo_b","1",""
"null","","html-keyboard-response","53","553235","0.0-4.0-2.4","","<div style=""font-size:60px;"">+</div>","null","","","","","","",""
"434.47000009473413","","image-keyboard-response","54","553672","0.0-4.0-0.5","","img/orange.png","32","trial","32","true","0.8,0.2","1:go_a","",""
"null","","html-keyboard-response","55","554680","0.0-4.0-1.5","","<img src=""img/orange-n.png"" border=""10"">","null","trial","32","","0.8,0.2","1:go_a","0",""
"null","","html-keyboard-response","56","555686","0.0-4.0-2.5","","<div style=""font-size:60px;"">+</div>","null","","","","","","",""
"510.5350000085309","","image-keyboard-response","57","556198","0.0-4.0-0.6","","img/orange.png","32","trial","32","true","0.8,0.2","1:go_a","",""
"null","","html-keyboard-response","58","557212","0.0-4.0-1.6","","<img src=""img/orange-r.png"" border=""10"">","null","trial","32","","0.8,0.2","1:go_a","1",""
"null","","html-keyboard-response","59","558227","0.0-4.0-2.6","","<div style=""font-size:60px;"">+</div>","null","","","","","","",""
"null","","image-keyboard-response","60","559745","0.0-4.0-0.7","","img/green.png","null","trial","null","true","0.2,0.8","2:nogo_b","",""
"null","","html-keyboard-response","61","560760","0.0-4.0-1.7","","<img src=""img/green-r.png"">","null","trial","null","","0.2,0.8","2:nogo_b","1",""
"null","","html-keyboard-response","62","561775","0.0-4.0-2.7","","<div style=""font-size:60px;"">+</div>","null","","","","","","",""
"510.26000001002103","","image-keyboard-response","63","562288","0.0-4.0-0.8","","img/orange.png","32","trial","32","true","0.8,0.2","1:go_a","",""
"null","","html-keyboard-response","64","563294","0.0-4.0-1.8","","<img src=""img/orange-n.png"" border=""10"">","null","trial","32","","0.8,0.2","1:go_a","0",""
"null","","html-keyboard-response","65","564310","0.0-4.0-2.8","","<div style=""font-size:60px;"">+</div>","null","","","","","","",""
"null","","image-keyboard-response","66","565826","0.0-4.0-0.9","","img/green.png","null","trial","null","true","0.2,0.8","2:nogo_b","",""
"null","","html-keyboard-response","67","566842","0.0-4.0-1.9","","<img src=""img/green-n.png"">","null","trial","null","","0.2,0.8","2:nogo_b","0",""
"null","","html-keyboard-response","68","567855","0.0-4.0-2.9","","<div style=""font-size:60px;"">+</div>","null","","","","","","",""
"null","","image-keyboard-response","69","569367","0.0-4.0-0.10","","img/green.png","null","trial","null","true","0.2,0.8","2:nogo_b","",""
"null","","html-keyboard-response","70","570375","0.0-4.0-1.10","","<img src=""img/green-n.png"">","null","trial","null","","0.2,0.8","2:nogo_b","0",""
"null","","html-keyboard-response","71","571379","0.0-4.0-2.10","","<div style=""font-size:60px;"">+</div>","null","","","","","","",""
"401.07000002171844","","image-keyboard-response","72","571782","0.0-4.0-0.11","","img/orange.png","32","trial","32","true","0.8,0.2","1:go_a","",""
"null","","html-keyboard-response","73","572796","0.0-4.0-1.11","","<img src=""img/orange-r.png"" border=""10"">","null","trial","32","","0.8,0.2","1:go_a","1",""
"null","","html-keyboard-response","74","573809","0.0-4.0-2.11","","<div style=""font-size:60px;"">+</div>","null","","","","","","",""
"578.3700000029057","","image-keyboard-response","75","574390","0.0-4.0-0.12","","img/green.png","32","trial","null","false","0.2,0.8","2:nogo_b","",""
"null","","html-keyboard-response","76","575393","0.0-4.0-1.12","","<img src=""img/green-r.png"" border=""10"">","null","trial","null","","0.2,0.8","2:nogo_b","1",""
"null","","html-keyboard-response","77","576408","0.0-4.0-2.12","","<div style=""font-size:60px;"">+</div>","null","","","","","","",""
"644.0699999220669","","image-keyboard-response","78","577054","0.0-4.0-0.13","","img/orange.png","32","trial","32","true","0.8,0.2","1:go_a","",""
"null","","html-keyboard-response","79","578069","0.0-4.0-1.13","","<img src=""img/orange-r.png"" border=""10"">","null","trial","32","","0.8,0.2","1:go_a","1",""
"null","","html-keyboard-response","80","579080","0.0-4.0-2.13","","<div style=""font-size:60px;"">+</div>","null","","","","","","",""
"813.6400000657886","","image-keyboard-response","81","579896","0.0-4.0-0.14","","img/green.png","32","trial","null","false","0.2,0.8","2:nogo_b","",""
"null","","html-keyboard-response","82","580911","0.0-4.0-1.14","","<img src=""img/green-r.png"" border=""10"">","null","trial","null","","0.2,0.8","2:nogo_b","1",""
"null","","html-keyboard-response","83","581929","0.0-4.0-2.14","","<div style=""font-size:60px;"">+</div>","null","","","","","","",""
"498.5150001011789","","image-keyboard-response","84","582429","0.0-4.0-0.15","","img/orange.png","32","trial","32","true","0.8,0.2","1:go_a","",""
"null","","html-keyboard-response","85","583441","0.0-4.0-1.15","","<img src=""img/orange-r.png"" border=""10"">","null","trial","32","","0.8,0.2","1:go_a","1",""
"null","","html-keyboard-response","86","584447","0.0-4.0-2.15","","<div style=""font-size:60px;"">+</div>","null","","","","","","",""
"487.0399999199435","","image-keyboard-response","87","584935","0.0-4.0-0.16","","img/green.png","32","trial","null","false","0.2,0.8","2:nogo_b","",""
"null","","html-keyboard-response","88","585946","0.0-4.0-1.16","","<img src=""img/green-r.png"" border=""10"">","null","trial","null","","0.2,0.8","2:nogo_b","1",""
"null","","html-keyboard-response","89","586956","0.0-4.0-2.16","","<div style=""font-size:60px;"">+</div>","null","","","","","","",""
"431.68499995954335","","image-keyboard-response","90","587390","0.0-4.0-0.17","","img/orange.png","32","trial","32","true","0.8,0.2","1:go_a","",""
"null","","html-keyboard-response","91","588396","0.0-4.0-1.17","","<img src=""img/orange-r.png"" border=""10"">","null","trial","32","","0.8,0.2","1:go_a","1",""
"null","","html-keyboard-response","92","589398","0.0-4.0-2.17","","<div style=""font-size:60px;"">+</div>","null","","","","","","",""
"252.76999990455806","","image-keyboard-response","93","589653","0.0-4.0-0.18","","img/green.png","32","trial","null","false","0.2,0.8","2:nogo_b","",""
"null","","html-keyboard-response","94","590654","0.0-4.0-1.18","","<img src=""img/green-n.png"" border=""10"">","null","trial","null","","0.2,0.8","2:nogo_b","0",""
"null","","html-keyboard-response","95","591662","0.0-4.0-2.18","","<div style=""font-size:60px;"">+</div>","null","","","","","","",""
"312.40499997511506","","image-keyboard-response","96","591977","0.0-4.0-0.19","","img/orange.png","32","trial","32","true","0.8,0.2","1:go_a","",""
"null","","html-keyboard-response","97","592985","0.0-4.0-1.19","","<img src=""img/orange-n.png"" border=""10"">","null","trial","32","","0.8,0.2","1:go_a","0",""
"null","","html-keyboard-response","98","593999","0.0-4.0-2.19","","<div style=""font-size:60px;"">+</div>","null","","","","","","",""
"698.8800000399351","","image-keyboard-response","99","594701","0.0-4.0-0.20","","img/green.png","32","trial","null","false","0.2,0.8","2:nogo_b","",""
"null","","html-keyboard-response","100","595717","0.0-4.0-1.20","","<img src=""img/green-n.png"" border=""10"">","null","trial","null","","0.2,0.8","2:nogo_b","0",""
"null","","html-keyboard-response","101","596745","0.0-4.0-2.20","","<div style=""font-size:60px;"">+</div>","null","","","","","","",""
"null","","image-keyboard-response","102","598254","0.0-4.0-0.21","","img/orange.png","null","trial","32","false","0.8,0.2","1:go_a","",""
"null","","html-keyboard-response","103","599260","0.0-4.0-1.21","","<img src=""img/orange-n.png"">","null","trial","32","","0.8,0.2","1:go_a","0",""
"null","","html-keyboard-response","104","600270","0.0-4.0-2.21","","<div style=""font-size:60px;"">+</div>","null","","","","","","",""
"821.6199999442324","","image-keyboard-response","105","601093","0.0-4.0-0.22","","img/orange.png","32","trial","32","true","0.8,0.2","1:go_a","",""
"null","","html-keyboard-response","106","602105","0.0-4.0-1.22","","<img src=""img/orange-r.png"" border=""10"">","null","trial","32","","0.8,0.2","1:go_a","1",""
"null","","html-keyboard-response","107","603120","0.0-4.0-2.22","","<div style=""font-size:60px;"">+</div>","null","","","","","","",""
"null","","image-keyboard-response","108","604622","0.0-4.0-0.23","","img/green.png","null","trial","null","true","0.2,0.8","2:nogo_b","",""
"null","","html-keyboard-response","109","605635","0.0-4.0-1.23","","<img src=""img/green-r.png"">","null","trial","null","","0.2,0.8","2:nogo_b","1",""
"null","","html-keyboard-response","110","606643","0.0-4.0-2.23","","<div style=""font-size:60px;"">+</div>","null","","","","","","",""
"840.8000000054017","","image-keyboard-response","111","607485","0.0-4.0-0.24","","img/orange.png","32","trial","32","true","0.8,0.2","1:go_a","",""
"null","","html-keyboard-response","112","608487","0.0-4.0-1.24","","<img src=""img/orange-r.png"" border=""10"">","null","trial","32","","0.8,0.2","1:go_a","1",""
"null","","html-keyboard-response","113","609493","0.0-4.0-2.24","","<div style=""font-size:60px;"">+</div>","null","","","","","","",""
"1006.4049999928102","","image-keyboard-response","114","610501","0.0-4.0-0.25","","img/green.png","32","trial","null","false","0.2,0.8","2:nogo_b","",""
"null","","html-keyboard-response","115","611509","0.0-4.0-1.25","","<img src=""img/green-r.png"" border=""10"">","null","trial","null","","0.2,0.8","2:nogo_b","1",""
"null","","html-keyboard-response","116","612516","0.0-4.0-2.25","","<div style=""font-size:60px;"">+</div>","null","","","","","","",""
"null","","image-keyboard-response","117","614031","0.0-4.0-0.26","","img/green.png","null","trial","null","true","0.2,0.8","2:nogo_b","",""
"null","","html-keyboard-response","118","615038","0.0-4.0-1.26","","<img src=""img/green-r.png"">","null","trial","null","","0.2,0.8","2:nogo_b","1",""
"null","","html-keyboard-response","119","616046","0.0-4.0-2.26","","<div style=""font-size:60px;"">+</div>","null","","","","","","",""
"1320.659999968484","","image-keyboard-response","120","617368","0.0-4.0-0.27","","img/orange.png","32","trial","32","true","0.8,0.2","1:go_a","",""
"null","","html-keyboard-response","121","618375","0.0-4.0-1.27","","<img src=""img/orange-r.png"" border=""10"">","null","trial","32","","0.8,0.2","1:go_a","1",""
"null","","html-keyboard-response","122","619381","0.0-4.0-2.27","","<div style=""font-size:60px;"">+</div>","null","","","","","","",""
"847.5750000216067","","image-keyboard-response","123","620229","0.0-4.0-0.28","","img/orange.png","32","trial","32","true","0.8,0.2","1:go_a","",""
"null","","html-keyboard-response","124","621239","0.0-4.0-1.28","","<img src=""img/orange-r.png"" border=""10"">","null","trial","32","","0.8,0.2","1:go_a","1",""
"null","","html-keyboard-response","125","622249","0.0-4.0-2.28","","<div style=""font-size:60px;"">+</div>","null","","","","","","",""
"682.8700000187382","","image-keyboard-response","126","622934","0.0-4.0-0.29","","img/green.png","32","trial","null","false","0.2,0.8","2:nogo_b","",""
"null","","html-keyboard-response","127","623942","0.0-4.0-1.29","","<img src=""img/green-n.png"" border=""10"">","null","trial","null","","0.2,0.8","2:nogo_b","0",""
"null","","html-keyboard-response","128","624957","0.0-4.0-2.29","","<div style=""font-size:60px;"">+</div>","null","","","","","","",""
"1015.8150000497699","","image-keyboard-response","129","625975","0.0-4.0-0.30","","img/green.png","32","trial","null","false","0.2,0.8","2:nogo_b","",""
"null","","html-keyboard-response","130","626986","0.0-4.0-1.30","","<img src=""img/green-n.png"" border=""10"">","null","trial","null","","0.2,0.8","2:nogo_b","0",""
"null","","html-keyboard-response","131","628001","0.0-4.0-2.30","","<div style=""font-size:60px;"">+</div>","null","","","","","","",""
"771.2599999504164","","image-keyboard-response","132","628773","0.0-4.0-0.31","","img/orange.png","32","trial","32","true","0.8,0.2","1:go_a","",""
"null","","html-keyboard-response","133","629784","0.0-4.0-1.31","","<img src=""img/orange-r.png"" border=""10"">","null","trial","32","","0.8,0.2","1:go_a","1",""
"null","","html-keyboard-response","134","630791","0.0-4.0-2.31","","<div style=""font-size:60px;"">+</div>","null","","","","","","",""
"668.0700000142679","","image-keyboard-response","135","631461","0.0-4.0-0.32","","img/orange.png","32","trial","32","true","0.8,0.2","1:go_a","",""
"null","","html-keyboard-response","136","632467","0.0-4.0-1.32","","<img src=""img/orange-r.png"" border=""10"">","null","trial","32","","0.8,0.2","1:go_a","1",""
"null","","html-keyboard-response","137","633484","0.0-4.0-2.32","","<div style=""font-size:60px;"">+</div>","null","","","","","","",""
"648.7050000578165","","image-keyboard-response","138","634135","0.0-4.0-0.33","","img/green.png","32","trial","null","false","0.2,0.8","2:nogo_b","",""
"null","","html-keyboard-response","139","635140","0.0-4.0-1.33","","<img src=""img/green-n.png"" border=""10"">","null","trial","null","","0.2,0.8","2:nogo_b","0",""
"null","","html-keyboard-response","140","636142","0.0-4.0-2.33","","<div style=""font-size:60px;"">+</div>","null","","","","","","",""
"436.5700000198558","","image-keyboard-response","141","636581","0.0-4.0-0.34","","img/green.png","32","trial","null","false","0.2,0.8","2:nogo_b","",""
"null","","html-keyboard-response","142","637593","0.0-4.0-1.34","","<img src=""img/green-n.png"" border=""10"">","null","trial","null","","0.2,0.8","2:nogo_b","0",""
"null","","html-keyboard-response","143","638600","0.0-4.0-2.34","","<div style=""font-size:60px;"">+</div>","null","","","","","","",""
"779.0199998999014","","image-keyboard-response","144","639381","0.0-4.0-0.35","","img/orange.png","32","trial","32","true","0.8,0.2","1:go_a","",""
"null","","html-keyboard-response","145","640392","0.0-4.0-1.35","","<img src=""img/orange-r.png"" border=""10"">","null","trial","32","","0.8,0.2","1:go_a","1",""
"null","","html-keyboard-response","146","641406","0.0-4.0-2.35","","<div style=""font-size:60px;"">+</div>","null","","","","","","",""
"701.8099999986589","","image-keyboard-response","147","642109","0.0-4.0-0.36","","img/orange.png","32","trial","32","true","0.8,0.2","1:go_a","",""
"null","","html-keyboard-response","148","643113","0.0-4.0-1.36","","<img src=""img/orange-n.png"" border=""10"">","null","trial","32","","0.8,0.2","1:go_a","0",""
"null","","html-keyboard-response","149","644118","0.0-4.0-2.36","","<div style=""font-size:60px;"">+</div>","null","","","","","","",""
"null","","image-keyboard-response","150","645635","0.0-4.0-0.37","","img/green.png","null","trial","null","true","0.2,0.8","2:nogo_b","",""
"null","","html-keyboard-response","151","646649","0.0-4.0-1.37","","<img src=""img/green-r.png"">","null","trial","null","","0.2,0.8","2:nogo_b","1",""
"null","","html-keyboard-response","152","647659","0.0-4.0-2.37","","<div style=""font-size:60px;"">+</div>","null","","","","","","",""
"null","","image-keyboard-response","153","649160","0.0-4.0-0.38","","img/green.png","null","trial","null","true","0.2,0.8","2:nogo_b","",""
"null","","html-keyboard-response","154","650176","0.0-4.0-1.38","","<img src=""img/green-r.png"">","null","trial","null","","0.2,0.8","2:nogo_b","1",""
"null","","html-keyboard-response","155","651178","0.0-4.0-2.38","","<div style=""font-size:60px;"">+</div>","null","","","","","","",""
"338.7100000400096","","image-keyboard-response","156","651518","0.0-4.0-0.39","","img/orange.png","32","trial","32","true","0.8,0.2","1:go_a","",""
"null","","html-keyboard-response","157","652531","0.0-4.0-1.39","","<img src=""img/orange-r.png"" border=""10"">","null","trial","32","","0.8,0.2","1:go_a","1",""
"null","","html-keyboard-response","158","653533","0.0-4.0-2.39","","<div style=""font-size:60px;"">+</div>","null","","","","","","",""
"679.6200000680983","","image-keyboard-response","159","654215","0.0-4.0-0.40","","img/orange.png","32","trial","32","true","0.8,0.2","1:go_a","",""
"null","","html-keyboard-response","160","655233","0.0-4.0-1.40","","<img src=""img/orange-r.png"" border=""10"">","null","trial","32","","0.8,0.2","1:go_a","1",""
"null","","html-keyboard-response","161","656244","0.0-4.0-2.40","","<div style=""font-size:60px;"">+</div>","null","","","","","","",""
"823.1950000626966","","image-keyboard-response","162","657069","0.0-4.0-0.41","","img/green.png","32","trial","null","false","0.2,0.8","2:nogo_b","",""
"null","","html-keyboard-response","163","658087","0.0-4.0-1.41","","<img src=""img/green-n.png"" border=""10"">","null","trial","null","","0.2,0.8","2:nogo_b","0",""
"null","","html-keyboard-response","164","659089","0.0-4.0-2.41","","<div style=""font-size:60px;"">+</div>","null","","","","","","",""
"333.2399999490008","","image-keyboard-response","165","659423","0.0-4.0-0.42","","img/orange.png","32","trial","32","true","0.8,0.2","1:go_a","",""
"null","","html-keyboard-response","166","660437","0.0-4.0-1.42","","<img src=""img/orange-r.png"" border=""10"">","null","trial","32","","0.8,0.2","1:go_a","1",""
"null","","html-keyboard-response","167","661441","0.0-4.0-2.42","","<div style=""font-size:60px;"">+</div>","null","","","","","","",""
"675.844999961555","","image-keyboard-response","168","662118","0.0-4.0-0.43","","img/green.png","32","trial","null","false","0.2,0.8","2:nogo_b","",""
"null","","html-keyboard-response","169","663129","0.0-4.0-1.43","","<img src=""img/green-r.png"" border=""10"">","null","trial","null","","0.2,0.8","2:nogo_b","1",""
"null","","html-keyboard-response","170","664141","0.0-4.0-2.43","","<div style=""font-size:60px;"">+</div>","null","","","","","","",""
"null","","image-keyboard-response","171","665653","0.0-4.0-0.44","","img/green.png","null","trial","null","true","0.2,0.8","2:nogo_b","",""
"null","","html-keyboard-response","172","666671","0.0-4.0-1.44","","<img src=""img/green-n.png"">","null","trial","null","","0.2,0.8","2:nogo_b","0",""
"null","","html-keyboard-response","173","667686","0.0-4.0-2.44","","<div style=""font-size:60px;"">+</div>","null","","","","","","",""
"618.0900000035763","","image-keyboard-response","174","668306","0.0-4.0-0.45","","img/orange.png","32","trial","32","true","0.8,0.2","1:go_a","",""
"null","","html-keyboard-response","175","669315","0.0-4.0-1.45","","<img src=""img/orange-r.png"" border=""10"">","null","trial","32","","0.8,0.2","1:go_a","1",""
"null","","html-keyboard-response","176","670332","0.0-4.0-2.45","","<div style=""font-size:60px;"">+</div>","null","","","","","","",""
"688.1800000555813","","image-keyboard-response","177","671021","0.0-4.0-0.46","","img/orange.png","32","trial","32","true","0.8,0.2","1:go_a","",""
"null","","html-keyboard-response","178","672028","0.0-4.0-1.46","","<img src=""img/orange-r.png"" border=""10"">","null","trial","32","","0.8,0.2","1:go_a","1",""
"null","","html-keyboard-response","179","673041","0.0-4.0-2.46","","<div style=""font-size:60px;"">+</div>","null","","","","","","",""
"null","","image-keyboard-response","180","674556","0.0-4.0-0.47","","img/green.png","null","trial","null","true","0.2,0.8","2:nogo_b","",""
"null","","html-keyboard-response","181","675569","0.0-4.0-1.47","","<img src=""img/green-r.png"">","null","trial","null","","0.2,0.8","2:nogo_b","1",""
"null","","html-keyboard-response","182","676582","0.0-4.0-2.47","","<div style=""font-size:60px;"">+</div>","null","","","","","","",""
"550.2700000070035","","image-keyboard-response","183","677133","0.0-4.0-0.48","","img/orange.png","32","trial","32","true","0.8,0.2","1:go_a","",""
"null","","html-keyboard-response","184","678146","0.0-4.0-1.48","","<img src=""img/orange-r.png"" border=""10"">","null","trial","32","","0.8,0.2","1:go_a","1",""
"null","","html-keyboard-response","185","679159","0.0-4.0-2.48","","<div style=""font-size:60px;"">+</div>","null","","","","","","",""
"null","","image-keyboard-response","186","680670","0.0-4.0-0.49","","img/green.png","null","trial","null","true","0.2,0.8","2:nogo_b","",""
"null","","html-keyboard-response","187","681684","0.0-4.0-1.49","","<img src=""img/green-r.png"">","null","trial","null","","0.2,0.8","2:nogo_b","1",""
"null","","html-keyboard-response","188","682698","0.0-4.0-2.49","","<div style=""font-size:60px;"">+</div>","null","","","","","","",""
"465.6950000207871","","image-keyboard-response","189","683165","0.0-4.0-0.50","","img/orange.png","32","trial","32","true","0.8,0.2","1:go_a","",""
"null","","html-keyboard-response","190","684178","0.0-4.0-1.50","","<img src=""img/orange-n.png"" border=""10"">","null","trial","32","","0.8,0.2","1:go_a","0",""
"null","","html-keyboard-response","191","685190","0.0-4.0-2.50","","<div style=""font-size:60px;"">+</div>","null","","","","","","",""
"null","","image-keyboard-response","192","686705","0.0-4.0-0.51","","img/green.png","null","trial","null","true","0.2,0.8","2:nogo_b","",""
"null","","html-keyboard-response","193","687722","0.0-4.0-1.51","","<img src=""img/green-r.png"">","null","trial","null","","0.2,0.8","2:nogo_b","1",""
"null","","html-keyboard-response","194","688736","0.0-4.0-2.51","","<div style=""font-size:60px;"">+</div>","null","","","","","","",""
"533.6449999595061","","image-keyboard-response","195","689271","0.0-4.0-0.52","","img/orange.png","32","trial","32","true","0.8,0.2","1:go_a","",""
"null","","html-keyboard-response","196","690281","0.0-4.0-1.52","","<img src=""img/orange-r.png"" border=""10"">","null","trial","32","","0.8,0.2","1:go_a","1",""
"null","","html-keyboard-response","197","691297","0.0-4.0-2.52","","<div style=""font-size:60px;"">+</div>","null","","","","","","",""
"1026.7349999630824","","image-keyboard-response","198","692326","0.0-4.0-0.53","","img/green.png","32","trial","null","false","0.2,0.8","2:nogo_b","",""
"null","","html-keyboard-response","199","693338","0.0-4.0-1.53","","<img src=""img/green-n.png"" border=""10"">","null","trial","null","","0.2,0.8","2:nogo_b","0",""
"null","","html-keyboard-response","200","694350","0.0-4.0-2.53","","<div style=""font-size:60px;"">+</div>","null","","","","","","",""
"822.0349999610335","","image-keyboard-response","201","695173","0.0-4.0-0.54","","img/orange.png","32","trial","32","true","0.8,0.2","1:go_a","",""
"null","","html-keyboard-response","202","696183","0.0-4.0-1.54","","<img src=""img/orange-r.png"" border=""10"">","null","trial","32","","0.8,0.2","1:go_a","1",""
"null","","html-keyboard-response","203","697198","0.0-4.0-2.54","","<div style=""font-size:60px;"">+</div>","null","","","","","","",""
"null","","image-keyboard-response","204","698710","0.0-4.0-0.55","","img/green.png","null","trial","null","true","0.2,0.8","2:nogo_b","",""
"null","","html-keyboard-response","205","699727","0.0-4.0-1.55","","<img src=""img/green-n.png"">","null","trial","null","","0.2,0.8","2:nogo_b","0",""
"null","","html-keyboard-response","206","700741","0.0-4.0-2.55","","<div style=""font-size:60px;"">+</div>","null","","","","","","",""
"838.5850000195205","","image-keyboard-response","207","701581","0.0-4.0-0.56","","img/orange.png","32","trial","32","true","0.8,0.2","1:go_a","",""
"null","","html-keyboard-response","208","702594","0.0-4.0-1.56","","<img src=""img/orange-n.png"" border=""10"">","null","trial","32","","0.8,0.2","1:go_a","0",""
"null","","html-keyboard-response","209","703607","0.0-4.0-2.56","","<div style=""font-size:60px;"">+</div>","null","","","","","","",""
"null","","image-keyboard-response","210","705122","0.0-4.0-0.57","","img/green.png","null","trial","null","true","0.2,0.8","2:nogo_b","",""
"null","","html-keyboard-response","211","706135","0.0-4.0-1.57","","<img src=""img/green-n.png"">","null","trial","null","","0.2,0.8","2:nogo_b","0",""
"null","","html-keyboard-response","212","707148","0.0-4.0-2.57","","<div style=""font-size:60px;"">+</div>","null","","","","","","",""
"735.785000026226","","image-keyboard-response","213","707885","0.0-4.0-0.58","","img/orange.png","32","trial","32","true","0.8,0.2","1:go_a","",""
"null","","html-keyboard-response","214","708897","0.0-4.0-1.58","","<img src=""img/orange-r.png"" border=""10"">","null","trial","32","","0.8,0.2","1:go_a","1",""
"null","","html-keyboard-response","215","709905","0.0-4.0-2.58","","<div style=""font-size:60px;"">+</div>","null","","","","","","",""
"null","","image-keyboard-response","216","711419","0.0-4.0-0.59","","img/green.png","null","trial","null","true","0.2,0.8","2:nogo_b","",""
"null","","html-keyboard-response","217","712425","0.0-4.0-1.59","","<img src=""img/green-r.png"">","null","trial","null","","0.2,0.8","2:nogo_b","1",""
"null","","html-keyboard-response","218","713427","0.0-4.0-2.59","","<div style=""font-size:60px;"">+</div>","null","","","","","","",""
"342121.10499991104","","instructions","219","1055548","0.0-5.0","[{""page_index"":0,""viewing_time"":342120.8249999909}]","","","","","","","","",""
"835.1849999744445","","image-keyboard-response","220","1056385","0.0-6.0-0.0","","img/yellow.png","32","trial","null","false","0.2,0.8","4:nogo_d","",""
"null","","html-keyboard-response","221","1057398","0.0-6.0-1.0","","<img src=""img/yellow-n.png"" border=""10"">","null","trial","null","","0.2,0.8","4:nogo_d","0",""
"null","","html-keyboard-response","222","1058402","0.0-6.0-2.0","","<div style=""font-size:60px;"">+</div>","null","","","","","","",""
"425.58999999891967","","image-keyboard-response","223","1058830","0.0-6.0-0.1","","img/grey.png","32","trial","32","true","0.8,0.2","3:go_c","",""
"null","","html-keyboard-response","224","1059833","0.0-6.0-1.1","","<img src=""img/grey-r.png"" border=""10"">","null","trial","32","","0.8,0.2","3:go_c","1",""
"null","","html-keyboard-response","225","1060842","0.0-6.0-2.1","","<div style=""font-size:60px;"">+</div>","null","","","","","","",""
"682.6100000180304","","image-keyboard-response","226","1061527","0.0-6.0-0.2","","img/purple.png","32","trial","null","false","0.2,0.8","2:nogo_b","",""
"null","","html-keyboard-response","227","1062546","0.0-6.0-1.2","","<img src=""img/purple-n.png"" border=""10"">","null","trial","null","","0.2,0.8","2:nogo_b","0",""
"null","","html-keyboard-response","228","1063563","0.0-6.0-2.2","","<div style=""font-size:60px;"">+</div>","null","","","","","","",""
"887.360000051558","","image-keyboard-response","229","1064452","0.0-6.0-0.3","","img/green.png","32","trial","32","true","0.8,0.2","1:go_a","",""
"null","","html-keyboard-response","230","1065457","0.0-6.0-1.3","","<img src=""img/green-r.png"" border=""10"">","null","trial","32","","0.8,0.2","1:go_a","1",""
"null","","html-keyboard-response","231","1066461","0.0-6.0-2.3","","<div style=""font-size:60px;"">+</div>","null","","","","","","",""
"615.4999999562278","","image-keyboard-response","232","1067079","0.0-6.0-0.4","","img/green.png","32","trial","32","true","0.8,0.2","1:go_a","",""
"null","","html-keyboard-response","233","1068085","0.0-6.0-1.4","","<img src=""img/green-n.png"" border=""10"">","null","trial","32","","0.8,0.2","1:go_a","0",""
"null","","html-keyboard-response","234","1069087","0.0-6.0-2.4","","<div style=""font-size:60px;"">+</div>","null","","","","","","",""
"null","","image-keyboard-response","235","1070596","0.0-6.0-0.5","","img/purple.png","null","trial","null","true","0.2,0.8","2:nogo_b","",""
"null","","html-keyboard-response","236","1071613","0.0-6.0-1.5","","<img src=""img/purple-r.png"">","null","trial","null","","0.2,0.8","2:nogo_b","1",""
"null","","html-keyboard-response","237","1072630","0.0-6.0-2.5","","<div style=""font-size:60px;"">+</div>","null","","","","","","",""
"604.2649999726564","","image-keyboard-response","238","1073236","0.0-6.0-0.6","","img/grey.png","32","trial","32","true","0.8,0.2","3:go_c","",""
"null","","html-keyboard-response","239","1074242","0.0-6.0-1.6","","<img src=""img/grey-n.png"" border=""10"">","null","trial","32","","0.8,0.2","3:go_c","0",""
"null","","html-keyboard-response","240","1075256","0.0-6.0-2.6","","<div style=""font-size:60px;"">+</div>","null","","","","","","",""
"null","","image-keyboard-response","241","1076768","0.0-6.0-0.7","","img/yellow.png","null","trial","null","true","0.2,0.8","4:nogo_d","",""
"null","","html-keyboard-response","242","1077784","0.0-6.0-1.7","","<img src=""img/yellow-r.png"">","null","trial","null","","0.2,0.8","4:nogo_d","1",""
"null","","html-keyboard-response","243","1078787","0.0-6.0-2.7","","<div style=""font-size:60px;"">+</div>","null","","","","","","",""
"800.4900000523776","","image-keyboard-response","244","1079588","0.0-6.0-0.8","","img/grey.png","32","trial","32","true","0.8,0.2","3:go_c","",""
"null","","html-keyboard-response","245","1080591","0.0-6.0-1.8","","<img src=""img/grey-r.png"" border=""10"">","null","trial","32","","0.8,0.2","3:go_c","1",""
"null","","html-keyboard-response","246","1081607","0.0-6.0-2.8","","<div style=""font-size:60px;"">+</div>","null","","","","","","",""
"643.1599999777973","","image-keyboard-response","247","1082252","0.0-6.0-0.9","","img/green.png","32","trial","32","true","0.8,0.2","1:go_a","",""
"null","","html-keyboard-response","248","1083268","0.0-6.0-1.9","","<img src=""img/green-r.png"" border=""10"">","null","trial","32","","0.8,0.2","1:go_a","1",""
"null","","html-keyboard-response","249","1084274","0.0-6.0-2.9","","<div style=""font-size:60px;"">+</div>","null","","","","","","",""
"null","","image-keyboard-response","250","1085792","0.0-6.0-0.10","","img/purple.png","null","trial","null","true","0.2,0.8","2:nogo_b","",""
"null","","html-keyboard-response","251","1086808","0.0-6.0-1.10","","<img src=""img/purple-r.png"">","null","trial","null","","0.2,0.8","2:nogo_b","1",""
"null","","html-keyboard-response","252","1087823","0.0-6.0-2.10","","<div style=""font-size:60px;"">+</div>","null","","","","","","",""
"null","","image-keyboard-response","253","1089324","0.0-6.0-0.11","","img/yellow.png","null","trial","null","true","0.2,0.8","4:nogo_d","",""
"null","","html-keyboard-response","254","1090339","0.0-6.0-1.11","","<img src=""img/yellow-r.png"">","null","trial","null","","0.2,0.8","4:nogo_d","1",""
"null","","html-keyboard-response","255","1091356","0.0-6.0-2.11","","<div style=""font-size:60px;"">+</div>","null","","","","","","",""
"1135.7050000224262","","image-keyboard-response","256","1092493","0.0-6.0-0.12","","img/green.png","32","trial","32","true","0.8,0.2","1:go_a","",""
"null","","html-keyboard-response","257","1093507","0.0-6.0-1.12","","<img src=""img/green-r.png"" border=""10"">","null","trial","32","","0.8,0.2","1:go_a","1",""
"null","","html-keyboard-response","258","1094520","0.0-6.0-2.12","","<div style=""font-size:60px;"">+</div>","null","","","","","","",""
"null","","image-keyboard-response","259","1096032","0.0-6.0-0.13","","img/purple.png","null","trial","null","true","0.2,0.8","2:nogo_b","",""
"null","","html-keyboard-response","260","1097049","0.0-6.0-1.13","","<img src=""img/purple-r.png"">","null","trial","null","","0.2,0.8","2:nogo_b","1",""
"null","","html-keyboard-response","261","1098066","0.0-6.0-2.13","","<div style=""font-size:60px;"">+</div>","null","","","","","","",""
"null","","image-keyboard-response","262","1099579","0.0-6.0-0.14","","img/yellow.png","null","trial","null","true","0.2,0.8","4:nogo_d","",""
"null","","html-keyboard-response","263","1100594","0.0-6.0-1.14","","<img src=""img/yellow-r.png"">","null","trial","null","","0.2,0.8","4:nogo_d","1",""
"null","","html-keyboard-response","264","1101610","0.0-6.0-2.14","","<div style=""font-size:60px;"">+</div>","null","","","","","","",""
"665.5449999962002","","image-keyboard-response","265","1102277","0.0-6.0-0.15","","img/grey.png","32","trial","32","true","0.8,0.2","3:go_c","",""
"null","","html-keyboard-response","266","1103279","0.0-6.0-1.15","","<img src=""img/grey-r.png"" border=""10"">","null","trial","32","","0.8,0.2","3:go_c","1",""
"null","","html-keyboard-response","267","1104290","0.0-6.0-2.15","","<div style=""font-size:60px;"">+</div>","null","","","","","","",""
"null","","image-keyboard-response","268","1105800","0.0-6.0-0.16","","img/yellow.png","null","trial","null","true","0.2,0.8","4:nogo_d","",""
"null","","html-keyboard-response","269","1106813","0.0-6.0-1.16","","<img src=""img/yellow-r.png"">","null","trial","null","","0.2,0.8","4:nogo_d","1",""
"null","","html-keyboard-response","270","1107818","0.0-6.0-2.16","","<div style=""font-size:60px;"">+</div>","null","","","","","","",""
"null","","image-keyboard-response","271","1109332","0.0-6.0-0.17","","img/purple.png","null","trial","null","true","0.2,0.8","2:nogo_b","",""
"null","","html-keyboard-response","272","1110351","0.0-6.0-1.17","","<img src=""img/purple-r.png"">","null","trial","null","","0.2,0.8","2:nogo_b","1",""
"null","","html-keyboard-response","273","1111368","0.0-6.0-2.17","","<div style=""font-size:60px;"">+</div>","null","","","","","","",""
"554.9299999838695","","image-keyboard-response","274","1111925","0.0-6.0-0.18","","img/grey.png","32","trial","32","true","0.8,0.2","3:go_c","",""
"null","","html-keyboard-response","275","1112930","0.0-6.0-1.18","","<img src=""img/grey-n.png"" border=""10"">","null","trial","32","","0.8,0.2","3:go_c","0",""
"null","","html-keyboard-response","276","1113944","0.0-6.0-2.18","","<div style=""font-size:60px;"">+</div>","null","","","","","","",""
"850.745000061579","","image-keyboard-response","277","1114797","0.0-6.0-0.19","","img/green.png","32","trial","32","true","0.8,0.2","1:go_a","",""
"null","","html-keyboard-response","278","1115803","0.0-6.0-1.19","","<img src=""img/green-r.png"" border=""10"">","null","trial","32","","0.8,0.2","1:go_a","1",""
"null","","html-keyboard-response","279","1116816","0.0-6.0-2.19","","<div style=""font-size:60px;"">+</div>","null","","","","","","",""
"null","","image-keyboard-response","280","1118328","0.0-6.0-0.20","","img/yellow.png","null","trial","null","true","0.2,0.8","4:nogo_d","",""
"null","","html-keyboard-response","281","1119346","0.0-6.0-1.20","","<img src=""img/yellow-r.png"">","null","trial","null","","0.2,0.8","4:nogo_d","1",""
"null","","html-keyboard-response","282","1120360","0.0-6.0-2.20","","<div style=""font-size:60px;"">+</div>","null","","","","","","",""
"860.3900000452995","","image-keyboard-response","283","1121223","0.0-6.0-0.21","","img/green.png","32","trial","32","true","0.8,0.2","1:go_a","",""
"null","","html-keyboard-response","284","1122229","0.0-6.0-1.21","","<img src=""img/green-r.png"" border=""10"">","null","trial","32","","0.8,0.2","1:go_a","1",""
"null","","html-keyboard-response","285","1123243","0.0-6.0-2.21","","<div style=""font-size:60px;"">+</div>","null","","","","","","",""
"1381.3049999298528","","image-keyboard-response","286","1124625","0.0-6.0-0.22","","img/grey.png","32","trial","32","true","0.8,0.2","3:go_c","",""
"null","","html-keyboard-response","287","1125629","0.0-6.0-1.22","","<img src=""img/grey-r.png"" border=""10"">","null","trial","32","","0.8,0.2","3:go_c","1",""
"null","","html-keyboard-response","288","1126644","0.0-6.0-2.22","","<div style=""font-size:60px;"">+</div>","null","","","","","","",""
"null","","image-keyboard-response","289","1128159","0.0-6.0-0.23","","img/purple.png","null","trial","null","true","0.2,0.8","2:nogo_b","",""
"null","","html-keyboard-response","290","1129174","0.0-6.0-1.23","","<img src=""img/purple-r.png"">","null","trial","null","","0.2,0.8","2:nogo_b","1",""
"null","","html-keyboard-response","291","1130187","0.0-6.0-2.23","","<div style=""font-size:60px;"">+</div>","null","","","","","","",""
"890.0349999312311","","image-keyboard-response","292","1131078","0.0-6.0-0.24","","img/green.png","32","trial","32","true","0.8,0.2","1:go_a","",""
"null","","html-keyboard-response","293","1132102","0.0-6.0-1.24","","<img src=""img/green-r.png"" border=""10"">","null","trial","32","","0.8,0.2","1:go_a","1",""
"null","","html-keyboard-response","294","1133116","0.0-6.0-2.24","","<div style=""font-size:60px;"">+</div>","null","","","","","","",""
"775.275000021793","","image-keyboard-response","295","1133893","0.0-6.0-0.25","","img/grey.png","32","trial","32","true","0.8,0.2","3:go_c","",""
"null","","html-keyboard-response","296","1134895","0.0-6.0-1.25","","<img src=""img/grey-r.png"" border=""10"">","null","trial","32","","0.8,0.2","3:go_c","1",""
"null","","html-keyboard-response","297","1135908","0.0-6.0-2.25","","<div style=""font-size:60px;"">+</div>","null","","","","","","",""
"null","","image-keyboard-response","298","1137410","0.0-6.0-0.26","","img/purple.png","null","trial","null","true","0.2,0.8","2:nogo_b","",""
"null","","html-keyboard-response","299","1138418","0.0-6.0-1.26","","<img src=""img/purple-r.png"">","null","trial","null","","0.2,0.8","2:nogo_b","1",""
"null","","html-keyboard-response","300","1139434","0.0-6.0-2.26","","<div style=""font-size:60px;"">+</div>","null","","","","","","",""
"null","","image-keyboard-response","301","1140947","0.0-6.0-0.27","","img/yellow.png","null","trial","null","true","0.2,0.8","4:nogo_d","",""
"null","","html-keyboard-response","302","1141957","0.0-6.0-1.27","","<img src=""img/yellow-r.png"">","null","trial","null","","0.2,0.8","4:nogo_d","1",""
"null","","html-keyboard-response","303","1142974","0.0-6.0-2.27","","<div style=""font-size:60px;"">+</div>","null","","","","","","",""
"null","","image-keyboard-response","304","1144489","0.0-6.0-0.28","","img/yellow.png","null","trial","null","true","0.2,0.8","4:nogo_d","",""
"null","","html-keyboard-response","305","1145504","0.0-6.0-1.28","","<img src=""img/yellow-r.png"">","null","trial","null","","0.2,0.8","4:nogo_d","1",""
"null","","html-keyboard-response","306","1146515","0.0-6.0-2.28","","<div style=""font-size:60px;"">+</div>","null","","","","","","",""
"546.0300000850111","","image-keyboard-response","307","1147063","0.0-6.0-0.29","","img/grey.png","32","trial","32","true","0.8,0.2","3:go_c","",""
"null","","html-keyboard-response","308","1148067","0.0-6.0-1.29","","<img src=""img/grey-r.png"" border=""10"">","null","trial","32","","0.8,0.2","3:go_c","1",""
"null","","html-keyboard-response","309","1149078","0.0-6.0-2.29","","<div style=""font-size:60px;"">+</div>","null","","","","","","",""
"null","","image-keyboard-response","310","1150591","0.0-6.0-0.30","","img/green.png","null","trial","32","false","0.8,0.2","1:go_a","",""
"null","","html-keyboard-response","311","1151607","0.0-6.0-1.30","","<img src=""img/green-n.png"">","null","trial","32","","0.8,0.2","1:go_a","0",""
"null","","html-keyboard-response","312","1152622","0.0-6.0-2.30","","<div style=""font-size:60px;"">+</div>","null","","","","","","",""
"null","","image-keyboard-response","313","1154136","0.0-6.0-0.31","","img/purple.png","null","trial","null","true","0.2,0.8","2:nogo_b","",""
"null","","html-keyboard-response","314","1155151","0.0-6.0-1.31","","<img src=""img/purple-r.png"">","null","trial","null","","0.2,0.8","2:nogo_b","1",""
"null","","html-keyboard-response","315","1156162","0.0-6.0-2.31","","<div style=""font-size:60px;"">+</div>","null","","","","","","",""
"467.00499998405576","","image-keyboard-response","316","1156631","0.0-6.0-0.32","","img/purple.png","32","trial","null","false","0.2,0.8","2:nogo_b","",""
"null","","html-keyboard-response","317","1157645","0.0-6.0-1.32","","<img src=""img/purple-n.png"" border=""10"">","null","trial","null","","0.2,0.8","2:nogo_b","0",""
"null","","html-keyboard-response","318","1158650","0.0-6.0-2.32","","<div style=""font-size:60px;"">+</div>","null","","","","","","",""
"null","","image-keyboard-response","319","1160160","0.0-6.0-0.33","","img/yellow.png","null","trial","null","true","0.2,0.8","4:nogo_d","",""
"null","","html-keyboard-response","320","1161179","0.0-6.0-1.33","","<img src=""img/yellow-r.png"">","null","trial","null","","0.2,0.8","4:nogo_d","1",""
"null","","html-keyboard-response","321","1162186","0.0-6.0-2.33","","<div style=""font-size:60px;"">+</div>","null","","","","","","",""
"577.2200000938028","","image-keyboard-response","322","1162766","0.0-6.0-0.34","","img/grey.png","32","trial","32","true","0.8,0.2","3:go_c","",""
"null","","html-keyboard-response","323","1163772","0.0-6.0-1.34","","<img src=""img/grey-r.png"" border=""10"">","null","trial","32","","0.8,0.2","3:go_c","1",""
"null","","html-keyboard-response","324","1164775","0.0-6.0-2.34","","<div style=""font-size:60px;"">+</div>","null","","","","","","",""
"976.1399999260902","","image-keyboard-response","325","1165752","0.0-6.0-0.35","","img/green.png","32","trial","32","true","0.8,0.2","1:go_a","",""
"null","","html-keyboard-response","326","1166757","0.0-6.0-1.35","","<img src=""img/green-r.png"" border=""10"">","null","trial","32","","0.8,0.2","1:go_a","1",""
"null","","html-keyboard-response","327","1167772","0.0-6.0-2.35","","<div style=""font-size:60px;"">+</div>","null","","","","","","",""
"1143.555000075139","","image-keyboard-response","328","1168918","0.0-6.0-0.36","","img/green.png","32","trial","32","true","0.8,0.2","1:go_a","",""
"null","","html-keyboard-response","329","1169926","0.0-6.0-1.36","","<img src=""img/green-r.png"" border=""10"">","null","trial","32","","0.8,0.2","1:go_a","1",""
"null","","html-keyboard-response","330","1170938","0.0-6.0-2.36","","<div style=""font-size:60px;"">+</div>","null","","","","","","",""
"627.4350000312552","","image-keyboard-response","331","1171567","0.0-6.0-0.37","","img/grey.png","32","trial","32","true","0.8,0.2","3:go_c","",""
"null","","html-keyboard-response","332","1172582","0.0-6.0-1.37","","<img src=""img/grey-r.png"" border=""10"">","null","trial","32","","0.8,0.2","3:go_c","1",""
"null","","html-keyboard-response","333","1173595","0.0-6.0-2.37","","<div style=""font-size:60px;"">+</div>","null","","","","","","",""
"null","","image-keyboard-response","334","1175108","0.0-6.0-0.38","","img/purple.png","null","trial","null","true","0.2,0.8","2:nogo_b","",""
"null","","html-keyboard-response","335","1176123","0.0-6.0-1.38","","<img src=""img/purple-r.png"">","null","trial","null","","0.2,0.8","2:nogo_b","1",""
"null","","html-keyboard-response","336","1177137","0.0-6.0-2.38","","<div style=""font-size:60px;"">+</div>","null","","","","","","",""
"null","","image-keyboard-response","337","1178650","0.0-6.0-0.39","","img/yellow.png","null","trial","null","true","0.2,0.8","4:nogo_d","",""
"null","","html-keyboard-response","338","1179666","0.0-6.0-1.39","","<img src=""img/yellow-r.png"">","null","trial","null","","0.2,0.8","4:nogo_d","1",""
"null","","html-keyboard-response","339","1180682","0.0-6.0-2.39","","<div style=""font-size:60px;"">+</div>","null","","","","","","",""
"769.4299999857321","","image-keyboard-response","340","1181454","0.0-6.0-0.40","","img/green.png","32","trial","32","true","0.8,0.2","1:go_a","",""
"null","","html-keyboard-response","341","1182462","0.0-6.0-1.40","","<img src=""img/green-r.png"" border=""10"">","null","trial","32","","0.8,0.2","1:go_a","1",""
"null","","html-keyboard-response","342","1183474","0.0-6.0-2.40","","<div style=""font-size:60px;"">+</div>","null","","","","","","",""
"651.1349999345839","","image-keyboard-response","343","1184127","0.0-6.0-0.41","","img/grey.png","32","trial","32","true","0.8,0.2","3:go_c","",""
"null","","html-keyboard-response","344","1185144","0.0-6.0-1.41","","<img src=""img/grey-n.png"" border=""10"">","null","trial","32","","0.8,0.2","3:go_c","0",""
"null","","html-keyboard-response","345","1186161","0.0-6.0-2.41","","<div style=""font-size:60px;"">+</div>","null","","","","","","",""
"null","","image-keyboard-response","346","1187675","0.0-6.0-0.42","","img/yellow.png","null","trial","null","true","0.2,0.8","4:nogo_d","",""
"null","","html-keyboard-response","347","1188680","0.0-6.0-1.42","","<img src=""img/yellow-r.png"">","null","trial","null","","0.2,0.8","4:nogo_d","1",""
"null","","html-keyboard-response","348","1189696","0.0-6.0-2.42","","<div style=""font-size:60px;"">+</div>","null","","","","","","",""
"null","","image-keyboard-response","349","1191209","0.0-6.0-0.43","","img/purple.png","null","trial","null","true","0.2,0.8","2:nogo_b","",""
"null","","html-keyboard-response","350","1192226","0.0-6.0-1.43","","<img src=""img/purple-r.png"">","null","trial","null","","0.2,0.8","2:nogo_b","1",""
"null","","html-keyboard-response","351","1193228","0.0-6.0-2.43","","<div style=""font-size:60px;"">+</div>","null","","","","","","",""
"null","","image-keyboard-response","352","1194744","0.0-6.0-0.44","","img/yellow.png","null","trial","null","true","0.2,0.8","4:nogo_d","",""
"null","","html-keyboard-response","353","1195759","0.0-6.0-1.44","","<img src=""img/yellow-r.png"">","null","trial","null","","0.2,0.8","4:nogo_d","1",""
"null","","html-keyboard-response","354","1196774","0.0-6.0-2.44","","<div style=""font-size:60px;"">+</div>","null","","","","","","",""
"574.1599999601021","","image-keyboard-response","355","1197349","0.0-6.0-0.45","","img/grey.png","32","trial","32","true","0.8,0.2","3:go_c","",""
"null","","html-keyboard-response","356","1198353","0.0-6.0-1.45","","<img src=""img/grey-r.png"" border=""10"">","null","trial","32","","0.8,0.2","3:go_c","1",""
"null","","html-keyboard-response","357","1199368","0.0-6.0-2.45","","<div style=""font-size:60px;"">+</div>","null","","","","","","",""
"null","","image-keyboard-response","358","1200881","0.0-6.0-0.46","","img/purple.png","null","trial","null","true","0.2,0.8","2:nogo_b","",""
"null","","html-keyboard-response","359","1201896","0.0-6.0-1.46","","<img src=""img/purple-r.png"">","null","trial","null","","0.2,0.8","2:nogo_b","1",""
"null","","html-keyboard-response","360","1202913","0.0-6.0-2.46","","<div style=""font-size:60px;"">+</div>","null","","","","","","",""
"571.3149999501184","","image-keyboard-response","361","1203485","0.0-6.0-0.47","","img/green.png","32","trial","32","true","0.8,0.2","1:go_a","",""
"null","","html-keyboard-response","362","1204491","0.0-6.0-1.47","","<img src=""img/green-n.png"" border=""10"">","null","trial","32","","0.8,0.2","1:go_a","0",""
"null","","html-keyboard-response","363","1205496","0.0-6.0-2.47","","<div style=""font-size:60px;"">+</div>","null","","","","","","",""
"null","","image-keyboard-response","364","1206998","0.0-6.0-0.48","","img/purple.png","null","trial","null","true","0.2,0.8","2:nogo_b","",""
"null","","html-keyboard-response","365","1208001","0.0-6.0-1.48","","<img src=""img/purple-r.png"">","null","trial","null","","0.2,0.8","2:nogo_b","1",""
"null","","html-keyboard-response","366","1209012","0.0-6.0-2.48","","<div style=""font-size:60px;"">+</div>","null","","","","","","",""
"576.035000034608","","image-keyboard-response","367","1209589","0.0-6.0-0.49","","img/green.png","32","trial","32","true","0.8,0.2","1:go_a","",""
"null","","html-keyboard-response","368","1210596","0.0-6.0-1.49","","<img src=""img/green-r.png"" border=""10"">","null","trial","32","","0.8,0.2","1:go_a","1",""
"null","","html-keyboard-response","369","1211601","0.0-6.0-2.49","","<div style=""font-size:60px;"">+</div>","null","","","","","","",""
"561.9200000073761","","image-keyboard-response","370","1212165","0.0-6.0-0.50","","img/grey.png","32","trial","32","true","0.8,0.2","3:go_c","",""
"null","","html-keyboard-response","371","1213172","0.0-6.0-1.50","","<img src=""img/grey-r.png"" border=""10"">","null","trial","32","","0.8,0.2","3:go_c","1",""
"null","","html-keyboard-response","372","1214176","0.0-6.0-2.50","","<div style=""font-size:60px;"">+</div>","null","","","","","","",""
"null","","image-keyboard-response","373","1215690","0.0-6.0-0.51","","img/yellow.png","null","trial","null","true","0.2,0.8","4:nogo_d","",""
"null","","html-keyboard-response","374","1216705","0.0-6.0-1.51","","<img src=""img/yellow-r.png"">","null","trial","null","","0.2,0.8","4:nogo_d","1",""
"null","","html-keyboard-response","375","1217709","0.0-6.0-2.51","","<div style=""font-size:60px;"">+</div>","null","","","","","","",""
"742.6899999845773","","image-keyboard-response","376","1218453","0.0-6.0-0.52","","img/green.png","32","trial","32","true","0.8,0.2","1:go_a","",""
"null","","html-keyboard-response","377","1219469","0.0-6.0-1.52","","<img src=""img/green-r.png"" border=""10"">","null","trial","32","","0.8,0.2","1:go_a","1",""
"null","","html-keyboard-response","378","1220478","0.0-6.0-2.52","","<div style=""font-size:60px;"">+</div>","null","","","","","","",""
"null","","image-keyboard-response","379","1221991","0.0-6.0-0.53","","img/purple.png","null","trial","null","true","0.2,0.8","2:nogo_b","",""
"null","","html-keyboard-response","380","1223006","0.0-6.0-1.53","","<img src=""img/purple-r.png"">","null","trial","null","","0.2,0.8","2:nogo_b","1",""
"null","","html-keyboard-response","381","1224009","0.0-6.0-2.53","","<div style=""font-size:60px;"">+</div>","null","","","","","","",""
"null","","image-keyboard-response","382","1225524","0.0-6.0-0.54","","img/yellow.png","null","trial","null","true","0.2,0.8","4:nogo_d","",""
"null","","html-keyboard-response","383","1226543","0.0-6.0-1.54","","<img src=""img/yellow-n.png"">","null","trial","null","","0.2,0.8","4:nogo_d","0",""
"null","","html-keyboard-response","384","1227546","0.0-6.0-2.54","","<div style=""font-size:60px;"">+</div>","null","","","","","","",""
"624.5199999539182","","image-keyboard-response","385","1228172","0.0-6.0-0.55","","img/grey.png","32","trial","32","true","0.8,0.2","3:go_c","",""
"null","","html-keyboard-response","386","1229175","0.0-6.0-1.55","","<img src=""img/grey-r.png"" border=""10"">","null","trial","32","","0.8,0.2","3:go_c","1",""
"null","","html-keyboard-response","387","1230189","0.0-6.0-2.55","","<div style=""font-size:60px;"">+</div>","null","","","","","","",""
"null","","image-keyboard-response","388","1231701","0.0-6.0-0.56","","img/purple.png","null","trial","null","true","0.2,0.8","2:nogo_b","",""
"null","","html-keyboard-response","389","1232716","0.0-6.0-1.56","","<img src=""img/purple-r.png"">","null","trial","null","","0.2,0.8","2:nogo_b","1",""
"null","","html-keyboard-response","390","1233733","0.0-6.0-2.56","","<div style=""font-size:60px;"">+</div>","null","","","","","","",""
"null","","image-keyboard-response","391","1235235","0.0-6.0-0.57","","img/yellow.png","null","trial","null","true","0.2,0.8","4:nogo_d","",""
"null","","html-keyboard-response","392","1236250","0.0-6.0-1.57","","<img src=""img/yellow-r.png"">","null","trial","null","","0.2,0.8","4:nogo_d","1",""
"null","","html-keyboard-response","393","1237264","0.0-6.0-2.57","","<div style=""font-size:60px;"">+</div>","null","","","","","","",""
"624.1549999685958","","image-keyboard-response","394","1237890","0.0-6.0-0.58","","img/green.png","32","trial","32","true","0.8,0.2","1:go_a","",""
"null","","html-keyboard-response","395","1238903","0.0-6.0-1.58","","<img src=""img/green-r.png"" border=""10"">","null","trial","32","","0.8,0.2","1:go_a","1",""
"null","","html-keyboard-response","396","1239906","0.0-6.0-2.58","","<div style=""font-size:60px;"">+</div>","null","","","","","","",""
"639.8000000044703","","image-keyboard-response","397","1240548","0.0-6.0-0.59","","img/grey.png","32","trial","32","true","0.8,0.2","3:go_c","",""
"null","","html-keyboard-response","398","1241550","0.0-6.0-1.59","","<img src=""img/grey-r.png"" border=""10"">","null","trial","32","","0.8,0.2","3:go_c","1",""
"null","","html-keyboard-response","399","1242564","0.0-6.0-2.59","","<div style=""font-size:60px;"">+</div>","null","","","","","","",""
"null","","image-keyboard-response","400","1244079","0.0-6.0-0.60","","img/purple.png","null","trial","null","true","0.2,0.8","2:nogo_b","",""
"null","","html-keyboard-response","401","1245096","0.0-6.0-1.60","","<img src=""img/purple-n.png"">","null","trial","null","","0.2,0.8","2:nogo_b","0",""
"null","","html-keyboard-response","402","1246109","0.0-6.0-2.60","","<div style=""font-size:60px;"">+</div>","null","","","","","","",""
"576.1850000126287","","image-keyboard-response","403","1246687","0.0-6.0-0.61","","img/grey.png","32","trial","32","true","0.8,0.2","3:go_c","",""
"null","","html-keyboard-response","404","1247702","0.0-6.0-1.61","","<img src=""img/grey-r.png"" border=""10"">","null","trial","32","","0.8,0.2","3:go_c","1",""
"null","","html-keyboard-response","405","1248720","0.0-6.0-2.61","","<div style=""font-size:60px;"">+</div>","null","","","","","","",""
"614.1549999592826","","image-keyboard-response","406","1249335","0.0-6.0-0.62","","img/green.png","32","trial","32","true","0.8,0.2","1:go_a","",""
"null","","html-keyboard-response","407","1250349","0.0-6.0-1.62","","<img src=""img/green-n.png"" border=""10"">","null","trial","32","","0.8,0.2","1:go_a","0",""
"null","","html-keyboard-response","408","1251351","0.0-6.0-2.62","","<div style=""font-size:60px;"">+</div>","null","","","","","","",""
"null","","image-keyboard-response","409","1252867","0.0-6.0-0.63","","img/yellow.png","null","trial","null","true","0.2,0.8","4:nogo_d","",""
"null","","html-keyboard-response","410","1253882","0.0-6.0-1.63","","<img src=""img/yellow-r.png"">","null","trial","null","","0.2,0.8","4:nogo_d","1",""
"null","","html-keyboard-response","411","1254895","0.0-6.0-2.63","","<div style=""font-size:60px;"">+</div>","null","","","","","","",""
"null","","image-keyboard-response","412","1256410","0.0-6.0-0.64","","img/purple.png","null","trial","null","true","0.2,0.8","2:nogo_b","",""
"null","","html-keyboard-response","413","1257424","0.0-6.0-1.64","","<img src=""img/purple-r.png"">","null","trial","null","","0.2,0.8","2:nogo_b","1",""
"null","","html-keyboard-response","414","1258437","0.0-6.0-2.64","","<div style=""font-size:60px;"">+</div>","null","","","","","","",""
"710.0999999092892","","image-keyboard-response","415","1259150","0.0-6.0-0.65","","img/green.png","32","trial","32","true","0.8,0.2","1:go_a","",""
"null","","html-keyboard-response","416","1260160","0.0-6.0-1.65","","<img src=""img/green-r.png"" border=""10"">","null","trial","32","","0.8,0.2","1:go_a","1",""
"null","","html-keyboard-response","417","1261175","0.0-6.0-2.65","","<div style=""font-size:60px;"">+</div>","null","","","","","","",""
"692.780000041239","","image-keyboard-response","418","1261868","0.0-6.0-0.66","","img/grey.png","32","trial","32","true","0.8,0.2","3:go_c","",""
"null","","html-keyboard-response","419","1262873","0.0-6.0-1.66","","<img src=""img/grey-r.png"" border=""10"">","null","trial","32","","0.8,0.2","3:go_c","1",""
"null","","html-keyboard-response","420","1263875","0.0-6.0-2.66","","<div style=""font-size:60px;"">+</div>","null","","","","","","",""
"null","","image-keyboard-response","421","1265389","0.0-6.0-0.67","","img/yellow.png","null","trial","null","true","0.2,0.8","4:nogo_d","",""
"null","","html-keyboard-response","422","1266403","0.0-6.0-1.67","","<img src=""img/yellow-r.png"">","null","trial","null","","0.2,0.8","4:nogo_d","1",""
"null","","html-keyboard-response","423","1267415","0.0-6.0-2.67","","<div style=""font-size:60px;"">+</div>","null","","","","","","",""
"1125.484999967739","","image-keyboard-response","424","1268543","0.0-6.0-0.68","","img/green.png","32","trial","32","true","0.8,0.2","1:go_a","",""
"null","","html-keyboard-response","425","1269548","0.0-6.0-1.68","","<img src=""img/green-r.png"" border=""10"">","null","trial","32","","0.8,0.2","1:go_a","1",""
"null","","html-keyboard-response","426","1270564","0.0-6.0-2.68","","<div style=""font-size:60px;"">+</div>","null","","","","","","",""
"null","","image-keyboard-response","427","1272079","0.0-6.0-0.69","","img/yellow.png","null","trial","null","true","0.2,0.8","4:nogo_d","",""
"null","","html-keyboard-response","428","1273093","0.0-6.0-1.69","","<img src=""img/yellow-n.png"">","null","trial","null","","0.2,0.8","4:nogo_d","0",""
"null","","html-keyboard-response","429","1274104","0.0-6.0-2.69","","<div style=""font-size:60px;"">+</div>","null","","","","","","",""
"null","","image-keyboard-response","430","1275621","0.0-6.0-0.70","","img/purple.png","null","trial","null","true","0.2,0.8","2:nogo_b","",""
"null","","html-keyboard-response","431","1276633","0.0-6.0-1.70","","<img src=""img/purple-r.png"">","null","trial","null","","0.2,0.8","2:nogo_b","1",""
"null","","html-keyboard-response","432","1277645","0.0-6.0-2.70","","<div style=""font-size:60px;"">+</div>","null","","","","","","",""
"641.5449999039993","","image-keyboard-response","433","1278287","0.0-6.0-0.71","","img/grey.png","32","trial","32","true","0.8,0.2","3:go_c","",""
"null","","html-keyboard-response","434","1279302","0.0-6.0-1.71","","<img src=""img/grey-n.png"" border=""10"">","null","trial","32","","0.8,0.2","3:go_c","0",""
"null","","html-keyboard-response","435","1280314","0.0-6.0-2.71","","<div style=""font-size:60px;"">+</div>","null","","","","","","",""
"730.5700000142679","","image-keyboard-response","436","1281047","0.0-6.0-0.72","","img/grey.png","32","trial","32","true","0.8,0.2","3:go_c","",""
"null","","html-keyboard-response","437","1282063","0.0-6.0-1.72","","<img src=""img/grey-r.png"" border=""10"">","null","trial","32","","0.8,0.2","3:go_c","1",""
"null","","html-keyboard-response","438","1283075","0.0-6.0-2.72","","<div style=""font-size:60px;"">+</div>","null","","","","","","",""
"735.3000000584871","","image-keyboard-response","439","1283812","0.0-6.0-0.73","","img/green.png","32","trial","32","true","0.8,0.2","1:go_a","",""
"null","","html-keyboard-response","440","1284826","0.0-6.0-1.73","","<img src=""img/green-r.png"" border=""10"">","null","trial","32","","0.8,0.2","1:go_a","1",""
"null","","html-keyboard-response","441","1285830","0.0-6.0-2.73","","<div style=""font-size:60px;"">+</div>","null","","","","","","",""
"null","","image-keyboard-response","442","1287347","0.0-6.0-0.74","","img/yellow.png","null","trial","null","true","0.2,0.8","4:nogo_d","",""
"null","","html-keyboard-response","443","1288360","0.0-6.0-1.74","","<img src=""img/yellow-r.png"">","null","trial","null","","0.2,0.8","4:nogo_d","1",""
"null","","html-keyboard-response","444","1289375","0.0-6.0-2.74","","<div style=""font-size:60px;"">+</div>","null","","","","","","",""
"null","","image-keyboard-response","445","1290891","0.0-6.0-0.75","","img/purple.png","null","trial","null","true","0.2,0.8","2:nogo_b","",""
"null","","html-keyboard-response","446","1291909","0.0-6.0-1.75","","<img src=""img/purple-r.png"">","null","trial","null","","0.2,0.8","2:nogo_b","1",""
"null","","html-keyboard-response","447","1292923","0.0-6.0-2.75","","<div style=""font-size:60px;"">+</div>","null","","","","","","",""
"null","","image-keyboard-response","448","1294429","0.0-6.0-0.76","","img/yellow.png","null","trial","null","true","0.2,0.8","4:nogo_d","",""
"null","","html-keyboard-response","449","1295441","0.0-6.0-1.76","","<img src=""img/yellow-r.png"">","null","trial","null","","0.2,0.8","4:nogo_d","1",""
"null","","html-keyboard-response","450","1296449","0.0-6.0-2.76","","<div style=""font-size:60px;"">+</div>","null","","","","","","",""
"1306.2700000591576","","image-keyboard-response","451","1297756","0.0-6.0-0.77","","img/green.png","32","trial","32","true","0.8,0.2","1:go_a","",""
"null","","html-keyboard-response","452","1298768","0.0-6.0-1.77","","<img src=""img/green-n.png"" border=""10"">","null","trial","32","","0.8,0.2","1:go_a","0",""
"null","","html-keyboard-response","453","1299781","0.0-6.0-2.77","","<div style=""font-size:60px;"">+</div>","null","","","","","","",""
"null","","image-keyboard-response","454","1301296","0.0-6.0-0.78","","img/purple.png","null","trial","null","true","0.2,0.8","2:nogo_b","",""
"null","","html-keyboard-response","455","1302308","0.0-6.0-1.78","","<img src=""img/purple-r.png"">","null","trial","null","","0.2,0.8","2:nogo_b","1",""
"null","","html-keyboard-response","456","1303325","0.0-6.0-2.78","","<div style=""font-size:60px;"">+</div>","null","","","","","","",""
"926.7949999775738","","image-keyboard-response","457","1304254","0.0-6.0-0.79","","img/grey.png","32","trial","32","true","0.8,0.2","3:go_c","",""
"null","","html-keyboard-response","458","1305262","0.0-6.0-1.79","","<img src=""img/grey-r.png"" border=""10"">","null","trial","32","","0.8,0.2","3:go_c","1",""
"null","","html-keyboard-response","459","1306268","0.0-6.0-2.79","","<div style=""font-size:60px;"">+</div>","null","","","","","","",""
"null","","image-keyboard-response","460","1307785","0.0-6.0-0.80","","img/yellow.png","null","trial","null","true","0.2,0.8","4:nogo_d","",""
"null","","html-keyboard-response","461","1308799","0.0-6.0-1.80","","<img src=""img/yellow-r.png"">","null","trial","null","","0.2,0.8","4:nogo_d","1",""
"null","","html-keyboard-response","462","1309811","0.0-6.0-2.80","","<div style=""font-size:60px;"">+</div>","null","","","","","","",""
"693.3350000763312","","image-keyboard-response","463","1310506","0.0-6.0-0.81","","img/grey.png","32","trial","32","true","0.8,0.2","3:go_c","",""
"null","","html-keyboard-response","464","1311512","0.0-6.0-1.81","","<img src=""img/grey-r.png"" border=""10"">","null","trial","32","","0.8,0.2","3:go_c","1",""
"null","","html-keyboard-response","465","1312528","0.0-6.0-2.81","","<div style=""font-size:60px;"">+</div>","null","","","","","","",""
"null","","image-keyboard-response","466","1314035","0.0-6.0-0.82","","img/purple.png","null","trial","null","true","0.2,0.8","2:nogo_b","",""
"null","","html-keyboard-response","467","1315040","0.0-6.0-1.82","","<img src=""img/purple-r.png"">","null","trial","null","","0.2,0.8","2:nogo_b","1",""
"null","","html-keyboard-response","468","1316050","0.0-6.0-2.82","","<div style=""font-size:60px;"">+</div>","null","","","","","","",""
"null","","image-keyboard-response","469","1317551","0.0-6.0-0.83","","img/green.png","null","trial","32","false","0.8,0.2","1:go_a","",""
"null","","html-keyboard-response","470","1318552","0.0-6.0-1.83","","<img src=""img/green-r.png"">","null","trial","32","","0.8,0.2","1:go_a","1",""
"null","","html-keyboard-response","471","1319557","0.0-6.0-2.83","","<div style=""font-size:60px;"">+</div>","null","","","","","","",""
"null","","image-keyboard-response","472","1321059","0.0-6.0-0.84","","img/purple.png","null","trial","null","true","0.2,0.8","2:nogo_b","",""
"null","","html-keyboard-response","473","1322064","0.0-6.0-1.84","","<img src=""img/purple-r.png"">","null","trial","null","","0.2,0.8","2:nogo_b","1",""
"null","","html-keyboard-response","474","1323073","0.0-6.0-2.84","","<div style=""font-size:60px;"">+</div>","null","","","","","","",""
"null","","image-keyboard-response","475","1324580","0.0-6.0-0.85","","img/yellow.png","null","trial","null","true","0.2,0.8","4:nogo_d","",""
"null","","html-keyboard-response","476","1325586","0.0-6.0-1.85","","<img src=""img/yellow-r.png"">","null","trial","null","","0.2,0.8","4:nogo_d","1",""
"null","","html-keyboard-response","477","1326587","0.0-6.0-2.85","","<div style=""font-size:60px;"">+</div>","null","","","","","","",""
"null","","image-keyboard-response","478","1328089","0.0-6.0-0.86","","img/grey.png","null","trial","32","false","0.8,0.2","3:go_c","",""
"null","","html-keyboard-response","479","1329091","0.0-6.0-1.86","","<img src=""img/grey-n.png"">","null","trial","32","","0.8,0.2","3:go_c","0",""
"null","","html-keyboard-response","480","1330092","0.0-6.0-2.86","","<div style=""font-size:60px;"">+</div>","null","","","","","","",""
"null","","image-keyboard-response","481","1331599","0.0-6.0-0.87","","img/green.png","null","trial","32","false","0.8,0.2","1:go_a","",""
"null","","html-keyboard-response","482","1332602","0.0-6.0-1.87","","<img src=""img/green-n.png"">","null","trial","32","","0.8,0.2","1:go_a","0",""
"null","","html-keyboard-response","483","1333622","0.0-6.0-2.87","","<div style=""font-size:60px;"">+</div>","null","","","","","","",""
"null","","image-keyboard-response","484","1335133","0.0-6.0-0.88","","img/grey.png","null","trial","32","false","0.8,0.2","3:go_c","",""
"null","","html-keyboard-response","485","1336147","0.0-6.0-1.88","","<img src=""img/grey-n.png"">","null","trial","32","","0.8,0.2","3:go_c","0",""
"null","","html-keyboard-response","486","1337159","0.0-6.0-2.88","","<div style=""font-size:60px;"">+</div>","null","","","","","","",""
"null","","image-keyboard-response","487","1338673","0.0-6.0-0.89","","img/yellow.png","null","trial","null","true","0.2,0.8","4:nogo_d","",""
"null","","html-keyboard-response","488","1339677","0.0-6.0-1.89","","<img src=""img/yellow-r.png"">","null","trial","null","","0.2,0.8","4:nogo_d","1",""
"null","","html-keyboard-response","489","1340680","0.0-6.0-2.89","","<div style=""font-size:60px;"">+</div>","null","","","","","","",""
"null","","image-keyboard-response","490","1342193","0.0-6.0-0.90","","img/green.png","null","trial","32","false","0.8,0.2","1:go_a","",""
"null","","html-keyboard-response","491","1343206","0.0-6.0-1.90","","<img src=""img/green-n.png"">","null","trial","32","","0.8,0.2","1:go_a","0",""
"null","","html-keyboard-response","492","1344223","0.0-6.0-2.90","","<div style=""font-size:60px;"">+</div>","null","","","","","","",""
"null","","image-keyboard-response","493","1345739","0.0-6.0-0.91","","img/purple.png","null","trial","null","true","0.2,0.8","2:nogo_b","",""
"null","","html-keyboard-response","494","1346752","0.0-6.0-1.91","","<img src=""img/purple-r.png"">","null","trial","null","","0.2,0.8","2:nogo_b","1",""
"null","","html-keyboard-response","495","1347753","0.0-6.0-2.91","","<div style=""font-size:60px;"">+</div>","null","","","","","","",""
"null","","image-keyboard-response","496","1349257","0.0-6.0-0.92","","img/grey.png","null","trial","32","false","0.8,0.2","3:go_c","",""
"null","","html-keyboard-response","497","1350268","0.0-6.0-1.92","","<img src=""img/grey-n.png"">","null","trial","32","","0.8,0.2","3:go_c","0",""
"null","","html-keyboard-response","498","1351276","0.0-6.0-2.92","","<div style=""font-size:60px;"">+</div>","null","","","","","","",""
"null","","image-keyboard-response","499","1352790","0.0-6.0-0.93","","img/purple.png","null","trial","null","true","0.2,0.8","2:nogo_b","",""
"null","","html-keyboard-response","500","1353806","0.0-6.0-1.93","","<img src=""img/purple-r.png"">","null","trial","null","","0.2,0.8","2:nogo_b","1",""
"null","","html-keyboard-response","501","1354819","0.0-6.0-2.93","","<div style=""font-size:60px;"">+</div>","null","","","","","","",""
"null","","image-keyboard-response","502","1356323","0.0-6.0-0.94","","img/yellow.png","null","trial","null","true","0.2,0.8","4:nogo_d","",""
"null","","html-keyboard-response","503","1357326","0.0-6.0-1.94","","<img src=""img/yellow-n.png"">","null","trial","null","","0.2,0.8","4:nogo_d","0",""
"null","","html-keyboard-response","504","1358331","0.0-6.0-2.94","","<div style=""font-size:60px;"">+</div>","null","","","","","","",""
"null","","image-keyboard-response","505","1359841","0.0-6.0-0.95","","img/green.png","null","trial","32","false","0.8,0.2","1:go_a","",""
"null","","html-keyboard-response","506","1360856","0.0-6.0-1.95","","<img src=""img/green-n.png"">","null","trial","32","","0.8,0.2","1:go_a","0",""
"null","","html-keyboard-response","507","1361870","0.0-6.0-2.95","","<div style=""font-size:60px;"">+</div>","null","","","","","","",""
"null","","image-keyboard-response","508","1363374","0.0-6.0-0.96","","img/purple.png","null","trial","null","true","0.2,0.8","2:nogo_b","",""
"null","","html-keyboard-response","509","1364386","0.0-6.0-1.96","","<img src=""img/purple-n.png"">","null","trial","null","","0.2,0.8","2:nogo_b","0",""
"null","","html-keyboard-response","510","1365400","0.0-6.0-2.96","","<div style=""font-size:60px;"">+</div>","null","","","","","","",""
"null","","image-keyboard-response","511","1366906","0.0-6.0-0.97","","img/yellow.png","null","trial","null","true","0.2,0.8","4:nogo_d","",""
"null","","html-keyboard-response","512","1367911","0.0-6.0-1.97","","<img src=""img/yellow-n.png"">","null","trial","null","","0.2,0.8","4:nogo_d","0",""
"null","","html-keyboard-response","513","1368915","0.0-6.0-2.97","","<div style=""font-size:60px;"">+</div>","null","","","","","","",""
"null","","image-keyboard-response","514","1370428","0.0-6.0-0.98","","img/grey.png","null","trial","32","false","0.8,0.2","3:go_c","",""
"null","","html-keyboard-response","515","1371442","0.0-6.0-1.98","","<img src=""img/grey-r.png"">","null","trial","32","","0.8,0.2","3:go_c","1",""
"null","","html-keyboard-response","516","1372459","0.0-6.0-2.98","","<div style=""font-size:60px;"">+</div>","null","","","","","","",""
"null","","image-keyboard-response","517","1373971","0.0-6.0-0.99","","img/green.png","null","trial","32","false","0.8,0.2","1:go_a","",""
"null","","html-keyboard-response","518","1374989","0.0-6.0-1.99","","<img src=""img/green-n.png"">","null","trial","32","","0.8,0.2","1:go_a","0",""
"null","","html-keyboard-response","519","1376005","0.0-6.0-2.99","","<div style=""font-size:60px;"">+</div>","null","","","","","","",""
"null","","image-keyboard-response","520","1377507","0.0-6.0-0.100","","img/green.png","null","trial","32","false","0.8,0.2","1:go_a","",""
"null","","html-keyboard-response","521","1378509","0.0-6.0-1.100","","<img src=""img/green-n.png"">","null","trial","32","","0.8,0.2","1:go_a","0",""
"null","","html-keyboard-response","522","1379525","0.0-6.0-2.100","","<div style=""font-size:60px;"">+</div>","null","","","","","","",""
"null","","image-keyboard-response","523","1381041","0.0-6.0-0.101","","img/grey.png","null","trial","32","false","0.8,0.2","3:go_c","",""
"null","","html-keyboard-response","524","1382056","0.0-6.0-1.101","","<img src=""img/grey-n.png"">","null","trial","32","","0.8,0.2","3:go_c","0",""
"null","","html-keyboard-response","525","1383063","0.0-6.0-2.101","","<div style=""font-size:60px;"">+</div>","null","","","","","","",""
"null","","image-keyboard-response","526","1384576","0.0-6.0-0.102","","img/yellow.png","null","trial","null","true","0.2,0.8","4:nogo_d","",""
"null","","html-keyboard-response","527","1385591","0.0-6.0-1.102","","<img src=""img/yellow-r.png"">","null","trial","null","","0.2,0.8","4:nogo_d","1",""
"null","","html-keyboard-response","528","1386601","0.0-6.0-2.102","","<div style=""font-size:60px;"">+</div>","null","","","","","","",""
"null","","image-keyboard-response","529","1388110","0.0-6.0-0.103","","img/purple.png","null","trial","null","true","0.2,0.8","2:nogo_b","",""
"null","","html-keyboard-response","530","1389123","0.0-6.0-1.103","","<img src=""img/purple-r.png"">","null","trial","null","","0.2,0.8","2:nogo_b","1",""
"null","","html-keyboard-response","531","1390128","0.0-6.0-2.103","","<div style=""font-size:60px;"">+</div>","null","","","","","","",""
"null","","image-keyboard-response","532","1391644","0.0-6.0-0.104","","img/yellow.png","null","trial","null","true","0.2,0.8","4:nogo_d","",""
"null","","html-keyboard-response","533","1392655","0.0-6.0-1.104","","<img src=""img/yellow-r.png"">","null","trial","null","","0.2,0.8","4:nogo_d","1",""
"null","","html-keyboard-response","534","1393659","0.0-6.0-2.104","","<div style=""font-size:60px;"">+</div>","null","","","","","","",""
"null","","image-keyboard-response","535","1395174","0.0-6.0-0.105","","img/green.png","null","trial","32","false","0.8,0.2","1:go_a","",""
"null","","html-keyboard-response","536","1396176","0.0-6.0-1.105","","<img src=""img/green-n.png"">","null","trial","32","","0.8,0.2","1:go_a","0",""
"null","","html-keyboard-response","537","1397191","0.0-6.0-2.105","","<div style=""font-size:60px;"">+</div>","null","","","","","","",""
"null","","image-keyboard-response","538","1398693","0.0-6.0-0.106","","img/purple.png","null","trial","null","true","0.2,0.8","2:nogo_b","",""
"null","","html-keyboard-response","539","1399712","0.0-6.0-1.106","","<img src=""img/purple-n.png"">","null","trial","null","","0.2,0.8","2:nogo_b","0",""
"null","","html-keyboard-response","540","1400722","0.0-6.0-2.106","","<div style=""font-size:60px;"">+</div>","null","","","","","","",""
"null","","image-keyboard-response","541","1402225","0.0-6.0-0.107","","img/grey.png","null","trial","32","false","0.8,0.2","3:go_c","",""
"null","","html-keyboard-response","542","1403239","0.0-6.0-1.107","","<img src=""img/grey-n.png"">","null","trial","32","","0.8,0.2","3:go_c","0",""
"null","","html-keyboard-response","543","1404254","0.0-6.0-2.107","","<div style=""font-size:60px;"">+</div>","null","","","","","","",""
"null","","image-keyboard-response","544","1405769","0.0-6.0-0.108","","img/yellow.png","null","trial","null","true","0.2,0.8","4:nogo_d","",""
"null","","html-keyboard-response","545","1406775","0.0-6.0-1.108","","<img src=""img/yellow-r.png"">","null","trial","null","","0.2,0.8","4:nogo_d","1",""
"null","","html-keyboard-response","546","1407777","0.0-6.0-2.108","","<div style=""font-size:60px;"">+</div>","null","","","","","","",""
"null","","image-keyboard-response","547","1409281","0.0-6.0-0.109","","img/grey.png","null","trial","32","false","0.8,0.2","3:go_c","",""
"null","","html-keyboard-response","548","1410298","0.0-6.0-1.109","","<img src=""img/grey-r.png"">","null","trial","32","","0.8,0.2","3:go_c","1",""
"null","","html-keyboard-response","549","1411312","0.0-6.0-2.109","","<div style=""font-size:60px;"">+</div>","null","","","","","","",""
"null","","image-keyboard-response","550","1412825","0.0-6.0-0.110","","img/purple.png","null","trial","null","true","0.2,0.8","2:nogo_b","",""
"null","","html-keyboard-response","551","1413838","0.0-6.0-1.110","","<img src=""img/purple-r.png"">","null","trial","null","","0.2,0.8","2:nogo_b","1",""
"null","","html-keyboard-response","552","1414854","0.0-6.0-2.110","","<div style=""font-size:60px;"">+</div>","null","","","","","","",""
"null","","image-keyboard-response","553","1416359","0.0-6.0-0.111","","img/green.png","null","trial","32","false","0.8,0.2","1:go_a","",""
"null","","html-keyboard-response","554","1417375","0.0-6.0-1.111","","<img src=""img/green-n.png"">","null","trial","32","","0.8,0.2","1:go_a","0",""
"null","","html-keyboard-response","555","1418384","0.0-6.0-2.111","","<div style=""font-size:60px;"">+</div>","null","","","","","","",""
"null","","image-keyboard-response","556","1419899","0.0-6.0-0.112","","img/grey.png","null","trial","32","false","0.8,0.2","3:go_c","",""
"null","","html-keyboard-response","557","1420914","0.0-6.0-1.112","","<img src=""img/grey-r.png"">","null","trial","32","","0.8,0.2","3:go_c","1",""
"null","","html-keyboard-response","558","1421927","0.0-6.0-2.112","","<div style=""font-size:60px;"">+</div>","null","","","","","","",""
"null","","image-keyboard-response","559","1423442","0.0-6.0-0.113","","img/green.png","null","trial","32","false","0.8,0.2","1:go_a","",""
"null","","html-keyboard-response","560","1424444","0.0-6.0-1.113","","<img src=""img/green-n.png"">","null","trial","32","","0.8,0.2","1:go_a","0",""
"null","","html-keyboard-response","561","1425459","0.0-6.0-2.113","","<div style=""font-size:60px;"">+</div>","null","","","","","","",""
"null","","image-keyboard-response","562","1426973","0.0-6.0-0.114","","img/yellow.png","null","trial","null","true","0.2,0.8","4:nogo_d","",""
"null","","html-keyboard-response","563","1427985","0.0-6.0-1.114","","<img src=""img/yellow-r.png"">","null","trial","null","","0.2,0.8","4:nogo_d","1",""
"null","","html-keyboard-response","564","1429000","0.0-6.0-2.114","","<div style=""font-size:60px;"">+</div>","null","","","","","","",""
"null","","image-keyboard-response","565","1430514","0.0-6.0-0.115","","img/purple.png","null","trial","null","true","0.2,0.8","2:nogo_b","",""
"null","","html-keyboard-response","566","1431518","0.0-6.0-1.115","","<img src=""img/purple-r.png"">","null","trial","null","","0.2,0.8","2:nogo_b","1",""
"null","","html-keyboard-response","567","1432529","0.0-6.0-2.115","","<div style=""font-size:60px;"">+</div>","null","","","","","","",""
"null","","image-keyboard-response","568","1434044","0.0-6.0-0.116","","img/green.png","null","trial","32","false","0.8,0.2","1:go_a","",""
"null","","html-keyboard-response","569","1435059","0.0-6.0-1.116","","<img src=""img/green-n.png"">","null","trial","32","","0.8,0.2","1:go_a","0",""
"null","","html-keyboard-response","570","1436064","0.0-6.0-2.116","","<div style=""font-size:60px;"">+</div>","null","","","","","","",""
"null","","image-keyboard-response","571","1437580","0.0-6.0-0.117","","img/purple.png","null","trial","null","true","0.2,0.8","2:nogo_b","",""
"null","","html-keyboard-response","572","1438591","0.0-6.0-1.117","","<img src=""img/purple-r.png"">","null","trial","null","","0.2,0.8","2:nogo_b","1",""
"null","","html-keyboard-response","573","1439605","0.0-6.0-2.117","","<div style=""font-size:60px;"">+</div>","null","","","","","","",""
"null","","image-keyboard-response","574","1441122","0.0-6.0-0.118","","img/yellow.png","null","trial","null","true","0.2,0.8","4:nogo_d","",""
"null","","html-keyboard-response","575","1442133","0.0-6.0-1.118","","<img src=""img/yellow-r.png"">","null","trial","null","","0.2,0.8","4:nogo_d","1",""
"null","","html-keyboard-response","576","1443145","0.0-6.0-2.118","","<div style=""font-size:60px;"">+</div>","null","","","","","","",""
"null","","image-keyboard-response","577","1444659","0.0-6.0-0.119","","img/grey.png","null","trial","32","false","0.8,0.2","3:go_c","",""
"null","","html-keyboard-response","578","1445674","0.0-6.0-1.119","","<img src=""img/grey-n.png"">","null","trial","32","","0.8,0.2","3:go_c","0",""
"null","","html-keyboard-response","579","1446687","0.0-6.0-2.119","","<div style=""font-size:60px;"">+</div>","null","","","","","","",""
"245556.23999994714","","instructions","580","1692245","0.0-7.0","[{""page_index"":0,""viewing_time"":245555.9699999867}]","","","","","","","","",""
"1439.8400000063702","","image-keyboard-response","581","1693686","0.0-8.0-0.0","","img/yellow.png","32","trial","null","false","0.4,0.6","4:nogo_d","",""
"null","","html-keyboard-response","582","1694689","0.0-8.0-1.0","","<img src=""img/yellow-n.png"" border=""10"">","null","trial","null","","0.4,0.6","4:nogo_d","0",""
"null","","html-keyboard-response","583","1695695","0.0-8.0-2.0","","<div style=""font-size:60px;"">+</div>","null","","","","","","",""
"462.96999999322","","image-keyboard-response","584","1696159","0.0-8.0-0.1","","img/purple.png","32","trial","32","true","0.6,0.4","3:go_c","",""
"null","","html-keyboard-response","585","1697167","0.0-8.0-1.1","","<img src=""img/purple-n.png"" border=""10"">","null","trial","32","","0.6,0.4","3:go_c","0",""
"null","","html-keyboard-response","586","1698178","0.0-8.0-2.1","","<div style=""font-size:60px;"">+</div>","null","","","","","","",""
"602.1849999669939","","image-keyboard-response","587","1698780","0.0-8.0-0.2","","img/green.png","32","trial","null","false","0.2,0.8","2:nogo_b","",""
"null","","html-keyboard-response","588","1699807","0.0-8.0-1.2","","<img src=""img/green-n.png"" border=""10"">","null","trial","null","","0.2,0.8","2:nogo_b","0",""
"null","","html-keyboard-response","589","1700814","0.0-8.0-2.2","","<div style=""font-size:60px;"">+</div>","null","","","","","","",""
"439.82500000856817","","image-keyboard-response","590","1701255","0.0-8.0-0.3","","img/pink.png","32","trial","32","true","0.8,0.2","1:go_a","",""
"null","","html-keyboard-response","591","1702262","0.0-8.0-1.3","","<img src=""img/pink-r.png"" border=""10"">","null","trial","32","","0.8,0.2","1:go_a","1",""
"null","","html-keyboard-response","592","1703274","0.0-8.0-2.3","","<div style=""font-size:60px;"">+</div>","null","","","","","","",""
"473.92999997828156","","image-keyboard-response","593","1703748","0.0-8.0-0.4","","img/green.png","32","trial","null","false","0.2,0.8","2:nogo_b","",""
"null","","html-keyboard-response","594","1704752","0.0-8.0-1.4","","<img src=""img/green-n.png"" border=""10"">","null","trial","null","","0.2,0.8","2:nogo_b","0",""
"null","","html-keyboard-response","595","1705753","0.0-8.0-2.4","","<div style=""font-size:60px;"">+</div>","null","","","","","","",""
"571.555000031367","","image-keyboard-response","596","1706327","0.0-8.0-0.5","","img/yellow.png","32","trial","null","false","0.4,0.6","4:nogo_d","",""
"null","","html-keyboard-response","597","1707336","0.0-8.0-1.5","","<img src=""img/yellow-n.png"" border=""10"">","null","trial","null","","0.4,0.6","4:nogo_d","0",""
"null","","html-keyboard-response","598","1708341","0.0-8.0-2.5","","<div style=""font-size:60px;"">+</div>","null","","","","","","",""
"638.2999999914318","","image-keyboard-response","599","1708982","0.0-8.0-0.6","","img/pink.png","32","trial","32","true","0.8,0.2","1:go_a","",""
"null","","html-keyboard-response","600","1709997","0.0-8.0-1.6","","<img src=""img/pink-r.png"" border=""10"">","null","trial","32","","0.8,0.2","1:go_a","1",""
"null","","html-keyboard-response","601","1711000","0.0-8.0-2.6","","<div style=""font-size:60px;"">+</div>","null","","","","","","",""
"638.0750000244007","","image-keyboard-response","602","1711639","0.0-8.0-0.7","","img/purple.png","32","trial","32","true","0.6,0.4","3:go_c","",""
"null","","html-keyboard-response","603","1712646","0.0-8.0-1.7","","<img src=""img/purple-r.png"" border=""10"">","null","trial","32","","0.6,0.4","3:go_c","1",""
"null","","html-keyboard-response","604","1713662","0.0-8.0-2.7","","<div style=""font-size:60px;"">+</div>","null","","","","","","",""
"605.7700000237674","","image-keyboard-response","605","1714269","0.0-8.0-0.8","","img/green.png","32","trial","null","false","0.2,0.8","2:nogo_b","",""
"null","","html-keyboard-response","606","1715283","0.0-8.0-1.8","","<img src=""img/green-n.png"" border=""10"">","null","trial","null","","0.2,0.8","2:nogo_b","0",""
"null","","html-keyboard-response","607","1716285","0.0-8.0-2.8","","<div style=""font-size:60px;"">+</div>","null","","","","","","",""
"465.28000000398606","","image-keyboard-response","608","1716752","0.0-8.0-0.9","","img/purple.png","32","trial","32","true","0.6,0.4","3:go_c","",""
"null","","html-keyboard-response","609","1717762","0.0-8.0-1.9","","<img src=""img/purple-n.png"" border=""10"">","null","trial","32","","0.6,0.4","3:go_c","0",""
"null","","html-keyboard-response","610","1718777","0.0-8.0-2.9","","<div style=""font-size:60px;"">+</div>","null","","","","","","",""
"418.03499998059124","","image-keyboard-response","611","1719198","0.0-8.0-0.10","","img/yellow.png","32","trial","null","false","0.4,0.6","4:nogo_d","",""
"null","","html-keyboard-response","612","1720215","0.0-8.0-1.10","","<img src=""img/yellow-n.png"" border=""10"">","null","trial","null","","0.4,0.6","4:nogo_d","0",""
"null","","html-keyboard-response","613","1721229","0.0-8.0-2.10","","<div style=""font-size:60px;"">+</div>","null","","","","","","",""
"401.6100000590086","","image-keyboard-response","614","1721632","0.0-8.0-0.11","","img/pink.png","32","trial","32","true","0.8,0.2","1:go_a","",""
"null","","html-keyboard-response","615","1722637","0.0-8.0-1.11","","<img src=""img/pink-r.png"" border=""10"">","null","trial","32","","0.8,0.2","1:go_a","1",""
"null","","html-keyboard-response","616","1723652","0.0-8.0-2.11","","<div style=""font-size:60px;"">+</div>","null","","","","","","",""
"776.2250000378117","","image-keyboard-response","617","1724431","0.0-8.0-0.12","","img/purple.png","32","trial","32","true","0.6,0.4","3:go_c","",""
"null","","html-keyboard-response","618","1725448","0.0-8.0-1.12","","<img src=""img/purple-r.png"" border=""10"">","null","trial","32","","0.6,0.4","3:go_c","1",""
"null","","html-keyboard-response","619","1726462","0.0-8.0-2.12","","<div style=""font-size:60px;"">+</div>","null","","","","","","",""
"null","","image-keyboard-response","620","1727977","0.0-8.0-0.13","","img/yellow.png","null","trial","null","true","0.4,0.6","4:nogo_d","",""
"null","","html-keyboard-response","621","1728985","0.0-8.0-1.13","","<img src=""img/yellow-n.png"">","null","trial","null","","0.4,0.6","4:nogo_d","0",""
"null","","html-keyboard-response","622","1730002","0.0-8.0-2.13","","<div style=""font-size:60px;"">+</div>","null","","","","","","",""
"1288.6900000739843","","image-keyboard-response","623","1731292","0.0-8.0-0.14","","img/pink.png","32","trial","32","true","0.8,0.2","1:go_a","",""
"null","","html-keyboard-response","624","1732311","0.0-8.0-1.14","","<img src=""img/pink-r.png"" border=""10"">","null","trial","32","","0.8,0.2","1:go_a","1",""
"null","","html-keyboard-response","625","1733317","0.0-8.0-2.14","","<div style=""font-size:60px;"">+</div>","null","","","","","","",""
"862.5649999594316","","image-keyboard-response","626","1734180","0.0-8.0-0.15","","img/green.png","32","trial","null","false","0.2,0.8","2:nogo_b","",""
"null","","html-keyboard-response","627","1735193","0.0-8.0-1.15","","<img src=""img/green-n.png"" border=""10"">","null","trial","null","","0.2,0.8","2:nogo_b","0",""
"null","","html-keyboard-response","628","1736212","0.0-8.0-2.15","","<div style=""font-size:60px;"">+</div>","null","","","","","","",""
"886.2799999769777","","image-keyboard-response","629","1737100","0.0-8.0-0.16","","img/pink.png","32","trial","32","true","0.8,0.2","1:go_a","",""
"null","","html-keyboard-response","630","1738113","0.0-8.0-1.16","","<img src=""img/pink-r.png"" border=""10"">","null","trial","32","","0.8,0.2","1:go_a","1",""
"null","","html-keyboard-response","631","1739127","0.0-8.0-2.16","","<div style=""font-size:60px;"">+</div>","null","","","","","","",""
"892.2950000269338","","image-keyboard-response","632","1740021","0.0-8.0-0.17","","img/green.png","32","trial","null","false","0.2,0.8","2:nogo_b","",""
"null","","html-keyboard-response","633","1741030","0.0-8.0-1.17","","<img src=""img/green-n.png"" border=""10"">","null","trial","null","","0.2,0.8","2:nogo_b","0",""
"null","","html-keyboard-response","634","1742043","0.0-8.0-2.17","","<div style=""font-size:60px;"">+</div>","null","","","","","","",""
"1217.2749999444932","","image-keyboard-response","635","1743263","0.0-8.0-0.18","","img/yellow.png","32","trial","null","false","0.4,0.6","4:nogo_d","",""
"null","","html-keyboard-response","636","1744275","0.0-8.0-1.18","","<img src=""img/yellow-n.png"" border=""10"">","null","trial","null","","0.4,0.6","4:nogo_d","0",""
"null","","html-keyboard-response","637","1745288","0.0-8.0-2.18","","<div style=""font-size:60px;"">+</div>","null","","","","","","",""
"461.2450000131503","","image-keyboard-response","638","1745751","0.0-8.0-0.19","","img/purple.png","32","trial","32","true","0.6,0.4","3:go_c","",""
"null","","html-keyboard-response","639","1746758","0.0-8.0-1.19","","<img src=""img/purple-r.png"" border=""10"">","null","trial","32","","0.6,0.4","3:go_c","1",""
"null","","html-keyboard-response","640","1747774","0.0-8.0-2.19","","<div style=""font-size:60px;"">+</div>","null","","","","","","",""
"652.0800000289455","","image-keyboard-response","641","1748428","0.0-8.0-0.20","","img/purple.png","32","trial","32","true","0.6,0.4","3:go_c","",""
"null","","html-keyboard-response","642","1749439","0.0-8.0-1.20","","<img src=""img/purple-n.png"" border=""10"">","null","trial","32","","0.6,0.4","3:go_c","0",""
"null","","html-keyboard-response","643","1750453","0.0-8.0-2.20","","<div style=""font-size:60px;"">+</div>","null","","","","","","",""
"535.9750000061467","","image-keyboard-response","644","1750991","0.0-8.0-0.21","","img/green.png","32","trial","null","false","0.2,0.8","2:nogo_b","",""
"null","","html-keyboard-response","645","1751997","0.0-8.0-1.21","","<img src=""img/green-n.png"" border=""10"">","null","trial","null","","0.2,0.8","2:nogo_b","0",""
"null","","html-keyboard-response","646","1753008","0.0-8.0-2.21","","<div style=""font-size:60px;"">+</div>","null","","","","","","",""
"669.385000015609","","image-keyboard-response","647","1753679","0.0-8.0-0.22","","img/pink.png","32","trial","32","true","0.8,0.2","1:go_a","",""
"null","","html-keyboard-response","648","1754695","0.0-8.0-1.22","","<img src=""img/pink-r.png"" border=""10"">","null","trial","32","","0.8,0.2","1:go_a","1",""
"null","","html-keyboard-response","649","1755712","0.0-8.0-2.22","","<div style=""font-size:60px;"">+</div>","null","","","","","","",""
"null","","image-keyboard-response","650","1757218","0.0-8.0-0.23","","img/yellow.png","null","trial","null","true","0.4,0.6","4:nogo_d","",""
"null","","html-keyboard-response","651","1758229","0.0-8.0-1.23","","<img src=""img/yellow-r.png"">","null","trial","null","","0.4,0.6","4:nogo_d","1",""
"null","","html-keyboard-response","652","1759241","0.0-8.0-2.23","","<div style=""font-size:60px;"">+</div>","null","","","","","","",""
"697.7800000458956","","image-keyboard-response","653","1759940","0.0-8.0-0.24","","img/purple.png","32","trial","32","true","0.6,0.4","3:go_c","",""
"null","","html-keyboard-response","654","1760948","0.0-8.0-1.24","","<img src=""img/purple-n.png"" border=""10"">","null","trial","32","","0.6,0.4","3:go_c","0",""
"null","","html-keyboard-response","655","1761958","0.0-8.0-2.24","","<div style=""font-size:60px;"">+</div>","null","","","","","","",""
"735.8200000599027","","image-keyboard-response","656","1762695","0.0-8.0-0.25","","img/green.png","32","trial","null","false","0.2,0.8","2:nogo_b","",""
"null","","html-keyboard-response","657","1763699","0.0-8.0-1.25","","<img src=""img/green-r.png"" border=""10"">","null","trial","null","","0.2,0.8","2:nogo_b","1",""
"null","","html-keyboard-response","658","1764702","0.0-8.0-2.25","","<div style=""font-size:60px;"">+</div>","null","","","","","","",""
"null","","image-keyboard-response","659","1766210","0.0-8.0-0.26","","img/yellow.png","null","trial","null","true","0.4,0.6","4:nogo_d","",""
"null","","html-keyboard-response","660","1767228","0.0-8.0-1.26","","<img src=""img/yellow-n.png"">","null","trial","null","","0.4,0.6","4:nogo_d","0",""
"null","","html-keyboard-response","661","1768241","0.0-8.0-2.26","","<div style=""font-size:60px;"">+</div>","null","","","","","","",""
"560.7450000243261","","image-keyboard-response","662","1768804","0.0-8.0-0.27","","img/pink.png","32","trial","32","true","0.8,0.2","1:go_a","",""
"null","","html-keyboard-response","663","1769808","0.0-8.0-1.27","","<img src=""img/pink-r.png"" border=""10"">","null","trial","32","","0.8,0.2","1:go_a","1",""
"null","","html-keyboard-response","664","1770819","0.0-8.0-2.27","","<div style=""font-size:60px;"">+</div>","null","","","","","","",""
"1404.160000034608","","image-keyboard-response","665","1772224","0.0-8.0-0.28","","img/green.png","32","trial","null","false","0.2,0.8","2:nogo_b","",""
"null","","html-keyboard-response","666","1773241","0.0-8.0-1.28","","<img src=""img/green-n.png"" border=""10"">","null","trial","null","","0.2,0.8","2:nogo_b","0",""
"null","","html-keyboard-response","667","1774254","0.0-8.0-2.28","","<div style=""font-size:60px;"">+</div>","null","","","","","","",""
"477.61499998159707","","image-keyboard-response","668","1774732","0.0-8.0-0.29","","img/pink.png","32","trial","32","true","0.8,0.2","1:go_a","",""
"null","","html-keyboard-response","669","1775738","0.0-8.0-1.29","","<img src=""img/pink-r.png"" border=""10"">","null","trial","32","","0.8,0.2","1:go_a","1",""
"null","","html-keyboard-response","670","1776754","0.0-8.0-2.29","","<div style=""font-size:60px;"">+</div>","null","","","","","","",""
"null","","image-keyboard-response","671","1778264","0.0-8.0-0.30","","img/yellow.png","null","trial","null","true","0.4,0.6","4:nogo_d","",""
"null","","html-keyboard-response","672","1779276","0.0-8.0-1.30","","<img src=""img/yellow-r.png"">","null","trial","null","","0.4,0.6","4:nogo_d","1",""
"null","","html-keyboard-response","673","1780279","0.0-8.0-2.30","","<div style=""font-size:60px;"">+</div>","null","","","","","","",""
"758.9000000152737","","image-keyboard-response","674","1781040","0.0-8.0-0.31","","img/purple.png","32","trial","32","true","0.6,0.4","3:go_c","",""
"null","","html-keyboard-response","675","1782055","0.0-8.0-1.31","","<img src=""img/purple-r.png"" border=""10"">","null","trial","32","","0.6,0.4","3:go_c","1",""
"null","","html-keyboard-response","676","1783064","0.0-8.0-2.31","","<div style=""font-size:60px;"">+</div>","null","","","","","","",""
