"rt","url","trial_type","trial_index","time_elapsed","internal_node_id","view_history","stimulus","key_press","test_part","correct_response","correct","use_rew","which_stim","reward","responses"
"8695.850000018254","consent.html","external-html","0","9134","0.0-0.0","","","","","","","","","",""
"117653.77999999328","","instructions","1","126789","0.0-1.0","[{""page_index"":0,""viewing_time"":5053.950000030454},{""page_index"":1,""viewing_time"":40231.40499996953},{""page_index"":2,""viewing_time"":8415.990000008605},{""page_index"":3,""viewing_time"":23983.85000001872},{""page_index"":4,""viewing_time"":18847.78000001097},{""page_index"":5,""viewing_time"":4383.984999964014},{""page_index"":6,""viewing_time"":16736.09000002034}]","","","","","","","","",""
"null","","image-keyboard-response","2","128303","0.0-2.0-0.0","","img/test3.PNG","null","practice","null","true","","","",""
"null","","html-keyboard-response","3","129319","0.0-2.0-1.0","","<img src=""img/test3-reward.PNG"">","null","","","","","","",""
"null","","html-keyboard-response","4","130325","0.0-2.0-2.0","","<div style=""font-size:60px;"">+</div>","null","","","","","","",""
"437.4850000021979","","image-keyboard-response","5","130765","0.0-2.0-0.1","","img/test1.PNG","32","practice","32","true","","","",""
"null","","html-keyboard-response","6","131768","0.0-2.0-1.1","","<img src=""img/test1-reward.PNG"" border=""10px; grey"">","null","","","","","","",""
"null","","html-keyboard-response","7","132782","0.0-2.0-2.1","","<div style=""font-size:60px;"">+</div>","null","","","","","","",""
"null","","image-keyboard-response","8","134296","0.0-2.0-0.2","","img/test2.PNG","null","practice","null","true","","","",""
"null","","html-keyboard-response","9","135298","0.0-2.0-1.2","","<img src=""img/test2-reward.PNG"">","null","","","","","","",""
"null","","html-keyboard-response","10","136312","0.0-2.0-2.2","","<div style=""font-size:60px;"">+</div>","null","","","","","","",""
"714.8900000029244","","image-keyboard-response","11","137030","0.0-2.0-0.3","","img/test1.PNG","32","practice","32","true","","","",""
"null","","html-keyboard-response","12","138041","0.0-2.0-1.3","","<img src=""img/test1-reward.PNG"" border=""10px; grey"">","null","","","","","","",""
"null","","html-keyboard-response","13","139055","0.0-2.0-2.3","","<div style=""font-size:60px;"">+</div>","null","","","","","","",""
"null","","image-keyboard-response","14","140559","0.0-2.0-0.4","","img/test3.PNG","null","practice","null","true","","","",""
"null","","html-keyboard-response","15","141573","0.0-2.0-1.4","","<img src=""img/test3-reward.PNG"">","null","","","","","","",""
"null","","html-keyboard-response","16","142574","0.0-2.0-2.4","","<div style=""font-size:60px;"">+</div>","null","","","","","","",""
"null","","image-keyboard-response","17","144087","0.0-2.0-0.5","","img/test2.PNG","null","practice","null","true","","","",""
"null","","html-keyboard-response","18","145099","0.0-2.0-1.5","","<img src=""img/test2-reward.PNG"">","null","","","","","","",""
"null","","html-keyboard-response","19","146103","0.0-2.0-2.5","","<div style=""font-size:60px;"">+</div>","null","","","","","","",""
"null","","image-keyboard-response","20","147617","0.0-2.0-0.6","","img/test2.PNG","null","practice","null","true","","","",""
"null","","html-keyboard-response","21","148618","0.0-2.0-1.6","","<img src=""img/test2-reward.PNG"">","null","","","","","","",""
"null","","html-keyboard-response","22","149626","0.0-2.0-2.6","","<div style=""font-size:60px;"">+</div>","null","","","","","","",""
"369.524999987334","","image-keyboard-response","23","149996","0.0-2.0-0.7","","img/test1.PNG","32","practice","32","true","","","",""
"null","","html-keyboard-response","24","151002","0.0-2.0-1.7","","<img src=""img/test1-reward.PNG"" border=""10px; grey"">","null","","","","","","",""
"null","","html-keyboard-response","25","152016","0.0-2.0-2.7","","<div style=""font-size:60px;"">+</div>","null","","","","","","",""
"null","","image-keyboard-response","26","153520","0.0-2.0-0.8","","img/test3.PNG","null","practice","null","true","","","",""
"null","","html-keyboard-response","27","154536","0.0-2.0-1.8","","<img src=""img/test3-reward.PNG"">","null","","","","","","",""
"null","","html-keyboard-response","28","155552","0.0-2.0-2.8","","<div style=""font-size:60px;"">+</div>","null","","","","","","",""
"null","","image-keyboard-response","29","157065","0.0-2.0-0.9","","img/test3.PNG","null","practice","null","true","","","",""
"null","","html-keyboard-response","30","158069","0.0-2.0-1.9","","<img src=""img/test3-reward.PNG"">","null","","","","","","",""
"null","","html-keyboard-response","31","159071","0.0-2.0-2.9","","<div style=""font-size:60px;"">+</div>","null","","","","","","",""
"null","","image-keyboard-response","32","160581","0.0-2.0-0.10","","img/test2.PNG","null","practice","null","true","","","",""
"null","","html-keyboard-response","33","161596","0.0-2.0-1.10","","<img src=""img/test2-reward.PNG"">","null","","","","","","",""
"null","","html-keyboard-response","34","162611","0.0-2.0-2.10","","<div style=""font-size:60px;"">+</div>","null","","","","","","",""
"640.700000047218","","image-keyboard-response","35","163252","0.0-2.0-0.11","","img/test1.PNG","32","practice","32","true","","","",""
"null","","html-keyboard-response","36","164261","0.0-2.0-1.11","","<img src=""img/test1-reward.PNG"" border=""10px; grey"">","null","","","","","","",""
"null","","html-keyboard-response","37","165277","0.0-2.0-2.11","","<div style=""font-size:60px;"">+</div>","null","","","","","","",""
"3671.4999999967404","","instructions","38","168948","0.0-3.0","[{""page_index"":0,""viewing_time"":3671.3549999985844}]","","","","","","","","",""
"1462.9449999774806","","image-keyboard-response","39","170412","0.0-4.0-0.0","","img/orange.png","32","trial","null","false","0.2,0.8","2:nogo_b","",""
"null","","html-keyboard-response","40","171425","0.0-4.0-1.0","","<img src=""img/orange-n.png"" border=""10"">","null","trial","null","","0.2,0.8","2:nogo_b","0",""
"null","","html-keyboard-response","41","172438","0.0-4.0-2.0","","<div style=""font-size:60px;"">+</div>","null","","","","","","",""
"862.6700000022538","","image-keyboard-response","42","173303","0.0-4.0-0.1","","img/pink.png","32","trial","32","true","0.8,0.2","1:go_a","",""
"null","","html-keyboard-response","43","174313","0.0-4.0-1.1","","<img src=""img/pink-n.png"" border=""10"">","null","trial","32","","0.8,0.2","1:go_a","0",""
"null","","html-keyboard-response","44","175323","0.0-4.0-2.1","","<div style=""font-size:60px;"">+</div>","null","","","","","","",""
"null","","image-keyboard-response","45","176835","0.0-4.0-0.2","","img/pink.png","null","trial","32","false","0.8,0.2","1:go_a","",""
"null","","html-keyboard-response","46","177853","0.0-4.0-1.2","","<img src=""img/pink-n.png"">","null","trial","32","","0.8,0.2","1:go_a","0",""
"null","","html-keyboard-response","47","178869","0.0-4.0-2.2","","<div style=""font-size:60px;"">+</div>","null","","","","","","",""
"null","","image-keyboard-response","48","180374","0.0-4.0-0.3","","img/orange.png","null","trial","null","true","0.2,0.8","2:nogo_b","",""
"null","","html-keyboard-response","49","181391","0.0-4.0-1.3","","<img src=""img/orange-r.png"">","null","trial","null","","0.2,0.8","2:nogo_b","1",""
"null","","html-keyboard-response","50","182401","0.0-4.0-2.3","","<div style=""font-size:60px;"">+</div>","null","","","","","","",""
"null","","image-keyboard-response","51","183916","0.0-4.0-0.4","","img/orange.png","null","trial","null","true","0.2,0.8","2:nogo_b","",""
"null","","html-keyboard-response","52","184927","0.0-4.0-1.4","","<img src=""img/orange-r.png"">","null","trial","null","","0.2,0.8","2:nogo_b","1",""
"null","","html-keyboard-response","53","185938","0.0-4.0-2.4","","<div style=""font-size:60px;"">+</div>","null","","","","","","",""
"832.654999976512","","image-keyboard-response","54","186772","0.0-4.0-0.5","","img/pink.png","32","trial","32","true","0.8,0.2","1:go_a","",""
"null","","html-keyboard-response","55","187785","0.0-4.0-1.5","","<img src=""img/pink-r.png"" border=""10"">","null","trial","32","","0.8,0.2","1:go_a","1",""
"null","","html-keyboard-response","56","188797","0.0-4.0-2.5","","<div style=""font-size:60px;"">+</div>","null","","","","","","",""
"743.2750000152737","","image-keyboard-response","57","189541","0.0-4.0-0.6","","img/pink.png","32","trial","32","true","0.8,0.2","1:go_a","",""
"null","","html-keyboard-response","58","190558","0.0-4.0-1.6","","<img src=""img/pink-n.png"" border=""10"">","null","trial","32","","0.8,0.2","1:go_a","0",""
"null","","html-keyboard-response","59","191570","0.0-4.0-2.6","","<div style=""font-size:60px;"">+</div>","null","","","","","","",""
"null","","image-keyboard-response","60","193087","0.0-4.0-0.7","","img/orange.png","null","trial","null","true","0.2,0.8","2:nogo_b","",""
"null","","html-keyboard-response","61","194100","0.0-4.0-1.7","","<img src=""img/orange-r.png"">","null","trial","null","","0.2,0.8","2:nogo_b","1",""
"null","","html-keyboard-response","62","195113","0.0-4.0-2.7","","<div style=""font-size:60px;"">+</div>","null","","","","","","",""
"null","","image-keyboard-response","63","196614","0.0-4.0-0.8","","img/orange.png","null","trial","null","true","0.2,0.8","2:nogo_b","",""
"null","","html-keyboard-response","64","197628","0.0-4.0-1.8","","<img src=""img/orange-r.png"">","null","trial","null","","0.2,0.8","2:nogo_b","1",""
"null","","html-keyboard-response","65","198639","0.0-4.0-2.8","","<div style=""font-size:60px;"">+</div>","null","","","","","","",""
"701.1399999610148","","image-keyboard-response","66","199341","0.0-4.0-0.9","","img/pink.png","32","trial","32","true","0.8,0.2","1:go_a","",""
"null","","html-keyboard-response","67","200346","0.0-4.0-1.9","","<img src=""img/pink-r.png"" border=""10"">","null","trial","32","","0.8,0.2","1:go_a","1",""
"null","","html-keyboard-response","68","201359","0.0-4.0-2.9","","<div style=""font-size:60px;"">+</div>","null","","","","","","",""
"763.9799999888055","","image-keyboard-response","69","202124","0.0-4.0-0.10","","img/pink.png","32","trial","32","true","0.8,0.2","1:go_a","",""
"null","","html-keyboard-response","70","203140","0.0-4.0-1.10","","<img src=""img/pink-r.png"" border=""10"">","null","trial","32","","0.8,0.2","1:go_a","1",""
"null","","html-keyboard-response","71","204142","0.0-4.0-2.10","","<div style=""font-size:60px;"">+</div>","null","","","","","","",""
"null","","image-keyboard-response","72","205647","0.0-4.0-0.11","","img/orange.png","null","trial","null","true","0.2,0.8","2:nogo_b","",""
"null","","html-keyboard-response","73","206651","0.0-4.0-1.11","","<img src=""img/orange-r.png"">","null","trial","null","","0.2,0.8","2:nogo_b","1",""
"null","","html-keyboard-response","74","207654","0.0-4.0-2.11","","<div style=""font-size:60px;"">+</div>","null","","","","","","",""
"877.2000000462867","","image-keyboard-response","75","208532","0.0-4.0-0.12","","img/pink.png","32","trial","32","true","0.8,0.2","1:go_a","",""
"null","","html-keyboard-response","76","209548","0.0-4.0-1.12","","<img src=""img/pink-r.png"" border=""10"">","null","trial","32","","0.8,0.2","1:go_a","1",""
"null","","html-keyboard-response","77","210564","0.0-4.0-2.12","","<div style=""font-size:60px;"">+</div>","null","","","","","","",""
"null","","image-keyboard-response","78","212078","0.0-4.0-0.13","","img/orange.png","null","trial","null","true","0.2,0.8","2:nogo_b","",""
"null","","html-keyboard-response","79","213091","0.0-4.0-1.13","","<img src=""img/orange-n.png"">","null","trial","null","","0.2,0.8","2:nogo_b","0",""
"null","","html-keyboard-response","80","214108","0.0-4.0-2.13","","<div style=""font-size:60px;"">+</div>","null","","","","","","",""
"null","","image-keyboard-response","81","215624","0.0-4.0-0.14","","img/orange.png","null","trial","null","true","0.2,0.8","2:nogo_b","",""
"null","","html-keyboard-response","82","216642","0.0-4.0-1.14","","<img src=""img/orange-r.png"">","null","trial","null","","0.2,0.8","2:nogo_b","1",""
"null","","html-keyboard-response","83","217657","0.0-4.0-2.14","","<div style=""font-size:60px;"">+</div>","null","","","","","","",""
"641.7999999830499","","image-keyboard-response","84","218300","0.0-4.0-0.15","","img/pink.png","32","trial","32","true","0.8,0.2","1:go_a","",""
"null","","html-keyboard-response","85","219309","0.0-4.0-1.15","","<img src=""img/pink-r.png"" border=""10"">","null","trial","32","","0.8,0.2","1:go_a","1",""
"null","","html-keyboard-response","86","220325","0.0-4.0-2.15","","<div style=""font-size:60px;"">+</div>","null","","","","","","",""
"null","","image-keyboard-response","87","221835","0.0-4.0-0.16","","img/orange.png","null","trial","null","true","0.2,0.8","2:nogo_b","",""
"null","","html-keyboard-response","88","222850","0.0-4.0-1.16","","<img src=""img/orange-r.png"">","null","trial","null","","0.2,0.8","2:nogo_b","1",""
"null","","html-keyboard-response","89","223865","0.0-4.0-2.16","","<div style=""font-size:60px;"">+</div>","null","","","","","","",""
"490.2299999957904","","image-keyboard-response","90","224357","0.0-4.0-0.17","","img/pink.png","32","trial","32","true","0.8,0.2","1:go_a","",""
"null","","html-keyboard-response","91","225363","0.0-4.0-1.17","","<img src=""img/pink-r.png"" border=""10"">","null","trial","32","","0.8,0.2","1:go_a","1",""
"null","","html-keyboard-response","92","226375","0.0-4.0-2.17","","<div style=""font-size:60px;"">+</div>","null","","","","","","",""
"556.6000000108033","","image-keyboard-response","93","226932","0.0-4.0-0.18","","img/pink.png","32","trial","32","true","0.8,0.2","1:go_a","",""
"null","","html-keyboard-response","94","227938","0.0-4.0-1.18","","<img src=""img/pink-n.png"" border=""10"">","null","trial","32","","0.8,0.2","1:go_a","0",""
"null","","html-keyboard-response","95","228954","0.0-4.0-2.18","","<div style=""font-size:60px;"">+</div>","null","","","","","","",""
"null","","image-keyboard-response","96","230470","0.0-4.0-0.19","","img/orange.png","null","trial","null","true","0.2,0.8","2:nogo_b","",""
"null","","html-keyboard-response","97","231483","0.0-4.0-1.19","","<img src=""img/orange-r.png"">","null","trial","null","","0.2,0.8","2:nogo_b","1",""
"null","","html-keyboard-response","98","232484","0.0-4.0-2.19","","<div style=""font-size:60px;"">+</div>","null","","","","","","",""
"687.610000022687","","image-keyboard-response","99","233172","0.0-4.0-0.20","","img/pink.png","32","trial","32","true","0.8,0.2","1:go_a","",""
"null","","html-keyboard-response","100","234184","0.0-4.0-1.20","","<img src=""img/pink-r.png"" border=""10"">","null","trial","32","","0.8,0.2","1:go_a","1",""
"null","","html-keyboard-response","101","235188","0.0-4.0-2.20","","<div style=""font-size:60px;"">+</div>","null","","","","","","",""
"null","","image-keyboard-response","102","236700","0.0-4.0-0.21","","img/orange.png","null","trial","null","true","0.2,0.8","2:nogo_b","",""
"null","","html-keyboard-response","103","237714","0.0-4.0-1.21","","<img src=""img/orange-r.png"">","null","trial","null","","0.2,0.8","2:nogo_b","1",""
"null","","html-keyboard-response","104","238728","0.0-4.0-2.21","","<div style=""font-size:60px;"">+</div>","null","","","","","","",""
"null","","image-keyboard-response","105","240230","0.0-4.0-0.22","","img/orange.png","null","trial","null","true","0.2,0.8","2:nogo_b","",""
"null","","html-keyboard-response","106","241243","0.0-4.0-1.22","","<img src=""img/orange-n.png"">","null","trial","null","","0.2,0.8","2:nogo_b","0",""
"null","","html-keyboard-response","107","242249","0.0-4.0-2.22","","<div style=""font-size:60px;"">+</div>","null","","","","","","",""
"618.0199999944307","","image-keyboard-response","108","242868","0.0-4.0-0.23","","img/pink.png","32","trial","32","true","0.8,0.2","1:go_a","",""
"null","","html-keyboard-response","109","243872","0.0-4.0-1.23","","<img src=""img/pink-r.png"" border=""10"">","null","trial","32","","0.8,0.2","1:go_a","1",""
"null","","html-keyboard-response","110","244889","0.0-4.0-2.23","","<div style=""font-size:60px;"">+</div>","null","","","","","","",""
"714.2800000146963","","image-keyboard-response","111","245604","0.0-4.0-0.24","","img/pink.png","32","trial","32","true","0.8,0.2","1:go_a","",""
"null","","html-keyboard-response","112","246615","0.0-4.0-1.24","","<img src=""img/pink-n.png"" border=""10"">","null","trial","32","","0.8,0.2","1:go_a","0",""
"null","","html-keyboard-response","113","247630","0.0-4.0-2.24","","<div style=""font-size:60px;"">+</div>","null","","","","","","",""
"null","","image-keyboard-response","114","249145","0.0-4.0-0.25","","img/orange.png","null","trial","null","true","0.2,0.8","2:nogo_b","",""
"null","","html-keyboard-response","115","250149","0.0-4.0-1.25","","<img src=""img/orange-r.png"">","null","trial","null","","0.2,0.8","2:nogo_b","1",""
"null","","html-keyboard-response","116","251165","0.0-4.0-2.25","","<div style=""font-size:60px;"">+</div>","null","","","","","","",""
"null","","image-keyboard-response","117","252677","0.0-4.0-0.26","","img/orange.png","null","trial","null","true","0.2,0.8","2:nogo_b","",""
"null","","html-keyboard-response","118","253691","0.0-4.0-1.26","","<img src=""img/orange-r.png"">","null","trial","null","","0.2,0.8","2:nogo_b","1",""
"null","","html-keyboard-response","119","254706","0.0-4.0-2.26","","<div style=""font-size:60px;"">+</div>","null","","","","","","",""
"775.9799999766983","","image-keyboard-response","120","255483","0.0-4.0-0.27","","img/pink.png","32","trial","32","true","0.8,0.2","1:go_a","",""
"null","","html-keyboard-response","121","256500","0.0-4.0-1.27","","<img src=""img/pink-n.png"" border=""10"">","null","trial","32","","0.8,0.2","1:go_a","0",""
"null","","html-keyboard-response","122","257514","0.0-4.0-2.27","","<div style=""font-size:60px;"">+</div>","null","","","","","","",""
"null","","image-keyboard-response","123","259026","0.0-4.0-0.28","","img/orange.png","null","trial","null","true","0.2,0.8","2:nogo_b","",""
"null","","html-keyboard-response","124","260041","0.0-4.0-1.28","","<img src=""img/orange-r.png"">","null","trial","null","","0.2,0.8","2:nogo_b","1",""
"null","","html-keyboard-response","125","261056","0.0-4.0-2.28","","<div style=""font-size:60px;"">+</div>","null","","","","","","",""
"837.4450000119396","","image-keyboard-response","126","261895","0.0-4.0-0.29","","img/pink.png","32","trial","32","true","0.8,0.2","1:go_a","",""
"null","","html-keyboard-response","127","262902","0.0-4.0-1.29","","<img src=""img/pink-r.png"" border=""10"">","null","trial","32","","0.8,0.2","1:go_a","1",""
"null","","html-keyboard-response","128","263905","0.0-4.0-2.29","","<div style=""font-size:60px;"">+</div>","null","","","","","","",""
"null","","image-keyboard-response","129","265409","0.0-4.0-0.30","","img/orange.png","null","trial","null","true","0.2,0.8","2:nogo_b","",""
"null","","html-keyboard-response","130","266422","0.0-4.0-1.30","","<img src=""img/orange-r.png"">","null","trial","null","","0.2,0.8","2:nogo_b","1",""
"null","","html-keyboard-response","131","267439","0.0-4.0-2.30","","<div style=""font-size:60px;"">+</div>","null","","","","","","",""
"572.9749999591149","","image-keyboard-response","132","268012","0.0-4.0-0.31","","img/pink.png","32","trial","32","true","0.8,0.2","1:go_a","",""
"null","","html-keyboard-response","133","269017","0.0-4.0-1.31","","<img src=""img/pink-r.png"" border=""10"">","null","trial","32","","0.8,0.2","1:go_a","1",""
"null","","html-keyboard-response","134","270019","0.0-4.0-2.31","","<div style=""font-size:60px;"">+</div>","null","","","","","","",""
"null","","image-keyboard-response","135","271535","0.0-4.0-0.32","","img/orange.png","null","trial","null","true","0.2,0.8","2:nogo_b","",""
"null","","html-keyboard-response","136","272551","0.0-4.0-1.32","","<img src=""img/orange-r.png"">","null","trial","null","","0.2,0.8","2:nogo_b","1",""
"null","","html-keyboard-response","137","273567","0.0-4.0-2.32","","<div style=""font-size:60px;"">+</div>","null","","","","","","",""
"548.1199999921955","","image-keyboard-response","138","274116","0.0-4.0-0.33","","img/pink.png","32","trial","32","true","0.8,0.2","1:go_a","",""
"null","","html-keyboard-response","139","275128","0.0-4.0-1.33","","<img src=""img/pink-r.png"" border=""10"">","null","trial","32","","0.8,0.2","1:go_a","1",""
"null","","html-keyboard-response","140","276130","0.0-4.0-2.33","","<div style=""font-size:60px;"">+</div>","null","","","","","","",""
"776.6399999964051","","image-keyboard-response","141","276907","0.0-4.0-0.34","","img/pink.png","32","trial","32","true","0.8,0.2","1:go_a","",""
"null","","html-keyboard-response","142","277921","0.0-4.0-1.34","","<img src=""img/pink-r.png"" border=""10"">","null","trial","32","","0.8,0.2","1:go_a","1",""
"null","","html-keyboard-response","143","278937","0.0-4.0-2.34","","<div style=""font-size:60px;"">+</div>","null","","","","","","",""
"null","","image-keyboard-response","144","280451","0.0-4.0-0.35","","img/orange.png","null","trial","null","true","0.2,0.8","2:nogo_b","",""
"null","","html-keyboard-response","145","281465","0.0-4.0-1.35","","<img src=""img/orange-r.png"">","null","trial","null","","0.2,0.8","2:nogo_b","1",""
"null","","html-keyboard-response","146","282481","0.0-4.0-2.35","","<div style=""font-size:60px;"">+</div>","null","","","","","","",""
"554.9950000131503","","image-keyboard-response","147","283037","0.0-4.0-0.36","","img/pink.png","32","trial","32","true","0.8,0.2","1:go_a","",""
"null","","html-keyboard-response","148","284052","0.0-4.0-1.36","","<img src=""img/pink-n.png"" border=""10"">","null","trial","32","","0.8,0.2","1:go_a","0",""
"null","","html-keyboard-response","149","285066","0.0-4.0-2.36","","<div style=""font-size:60px;"">+</div>","null","","","","","","",""
"null","","image-keyboard-response","150","286576","0.0-4.0-0.37","","img/orange.png","null","trial","null","true","0.2,0.8","2:nogo_b","",""
"null","","html-keyboard-response","151","287591","0.0-4.0-1.37","","<img src=""img/orange-n.png"">","null","trial","null","","0.2,0.8","2:nogo_b","0",""
"null","","html-keyboard-response","152","288605","0.0-4.0-2.37","","<div style=""font-size:60px;"">+</div>","null","","","","","","",""
"null","","image-keyboard-response","153","290114","0.0-4.0-0.38","","img/orange.png","null","trial","null","true","0.2,0.8","2:nogo_b","",""
"null","","html-keyboard-response","154","291117","0.0-4.0-1.38","","<img src=""img/orange-r.png"">","null","trial","null","","0.2,0.8","2:nogo_b","1",""
"null","","html-keyboard-response","155","292129","0.0-4.0-2.38","","<div style=""font-size:60px;"">+</div>","null","","","","","","",""
"634.6600000397302","","image-keyboard-response","156","292766","0.0-4.0-0.39","","img/pink.png","32","trial","32","true","0.8,0.2","1:go_a","",""
"null","","html-keyboard-response","157","293778","0.0-4.0-1.39","","<img src=""img/pink-n.png"" border=""10"">","null","trial","32","","0.8,0.2","1:go_a","0",""
"null","","html-keyboard-response","158","294792","0.0-4.0-2.39","","<div style=""font-size:60px;"">+</div>","null","","","","","","",""
"962.3199999914505","","image-keyboard-response","159","295755","0.0-4.0-0.40","","img/pink.png","32","trial","32","true","0.8,0.2","1:go_a","",""
"null","","html-keyboard-response","160","296770","0.0-4.0-1.40","","<img src=""img/pink-r.png"" border=""10"">","null","trial","32","","0.8,0.2","1:go_a","1",""
"null","","html-keyboard-response","161","297777","0.0-4.0-2.40","","<div style=""font-size:60px;"">+</div>","null","","","","","","",""
"null","","image-keyboard-response","162","299287","0.0-4.0-0.41","","img/orange.png","null","trial","null","true","0.2,0.8","2:nogo_b","",""
"null","","html-keyboard-response","163","300303","0.0-4.0-1.41","","<img src=""img/orange-r.png"">","null","trial","null","","0.2,0.8","2:nogo_b","1",""
"null","","html-keyboard-response","164","301314","0.0-4.0-2.41","","<div style=""font-size:60px;"">+</div>","null","","","","","","",""
"503.2050000154413","","image-keyboard-response","165","301820","0.0-4.0-0.42","","img/pink.png","32","trial","32","true","0.8,0.2","1:go_a","",""
"null","","html-keyboard-response","166","302835","0.0-4.0-1.42","","<img src=""img/pink-r.png"" border=""10"">","null","trial","32","","0.8,0.2","1:go_a","1",""
"null","","html-keyboard-response","167","303848","0.0-4.0-2.42","","<div style=""font-size:60px;"">+</div>","null","","","","","","",""
"null","","image-keyboard-response","168","305362","0.0-4.0-0.43","","img/orange.png","null","trial","null","true","0.2,0.8","2:nogo_b","",""
"null","","html-keyboard-response","169","306365","0.0-4.0-1.43","","<img src=""img/orange-r.png"">","null","trial","null","","0.2,0.8","2:nogo_b","1",""
"null","","html-keyboard-response","170","307375","0.0-4.0-2.43","","<div style=""font-size:60px;"">+</div>","null","","","","","","",""
"null","","image-keyboard-response","171","308878","0.0-4.0-0.44","","img/orange.png","null","trial","null","true","0.2,0.8","2:nogo_b","",""
"null","","html-keyboard-response","172","309891","0.0-4.0-1.44","","<img src=""img/orange-r.png"">","null","trial","null","","0.2,0.8","2:nogo_b","1",""
"null","","html-keyboard-response","173","310907","0.0-4.0-2.44","","<div style=""font-size:60px;"">+</div>","null","","","","","","",""
"1094.9200000031851","","image-keyboard-response","174","312004","0.0-4.0-0.45","","img/pink.png","32","trial","32","true","0.8,0.2","1:go_a","",""
"null","","html-keyboard-response","175","313015","0.0-4.0-1.45","","<img src=""img/pink-r.png"" border=""10"">","null","trial","32","","0.8,0.2","1:go_a","1",""
"null","","html-keyboard-response","176","314019","0.0-4.0-2.45","","<div style=""font-size:60px;"">+</div>","null","","","","","","",""
"null","","image-keyboard-response","177","315530","0.0-4.0-0.46","","img/orange.png","null","trial","null","true","0.2,0.8","2:nogo_b","",""
"null","","html-keyboard-response","178","316538","0.0-4.0-1.46","","<img src=""img/orange-r.png"">","null","trial","null","","0.2,0.8","2:nogo_b","1",""
"null","","html-keyboard-response","179","317543","0.0-4.0-2.46","","<div style=""font-size:60px;"">+</div>","null","","","","","","",""
"573.050000006333","","image-keyboard-response","180","318117","0.0-4.0-0.47","","img/pink.png","32","trial","32","true","0.8,0.2","1:go_a","",""
"null","","html-keyboard-response","181","319129","0.0-4.0-1.47","","<img src=""img/pink-r.png"" border=""10"">","null","trial","32","","0.8,0.2","1:go_a","1",""
"null","","html-keyboard-response","182","320142","0.0-4.0-2.47","","<div style=""font-size:60px;"">+</div>","null","","","","","","",""
"882.6899999985471","","image-keyboard-response","183","321029","0.0-4.0-0.48","","img/pink.png","32","trial","32","true","0.8,0.2","1:go_a","",""
"null","","html-keyboard-response","184","322036","0.0-4.0-1.48","","<img src=""img/pink-r.png"" border=""10"">","null","trial","32","","0.8,0.2","1:go_a","1",""
"null","","html-keyboard-response","185","323039","0.0-4.0-2.48","","<div style=""font-size:60px;"">+</div>","null","","","","","","",""
"null","","image-keyboard-response","186","324552","0.0-4.0-0.49","","img/orange.png","null","trial","null","true","0.2,0.8","2:nogo_b","",""
"null","","html-keyboard-response","187","325570","0.0-4.0-1.49","","<img src=""img/orange-r.png"">","null","trial","null","","0.2,0.8","2:nogo_b","1",""
"null","","html-keyboard-response","188","326584","0.0-4.0-2.49","","<div style=""font-size:60px;"">+</div>","null","","","","","","",""
"370.87000004248694","","image-keyboard-response","189","326956","0.0-4.0-0.50","","img/pink.png","32","trial","32","true","0.8,0.2","1:go_a","",""
"null","","html-keyboard-response","190","327958","0.0-4.0-1.50","","<img src=""img/pink-r.png"" border=""10"">","null","trial","32","","0.8,0.2","1:go_a","1",""
"null","","html-keyboard-response","191","328968","0.0-4.0-2.50","","<div style=""font-size:60px;"">+</div>","null","","","","","","",""
"null","","image-keyboard-response","192","330483","0.0-4.0-0.51","","img/orange.png","null","trial","null","true","0.2,0.8","2:nogo_b","",""
"null","","html-keyboard-response","193","331490","0.0-4.0-1.51","","<img src=""img/orange-r.png"">","null","trial","null","","0.2,0.8","2:nogo_b","1",""
"null","","html-keyboard-response","194","332492","0.0-4.0-2.51","","<div style=""font-size:60px;"">+</div>","null","","","","","","",""
"null","","image-keyboard-response","195","334006","0.0-4.0-0.52","","img/orange.png","null","trial","null","true","0.2,0.8","2:nogo_b","",""
"null","","html-keyboard-response","196","335022","0.0-4.0-1.52","","<img src=""img/orange-r.png"">","null","trial","null","","0.2,0.8","2:nogo_b","1",""
"null","","html-keyboard-response","197","336036","0.0-4.0-2.52","","<div style=""font-size:60px;"">+</div>","null","","","","","","",""
"670.1150000444613","","image-keyboard-response","198","336708","0.0-4.0-0.53","","img/pink.png","32","trial","32","true","0.8,0.2","1:go_a","",""
"null","","html-keyboard-response","199","337711","0.0-4.0-1.53","","<img src=""img/pink-r.png"" border=""10"">","null","trial","32","","0.8,0.2","1:go_a","1",""
"null","","html-keyboard-response","200","338723","0.0-4.0-2.53","","<div style=""font-size:60px;"">+</div>","null","","","","","","",""
"null","","image-keyboard-response","201","340236","0.0-4.0-0.54","","img/orange.png","null","trial","null","true","0.2,0.8","2:nogo_b","",""
"null","","html-keyboard-response","202","341249","0.0-4.0-1.54","","<img src=""img/orange-r.png"">","null","trial","null","","0.2,0.8","2:nogo_b","1",""
"null","","html-keyboard-response","203","342267","0.0-4.0-2.54","","<div style=""font-size:60px;"">+</div>","null","","","","","","",""
"505.32499997643754","","image-keyboard-response","204","342774","0.0-4.0-0.55","","img/pink.png","32","trial","32","true","0.8,0.2","1:go_a","",""
"null","","html-keyboard-response","205","343780","0.0-4.0-1.55","","<img src=""img/pink-r.png"" border=""10"">","null","trial","32","","0.8,0.2","1:go_a","1",""
"null","","html-keyboard-response","206","344796","0.0-4.0-2.55","","<div style=""font-size:60px;"">+</div>","null","","","","","","",""
"null","","image-keyboard-response","207","346313","0.0-4.0-0.56","","img/orange.png","null","trial","null","true","0.2,0.8","2:nogo_b","",""
"null","","html-keyboard-response","208","347327","0.0-4.0-1.56","","<img src=""img/orange-r.png"">","null","trial","null","","0.2,0.8","2:nogo_b","1",""
"null","","html-keyboard-response","209","348341","0.0-4.0-2.56","","<div style=""font-size:60px;"">+</div>","null","","","","","","",""
"439.04000002657995","","image-keyboard-response","210","348781","0.0-4.0-0.57","","img/pink.png","32","trial","32","true","0.8,0.2","1:go_a","",""
"null","","html-keyboard-response","211","349787","0.0-4.0-1.57","","<img src=""img/pink-r.png"" border=""10"">","null","trial","32","","0.8,0.2","1:go_a","1",""
"null","","html-keyboard-response","212","350798","0.0-4.0-2.57","","<div style=""font-size:60px;"">+</div>","null","","","","","","",""
"764.6700000041164","","image-keyboard-response","213","351565","0.0-4.0-0.58","","img/pink.png","32","trial","32","true","0.8,0.2","1:go_a","",""
"null","","html-keyboard-response","214","352575","0.0-4.0-1.58","","<img src=""img/pink-r.png"" border=""10"">","null","trial","32","","0.8,0.2","1:go_a","1",""
"null","","html-keyboard-response","215","353580","0.0-4.0-2.58","","<div style=""font-size:60px;"">+</div>","null","","","","","","",""
"null","","image-keyboard-response","216","355091","0.0-4.0-0.59","","img/orange.png","null","trial","null","true","0.2,0.8","2:nogo_b","",""
"null","","html-keyboard-response","217","356107","0.0-4.0-1.59","","<img src=""img/orange-r.png"">","null","trial","null","","0.2,0.8","2:nogo_b","1",""
"null","","html-keyboard-response","218","357108","0.0-4.0-2.59","","<div style=""font-size:60px;"">+</div>","null","","","","","","",""
"3575.429999968037","","instructions","219","360684","0.0-5.0","[{""page_index"":0,""viewing_time"":3575.219999998808}]","","","","","","","","",""
"984.2949999729171","","image-keyboard-response","220","361669","0.0-6.0-0.0","","img/pink.png","32","trial","null","false","0.2,0.8","4:nogo_d","",""
"null","","html-keyboard-response","221","362673","0.0-6.0-1.0","","<img src=""img/pink-r.png"" border=""10"">","null","trial","null","","0.2,0.8","4:nogo_d","1",""
"null","","html-keyboard-response","222","363676","0.0-6.0-2.0","","<div style=""font-size:60px;"">+</div>","null","","","","","","",""
"718.3500000392087","","image-keyboard-response","223","364396","0.0-6.0-0.1","","img/grey.png","32","trial","32","true","0.8,0.2","1:go_a","",""
"null","","html-keyboard-response","224","365403","0.0-6.0-1.1","","<img src=""img/grey-r.png"" border=""10"">","null","trial","32","","0.8,0.2","1:go_a","1",""
"null","","html-keyboard-response","225","366404","0.0-6.0-2.1","","<div style=""font-size:60px;"">+</div>","null","","","","","","",""
"839.7400000249036","","image-keyboard-response","226","367245","0.0-6.0-0.2","","img/purple.png","32","trial","null","false","0.2,0.8","2:nogo_b","",""
"null","","html-keyboard-response","227","368255","0.0-6.0-1.2","","<img src=""img/purple-n.png"" border=""10"">","null","trial","null","","0.2,0.8","2:nogo_b","0",""
"null","","html-keyboard-response","228","369270","0.0-6.0-2.2","","<div style=""font-size:60px;"">+</div>","null","","","","","","",""
"1069.240000040736","","image-keyboard-response","229","370340","0.0-6.0-0.3","","img/orange.png","32","trial","32","true","0.8,0.2","3:go_c","",""
"null","","html-keyboard-response","230","371349","0.0-6.0-1.3","","<img src=""img/orange-r.png"" border=""10"">","null","trial","32","","0.8,0.2","3:go_c","1",""
"null","","html-keyboard-response","231","372352","0.0-6.0-2.3","","<div style=""font-size:60px;"">+</div>","null","","","","","","",""
"null","","image-keyboard-response","232","373868","0.0-6.0-0.4","","img/purple.png","null","trial","null","true","0.2,0.8","2:nogo_b","",""
"null","","html-keyboard-response","233","374875","0.0-6.0-1.4","","<img src=""img/purple-r.png"">","null","trial","null","","0.2,0.8","2:nogo_b","1",""
"null","","html-keyboard-response","234","375885","0.0-6.0-2.4","","<div style=""font-size:60px;"">+</div>","null","","","","","","",""
"790.7899999991059","","image-keyboard-response","235","376677","0.0-6.0-0.5","","img/pink.png","32","trial","null","false","0.2,0.8","4:nogo_d","",""
"null","","html-keyboard-response","236","377691","0.0-6.0-1.5","","<img src=""img/pink-n.png"" border=""10"">","null","trial","null","","0.2,0.8","4:nogo_d","0",""
"null","","html-keyboard-response","237","378700","0.0-6.0-2.5","","<div style=""font-size:60px;"">+</div>","null","","","","","","",""
"840.3999999864027","","image-keyboard-response","238","379541","0.0-6.0-0.6","","img/grey.png","32","trial","32","true","0.8,0.2","1:go_a","",""
"null","","html-keyboard-response","239","380550","0.0-6.0-1.6","","<img src=""img/grey-r.png"" border=""10"">","null","trial","32","","0.8,0.2","1:go_a","1",""
"null","","html-keyboard-response","240","381565","0.0-6.0-2.6","","<div style=""font-size:60px;"">+</div>","null","","","","","","",""
"750.9699999936856","","image-keyboard-response","241","382318","0.0-6.0-0.7","","img/orange.png","32","trial","32","true","0.8,0.2","3:go_c","",""
"null","","html-keyboard-response","242","383331","0.0-6.0-1.7","","<img src=""img/orange-n.png"" border=""10"">","null","trial","32","","0.8,0.2","3:go_c","0",""
"null","","html-keyboard-response","243","384347","0.0-6.0-2.7","","<div style=""font-size:60px;"">+</div>","null","","","","","","",""
"null","","image-keyboard-response","244","385864","0.0-6.0-0.8","","img/pink.png","null","trial","null","true","0.2,0.8","4:nogo_d","",""
"null","","html-keyboard-response","245","386880","0.0-6.0-1.8","","<img src=""img/pink-r.png"">","null","trial","null","","0.2,0.8","4:nogo_d","1",""
"null","","html-keyboard-response","246","387885","0.0-6.0-2.8","","<div style=""font-size:60px;"">+</div>","null","","","","","","",""
"1141.8650000123307","","image-keyboard-response","247","389028","0.0-6.0-0.9","","img/purple.png","32","trial","null","false","0.2,0.8","2:nogo_b","",""
"null","","html-keyboard-response","248","390044","0.0-6.0-1.9","","<img src=""img/purple-r.png"" border=""10"">","null","trial","null","","0.2,0.8","2:nogo_b","1",""
"null","","html-keyboard-response","249","391061","0.0-6.0-2.9","","<div style=""font-size:60px;"">+</div>","null","","","","","","",""
"1286.2050000112504","","image-keyboard-response","250","392348","0.0-6.0-0.10","","img/grey.png","32","trial","32","true","0.8,0.2","1:go_a","",""
"null","","html-keyboard-response","251","393350","0.0-6.0-1.10","","<img src=""img/grey-r.png"" border=""10"">","null","trial","32","","0.8,0.2","1:go_a","1",""
"null","","html-keyboard-response","252","394360","0.0-6.0-2.10","","<div style=""font-size:60px;"">+</div>","null","","","","","","",""
"null","","image-keyboard-response","253","395877","0.0-6.0-0.11","","img/orange.png","null","trial","32","false","0.8,0.2","3:go_c","",""
"null","","html-keyboard-response","254","396894","0.0-6.0-1.11","","<img src=""img/orange-n.png"">","null","trial","32","","0.8,0.2","3:go_c","0",""
"null","","html-keyboard-response","255","397911","0.0-6.0-2.11","","<div style=""font-size:60px;"">+</div>","null","","","","","","",""
"915.3999999980442","","image-keyboard-response","256","398828","0.0-6.0-0.12","","img/purple.png","32","trial","null","false","0.2,0.8","2:nogo_b","",""
"null","","html-keyboard-response","257","399842","0.0-6.0-1.12","","<img src=""img/purple-n.png"" border=""10"">","null","trial","null","","0.2,0.8","2:nogo_b","0",""
"null","","html-keyboard-response","258","400858","0.0-6.0-2.12","","<div style=""font-size:60px;"">+</div>","null","","","","","","",""
"null","","image-keyboard-response","259","402374","0.0-6.0-0.13","","img/pink.png","null","trial","null","true","0.2,0.8","4:nogo_d","",""
"null","","html-keyboard-response","260","403390","0.0-6.0-1.13","","<img src=""img/pink-n.png"">","null","trial","null","","0.2,0.8","4:nogo_d","0",""
"null","","html-keyboard-response","261","404408","0.0-6.0-2.13","","<div style=""font-size:60px;"">+</div>","null","","","","","","",""
"1050.2449999912642","","image-keyboard-response","262","405460","0.0-6.0-0.14","","img/orange.png","32","trial","32","true","0.8,0.2","3:go_c","",""
"null","","html-keyboard-response","263","406471","0.0-6.0-1.14","","<img src=""img/orange-n.png"" border=""10"">","null","trial","32","","0.8,0.2","3:go_c","0",""
"null","","html-keyboard-response","264","407474","0.0-6.0-2.14","","<div style=""font-size:60px;"">+</div>","null","","","","","","",""
"817.3099999548867","","image-keyboard-response","265","408293","0.0-6.0-0.15","","img/grey.png","32","trial","32","true","0.8,0.2","1:go_a","",""
"null","","html-keyboard-response","266","409323","0.0-6.0-1.15","","<img src=""img/grey-r.png"" border=""10"">","null","trial","32","","0.8,0.2","1:go_a","1",""
"null","","html-keyboard-response","267","410339","0.0-6.0-2.15","","<div style=""font-size:60px;"">+</div>","null","","","","","","",""
"null","","image-keyboard-response","268","411855","0.0-6.0-0.16","","img/orange.png","null","trial","32","false","0.8,0.2","3:go_c","",""
"null","","html-keyboard-response","269","412870","0.0-6.0-1.16","","<img src=""img/orange-n.png"">","null","trial","32","","0.8,0.2","3:go_c","0",""
"null","","html-keyboard-response","270","413878","0.0-6.0-2.16","","<div style=""font-size:60px;"">+</div>","null","","","","","","",""
"741.4449999923818","","image-keyboard-response","271","414621","0.0-6.0-0.17","","img/grey.png","32","trial","32","true","0.8,0.2","1:go_a","",""
"null","","html-keyboard-response","272","415632","0.0-6.0-1.17","","<img src=""img/grey-r.png"" border=""10"">","null","trial","32","","0.8,0.2","1:go_a","1",""
"null","","html-keyboard-response","273","416638","0.0-6.0-2.17","","<div style=""font-size:60px;"">+</div>","null","","","","","","",""
"508.41000000946224","","image-keyboard-response","274","417148","0.0-6.0-0.18","","img/purple.png","32","trial","null","false","0.2,0.8","2:nogo_b","",""
"null","","html-keyboard-response","275","418153","0.0-6.0-1.18","","<img src=""img/purple-n.png"" border=""10"">","null","trial","null","","0.2,0.8","2:nogo_b","0",""
"null","","html-keyboard-response","276","419168","0.0-6.0-2.18","","<div style=""font-size:60px;"">+</div>","null","","","","","","",""
"1075.0399999669753","","image-keyboard-response","277","420243","0.0-6.0-0.19","","img/pink.png","32","trial","null","false","0.2,0.8","4:nogo_d","",""
"null","","html-keyboard-response","278","421252","0.0-6.0-1.19","","<img src=""img/pink-n.png"" border=""10"">","null","trial","null","","0.2,0.8","4:nogo_d","0",""
"null","","html-keyboard-response","279","422268","0.0-6.0-2.19","","<div style=""font-size:60px;"">+</div>","null","","","","","","",""
"759.3099999940023","","image-keyboard-response","280","423029","0.0-6.0-0.20","","img/grey.png","32","trial","32","true","0.8,0.2","1:go_a","",""
"null","","html-keyboard-response","281","424042","0.0-6.0-1.20","","<img src=""img/grey-r.png"" border=""10"">","null","trial","32","","0.8,0.2","1:go_a","1",""
"null","","html-keyboard-response","282","425049","0.0-6.0-2.20","","<div style=""font-size:60px;"">+</div>","null","","","","","","",""
"null","","image-keyboard-response","283","426569","0.0-6.0-0.21","","img/pink.png","null","trial","null","true","0.2,0.8","4:nogo_d","",""
"null","","html-keyboard-response","284","427583","0.0-6.0-1.21","","<img src=""img/pink-r.png"">","null","trial","null","","0.2,0.8","4:nogo_d","1",""
"null","","html-keyboard-response","285","428598","0.0-6.0-2.21","","<div style=""font-size:60px;"">+</div>","null","","","","","","",""
"null","","image-keyboard-response","286","430098","0.0-6.0-0.22","","img/purple.png","null","trial","null","true","0.2,0.8","2:nogo_b","",""
"null","","html-keyboard-response","287","431110","0.0-6.0-1.22","","<img src=""img/purple-r.png"">","null","trial","null","","0.2,0.8","2:nogo_b","1",""
"null","","html-keyboard-response","288","432116","0.0-6.0-2.22","","<div style=""font-size:60px;"">+</div>","null","","","","","","",""
"855.2100000088103","","image-keyboard-response","289","432971","0.0-6.0-0.23","","img/orange.png","32","trial","32","true","0.8,0.2","3:go_c","",""
"null","","html-keyboard-response","290","433980","0.0-6.0-1.23","","<img src=""img/orange-r.png"" border=""10"">","null","trial","32","","0.8,0.2","3:go_c","1",""
"null","","html-keyboard-response","291","434995","0.0-6.0-2.23","","<div style=""font-size:60px;"">+</div>","null","","","","","","",""
"null","","image-keyboard-response","292","436511","0.0-6.0-0.24","","img/purple.png","null","trial","null","true","0.2,0.8","2:nogo_b","",""
"null","","html-keyboard-response","293","437526","0.0-6.0-1.24","","<img src=""img/purple-r.png"">","null","trial","null","","0.2,0.8","2:nogo_b","1",""
"null","","html-keyboard-response","294","438540","0.0-6.0-2.24","","<div style=""font-size:60px;"">+</div>","null","","","","","","",""
"798.2799999881536","","image-keyboard-response","295","439339","0.0-6.0-0.25","","img/grey.png","32","trial","32","true","0.8,0.2","1:go_a","",""
"null","","html-keyboard-response","296","440353","0.0-6.0-1.25","","<img src=""img/grey-r.png"" border=""10"">","null","trial","32","","0.8,0.2","1:go_a","1",""
"null","","html-keyboard-response","297","441364","0.0-6.0-2.25","","<div style=""font-size:60px;"">+</div>","null","","","","","","",""
"null","","image-keyboard-response","298","442877","0.0-6.0-0.26","","img/pink.png","null","trial","null","true","0.2,0.8","4:nogo_d","",""
"null","","html-keyboard-response","299","443892","0.0-6.0-1.26","","<img src=""img/pink-r.png"">","null","trial","null","","0.2,0.8","4:nogo_d","1",""
"null","","html-keyboard-response","300","444902","0.0-6.0-2.26","","<div style=""font-size:60px;"">+</div>","null","","","","","","",""
"null","","image-keyboard-response","301","446417","0.0-6.0-0.27","","img/orange.png","null","trial","32","false","0.8,0.2","3:go_c","",""
"null","","html-keyboard-response","302","447418","0.0-6.0-1.27","","<img src=""img/orange-n.png"">","null","trial","32","","0.8,0.2","3:go_c","0",""
"null","","html-keyboard-response","303","448422","0.0-6.0-2.27","","<div style=""font-size:60px;"">+</div>","null","","","","","","",""
"null","","image-keyboard-response","304","449936","0.0-6.0-0.28","","img/pink.png","null","trial","null","true","0.2,0.8","4:nogo_d","",""
"null","","html-keyboard-response","305","450947","0.0-6.0-1.28","","<img src=""img/pink-r.png"">","null","trial","null","","0.2,0.8","4:nogo_d","1",""
"null","","html-keyboard-response","306","451951","0.0-6.0-2.28","","<div style=""font-size:60px;"">+</div>","null","","","","","","",""
"915.3999999980442","","image-keyboard-response","307","452867","0.0-6.0-0.29","","img/orange.png","32","trial","32","true","0.8,0.2","3:go_c","",""
"null","","html-keyboard-response","308","453882","0.0-6.0-1.29","","<img src=""img/orange-r.png"" border=""10"">","null","trial","32","","0.8,0.2","3:go_c","1",""
"null","","html-keyboard-response","309","454885","0.0-6.0-2.29","","<div style=""font-size:60px;"">+</div>","null","","","","","","",""
"null","","image-keyboard-response","310","456400","0.0-6.0-0.30","","img/purple.png","null","trial","null","true","0.2,0.8","2:nogo_b","",""
"null","","html-keyboard-response","311","457415","0.0-6.0-1.30","","<img src=""img/purple-r.png"">","null","trial","null","","0.2,0.8","2:nogo_b","1",""
"null","","html-keyboard-response","312","458417","0.0-6.0-2.30","","<div style=""font-size:60px;"">+</div>","null","","","","","","",""
"810.9699999913573","","image-keyboard-response","313","459229","0.0-6.0-0.31","","img/grey.png","32","trial","32","true","0.8,0.2","1:go_a","",""
"null","","html-keyboard-response","314","460240","0.0-6.0-1.31","","<img src=""img/grey-r.png"" border=""10"">","null","trial","32","","0.8,0.2","1:go_a","1",""
"null","","html-keyboard-response","315","461255","0.0-6.0-2.31","","<div style=""font-size:60px;"">+</div>","null","","","","","","",""
"null","","image-keyboard-response","316","462767","0.0-6.0-0.32","","img/pink.png","null","trial","null","true","0.2,0.8","4:nogo_d","",""
"null","","html-keyboard-response","317","463768","0.0-6.0-1.32","","<img src=""img/pink-r.png"">","null","trial","null","","0.2,0.8","4:nogo_d","1",""
"null","","html-keyboard-response","318","464781","0.0-6.0-2.32","","<div style=""font-size:60px;"">+</div>","null","","","","","","",""
"null","","image-keyboard-response","319","466293","0.0-6.0-0.33","","img/purple.png","null","trial","null","true","0.2,0.8","2:nogo_b","",""
"null","","html-keyboard-response","320","467306","0.0-6.0-1.33","","<img src=""img/purple-n.png"">","null","trial","null","","0.2,0.8","2:nogo_b","0",""
"null","","html-keyboard-response","321","468319","0.0-6.0-2.33","","<div style=""font-size:60px;"">+</div>","null","","","","","","",""
"1045.8900000085123","","image-keyboard-response","322","469367","0.0-6.0-0.34","","img/orange.png","32","trial","32","true","0.8,0.2","3:go_c","",""
"null","","html-keyboard-response","323","470380","0.0-6.0-1.34","","<img src=""img/orange-n.png"" border=""10"">","null","trial","32","","0.8,0.2","3:go_c","0",""
"null","","html-keyboard-response","324","471381","0.0-6.0-2.34","","<div style=""font-size:60px;"">+</div>","null","","","","","","",""
"1189.0000000130385","","image-keyboard-response","325","472571","0.0-6.0-0.35","","img/grey.png","32","trial","32","true","0.8,0.2","1:go_a","",""
"null","","html-keyboard-response","326","473577","0.0-6.0-1.35","","<img src=""img/grey-r.png"" border=""10"">","null","trial","32","","0.8,0.2","1:go_a","1",""
"null","","html-keyboard-response","327","474590","0.0-6.0-2.35","","<div style=""font-size:60px;"">+</div>","null","","","","","","",""
"null","","image-keyboard-response","328","476105","0.0-6.0-0.36","","img/purple.png","null","trial","null","true","0.2,0.8","2:nogo_b","",""
"null","","html-keyboard-response","329","477115","0.0-6.0-1.36","","<img src=""img/purple-r.png"">","null","trial","null","","0.2,0.8","2:nogo_b","1",""
"null","","html-keyboard-response","330","478130","0.0-6.0-2.36","","<div style=""font-size:60px;"">+</div>","null","","","","","","",""
"null","","image-keyboard-response","331","479645","0.0-6.0-0.37","","img/pink.png","null","trial","null","true","0.2,0.8","4:nogo_d","",""
"null","","html-keyboard-response","332","480659","0.0-6.0-1.37","","<img src=""img/pink-n.png"">","null","trial","null","","0.2,0.8","4:nogo_d","0",""
"null","","html-keyboard-response","333","481672","0.0-6.0-2.37","","<div style=""font-size:60px;"">+</div>","null","","","","","","",""
"978.0449999962002","","image-keyboard-response","334","482651","0.0-6.0-0.38","","img/orange.png","32","trial","32","true","0.8,0.2","3:go_c","",""
"null","","html-keyboard-response","335","483654","0.0-6.0-1.38","","<img src=""img/orange-r.png"" border=""10"">","null","trial","32","","0.8,0.2","3:go_c","1",""
"null","","html-keyboard-response","336","484669","0.0-6.0-2.38","","<div style=""font-size:60px;"">+</div>","null","","","","","","",""
"1021.0350000415929","","image-keyboard-response","337","485691","0.0-6.0-0.39","","img/grey.png","32","trial","32","true","0.8,0.2","1:go_a","",""
"null","","html-keyboard-response","338","486701","0.0-6.0-1.39","","<img src=""img/grey-r.png"" border=""10"">","null","trial","32","","0.8,0.2","1:go_a","1",""
"null","","html-keyboard-response","339","487712","0.0-6.0-2.39","","<div style=""font-size:60px;"">+</div>","null","","","","","","",""
"null","","image-keyboard-response","340","489220","0.0-6.0-0.40","","img/purple.png","null","trial","null","true","0.2,0.8","2:nogo_b","",""
"null","","html-keyboard-response","341","490224","0.0-6.0-1.40","","<img src=""img/purple-r.png"">","null","trial","null","","0.2,0.8","2:nogo_b","1",""
"null","","html-keyboard-response","342","491225","0.0-6.0-2.40","","<div style=""font-size:60px;"">+</div>","null","","","","","","",""
"944.8900000425056","","image-keyboard-response","343","492171","0.0-6.0-0.41","","img/grey.png","32","trial","32","true","0.8,0.2","1:go_a","",""
"null","","html-keyboard-response","344","493176","0.0-6.0-1.41","","<img src=""img/grey-r.png"" border=""10"">","null","trial","32","","0.8,0.2","1:go_a","1",""
"null","","html-keyboard-response","345","494185","0.0-6.0-2.41","","<div style=""font-size:60px;"">+</div>","null","","","","","","",""
"851.5049999696203","","image-keyboard-response","346","495038","0.0-6.0-0.42","","img/orange.png","32","trial","32","true","0.8,0.2","3:go_c","",""
"null","","html-keyboard-response","347","496041","0.0-6.0-1.42","","<img src=""img/orange-r.png"" border=""10"">","null","trial","32","","0.8,0.2","3:go_c","1",""
"null","","html-keyboard-response","348","497056","0.0-6.0-2.42","","<div style=""font-size:60px;"">+</div>","null","","","","","","",""
"null","","image-keyboard-response","349","498566","0.0-6.0-0.43","","img/pink.png","null","trial","null","true","0.2,0.8","4:nogo_d","",""
"null","","html-keyboard-response","350","499579","0.0-6.0-1.43","","<img src=""img/pink-n.png"">","null","trial","null","","0.2,0.8","4:nogo_d","0",""
"null","","html-keyboard-response","351","500589","0.0-6.0-2.43","","<div style=""font-size:60px;"">+</div>","null","","","","","","",""
"null","","image-keyboard-response","352","502101","0.0-6.0-0.44","","img/pink.png","null","trial","null","true","0.2,0.8","4:nogo_d","",""
"null","","html-keyboard-response","353","503120","0.0-6.0-1.44","","<img src=""img/pink-n.png"">","null","trial","null","","0.2,0.8","4:nogo_d","0",""
"null","","html-keyboard-response","354","504125","0.0-6.0-2.44","","<div style=""font-size:60px;"">+</div>","null","","","","","","",""
"null","","image-keyboard-response","355","505640","0.0-6.0-0.45","","img/purple.png","null","trial","null","true","0.2,0.8","2:nogo_b","",""
"null","","html-keyboard-response","356","506655","0.0-6.0-1.45","","<img src=""img/purple-r.png"">","null","trial","null","","0.2,0.8","2:nogo_b","1",""
"null","","html-keyboard-response","357","507667","0.0-6.0-2.45","","<div style=""font-size:60px;"">+</div>","null","","","","","","",""
"1035.329999984242","","image-keyboard-response","358","508703","0.0-6.0-0.46","","img/orange.png","32","trial","32","true","0.8,0.2","3:go_c","",""
"null","","html-keyboard-response","359","509715","0.0-6.0-1.46","","<img src=""img/orange-r.png"" border=""10"">","null","trial","32","","0.8,0.2","3:go_c","1",""
"null","","html-keyboard-response","360","510731","0.0-6.0-2.46","","<div style=""font-size:60px;"">+</div>","null","","","","","","",""
"630.9800000162795","","image-keyboard-response","361","511363","0.0-6.0-0.47","","img/grey.png","32","trial","32","true","0.8,0.2","1:go_a","",""
"null","","html-keyboard-response","362","512368","0.0-6.0-1.47","","<img src=""img/grey-r.png"" border=""10"">","null","trial","32","","0.8,0.2","1:go_a","1",""
"null","","html-keyboard-response","363","513382","0.0-6.0-2.47","","<div style=""font-size:60px;"">+</div>","null","","","","","","",""
"716.3200000068173","","image-keyboard-response","364","514100","0.0-6.0-0.48","","img/grey.png","32","trial","32","true","0.8,0.2","1:go_a","",""
"null","","html-keyboard-response","365","515118","0.0-6.0-1.48","","<img src=""img/grey-r.png"" border=""10"">","null","trial","32","","0.8,0.2","1:go_a","1",""
"null","","html-keyboard-response","366","516128","0.0-6.0-2.48","","<div style=""font-size:60px;"">+</div>","null","","","","","","",""
"null","","image-keyboard-response","367","517642","0.0-6.0-0.49","","img/purple.png","null","trial","null","true","0.2,0.8","2:nogo_b","",""
"null","","html-keyboard-response","368","518658","0.0-6.0-1.49","","<img src=""img/purple-r.png"">","null","trial","null","","0.2,0.8","2:nogo_b","1",""
"null","","html-keyboard-response","369","519673","0.0-6.0-2.49","","<div style=""font-size:60px;"">+</div>","null","","","","","","",""
"1097.7500000153668","","image-keyboard-response","370","520773","0.0-6.0-0.50","","img/orange.png","32","trial","32","true","0.8,0.2","3:go_c","",""
"null","","html-keyboard-response","371","521776","0.0-6.0-1.50","","<img src=""img/orange-r.png"" border=""10"">","null","trial","32","","0.8,0.2","3:go_c","1",""
"null","","html-keyboard-response","372","522786","0.0-6.0-2.50","","<div style=""font-size:60px;"">+</div>","null","","","","","","",""
"null","","image-keyboard-response","373","524298","0.0-6.0-0.51","","img/pink.png","null","trial","null","true","0.2,0.8","4:nogo_d","",""
"null","","html-keyboard-response","374","525310","0.0-6.0-1.51","","<img src=""img/pink-r.png"">","null","trial","null","","0.2,0.8","4:nogo_d","1",""
"null","","html-keyboard-response","375","526322","0.0-6.0-2.51","","<div style=""font-size:60px;"">+</div>","null","","","","","","",""
"null","","image-keyboard-response","376","527837","0.0-6.0-0.52","","img/pink.png","null","trial","null","true","0.2,0.8","4:nogo_d","",""
"null","","html-keyboard-response","377","528850","0.0-6.0-1.52","","<img src=""img/pink-r.png"">","null","trial","null","","0.2,0.8","4:nogo_d","1",""
"null","","html-keyboard-response","378","529863","0.0-6.0-2.52","","<div style=""font-size:60px;"">+</div>","null","","","","","","",""
"770.1450000167824","","image-keyboard-response","379","530635","0.0-6.0-0.53","","img/grey.png","32","trial","32","true","0.8,0.2","1:go_a","",""
"null","","html-keyboard-response","380","531651","0.0-6.0-1.53","","<img src=""img/grey-r.png"" border=""10"">","null","trial","32","","0.8,0.2","1:go_a","1",""
"null","","html-keyboard-response","381","532651","0.0-6.0-2.53","","<div style=""font-size:60px;"">+</div>","null","","","","","","",""
"1161.420000018552","","image-keyboard-response","382","533814","0.0-6.0-0.54","","img/orange.png","32","trial","32","true","0.8,0.2","3:go_c","",""
"null","","html-keyboard-response","383","534816","0.0-6.0-1.54","","<img src=""img/orange-n.png"" border=""10"">","null","trial","32","","0.8,0.2","3:go_c","0",""
"null","","html-keyboard-response","384","535831","0.0-6.0-2.54","","<div style=""font-size:60px;"">+</div>","null","","","","","","",""
"null","","image-keyboard-response","385","537342","0.0-6.0-0.55","","img/purple.png","null","trial","null","true","0.2,0.8","2:nogo_b","",""
"null","","html-keyboard-response","386","538346","0.0-6.0-1.55","","<img src=""img/purple-r.png"">","null","trial","null","","0.2,0.8","2:nogo_b","1",""
"null","","html-keyboard-response","387","539347","0.0-6.0-2.55","","<div style=""font-size:60px;"">+</div>","null","","","","","","",""
"null","","image-keyboard-response","388","540850","0.0-6.0-0.56","","img/purple.png","null","trial","null","true","0.2,0.8","2:nogo_b","",""
"null","","html-keyboard-response","389","541869","0.0-6.0-1.56","","<img src=""img/purple-r.png"">","null","trial","null","","0.2,0.8","2:nogo_b","1",""
"null","","html-keyboard-response","390","542882","0.0-6.0-2.56","","<div style=""font-size:60px;"">+</div>","null","","","","","","",""
"728.3500000485219","","image-keyboard-response","391","543611","0.0-6.0-0.57","","img/orange.png","32","trial","32","true","0.8,0.2","3:go_c","",""
"null","","html-keyboard-response","392","544625","0.0-6.0-1.57","","<img src=""img/orange-r.png"" border=""10"">","null","trial","32","","0.8,0.2","3:go_c","1",""
"null","","html-keyboard-response","393","545634","0.0-6.0-2.57","","<div style=""font-size:60px;"">+</div>","null","","","","","","",""
"832.1350000333041","","image-keyboard-response","394","546467","0.0-6.0-0.58","","img/grey.png","32","trial","32","true","0.8,0.2","1:go_a","",""
"null","","html-keyboard-response","395","547471","0.0-6.0-1.58","","<img src=""img/grey-r.png"" border=""10"">","null","trial","32","","0.8,0.2","1:go_a","1",""
"null","","html-keyboard-response","396","548486","0.0-6.0-2.58","","<div style=""font-size:60px;"">+</div>","null","","","","","","",""
"null","","image-keyboard-response","397","550002","0.0-6.0-0.59","","img/pink.png","null","trial","null","true","0.2,0.8","4:nogo_d","",""
"null","","html-keyboard-response","398","551018","0.0-6.0-1.59","","<img src=""img/pink-r.png"">","null","trial","null","","0.2,0.8","4:nogo_d","1",""
"null","","html-keyboard-response","399","552033","0.0-6.0-2.59","","<div style=""font-size:60px;"">+</div>","null","","","","","","",""
"840.6700000050478","","image-keyboard-response","400","552874","0.0-6.0-0.60","","img/grey.png","32","trial","32","true","0.8,0.2","1:go_a","",""
"null","","html-keyboard-response","401","553888","0.0-6.0-1.60","","<img src=""img/grey-r.png"" border=""10"">","null","trial","32","","0.8,0.2","1:go_a","1",""
"null","","html-keyboard-response","402","554902","0.0-6.0-2.60","","<div style=""font-size:60px;"">+</div>","null","","","","","","",""
"772.7450000238605","","image-keyboard-response","403","555676","0.0-6.0-0.61","","img/orange.png","32","trial","32","true","0.8,0.2","3:go_c","",""
"null","","html-keyboard-response","404","556680","0.0-6.0-1.61","","<img src=""img/orange-r.png"" border=""10"">","null","trial","32","","0.8,0.2","3:go_c","1",""
"null","","html-keyboard-response","405","557689","0.0-6.0-2.61","","<div style=""font-size:60px;"">+</div>","null","","","","","","",""
"null","","image-keyboard-response","406","559202","0.0-6.0-0.62","","img/pink.png","null","trial","null","true","0.2,0.8","4:nogo_d","",""
"null","","html-keyboard-response","407","560214","0.0-6.0-1.62","","<img src=""img/pink-r.png"">","null","trial","null","","0.2,0.8","4:nogo_d","1",""
"null","","html-keyboard-response","408","561228","0.0-6.0-2.62","","<div style=""font-size:60px;"">+</div>","null","","","","","","",""
"null","","image-keyboard-response","409","562743","0.0-6.0-0.63","","img/purple.png","null","trial","null","true","0.2,0.8","2:nogo_b","",""
"null","","html-keyboard-response","410","563751","0.0-6.0-1.63","","<img src=""img/purple-n.png"">","null","trial","null","","0.2,0.8","2:nogo_b","0",""
"null","","html-keyboard-response","411","564768","0.0-6.0-2.63","","<div style=""font-size:60px;"">+</div>","null","","","","","","",""
"null","","image-keyboard-response","412","566283","0.0-6.0-0.64","","img/purple.png","null","trial","null","true","0.2,0.8","2:nogo_b","",""
"null","","html-keyboard-response","413","567295","0.0-6.0-1.64","","<img src=""img/purple-r.png"">","null","trial","null","","0.2,0.8","2:nogo_b","1",""
"null","","html-keyboard-response","414","568300","0.0-6.0-2.64","","<div style=""font-size:60px;"">+</div>","null","","","","","","",""
"null","","image-keyboard-response","415","569817","0.0-6.0-0.65","","img/pink.png","null","trial","null","true","0.2,0.8","4:nogo_d","",""
"null","","html-keyboard-response","416","570827","0.0-6.0-1.65","","<img src=""img/pink-n.png"">","null","trial","null","","0.2,0.8","4:nogo_d","0",""
"null","","html-keyboard-response","417","571841","0.0-6.0-2.65","","<div style=""font-size:60px;"">+</div>","null","","","","","","",""
"682.9150000121444","","image-keyboard-response","418","572525","0.0-6.0-0.66","","img/orange.png","32","trial","32","true","0.8,0.2","3:go_c","",""
"null","","html-keyboard-response","419","573528","0.0-6.0-1.66","","<img src=""img/orange-r.png"" border=""10"">","null","trial","32","","0.8,0.2","3:go_c","1",""
"null","","html-keyboard-response","420","574542","0.0-6.0-2.66","","<div style=""font-size:60px;"">+</div>","null","","","","","","",""
"723.7849999801256","","image-keyboard-response","421","575267","0.0-6.0-0.67","","img/grey.png","32","trial","32","true","0.8,0.2","1:go_a","",""
"null","","html-keyboard-response","422","576276","0.0-6.0-1.67","","<img src=""img/grey-r.png"" border=""10"">","null","trial","32","","0.8,0.2","1:go_a","1",""
"null","","html-keyboard-response","423","577290","0.0-6.0-2.67","","<div style=""font-size:60px;"">+</div>","null","","","","","","",""
"null","","image-keyboard-response","424","578807","0.0-6.0-0.68","","img/pink.png","null","trial","null","true","0.2,0.8","4:nogo_d","",""
"null","","html-keyboard-response","425","579810","0.0-6.0-1.68","","<img src=""img/pink-r.png"">","null","trial","null","","0.2,0.8","4:nogo_d","1",""
"null","","html-keyboard-response","426","580819","0.0-6.0-2.68","","<div style=""font-size:60px;"">+</div>","null","","","","","","",""
"null","","image-keyboard-response","427","582331","0.0-6.0-0.69","","img/purple.png","null","trial","null","true","0.2,0.8","2:nogo_b","",""
"null","","html-keyboard-response","428","583334","0.0-6.0-1.69","","<img src=""img/purple-r.png"">","null","trial","null","","0.2,0.8","2:nogo_b","1",""
"null","","html-keyboard-response","429","584337","0.0-6.0-2.69","","<div style=""font-size:60px;"">+</div>","null","","","","","","",""
"824.9150000046939","","image-keyboard-response","430","585163","0.0-6.0-0.70","","img/grey.png","32","trial","32","true","0.8,0.2","1:go_a","",""
"null","","html-keyboard-response","431","586174","0.0-6.0-1.70","","<img src=""img/grey-r.png"" border=""10"">","null","trial","32","","0.8,0.2","1:go_a","1",""
"null","","html-keyboard-response","432","587188","0.0-6.0-2.70","","<div style=""font-size:60px;"">+</div>","null","","","","","","",""
"877.3400000063702","","image-keyboard-response","433","588066","0.0-6.0-0.71","","img/orange.png","32","trial","32","true","0.8,0.2","3:go_c","",""
"null","","html-keyboard-response","434","589077","0.0-6.0-1.71","","<img src=""img/orange-r.png"" border=""10"">","null","trial","32","","0.8,0.2","3:go_c","1",""
"null","","html-keyboard-response","435","590090","0.0-6.0-2.71","","<div style=""font-size:60px;"">+</div>","null","","","","","","",""
"null","","image-keyboard-response","436","591605","0.0-6.0-0.72","","img/pink.png","null","trial","null","true","0.2,0.8","4:nogo_d","",""
"null","","html-keyboard-response","437","592609","0.0-6.0-1.72","","<img src=""img/pink-r.png"">","null","trial","null","","0.2,0.8","4:nogo_d","1",""
"null","","html-keyboard-response","438","593620","0.0-6.0-2.72","","<div style=""font-size:60px;"">+</div>","null","","","","","","",""
"628.8799999747425","","image-keyboard-response","439","594250","0.0-6.0-0.73","","img/grey.png","32","trial","32","true","0.8,0.2","1:go_a","",""
"null","","html-keyboard-response","440","595258","0.0-6.0-1.73","","<img src=""img/grey-n.png"" border=""10"">","null","trial","32","","0.8,0.2","1:go_a","0",""
"null","","html-keyboard-response","441","596261","0.0-6.0-2.73","","<div style=""font-size:60px;"">+</div>","null","","","","","","",""
"null","","image-keyboard-response","442","597774","0.0-6.0-0.74","","img/purple.png","null","trial","null","true","0.2,0.8","2:nogo_b","",""
"null","","html-keyboard-response","443","598788","0.0-6.0-1.74","","<img src=""img/purple-r.png"">","null","trial","null","","0.2,0.8","2:nogo_b","1",""
"null","","html-keyboard-response","444","599790","0.0-6.0-2.74","","<div style=""font-size:60px;"">+</div>","null","","","","","","",""
"891.1100000259466","","image-keyboard-response","445","600682","0.0-6.0-0.75","","img/orange.png","32","trial","32","true","0.8,0.2","3:go_c","",""
"null","","html-keyboard-response","446","601698","0.0-6.0-1.75","","<img src=""img/orange-r.png"" border=""10"">","null","trial","32","","0.8,0.2","3:go_c","1",""
"null","","html-keyboard-response","447","602710","0.0-6.0-2.75","","<div style=""font-size:60px;"">+</div>","null","","","","","","",""
"null","","image-keyboard-response","448","604220","0.0-6.0-0.76","","img/purple.png","null","trial","null","true","0.2,0.8","2:nogo_b","",""
"null","","html-keyboard-response","449","605234","0.0-6.0-1.76","","<img src=""img/purple-r.png"">","null","trial","null","","0.2,0.8","2:nogo_b","1",""
"null","","html-keyboard-response","450","606250","0.0-6.0-2.76","","<div style=""font-size:60px;"">+</div>","null","","","","","","",""
"870.6949999905191","","image-keyboard-response","451","607122","0.0-6.0-0.77","","img/orange.png","32","trial","32","true","0.8,0.2","3:go_c","",""
"null","","html-keyboard-response","452","608125","0.0-6.0-1.77","","<img src=""img/orange-r.png"" border=""10"">","null","trial","32","","0.8,0.2","3:go_c","1",""
"null","","html-keyboard-response","453","609139","0.0-6.0-2.77","","<div style=""font-size:60px;"">+</div>","null","","","","","","",""
"902.2950000362471","","image-keyboard-response","454","610043","0.0-6.0-0.78","","img/grey.png","32","trial","32","true","0.8,0.2","1:go_a","",""
"null","","html-keyboard-response","455","611054","0.0-6.0-1.78","","<img src=""img/grey-r.png"" border=""10"">","null","trial","32","","0.8,0.2","1:go_a","1",""
"null","","html-keyboard-response","456","612069","0.0-6.0-2.78","","<div style=""font-size:60px;"">+</div>","null","","","","","","",""
"null","","image-keyboard-response","457","613579","0.0-6.0-0.79","","img/pink.png","null","trial","null","true","0.2,0.8","4:nogo_d","",""
"null","","html-keyboard-response","458","614592","0.0-6.0-1.79","","<img src=""img/pink-r.png"">","null","trial","null","","0.2,0.8","4:nogo_d","1",""
"null","","html-keyboard-response","459","615606","0.0-6.0-2.79","","<div style=""font-size:60px;"">+</div>","null","","","","","","",""
"491.2250000052154","","image-keyboard-response","460","616099","0.0-6.0-0.80","","img/grey.png","32","trial","32","true","0.8,0.2","1:go_a","",""
"null","","html-keyboard-response","461","617103","0.0-6.0-1.80","","<img src=""img/grey-r.png"" border=""10"">","null","trial","32","","0.8,0.2","1:go_a","1",""
"null","","html-keyboard-response","462","618106","0.0-6.0-2.80","","<div style=""font-size:60px;"">+</div>","null","","","","","","",""
"null","","image-keyboard-response","463","619609","0.0-6.0-0.81","","img/purple.png","null","trial","null","true","0.2,0.8","2:nogo_b","",""
"null","","html-keyboard-response","464","620622","0.0-6.0-1.81","","<img src=""img/purple-r.png"">","null","trial","null","","0.2,0.8","2:nogo_b","1",""
"null","","html-keyboard-response","465","621636","0.0-6.0-2.81","","<div style=""font-size:60px;"">+</div>","null","","","","","","",""
"null","","image-keyboard-response","466","623150","0.0-6.0-0.82","","img/pink.png","null","trial","null","true","0.2,0.8","4:nogo_d","",""
"null","","html-keyboard-response","467","624155","0.0-6.0-1.82","","<img src=""img/pink-r.png"">","null","trial","null","","0.2,0.8","4:nogo_d","1",""
"null","","html-keyboard-response","468","625157","0.0-6.0-2.82","","<div style=""font-size:60px;"">+</div>","null","","","","","","",""
"596.9649999751709","","image-keyboard-response","469","625755","0.0-6.0-0.83","","img/orange.png","32","trial","32","true","0.8,0.2","3:go_c","",""
"null","","html-keyboard-response","470","626772","0.0-6.0-1.83","","<img src=""img/orange-r.png"" border=""10"">","null","trial","32","","0.8,0.2","3:go_c","1",""
"null","","html-keyboard-response","471","627788","0.0-6.0-2.83","","<div style=""font-size:60px;"">+</div>","null","","","","","","",""
"741.295000014361","","image-keyboard-response","472","628531","0.0-6.0-0.84","","img/grey.png","32","trial","32","true","0.8,0.2","1:go_a","",""
"null","","html-keyboard-response","473","629547","0.0-6.0-1.84","","<img src=""img/grey-n.png"" border=""10"">","null","trial","32","","0.8,0.2","1:go_a","0",""
"null","","html-keyboard-response","474","630562","0.0-6.0-2.84","","<div style=""font-size:60px;"">+</div>","null","","","","","","",""
"null","","image-keyboard-response","475","632073","0.0-6.0-0.85","","img/purple.png","null","trial","null","true","0.2,0.8","2:nogo_b","",""
"null","","html-keyboard-response","476","633087","0.0-6.0-1.85","","<img src=""img/purple-r.png"">","null","trial","null","","0.2,0.8","2:nogo_b","1",""
"null","","html-keyboard-response","477","634100","0.0-6.0-2.85","","<div style=""font-size:60px;"">+</div>","null","","","","","","",""
"null","","image-keyboard-response","478","635601","0.0-6.0-0.86","","img/pink.png","null","trial","null","true","0.2,0.8","4:nogo_d","",""
"null","","html-keyboard-response","479","636617","0.0-6.0-1.86","","<img src=""img/pink-r.png"">","null","trial","null","","0.2,0.8","4:nogo_d","1",""
"null","","html-keyboard-response","480","637631","0.0-6.0-2.86","","<div style=""font-size:60px;"">+</div>","null","","","","","","",""
"706.960000039544","","image-keyboard-response","481","638338","0.0-6.0-0.87","","img/orange.png","32","trial","32","true","0.8,0.2","3:go_c","",""
"null","","html-keyboard-response","482","639346","0.0-6.0-1.87","","<img src=""img/orange-r.png"" border=""10"">","null","trial","32","","0.8,0.2","3:go_c","1",""
"null","","html-keyboard-response","483","640347","0.0-6.0-2.87","","<div style=""font-size:60px;"">+</div>","null","","","","","","",""
"null","","image-keyboard-response","484","641859","0.0-6.0-0.88","","img/purple.png","null","trial","null","true","0.2,0.8","2:nogo_b","",""
"null","","html-keyboard-response","485","642869","0.0-6.0-1.88","","<img src=""img/purple-r.png"">","null","trial","null","","0.2,0.8","2:nogo_b","1",""
"null","","html-keyboard-response","486","643882","0.0-6.0-2.88","","<div style=""font-size:60px;"">+</div>","null","","","","","","",""
"903.6199999973178","","image-keyboard-response","487","644787","0.0-6.0-0.89","","img/orange.png","32","trial","32","true","0.8,0.2","3:go_c","",""
"null","","html-keyboard-response","488","645800","0.0-6.0-1.89","","<img src=""img/orange-r.png"" border=""10"">","null","trial","32","","0.8,0.2","3:go_c","1",""
"null","","html-keyboard-response","489","646811","0.0-6.0-2.89","","<div style=""font-size:60px;"">+</div>","null","","","","","","",""
"null","","image-keyboard-response","490","648326","0.0-6.0-0.90","","img/pink.png","null","trial","null","true","0.2,0.8","4:nogo_d","",""
"null","","html-keyboard-response","491","649337","0.0-6.0-1.90","","<img src=""img/pink-n.png"">","null","trial","null","","0.2,0.8","4:nogo_d","0",""
"null","","html-keyboard-response","492","650352","0.0-6.0-2.90","","<div style=""font-size:60px;"">+</div>","null","","","","","","",""
"610.4850000119768","","image-keyboard-response","493","650964","0.0-6.0-0.91","","img/grey.png","32","trial","32","true","0.8,0.2","1:go_a","",""
"null","","html-keyboard-response","494","651968","0.0-6.0-1.91","","<img src=""img/grey-r.png"" border=""10"">","null","trial","32","","0.8,0.2","1:go_a","1",""
"null","","html-keyboard-response","495","652983","0.0-6.0-2.91","","<div style=""font-size:60px;"">+</div>","null","","","","","","",""
"null","","image-keyboard-response","496","654485","0.0-6.0-0.92","","img/purple.png","null","trial","null","true","0.2,0.8","2:nogo_b","",""
"null","","html-keyboard-response","497","655493","0.0-6.0-1.92","","<img src=""img/purple-n.png"">","null","trial","null","","0.2,0.8","2:nogo_b","0",""
"null","","html-keyboard-response","498","656498","0.0-6.0-2.92","","<div style=""font-size:60px;"">+</div>","null","","","","","","",""
"1242.4300000420772","","image-keyboard-response","499","657741","0.0-6.0-0.93","","img/orange.png","32","trial","32","true","0.8,0.2","3:go_c","",""
"null","","html-keyboard-response","500","658754","0.0-6.0-1.93","","<img src=""img/orange-r.png"" border=""10"">","null","trial","32","","0.8,0.2","3:go_c","1",""
"null","","html-keyboard-response","501","659763","0.0-6.0-2.93","","<div style=""font-size:60px;"">+</div>","null","","","","","","",""
"845.6499999738298","","image-keyboard-response","502","660611","0.0-6.0-0.94","","img/grey.png","32","trial","32","true","0.8,0.2","1:go_a","",""
"null","","html-keyboard-response","503","661614","0.0-6.0-1.94","","<img src=""img/grey-n.png"" border=""10"">","null","trial","32","","0.8,0.2","1:go_a","0",""
"null","","html-keyboard-response","504","662615","0.0-6.0-2.94","","<div style=""font-size:60px;"">+</div>","null","","","","","","",""
"null","","image-keyboard-response","505","664126","0.0-6.0-0.95","","img/pink.png","null","trial","null","true","0.2,0.8","4:nogo_d","",""
"null","","html-keyboard-response","506","665141","0.0-6.0-1.95","","<img src=""img/pink-r.png"">","null","trial","null","","0.2,0.8","4:nogo_d","1",""
"null","","html-keyboard-response","507","666145","0.0-6.0-2.95","","<div style=""font-size:60px;"">+</div>","null","","","","","","",""
"513.3149999892339","","image-keyboard-response","508","666646","0.0-6.0-0.96","","img/orange.png","32","trial","32","true","0.8,0.2","3:go_c","",""
"null","","html-keyboard-response","509","667664","0.0-6.0-1.96","","<img src=""img/orange-r.png"" border=""10"">","null","trial","32","","0.8,0.2","3:go_c","1",""
"null","","html-keyboard-response","510","668668","0.0-6.0-2.96","","<div style=""font-size:60px;"">+</div>","null","","","","","","",""
"547.2350000054576","","image-keyboard-response","511","669216","0.0-6.0-0.97","","img/grey.png","32","trial","32","true","0.8,0.2","1:go_a","",""
"null","","html-keyboard-response","512","670230","0.0-6.0-1.97","","<img src=""img/grey-r.png"" border=""10"">","null","trial","32","","0.8,0.2","1:go_a","1",""
"null","","html-keyboard-response","513","671235","0.0-6.0-2.97","","<div style=""font-size:60px;"">+</div>","null","","","","","","",""
"null","","image-keyboard-response","514","672747","0.0-6.0-0.98","","img/purple.png","null","trial","null","true","0.2,0.8","2:nogo_b","",""
"null","","html-keyboard-response","515","673767","0.0-6.0-1.98","","<img src=""img/purple-r.png"">","null","trial","null","","0.2,0.8","2:nogo_b","1",""
"null","","html-keyboard-response","516","674778","0.0-6.0-2.98","","<div style=""font-size:60px;"">+</div>","null","","","","","","",""
"null","","image-keyboard-response","517","676295","0.0-6.0-0.99","","img/pink.png","null","trial","null","true","0.2,0.8","4:nogo_d","",""
"null","","html-keyboard-response","518","677309","0.0-6.0-1.99","","<img src=""img/pink-r.png"">","null","trial","null","","0.2,0.8","4:nogo_d","1",""
"null","","html-keyboard-response","519","678325","0.0-6.0-2.99","","<div style=""font-size:60px;"">+</div>","null","","","","","","",""
"864.0550000127405","","image-keyboard-response","520","679191","0.0-6.0-0.100","","img/orange.png","32","trial","32","true","0.8,0.2","3:go_c","",""
"null","","html-keyboard-response","521","680197","0.0-6.0-1.100","","<img src=""img/orange-r.png"" border=""10"">","null","trial","32","","0.8,0.2","3:go_c","1",""
"null","","html-keyboard-response","522","681212","0.0-6.0-2.100","","<div style=""font-size:60px;"">+</div>","null","","","","","","",""
"null","","image-keyboard-response","523","682723","0.0-6.0-0.101","","img/pink.png","null","trial","null","true","0.2,0.8","4:nogo_d","",""
"null","","html-keyboard-response","524","683734","0.0-6.0-1.101","","<img src=""img/pink-r.png"">","null","trial","null","","0.2,0.8","4:nogo_d","1",""
"null","","html-keyboard-response","525","684745","0.0-6.0-2.101","","<div style=""font-size:60px;"">+</div>","null","","","","","","",""
"756.3950000330806","","image-keyboard-response","526","685503","0.0-6.0-0.102","","img/grey.png","32","trial","32","true","0.8,0.2","1:go_a","",""
"null","","html-keyboard-response","527","686506","0.0-6.0-1.102","","<img src=""img/grey-r.png"" border=""10"">","null","trial","32","","0.8,0.2","1:go_a","1",""
"null","","html-keyboard-response","528","687519","0.0-6.0-2.102","","<div style=""font-size:60px;"">+</div>","null","","","","","","",""
"null","","image-keyboard-response","529","689031","0.0-6.0-0.103","","img/purple.png","null","trial","null","true","0.2,0.8","2:nogo_b","",""
"null","","html-keyboard-response","530","690046","0.0-6.0-1.103","","<img src=""img/purple-n.png"">","null","trial","null","","0.2,0.8","2:nogo_b","0",""
"null","","html-keyboard-response","531","691054","0.0-6.0-2.103","","<div style=""font-size:60px;"">+</div>","null","","","","","","",""
"null","","image-keyboard-response","532","692566","0.0-6.0-0.104","","img/purple.png","null","trial","null","true","0.2,0.8","2:nogo_b","",""
"null","","html-keyboard-response","533","693582","0.0-6.0-1.104","","<img src=""img/purple-r.png"">","null","trial","null","","0.2,0.8","2:nogo_b","1",""
"null","","html-keyboard-response","534","694593","0.0-6.0-2.104","","<div style=""font-size:60px;"">+</div>","null","","","","","","",""
"537.8449999843724","","image-keyboard-response","535","695132","0.0-6.0-0.105","","img/grey.png","32","trial","32","true","0.8,0.2","1:go_a","",""
"null","","html-keyboard-response","536","696137","0.0-6.0-1.105","","<img src=""img/grey-r.png"" border=""10"">","null","trial","32","","0.8,0.2","1:go_a","1",""
"null","","html-keyboard-response","537","697153","0.0-6.0-2.105","","<div style=""font-size:60px;"">+</div>","null","","","","","","",""
"1083.6199999903329","","image-keyboard-response","538","698237","0.0-6.0-0.106","","img/orange.png","32","trial","32","true","0.8,0.2","3:go_c","",""
"null","","html-keyboard-response","539","699246","0.0-6.0-1.106","","<img src=""img/orange-r.png"" border=""10"">","null","trial","32","","0.8,0.2","3:go_c","1",""
"null","","html-keyboard-response","540","700257","0.0-6.0-2.106","","<div style=""font-size:60px;"">+</div>","null","","","","","","",""
"null","","image-keyboard-response","541","701763","0.0-6.0-0.107","","img/pink.png","null","trial","null","true","0.2,0.8","4:nogo_d","",""
"null","","html-keyboard-response","542","702779","0.0-6.0-1.107","","<img src=""img/pink-r.png"">","null","trial","null","","0.2,0.8","4:nogo_d","1",""
"null","","html-keyboard-response","543","703791","0.0-6.0-2.107","","<div style=""font-size:60px;"">+</div>","null","","","","","","",""
"null","","image-keyboard-response","544","705302","0.0-6.0-0.108","","img/purple.png","null","trial","null","true","0.2,0.8","2:nogo_b","",""
"null","","html-keyboard-response","545","706316","0.0-6.0-1.108","","<img src=""img/purple-r.png"">","null","trial","null","","0.2,0.8","2:nogo_b","1",""
"null","","html-keyboard-response","546","707317","0.0-6.0-2.108","","<div style=""font-size:60px;"">+</div>","null","","","","","","",""
"null","","image-keyboard-response","547","708832","0.0-6.0-0.109","","img/pink.png","null","trial","null","true","0.2,0.8","4:nogo_d","",""
"null","","html-keyboard-response","548","709844","0.0-6.0-1.109","","<img src=""img/pink-n.png"">","null","trial","null","","0.2,0.8","4:nogo_d","0",""
"null","","html-keyboard-response","549","710860","0.0-6.0-2.109","","<div style=""font-size:60px;"">+</div>","null","","","","","","",""
"null","","image-keyboard-response","550","712368","0.0-6.0-0.110","","img/orange.png","null","trial","32","false","0.8,0.2","3:go_c","",""
"null","","html-keyboard-response","551","713381","0.0-6.0-1.110","","<img src=""img/orange-r.png"">","null","trial","32","","0.8,0.2","3:go_c","1",""
"null","","html-keyboard-response","552","714394","0.0-6.0-2.110","","<div style=""font-size:60px;"">+</div>","null","","","","","","",""
"529.6950000338256","","image-keyboard-response","553","714925","0.0-6.0-0.111","","img/grey.png","32","trial","32","true","0.8,0.2","1:go_a","",""
"null","","html-keyboard-response","554","715937","0.0-6.0-1.111","","<img src=""img/grey-r.png"" border=""10"">","null","trial","32","","0.8,0.2","1:go_a","1",""
"null","","html-keyboard-response","555","716942","0.0-6.0-2.111","","<div style=""font-size:60px;"">+</div>","null","","","","","","",""
"null","","image-keyboard-response","556","718449","0.0-6.0-0.112","","img/orange.png","null","trial","32","false","0.8,0.2","3:go_c","",""
"null","","html-keyboard-response","557","719460","0.0-6.0-1.112","","<img src=""img/orange-n.png"">","null","trial","32","","0.8,0.2","3:go_c","0",""
"null","","html-keyboard-response","558","720467","0.0-6.0-2.112","","<div style=""font-size:60px;"">+</div>","null","","","","","","",""
"null","","image-keyboard-response","559","721981","0.0-6.0-0.113","","img/purple.png","null","trial","null","true","0.2,0.8","2:nogo_b","",""
"null","","html-keyboard-response","560","722995","0.0-6.0-1.113","","<img src=""img/purple-r.png"">","null","trial","null","","0.2,0.8","2:nogo_b","1",""
"null","","html-keyboard-response","561","724010","0.0-6.0-2.113","","<div style=""font-size:60px;"">+</div>","null","","","","","","",""
"null","","image-keyboard-response","562","725525","0.0-6.0-0.114","","img/pink.png","null","trial","null","true","0.2,0.8","4:nogo_d","",""
"null","","html-keyboard-response","563","726540","0.0-6.0-1.114","","<img src=""img/pink-n.png"">","null","trial","null","","0.2,0.8","4:nogo_d","0",""
"null","","html-keyboard-response","564","727569","0.0-6.0-2.114","","<div style=""font-size:60px;"">+</div>","null","","","","","","",""
"623.9150000037625","","image-keyboard-response","565","728195","0.0-6.0-0.115","","img/grey.png","32","trial","32","true","0.8,0.2","1:go_a","",""
"null","","html-keyboard-response","566","729207","0.0-6.0-1.115","","<img src=""img/grey-r.png"" border=""10"">","null","trial","32","","0.8,0.2","1:go_a","1",""
"null","","html-keyboard-response","567","730219","0.0-6.0-2.115","","<div style=""font-size:60px;"">+</div>","null","","","","","","",""
"null","","image-keyboard-response","568","731732","0.0-6.0-0.116","","img/pink.png","null","trial","null","true","0.2,0.8","4:nogo_d","",""
"null","","html-keyboard-response","569","732736","0.0-6.0-1.116","","<img src=""img/pink-n.png"">","null","trial","null","","0.2,0.8","4:nogo_d","0",""
"null","","html-keyboard-response","570","733750","0.0-6.0-2.116","","<div style=""font-size:60px;"">+</div>","null","","","","","","",""
"null","","image-keyboard-response","571","735252","0.0-6.0-0.117","","img/purple.png","null","trial","null","true","0.2,0.8","2:nogo_b","",""
"null","","html-keyboard-response","572","736262","0.0-6.0-1.117","","<img src=""img/purple-r.png"">","null","trial","null","","0.2,0.8","2:nogo_b","1",""
"null","","html-keyboard-response","573","737275","0.0-6.0-2.117","","<div style=""font-size:60px;"">+</div>","null","","","","","","",""
"775.9249999653548","","image-keyboard-response","574","738051","0.0-6.0-0.118","","img/grey.png","32","trial","32","true","0.8,0.2","1:go_a","",""
"null","","html-keyboard-response","575","739066","0.0-6.0-1.118","","<img src=""img/grey-r.png"" border=""10"">","null","trial","32","","0.8,0.2","1:go_a","1",""
"null","","html-keyboard-response","576","740081","0.0-6.0-2.118","","<div style=""font-size:60px;"">+</div>","null","","","","","","",""
"919.6200000005774","","image-keyboard-response","577","741002","0.0-6.0-0.119","","img/orange.png","32","trial","32","true","0.8,0.2","3:go_c","",""
"null","","html-keyboard-response","578","742006","0.0-6.0-1.119","","<img src=""img/orange-r.png"" border=""10"">","null","trial","32","","0.8,0.2","3:go_c","1",""
"null","","html-keyboard-response","579","743021","0.0-6.0-2.119","","<div style=""font-size:60px;"">+</div>","null","","","","","","",""
"3212.569999974221","","instructions","580","746234","0.0-7.0","[{""page_index"":0,""viewing_time"":3212.3199999914505}]","","","","","","","","",""
"895.9349999786355","","image-keyboard-response","581","747131","0.0-8.0-0.0","","img/pink.png","32","trial","null","false","0.2,0.8","2:nogo_b","",""
"null","","html-keyboard-response","582","748144","0.0-8.0-1.0","","<img src=""img/pink-n.png"" border=""10"">","null","trial","null","","0.2,0.8","2:nogo_b","0",""
"null","","html-keyboard-response","583","749149","0.0-8.0-2.0","","<div style=""font-size:60px;"">+</div>","null","","","","","","",""
"899.6499999775551","","image-keyboard-response","584","750050","0.0-8.0-0.1","","img/grey.png","32","trial","32","true","0.8,0.2","1:go_a","",""
"null","","html-keyboard-response","585","751056","0.0-8.0-1.1","","<img src=""img/grey-r.png"" border=""10"">","null","trial","32","","0.8,0.2","1:go_a","1",""
"null","","html-keyboard-response","586","752068","0.0-8.0-2.1","","<div style=""font-size:60px;"">+</div>","null","","","","","","",""
"709.6700000111014","","image-keyboard-response","587","752778","0.0-8.0-0.2","","img/red.png","32","trial","null","false","0.4,0.6","4:nogo_d","",""
"null","","html-keyboard-response","588","753781","0.0-8.0-1.2","","<img src=""img/red-n.png"" border=""10"">","null","trial","null","","0.4,0.6","4:nogo_d","0",""
"null","","html-keyboard-response","589","754795","0.0-8.0-2.2","","<div style=""font-size:60px;"">+</div>","null","","","","","","",""
"653.5649999859743","","image-keyboard-response","590","755450","0.0-8.0-0.3","","img/orange.png","32","trial","32","true","0.6,0.4","3:go_c","",""
"null","","html-keyboard-response","591","756463","0.0-8.0-1.3","","<img src=""img/orange-n.png"" border=""10"">","null","trial","32","","0.6,0.4","3:go_c","0",""
"null","","html-keyboard-response","592","757478","0.0-8.0-2.3","","<div style=""font-size:60px;"">+</div>","null","","","","","","",""
"609.664999996312","","image-keyboard-response","593","758090","0.0-8.0-0.4","","img/grey.png","32","trial","32","true","0.8,0.2","1:go_a","",""
"null","","html-keyboard-response","594","759095","0.0-8.0-1.4","","<img src=""img/grey-r.png"" border=""10"">","null","trial","32","","0.8,0.2","1:go_a","1",""
"null","","html-keyboard-response","595","760111","0.0-8.0-2.4","","<div style=""font-size:60px;"">+</div>","null","","","","","","",""
"null","","image-keyboard-response","596","761628","0.0-8.0-0.5","","img/pink.png","null","trial","null","true","0.2,0.8","2:nogo_b","",""
"null","","html-keyboard-response","597","762643","0.0-8.0-1.5","","<img src=""img/pink-r.png"">","null","trial","null","","0.2,0.8","2:nogo_b","1",""
"null","","html-keyboard-response","598","763644","0.0-8.0-2.5","","<div style=""font-size:60px;"">+</div>","null","","","","","","",""
"null","","image-keyboard-response","599","765159","0.0-8.0-0.6","","img/orange.png","null","trial","32","false","0.6,0.4","3:go_c","",""
"null","","html-keyboard-response","600","766176","0.0-8.0-1.6","","<img src=""img/orange-r.png"">","null","trial","32","","0.6,0.4","3:go_c","1",""
"null","","html-keyboard-response","601","767188","0.0-8.0-2.6","","<div style=""font-size:60px;"">+</div>","null","","","","","","",""
"null","","image-keyboard-response","602","768693","0.0-8.0-0.7","","img/red.png","null","trial","null","true","0.4,0.6","4:nogo_d","",""
"null","","html-keyboard-response","603","769707","0.0-8.0-1.7","","<img src=""img/red-n.png"">","null","trial","null","","0.4,0.6","4:nogo_d","0",""
"null","","html-keyboard-response","604","770707","0.0-8.0-2.7","","<div style=""font-size:60px;"">+</div>","null","","","","","","",""
"null","","image-keyboard-response","605","772208","0.0-8.0-0.8","","img/pink.png","null","trial","null","true","0.2,0.8","2:nogo_b","",""
"null","","html-keyboard-response","606","773223","0.0-8.0-1.8","","<img src=""img/pink-r.png"">","null","trial","null","","0.2,0.8","2:nogo_b","1",""
"null","","html-keyboard-response","607","774241","0.0-8.0-2.8","","<div style=""font-size:60px;"">+</div>","null","","","","","","",""
"825.2099999808706","","image-keyboard-response","608","775067","0.0-8.0-0.9","","img/grey.png","32","trial","32","true","0.8,0.2","1:go_a","",""
"null","","html-keyboard-response","609","776072","0.0-8.0-1.9","","<img src=""img/grey-n.png"" border=""10"">","null","trial","32","","0.8,0.2","1:go_a","0",""
"null","","html-keyboard-response","610","777088","0.0-8.0-2.9","","<div style=""font-size:60px;"">+</div>","null","","","","","","",""
"null","","image-keyboard-response","611","778589","0.0-8.0-0.10","","img/orange.png","null","trial","32","false","0.6,0.4","3:go_c","",""
"null","","html-keyboard-response","612","779604","0.0-8.0-1.10","","<img src=""img/orange-r.png"">","null","trial","32","","0.6,0.4","3:go_c","1",""
"null","","html-keyboard-response","613","780620","0.0-8.0-2.10","","<div style=""font-size:60px;"">+</div>","null","","","","","","",""
"589.8849999648519","","image-keyboard-response","614","781211","0.0-8.0-0.11","","img/red.png","32","trial","null","false","0.4,0.6","4:nogo_d","",""
"null","","html-keyboard-response","615","782220","0.0-8.0-1.11","","<img src=""img/red-n.png"" border=""10"">","null","trial","null","","0.4,0.6","4:nogo_d","0",""
"null","","html-keyboard-response","616","783234","0.0-8.0-2.11","","<div style=""font-size:60px;"">+</div>","null","","","","","","",""
"null","","image-keyboard-response","617","784751","0.0-8.0-0.12","","img/pink.png","null","trial","null","true","0.2,0.8","2:nogo_b","",""
"null","","html-keyboard-response","618","785768","0.0-8.0-1.12","","<img src=""img/pink-r.png"">","null","trial","null","","0.2,0.8","2:nogo_b","1",""
"null","","html-keyboard-response","619","786785","0.0-8.0-2.12","","<div style=""font-size:60px;"">+</div>","null","","","","","","",""
"849.2850000038743","","image-keyboard-response","620","787629","0.0-8.0-0.13","","img/grey.png","32","trial","32","true","0.8,0.2","1:go_a","",""
"null","","html-keyboard-response","621","788634","0.0-8.0-1.13","","<img src=""img/grey-r.png"" border=""10"">","null","trial","32","","0.8,0.2","1:go_a","1",""
"null","","html-keyboard-response","622","789642","0.0-8.0-2.13","","<div style=""font-size:60px;"">+</div>","null","","","","","","",""
"null","","image-keyboard-response","623","791143","0.0-8.0-0.14","","img/orange.png","null","trial","32","false","0.6,0.4","3:go_c","",""
"null","","html-keyboard-response","624","792159","0.0-8.0-1.14","","<img src=""img/orange-r.png"">","null","trial","32","","0.6,0.4","3:go_c","1",""
"null","","html-keyboard-response","625","793175","0.0-8.0-2.14","","<div style=""font-size:60px;"">+</div>","null","","","","","","",""
"null","","image-keyboard-response","626","794691","0.0-8.0-0.15","","img/red.png","null","trial","null","true","0.4,0.6","4:nogo_d","",""
"null","","html-keyboard-response","627","795708","0.0-8.0-1.15","","<img src=""img/red-r.png"">","null","trial","null","","0.4,0.6","4:nogo_d","1",""
"null","","html-keyboard-response","628","796723","0.0-8.0-2.15","","<div style=""font-size:60px;"">+</div>","null","","","","","","",""
"null","","image-keyboard-response","629","798243","0.0-8.0-0.16","","img/red.png","null","trial","null","true","0.4,0.6","4:nogo_d","",""
"null","","html-keyboard-response","630","799260","0.0-8.0-1.16","","<img src=""img/red-r.png"">","null","trial","null","","0.4,0.6","4:nogo_d","1",""
"null","","html-keyboard-response","631","800261","0.0-8.0-2.16","","<div style=""font-size:60px;"">+</div>","null","","","","","","",""
"null","","image-keyboard-response","632","801774","0.0-8.0-0.17","","img/pink.png","null","trial","null","true","0.2,0.8","2:nogo_b","",""
"null","","html-keyboard-response","633","802788","0.0-8.0-1.17","","<img src=""img/pink-r.png"">","null","trial","null","","0.2,0.8","2:nogo_b","1",""
"null","","html-keyboard-response","634","803802","0.0-8.0-2.17","","<div style=""font-size:60px;"">+</div>","null","","","","","","",""
"825.1099999761209","","image-keyboard-response","635","804629","0.0-8.0-0.18","","img/grey.png","32","trial","32","true","0.8,0.2","1:go_a","",""
"null","","html-keyboard-response","636","805636","0.0-8.0-1.18","","<img src=""img/grey-r.png"" border=""10"">","null","trial","32","","0.8,0.2","1:go_a","1",""
"null","","html-keyboard-response","637","806650","0.0-8.0-2.18","","<div style=""font-size:60px;"">+</div>","null","","","","","","",""
"null","","image-keyboard-response","638","808160","0.0-8.0-0.19","","img/orange.png","null","trial","32","false","0.6,0.4","3:go_c","",""
"null","","html-keyboard-response","639","809163","0.0-8.0-1.19","","<img src=""img/orange-r.png"">","null","trial","32","","0.6,0.4","3:go_c","1",""
"null","","html-keyboard-response","640","810177","0.0-8.0-2.19","","<div style=""font-size:60px;"">+</div>","null","","","","","","",""
"392.17499998630956","","image-keyboard-response","641","810570","0.0-8.0-0.20","","img/grey.png","32","trial","32","true","0.8,0.2","1:go_a","",""
"null","","html-keyboard-response","642","811580","0.0-8.0-1.20","","<img src=""img/grey-n.png"" border=""10"">","null","trial","32","","0.8,0.2","1:go_a","0",""
"null","","html-keyboard-response","643","812592","0.0-8.0-2.20","","<div style=""font-size:60px;"">+</div>","null","","","","","","",""
"null","","image-keyboard-response","644","814099","0.0-8.0-0.21","","img/pink.png","null","trial","null","true","0.2,0.8","2:nogo_b","",""
"null","","html-keyboard-response","645","815111","0.0-8.0-1.21","","<img src=""img/pink-r.png"">","null","trial","null","","0.2,0.8","2:nogo_b","1",""
"null","","html-keyboard-response","646","816125","0.0-8.0-2.21","","<div style=""font-size:60px;"">+</div>","null","","","","","","",""
"null","","image-keyboard-response","647","817631","0.0-8.0-0.22","","img/red.png","null","trial","null","true","0.4,0.6","4:nogo_d","",""
"null","","html-keyboard-response","648","818644","0.0-8.0-1.22","","<img src=""img/red-r.png"">","null","trial","null","","0.4,0.6","4:nogo_d","1",""
"null","","html-keyboard-response","649","819654","0.0-8.0-2.22","","<div style=""font-size:60px;"">+</div>","null","","","","","","",""
"null","","image-keyboard-response","650","821171","0.0-8.0-0.23","","img/orange.png","null","trial","32","false","0.6,0.4","3:go_c","",""
"null","","html-keyboard-response","651","822186","0.0-8.0-1.23","","<img src=""img/orange-r.png"">","null","trial","32","","0.6,0.4","3:go_c","1",""
"null","","html-keyboard-response","652","823195","0.0-8.0-2.23","","<div style=""font-size:60px;"">+</div>","null","","","","","","",""
"783.0700000049546","","image-keyboard-response","653","823978","0.0-8.0-0.24","","img/grey.png","32","trial","32","true","0.8,0.2","1:go_a","",""
"null","","html-keyboard-response","654","824990","0.0-8.0-1.24","","<img src=""img/grey-r.png"" border=""10"">","null","trial","32","","0.8,0.2","1:go_a","1",""
"null","","html-keyboard-response","655","826005","0.0-8.0-2.24","","<div style=""font-size:60px;"">+</div>","null","","","","","","",""
"null","","image-keyboard-response","656","827517","0.0-8.0-0.25","","img/red.png","null","trial","null","true","0.4,0.6","4:nogo_d","",""
"null","","html-keyboard-response","657","828519","0.0-8.0-1.25","","<img src=""img/red-n.png"">","null","trial","null","","0.4,0.6","4:nogo_d","0",""
"null","","html-keyboard-response","658","829532","0.0-8.0-2.25","","<div style=""font-size:60px;"">+</div>","null","","","","","","",""
"null","","image-keyboard-response","659","831040","0.0-8.0-0.26","","img/orange.png","null","trial","32","false","0.6,0.4","3:go_c","",""
"null","","html-keyboard-response","660","832053","0.0-8.0-1.26","","<img src=""img/orange-r.png"">","null","trial","32","","0.6,0.4","3:go_c","1",""
"null","","html-keyboard-response","661","833054","0.0-8.0-2.26","","<div style=""font-size:60px;"">+</div>","null","","","","","","",""
"null","","image-keyboard-response","662","834565","0.0-8.0-0.27","","img/pink.png","null","trial","null","true","0.2,0.8","2:nogo_b","",""
"null","","html-keyboard-response","663","835579","0.0-8.0-1.27","","<img src=""img/pink-r.png"">","null","trial","null","","0.2,0.8","2:nogo_b","1",""
"null","","html-keyboard-response","664","836590","0.0-8.0-2.27","","<div style=""font-size:60px;"">+</div>","null","","","","","","",""
"1467.4549999763258","","image-keyboard-response","665","838059","0.0-8.0-0.28","","img/grey.png","32","trial","32","true","0.8,0.2","1:go_a","",""
"null","","html-keyboard-response","666","839066","0.0-8.0-1.28","","<img src=""img/grey-r.png"" border=""10"">","null","trial","32","","0.8,0.2","1:go_a","1",""
"null","","html-keyboard-response","667","840079","0.0-8.0-2.28","","<div style=""font-size:60px;"">+</div>","null","","","","","","",""
"null","","image-keyboard-response","668","841585","0.0-8.0-0.29","","img/pink.png","null","trial","null","true","0.2,0.8","2:nogo_b","",""
"null","","html-keyboard-response","669","842597","0.0-8.0-1.29","","<img src=""img/pink-n.png"">","null","trial","null","","0.2,0.8","2:nogo_b","0",""
"null","","html-keyboard-response","670","843611","0.0-8.0-2.29","","<div style=""font-size:60px;"">+</div>","null","","","","","","",""
"null","","image-keyboard-response","671","845122","0.0-8.0-0.30","","img/red.png","null","trial","null","true","0.4,0.6","4:nogo_d","",""
"null","","html-keyboard-response","672","846134","0.0-8.0-1.30","","<img src=""img/red-n.png"">","null","trial","null","","0.4,0.6","4:nogo_d","0",""
"null","","html-keyboard-response","673","847136","0.0-8.0-2.30","","<div style=""font-size:60px;"">+</div>","null","","","","","","",""
"null","","image-keyboard-response","674","848653","0.0-8.0-0.31","","img/orange.png","null","trial","32","false","0.6,0.4","3:go_c","",""
"null","","html-keyboard-response","675","849668","0.0-8.0-1.31","","<img src=""img/orange-r.png"">","null","trial","32","","0.6,0.4","3:go_c","1",""
"null","","html-keyboard-response","676","850678","0.0-8.0-2.31","","<div style=""font-size:60px;"">+</div>","null","","","","","","",""
"null","","image-keyboard-response","677","852188","0.0-8.0-0.32","","img/red.png","null","trial","null","true","0.4,0.6","4:nogo_d","",""
"null","","html-keyboard-response","678","853200","0.0-8.0-1.32","","<img src=""img/red-n.png"">","null","trial","null","","0.4,0.6","4:nogo_d","0",""
"null","","html-keyboard-response","679","854213","0.0-8.0-2.32","","<div style=""font-size:60px;"">+</div>","null","","","","","","",""
"null","","image-keyboard-response","680","855725","0.0-8.0-0.33","","img/orange.png","null","trial","32","false","0.6,0.4","3:go_c","",""
"null","","html-keyboard-response","681","856739","0.0-8.0-1.33","","<img src=""img/orange-n.png"">","null","trial","32","","0.6,0.4","3:go_c","0",""
"null","","html-keyboard-response","682","857751","0.0-8.0-2.33","","<div style=""font-size:60px;"">+</div>","null","","","","","","",""
