"rt","url","trial_type","trial_index","time_elapsed","internal_node_id","view_history","stimulus","key_press","test_part","correct_response","correct","use_rew","which_stim","reward","responses"
"6215.985000017099","consent.html","external-html","0","6401","0.0-0.0","","","","","","","","","",""
"277031.5299999784","","instructions","1","283435","0.0-1.0","[{""page_index"":0,""viewing_time"":5138.429999991786},{""page_index"":1,""viewing_time"":24441.824999987148},{""page_index"":2,""viewing_time"":9466.085000021849},{""page_index"":3,""viewing_time"":195943.74999997672},{""page_index"":4,""viewing_time"":14768.135000020266},{""page_index"":5,""viewing_time"":12940.575000015087},{""page_index"":6,""viewing_time"":14329.480000014883}]","","","","","","","","",""
"null","","image-keyboard-response","2","284939","0.0-2.0-0.0","","img/test2.PNG","null","practice","null","true","","","",""
"null","","html-keyboard-response","3","285942","0.0-2.0-1.0","","<img src=""img/test2-reward.PNG"">","null","","","","","","",""
"null","","html-keyboard-response","4","286944","0.0-2.0-2.0","","<div style=""font-size:60px;"">+</div>","null","","","","","","",""
"null","","image-keyboard-response","5","288457","0.0-2.0-0.1","","img/test3.PNG","null","practice","null","true","","","",""
"null","","html-keyboard-response","6","289459","0.0-2.0-1.1","","<img src=""img/test3-reward.PNG"">","null","","","","","","",""
"null","","html-keyboard-response","7","290461","0.0-2.0-2.1","","<div style=""font-size:60px;"">+</div>","null","","","","","","",""
"352.4699999834411","","image-keyboard-response","8","290815","0.0-2.0-0.2","","img/test1.PNG","32","practice","32","true","","","",""
"null","","html-keyboard-response","9","291819","0.0-2.0-1.2","","<img src=""img/test1-reward.PNG"" border=""10px; grey"">","null","","","","","","",""
"null","","html-keyboard-response","10","292821","0.0-2.0-2.2","","<div style=""font-size:60px;"">+</div>","null","","","","","","",""
"null","","image-keyboard-response","11","294325","0.0-2.0-0.3","","img/test2.PNG","null","practice","null","true","","","",""
"null","","html-keyboard-response","12","295326","0.0-2.0-1.3","","<img src=""img/test2-reward.PNG"">","null","","","","","","",""
"null","","html-keyboard-response","13","296328","0.0-2.0-2.3","","<div style=""font-size:60px;"">+</div>","null","","","","","","",""
"458.8499999954365","","image-keyboard-response","14","296788","0.0-2.0-0.4","","img/test1.PNG","32","practice","32","true","","","",""
"null","","html-keyboard-response","15","297791","0.0-2.0-1.4","","<img src=""img/test1-reward.PNG"" border=""10px; grey"">","null","","","","","","",""
"null","","html-keyboard-response","16","298793","0.0-2.0-2.4","","<div style=""font-size:60px;"">+</div>","null","","","","","","",""
"null","","image-keyboard-response","17","300295","0.0-2.0-0.5","","img/test3.PNG","null","practice","null","true","","","",""
"null","","html-keyboard-response","18","301297","0.0-2.0-1.5","","<img src=""img/test3-reward.PNG"">","null","","","","","","",""
"null","","html-keyboard-response","19","302301","0.0-2.0-2.5","","<div style=""font-size:60px;"">+</div>","null","","","","","","",""
"null","","image-keyboard-response","20","303803","0.0-2.0-0.6","","img/test3.PNG","null","practice","null","true","","","",""
"null","","html-keyboard-response","21","304804","0.0-2.0-1.6","","<img src=""img/test3-reward.PNG"">","null","","","","","","",""
"null","","html-keyboard-response","22","305805","0.0-2.0-2.6","","<div style=""font-size:60px;"">+</div>","null","","","","","","",""
"null","","image-keyboard-response","23","307308","0.0-2.0-0.7","","img/test2.PNG","null","practice","null","true","","","",""
"null","","html-keyboard-response","24","308310","0.0-2.0-1.7","","<img src=""img/test2-reward.PNG"">","null","","","","","","",""
"null","","html-keyboard-response","25","309312","0.0-2.0-2.7","","<div style=""font-size:60px;"">+</div>","null","","","","","","",""
"518.7900000018999","","image-keyboard-response","26","309833","0.0-2.0-0.8","","img/test1.PNG","32","practice","32","true","","","",""
"null","","html-keyboard-response","27","310835","0.0-2.0-1.8","","<img src=""img/test1-reward.PNG"" border=""10px; grey"">","null","","","","","","",""
"null","","html-keyboard-response","28","311837","0.0-2.0-2.8","","<div style=""font-size:60px;"">+</div>","null","","","","","","",""
"535.2650000131689","","image-keyboard-response","29","312374","0.0-2.0-0.9","","img/test1.PNG","32","practice","32","true","","","",""
"null","","html-keyboard-response","30","313376","0.0-2.0-1.9","","<img src=""img/test1-reward.PNG"" border=""10px; grey"">","null","","","","","","",""
"null","","html-keyboard-response","31","314378","0.0-2.0-2.9","","<div style=""font-size:60px;"">+</div>","null","","","","","","",""
"null","","image-keyboard-response","32","315884","0.0-2.0-0.10","","img/test3.PNG","null","practice","null","true","","","",""
"null","","html-keyboard-response","33","316885","0.0-2.0-1.10","","<img src=""img/test3-reward.PNG"">","null","","","","","","",""
"null","","html-keyboard-response","34","317886","0.0-2.0-2.10","","<div style=""font-size:60px;"">+</div>","null","","","","","","",""
"null","","image-keyboard-response","35","319388","0.0-2.0-0.11","","img/test2.PNG","null","practice","null","true","","","",""
"null","","html-keyboard-response","36","320390","0.0-2.0-1.11","","<img src=""img/test2-reward.PNG"">","null","","","","","","",""
"null","","html-keyboard-response","37","321392","0.0-2.0-2.11","","<div style=""font-size:60px;"">+</div>","null","","","","","","",""
"7658.159999991767","","instructions","38","329050","0.0-3.0","[{""page_index"":0,""viewing_time"":7657.820000022184}]","","","","","","","","",""
"null","","image-keyboard-response","39","330553","0.0-4.0-0.0","","img/grey.png","null","trial","null","true","0.2,0.8","2:nogo_b","",""
"null","","html-keyboard-response","40","331557","0.0-4.0-1.0","","<img src=""img/grey-n.png"">","null","trial","null","","0.2,0.8","2:nogo_b","0",""
"null","","html-keyboard-response","41","332559","0.0-4.0-2.0","","<div style=""font-size:60px;"">+</div>","null","","","","","","",""
"731.145000027027","","image-keyboard-response","42","333292","0.0-4.0-0.1","","img/yellow.png","32","trial","32","true","0.8,0.2","1:go_a","",""
"null","","html-keyboard-response","43","334300","0.0-4.0-1.1","","<img src=""img/yellow-r.png"" border=""10"">","null","trial","32","","0.8,0.2","1:go_a","1",""
"null","","html-keyboard-response","44","335303","0.0-4.0-2.1","","<div style=""font-size:60px;"">+</div>","null","","","","","","",""
"389.8150000022724","","image-keyboard-response","45","335693","0.0-4.0-0.2","","img/yellow.png","32","trial","32","true","0.8,0.2","1:go_a","",""
"null","","html-keyboard-response","46","336697","0.0-4.0-1.2","","<img src=""img/yellow-r.png"" border=""10"">","null","trial","32","","0.8,0.2","1:go_a","1",""
"null","","html-keyboard-response","47","337700","0.0-4.0-2.2","","<div style=""font-size:60px;"">+</div>","null","","","","","","",""
"null","","image-keyboard-response","48","339203","0.0-4.0-0.3","","img/grey.png","null","trial","null","true","0.2,0.8","2:nogo_b","",""
"null","","html-keyboard-response","49","340205","0.0-4.0-1.3","","<img src=""img/grey-r.png"">","null","trial","null","","0.2,0.8","2:nogo_b","1",""
"null","","html-keyboard-response","50","341213","0.0-4.0-2.3","","<div style=""font-size:60px;"">+</div>","null","","","","","","",""
"494.1200000466779","","image-keyboard-response","51","341709","0.0-4.0-0.4","","img/yellow.png","32","trial","32","true","0.8,0.2","1:go_a","",""
"null","","html-keyboard-response","52","342715","0.0-4.0-1.4","","<img src=""img/yellow-r.png"" border=""10"">","null","trial","32","","0.8,0.2","1:go_a","1",""
"null","","html-keyboard-response","53","343717","0.0-4.0-2.4","","<div style=""font-size:60px;"">+</div>","null","","","","","","",""
"null","","image-keyboard-response","54","345219","0.0-4.0-0.5","","img/grey.png","null","trial","null","true","0.2,0.8","2:nogo_b","",""
"null","","html-keyboard-response","55","346221","0.0-4.0-1.5","","<img src=""img/grey-r.png"">","null","trial","null","","0.2,0.8","2:nogo_b","1",""
"null","","html-keyboard-response","56","347223","0.0-4.0-2.5","","<div style=""font-size:60px;"">+</div>","null","","","","","","",""
"841.0799999837764","","image-keyboard-response","57","348065","0.0-4.0-0.6","","img/grey.png","32","trial","null","false","0.2,0.8","2:nogo_b","",""
"null","","html-keyboard-response","58","349068","0.0-4.0-1.6","","<img src=""img/grey-n.png"" border=""10"">","null","trial","null","","0.2,0.8","2:nogo_b","0",""
"null","","html-keyboard-response","59","350069","0.0-4.0-2.6","","<div style=""font-size:60px;"">+</div>","null","","","","","","",""
"394.9249999714084","","image-keyboard-response","60","350465","0.0-4.0-0.7","","img/yellow.png","32","trial","32","true","0.8,0.2","1:go_a","",""
"null","","html-keyboard-response","61","351469","0.0-4.0-1.7","","<img src=""img/yellow-r.png"" border=""10"">","null","trial","32","","0.8,0.2","1:go_a","1",""
"null","","html-keyboard-response","62","352482","0.0-4.0-2.7","","<div style=""font-size:60px;"">+</div>","null","","","","","","",""
"null","","image-keyboard-response","63","353986","0.0-4.0-0.8","","img/grey.png","null","trial","null","true","0.2,0.8","2:nogo_b","",""
"null","","html-keyboard-response","64","354989","0.0-4.0-1.8","","<img src=""img/grey-r.png"">","null","trial","null","","0.2,0.8","2:nogo_b","1",""
"null","","html-keyboard-response","65","356003","0.0-4.0-2.8","","<div style=""font-size:60px;"">+</div>","null","","","","","","",""
"413.8350000139326","","image-keyboard-response","66","356418","0.0-4.0-0.9","","img/yellow.png","32","trial","32","true","0.8,0.2","1:go_a","",""
"null","","html-keyboard-response","67","357420","0.0-4.0-1.9","","<img src=""img/yellow-r.png"" border=""10"">","null","trial","32","","0.8,0.2","1:go_a","1",""
"null","","html-keyboard-response","68","358422","0.0-4.0-2.9","","<div style=""font-size:60px;"">+</div>","null","","","","","","",""
"341.94000001298264","","image-keyboard-response","69","358765","0.0-4.0-0.10","","img/yellow.png","32","trial","32","true","0.8,0.2","1:go_a","",""
"null","","html-keyboard-response","70","359772","0.0-4.0-1.10","","<img src=""img/yellow-r.png"" border=""10"">","null","trial","32","","0.8,0.2","1:go_a","1",""
"null","","html-keyboard-response","71","360774","0.0-4.0-2.10","","<div style=""font-size:60px;"">+</div>","null","","","","","","",""
"null","","image-keyboard-response","72","362276","0.0-4.0-0.11","","img/grey.png","null","trial","null","true","0.2,0.8","2:nogo_b","",""
"null","","html-keyboard-response","73","363281","0.0-4.0-1.11","","<img src=""img/grey-n.png"">","null","trial","null","","0.2,0.8","2:nogo_b","0",""
"null","","html-keyboard-response","74","364283","0.0-4.0-2.11","","<div style=""font-size:60px;"">+</div>","null","","","","","","",""
"null","","image-keyboard-response","75","365785","0.0-4.0-0.12","","img/grey.png","null","trial","null","true","0.2,0.8","2:nogo_b","",""
"null","","html-keyboard-response","76","366787","0.0-4.0-1.12","","<img src=""img/grey-r.png"">","null","trial","null","","0.2,0.8","2:nogo_b","1",""
"null","","html-keyboard-response","77","367789","0.0-4.0-2.12","","<div style=""font-size:60px;"">+</div>","null","","","","","","",""
"457.8849999816157","","image-keyboard-response","78","368248","0.0-4.0-0.13","","img/yellow.png","32","trial","32","true","0.8,0.2","1:go_a","",""
"null","","html-keyboard-response","79","369260","0.0-4.0-1.13","","<img src=""img/yellow-r.png"" border=""10"">","null","trial","32","","0.8,0.2","1:go_a","1",""
"null","","html-keyboard-response","80","370264","0.0-4.0-2.13","","<div style=""font-size:60px;"">+</div>","null","","","","","","",""
"null","","image-keyboard-response","81","371765","0.0-4.0-0.14","","img/grey.png","null","trial","null","true","0.2,0.8","2:nogo_b","",""
"null","","html-keyboard-response","82","372781","0.0-4.0-1.14","","<img src=""img/grey-n.png"">","null","trial","null","","0.2,0.8","2:nogo_b","0",""
"null","","html-keyboard-response","83","373784","0.0-4.0-2.14","","<div style=""font-size:60px;"">+</div>","null","","","","","","",""
"445.2399999718182","","image-keyboard-response","84","374231","0.0-4.0-0.15","","img/yellow.png","32","trial","32","true","0.8,0.2","1:go_a","",""
"null","","html-keyboard-response","85","375234","0.0-4.0-1.15","","<img src=""img/yellow-r.png"" border=""10"">","null","trial","32","","0.8,0.2","1:go_a","1",""
"null","","html-keyboard-response","86","376236","0.0-4.0-2.15","","<div style=""font-size:60px;"">+</div>","null","","","","","","",""
"459.40000005066395","","image-keyboard-response","87","376697","0.0-4.0-0.16","","img/yellow.png","32","trial","32","true","0.8,0.2","1:go_a","",""
"null","","html-keyboard-response","88","377700","0.0-4.0-1.16","","<img src=""img/yellow-r.png"" border=""10"">","null","trial","32","","0.8,0.2","1:go_a","1",""
"null","","html-keyboard-response","89","378702","0.0-4.0-2.16","","<div style=""font-size:60px;"">+</div>","null","","","","","","",""
"null","","image-keyboard-response","90","380204","0.0-4.0-0.17","","img/grey.png","null","trial","null","true","0.2,0.8","2:nogo_b","",""
"null","","html-keyboard-response","91","381207","0.0-4.0-1.17","","<img src=""img/grey-r.png"">","null","trial","null","","0.2,0.8","2:nogo_b","1",""
"null","","html-keyboard-response","92","382218","0.0-4.0-2.17","","<div style=""font-size:60px;"">+</div>","null","","","","","","",""
"282.2900000028312","","image-keyboard-response","93","382501","0.0-4.0-0.18","","img/yellow.png","32","trial","32","true","0.8,0.2","1:go_a","",""
"null","","html-keyboard-response","94","383505","0.0-4.0-1.18","","<img src=""img/yellow-r.png"" border=""10"">","null","trial","32","","0.8,0.2","1:go_a","1",""
"null","","html-keyboard-response","95","384507","0.0-4.0-2.18","","<div style=""font-size:60px;"">+</div>","null","","","","","","",""
"null","","image-keyboard-response","96","386009","0.0-4.0-0.19","","img/grey.png","null","trial","null","true","0.2,0.8","2:nogo_b","",""
"null","","html-keyboard-response","97","387014","0.0-4.0-1.19","","<img src=""img/grey-n.png"">","null","trial","null","","0.2,0.8","2:nogo_b","0",""
"null","","html-keyboard-response","98","388016","0.0-4.0-2.19","","<div style=""font-size:60px;"">+</div>","null","","","","","","",""
"453.66500003729016","","image-keyboard-response","99","388471","0.0-4.0-0.20","","img/yellow.png","32","trial","32","true","0.8,0.2","1:go_a","",""
"null","","html-keyboard-response","100","389475","0.0-4.0-1.20","","<img src=""img/yellow-r.png"" border=""10"">","null","trial","32","","0.8,0.2","1:go_a","1",""
"null","","html-keyboard-response","101","390479","0.0-4.0-2.20","","<div style=""font-size:60px;"">+</div>","null","","","","","","",""
"null","","image-keyboard-response","102","391982","0.0-4.0-0.21","","img/grey.png","null","trial","null","true","0.2,0.8","2:nogo_b","",""
"null","","html-keyboard-response","103","392983","0.0-4.0-1.21","","<img src=""img/grey-r.png"">","null","trial","null","","0.2,0.8","2:nogo_b","1",""
"null","","html-keyboard-response","104","393984","0.0-4.0-2.21","","<div style=""font-size:60px;"">+</div>","null","","","","","","",""
"null","","image-keyboard-response","105","395486","0.0-4.0-0.22","","img/grey.png","null","trial","null","true","0.2,0.8","2:nogo_b","",""
"null","","html-keyboard-response","106","396490","0.0-4.0-1.22","","<img src=""img/grey-r.png"">","null","trial","null","","0.2,0.8","2:nogo_b","1",""
"null","","html-keyboard-response","107","397491","0.0-4.0-2.22","","<div style=""font-size:60px;"">+</div>","null","","","","","","",""
"392.5399999716319","","image-keyboard-response","108","397885","0.0-4.0-0.23","","img/yellow.png","32","trial","32","true","0.8,0.2","1:go_a","",""
"null","","html-keyboard-response","109","398888","0.0-4.0-1.23","","<img src=""img/yellow-r.png"" border=""10"">","null","trial","32","","0.8,0.2","1:go_a","1",""
"null","","html-keyboard-response","110","399891","0.0-4.0-2.23","","<div style=""font-size:60px;"">+</div>","null","","","","","","",""
"null","","image-keyboard-response","111","401394","0.0-4.0-0.24","","img/grey.png","null","trial","null","true","0.2,0.8","2:nogo_b","",""
"null","","html-keyboard-response","112","402411","0.0-4.0-1.24","","<img src=""img/grey-r.png"">","null","trial","null","","0.2,0.8","2:nogo_b","1",""
"null","","html-keyboard-response","113","403413","0.0-4.0-2.24","","<div style=""font-size:60px;"">+</div>","null","","","","","","",""
"308.64499998278916","","image-keyboard-response","114","403722","0.0-4.0-0.25","","img/yellow.png","32","trial","32","true","0.8,0.2","1:go_a","",""
"null","","html-keyboard-response","115","404726","0.0-4.0-1.25","","<img src=""img/yellow-r.png"" border=""10"">","null","trial","32","","0.8,0.2","1:go_a","1",""
"null","","html-keyboard-response","116","405728","0.0-4.0-2.25","","<div style=""font-size:60px;"">+</div>","null","","","","","","",""
"418.47000003326684","","image-keyboard-response","117","406148","0.0-4.0-0.26","","img/yellow.png","32","trial","32","true","0.8,0.2","1:go_a","",""
"null","","html-keyboard-response","118","407151","0.0-4.0-1.26","","<img src=""img/yellow-r.png"" border=""10"">","null","trial","32","","0.8,0.2","1:go_a","1",""
"null","","html-keyboard-response","119","408153","0.0-4.0-2.26","","<div style=""font-size:60px;"">+</div>","null","","","","","","",""
"null","","image-keyboard-response","120","409655","0.0-4.0-0.27","","img/grey.png","null","trial","null","true","0.2,0.8","2:nogo_b","",""
"null","","html-keyboard-response","121","410659","0.0-4.0-1.27","","<img src=""img/grey-r.png"">","null","trial","null","","0.2,0.8","2:nogo_b","1",""
"null","","html-keyboard-response","122","411662","0.0-4.0-2.27","","<div style=""font-size:60px;"">+</div>","null","","","","","","",""
"null","","image-keyboard-response","123","413164","0.0-4.0-0.28","","img/grey.png","null","trial","null","true","0.2,0.8","2:nogo_b","",""
"null","","html-keyboard-response","124","414167","0.0-4.0-1.28","","<img src=""img/grey-r.png"">","null","trial","null","","0.2,0.8","2:nogo_b","1",""
"null","","html-keyboard-response","125","415171","0.0-4.0-2.28","","<div style=""font-size:60px;"">+</div>","null","","","","","","",""
"495.0449999887496","","image-keyboard-response","126","415667","0.0-4.0-0.29","","img/yellow.png","32","trial","32","true","0.8,0.2","1:go_a","",""
"null","","html-keyboard-response","127","416669","0.0-4.0-1.29","","<img src=""img/yellow-n.png"" border=""10"">","null","trial","32","","0.8,0.2","1:go_a","0",""
"null","","html-keyboard-response","128","417671","0.0-4.0-2.29","","<div style=""font-size:60px;"">+</div>","null","","","","","","",""
"524.1450000321493","","image-keyboard-response","129","418196","0.0-4.0-0.30","","img/grey.png","32","trial","null","false","0.2,0.8","2:nogo_b","",""
"null","","html-keyboard-response","130","419199","0.0-4.0-1.30","","<img src=""img/grey-r.png"" border=""10"">","null","trial","null","","0.2,0.8","2:nogo_b","1",""
"null","","html-keyboard-response","131","420201","0.0-4.0-2.30","","<div style=""font-size:60px;"">+</div>","null","","","","","","",""
"558.4650000091642","","image-keyboard-response","132","420760","0.0-4.0-0.31","","img/yellow.png","32","trial","32","true","0.8,0.2","1:go_a","",""
"null","","html-keyboard-response","133","421765","0.0-4.0-1.31","","<img src=""img/yellow-r.png"" border=""10"">","null","trial","32","","0.8,0.2","1:go_a","1",""
"null","","html-keyboard-response","134","422767","0.0-4.0-2.31","","<div style=""font-size:60px;"">+</div>","null","","","","","","",""
"null","","image-keyboard-response","135","424270","0.0-4.0-0.32","","img/grey.png","null","trial","null","true","0.2,0.8","2:nogo_b","",""
"null","","html-keyboard-response","136","425273","0.0-4.0-1.32","","<img src=""img/grey-r.png"">","null","trial","null","","0.2,0.8","2:nogo_b","1",""
"null","","html-keyboard-response","137","426275","0.0-4.0-2.32","","<div style=""font-size:60px;"">+</div>","null","","","","","","",""
"528.2700000097975","","image-keyboard-response","138","426807","0.0-4.0-0.33","","img/yellow.png","32","trial","32","true","0.8,0.2","1:go_a","",""
"null","","html-keyboard-response","139","427811","0.0-4.0-1.33","","<img src=""img/yellow-r.png"" border=""10"">","null","trial","32","","0.8,0.2","1:go_a","1",""
"null","","html-keyboard-response","140","428814","0.0-4.0-2.33","","<div style=""font-size:60px;"">+</div>","null","","","","","","",""
"420.38000002503395","","image-keyboard-response","141","429235","0.0-4.0-0.34","","img/grey.png","32","trial","null","false","0.2,0.8","2:nogo_b","",""
"null","","html-keyboard-response","142","430238","0.0-4.0-1.34","","<img src=""img/grey-n.png"" border=""10"">","null","trial","null","","0.2,0.8","2:nogo_b","0",""
"null","","html-keyboard-response","143","431240","0.0-4.0-2.34","","<div style=""font-size:60px;"">+</div>","null","","","","","","",""
"474.33499997714534","","image-keyboard-response","144","431715","0.0-4.0-0.35","","img/yellow.png","32","trial","32","true","0.8,0.2","1:go_a","",""
"null","","html-keyboard-response","145","432719","0.0-4.0-1.35","","<img src=""img/yellow-r.png"" border=""10"">","null","trial","32","","0.8,0.2","1:go_a","1",""
"null","","html-keyboard-response","146","433722","0.0-4.0-2.35","","<div style=""font-size:60px;"">+</div>","null","","","","","","",""
"null","","image-keyboard-response","147","435224","0.0-4.0-0.36","","img/grey.png","null","trial","null","true","0.2,0.8","2:nogo_b","",""
"null","","html-keyboard-response","148","436230","0.0-4.0-1.36","","<img src=""img/grey-r.png"">","null","trial","null","","0.2,0.8","2:nogo_b","1",""
"null","","html-keyboard-response","149","437233","0.0-4.0-2.36","","<div style=""font-size:60px;"">+</div>","null","","","","","","",""
"469.50000000651926","","image-keyboard-response","150","437703","0.0-4.0-0.37","","img/yellow.png","32","trial","32","true","0.8,0.2","1:go_a","",""
"null","","html-keyboard-response","151","438706","0.0-4.0-1.37","","<img src=""img/yellow-n.png"" border=""10"">","null","trial","32","","0.8,0.2","1:go_a","0",""
"null","","html-keyboard-response","152","439708","0.0-4.0-2.37","","<div style=""font-size:60px;"">+</div>","null","","","","","","",""
"561.1100000096485","","image-keyboard-response","153","440274","0.0-4.0-0.38","","img/yellow.png","32","trial","32","true","0.8,0.2","1:go_a","",""
"null","","html-keyboard-response","154","441280","0.0-4.0-1.38","","<img src=""img/yellow-r.png"" border=""10"">","null","trial","32","","0.8,0.2","1:go_a","1",""
"null","","html-keyboard-response","155","442284","0.0-4.0-2.38","","<div style=""font-size:60px;"">+</div>","null","","","","","","",""
"479.79499999200925","","image-keyboard-response","156","442765","0.0-4.0-0.39","","img/grey.png","32","trial","null","false","0.2,0.8","2:nogo_b","",""
"null","","html-keyboard-response","157","443769","0.0-4.0-1.39","","<img src=""img/grey-r.png"" border=""10"">","null","trial","null","","0.2,0.8","2:nogo_b","1",""
"null","","html-keyboard-response","158","444771","0.0-4.0-2.39","","<div style=""font-size:60px;"">+</div>","null","","","","","","",""
"528.5700000240467","","image-keyboard-response","159","445302","0.0-4.0-0.40","","img/yellow.png","32","trial","32","true","0.8,0.2","1:go_a","",""
"null","","html-keyboard-response","160","446305","0.0-4.0-1.40","","<img src=""img/yellow-r.png"" border=""10"">","null","trial","32","","0.8,0.2","1:go_a","1",""
"null","","html-keyboard-response","161","447307","0.0-4.0-2.40","","<div style=""font-size:60px;"">+</div>","null","","","","","","",""
"358.4499999997206","","image-keyboard-response","162","447666","0.0-4.0-0.41","","img/grey.png","32","trial","null","false","0.2,0.8","2:nogo_b","",""
"null","","html-keyboard-response","163","448670","0.0-4.0-1.41","","<img src=""img/grey-n.png"" border=""10"">","null","trial","null","","0.2,0.8","2:nogo_b","0",""
"null","","html-keyboard-response","164","449671","0.0-4.0-2.41","","<div style=""font-size:60px;"">+</div>","null","","","","","","",""
"556.4199999789707","","image-keyboard-response","165","450229","0.0-4.0-0.42","","img/grey.png","32","trial","null","false","0.2,0.8","2:nogo_b","",""
"null","","html-keyboard-response","166","451232","0.0-4.0-1.42","","<img src=""img/grey-n.png"" border=""10"">","null","trial","null","","0.2,0.8","2:nogo_b","0",""
"null","","html-keyboard-response","167","452234","0.0-4.0-2.42","","<div style=""font-size:60px;"">+</div>","null","","","","","","",""
"415.97999999066815","","image-keyboard-response","168","452651","0.0-4.0-0.43","","img/yellow.png","32","trial","32","true","0.8,0.2","1:go_a","",""
"null","","html-keyboard-response","169","453655","0.0-4.0-1.43","","<img src=""img/yellow-r.png"" border=""10"">","null","trial","32","","0.8,0.2","1:go_a","1",""
"null","","html-keyboard-response","170","454656","0.0-4.0-2.43","","<div style=""font-size:60px;"">+</div>","null","","","","","","",""
"579.459999979008","","image-keyboard-response","171","455236","0.0-4.0-0.44","","img/yellow.png","32","trial","32","true","0.8,0.2","1:go_a","",""
"null","","html-keyboard-response","172","456239","0.0-4.0-1.44","","<img src=""img/yellow-r.png"" border=""10"">","null","trial","32","","0.8,0.2","1:go_a","1",""
"null","","html-keyboard-response","173","457244","0.0-4.0-2.44","","<div style=""font-size:60px;"">+</div>","null","","","","","","",""
"464.7999999579042","","image-keyboard-response","174","457710","0.0-4.0-0.45","","img/grey.png","32","trial","null","false","0.2,0.8","2:nogo_b","",""
"null","","html-keyboard-response","175","458714","0.0-4.0-1.45","","<img src=""img/grey-n.png"" border=""10"">","null","trial","null","","0.2,0.8","2:nogo_b","0",""
"null","","html-keyboard-response","176","459716","0.0-4.0-2.45","","<div style=""font-size:60px;"">+</div>","null","","","","","","",""
"335.1050000055693","","image-keyboard-response","177","460052","0.0-4.0-0.46","","img/yellow.png","32","trial","32","true","0.8,0.2","1:go_a","",""
"null","","html-keyboard-response","178","461055","0.0-4.0-1.46","","<img src=""img/yellow-r.png"" border=""10"">","null","trial","32","","0.8,0.2","1:go_a","1",""
"null","","html-keyboard-response","179","462057","0.0-4.0-2.46","","<div style=""font-size:60px;"">+</div>","null","","","","","","",""
"594.1200000233948","","image-keyboard-response","180","462653","0.0-4.0-0.47","","img/grey.png","32","trial","null","false","0.2,0.8","2:nogo_b","",""
"null","","html-keyboard-response","181","463658","0.0-4.0-1.47","","<img src=""img/grey-n.png"" border=""10"">","null","trial","null","","0.2,0.8","2:nogo_b","0",""
"null","","html-keyboard-response","182","464660","0.0-4.0-2.47","","<div style=""font-size:60px;"">+</div>","null","","","","","","",""
"457.7350000035949","","image-keyboard-response","183","465119","0.0-4.0-0.48","","img/yellow.png","32","trial","32","true","0.8,0.2","1:go_a","",""
"null","","html-keyboard-response","184","466121","0.0-4.0-1.48","","<img src=""img/yellow-r.png"" border=""10"">","null","trial","32","","0.8,0.2","1:go_a","1",""
"null","","html-keyboard-response","185","467124","0.0-4.0-2.48","","<div style=""font-size:60px;"">+</div>","null","","","","","","",""
"null","","image-keyboard-response","186","468627","0.0-4.0-0.49","","img/grey.png","null","trial","null","true","0.2,0.8","2:nogo_b","",""
"null","","html-keyboard-response","187","469630","0.0-4.0-1.49","","<img src=""img/grey-r.png"">","null","trial","null","","0.2,0.8","2:nogo_b","1",""
"null","","html-keyboard-response","188","470643","0.0-4.0-2.49","","<div style=""font-size:60px;"">+</div>","null","","","","","","",""
"null","","image-keyboard-response","189","472145","0.0-4.0-0.50","","img/grey.png","null","trial","null","true","0.2,0.8","2:nogo_b","",""
"null","","html-keyboard-response","190","473147","0.0-4.0-1.50","","<img src=""img/grey-n.png"">","null","trial","null","","0.2,0.8","2:nogo_b","0",""
"null","","html-keyboard-response","191","474148","0.0-4.0-2.50","","<div style=""font-size:60px;"">+</div>","null","","","","","","",""
"428.56000002939254","","image-keyboard-response","192","474578","0.0-4.0-0.51","","img/yellow.png","32","trial","32","true","0.8,0.2","1:go_a","",""
"null","","html-keyboard-response","193","475580","0.0-4.0-1.51","","<img src=""img/yellow-r.png"" border=""10"">","null","trial","32","","0.8,0.2","1:go_a","1",""
"null","","html-keyboard-response","194","476581","0.0-4.0-2.51","","<div style=""font-size:60px;"">+</div>","null","","","","","","",""
"null","","image-keyboard-response","195","478083","0.0-4.0-0.52","","img/grey.png","null","trial","null","true","0.2,0.8","2:nogo_b","",""
"null","","html-keyboard-response","196","479086","0.0-4.0-1.52","","<img src=""img/grey-r.png"">","null","trial","null","","0.2,0.8","2:nogo_b","1",""
"null","","html-keyboard-response","197","480088","0.0-4.0-2.52","","<div style=""font-size:60px;"">+</div>","null","","","","","","",""
"550.8600000175647","","image-keyboard-response","198","480641","0.0-4.0-0.53","","img/yellow.png","32","trial","32","true","0.8,0.2","1:go_a","",""
"null","","html-keyboard-response","199","481645","0.0-4.0-1.53","","<img src=""img/yellow-r.png"" border=""10"">","null","trial","32","","0.8,0.2","1:go_a","1",""
"null","","html-keyboard-response","200","482648","0.0-4.0-2.53","","<div style=""font-size:60px;"">+</div>","null","","","","","","",""
"null","","image-keyboard-response","201","484150","0.0-4.0-0.54","","img/grey.png","null","trial","null","true","0.2,0.8","2:nogo_b","",""
"null","","html-keyboard-response","202","485152","0.0-4.0-1.54","","<img src=""img/grey-n.png"">","null","trial","null","","0.2,0.8","2:nogo_b","0",""
"null","","html-keyboard-response","203","486154","0.0-4.0-2.54","","<div style=""font-size:60px;"">+</div>","null","","","","","","",""
"439.30999998701736","","image-keyboard-response","204","486594","0.0-4.0-0.55","","img/yellow.png","32","trial","32","true","0.8,0.2","1:go_a","",""
"null","","html-keyboard-response","205","487597","0.0-4.0-1.55","","<img src=""img/yellow-r.png"" border=""10"">","null","trial","32","","0.8,0.2","1:go_a","1",""
"null","","html-keyboard-response","206","488599","0.0-4.0-2.55","","<div style=""font-size:60px;"">+</div>","null","","","","","","",""
"null","","image-keyboard-response","207","490100","0.0-4.0-0.56","","img/grey.png","null","trial","null","true","0.2,0.8","2:nogo_b","",""
"null","","html-keyboard-response","208","491103","0.0-4.0-1.56","","<img src=""img/grey-r.png"">","null","trial","null","","0.2,0.8","2:nogo_b","1",""
"null","","html-keyboard-response","209","492105","0.0-4.0-2.56","","<div style=""font-size:60px;"">+</div>","null","","","","","","",""
"490.6699999701232","","image-keyboard-response","210","492598","0.0-4.0-0.57","","img/yellow.png","32","trial","32","true","0.8,0.2","1:go_a","",""
"null","","html-keyboard-response","211","493601","0.0-4.0-1.57","","<img src=""img/yellow-n.png"" border=""10"">","null","trial","32","","0.8,0.2","1:go_a","0",""
"null","","html-keyboard-response","212","494603","0.0-4.0-2.57","","<div style=""font-size:60px;"">+</div>","null","","","","","","",""
"829.154999984894","","image-keyboard-response","213","495434","0.0-4.0-0.58","","img/yellow.png","32","trial","32","true","0.8,0.2","1:go_a","",""
"null","","html-keyboard-response","214","496437","0.0-4.0-1.58","","<img src=""img/yellow-r.png"" border=""10"">","null","trial","32","","0.8,0.2","1:go_a","1",""
"null","","html-keyboard-response","215","497439","0.0-4.0-2.58","","<div style=""font-size:60px;"">+</div>","null","","","","","","",""
"null","","image-keyboard-response","216","498941","0.0-4.0-0.59","","img/grey.png","null","trial","null","true","0.2,0.8","2:nogo_b","",""
"null","","html-keyboard-response","217","499945","0.0-4.0-1.59","","<img src=""img/grey-r.png"">","null","trial","null","","0.2,0.8","2:nogo_b","1",""
"null","","html-keyboard-response","218","500946","0.0-4.0-2.59","","<div style=""font-size:60px;"">+</div>","null","","","","","","",""
"3273.144999984652","","instructions","219","504219","0.0-5.0","[{""page_index"":0,""viewing_time"":3272.789999959059}]","","","","","","","","",""
"930.5149999563582","","image-keyboard-response","220","505152","0.0-6.0-0.0","","img/yellow.png","32","trial","32","true","0.6,0.4","3:go_c","",""
"null","","html-keyboard-response","221","506156","0.0-6.0-1.0","","<img src=""img/yellow-r.png"" border=""10"">","null","trial","32","","0.6,0.4","3:go_c","1",""
"null","","html-keyboard-response","222","507158","0.0-6.0-2.0","","<div style=""font-size:60px;"">+</div>","null","","","","","","",""
"503.179999999702","","image-keyboard-response","223","507663","0.0-6.0-0.1","","img/pink.png","32","trial","32","true","0.8,0.2","1:go_a","",""
"null","","html-keyboard-response","224","508666","0.0-6.0-1.1","","<img src=""img/pink-r.png"" border=""10"">","null","trial","32","","0.8,0.2","1:go_a","1",""
"null","","html-keyboard-response","225","509669","0.0-6.0-2.1","","<div style=""font-size:60px;"">+</div>","null","","","","","","",""
"707.2249999619089","","image-keyboard-response","226","510377","0.0-6.0-0.2","","img/orange.png","32","trial","null","false","0.2,0.8","2:nogo_b","",""
"null","","html-keyboard-response","227","511380","0.0-6.0-1.2","","<img src=""img/orange-n.png"" border=""10"">","null","trial","null","","0.2,0.8","2:nogo_b","0",""
"null","","html-keyboard-response","228","512381","0.0-6.0-2.2","","<div style=""font-size:60px;"">+</div>","null","","","","","","",""
"950.5599999683909","","image-keyboard-response","229","513333","0.0-6.0-0.3","","img/red.png","32","trial","null","false","0.4,0.6","4:nogo_d","",""
"null","","html-keyboard-response","230","514336","0.0-6.0-1.3","","<img src=""img/red-r.png"" border=""10"">","null","trial","null","","0.4,0.6","4:nogo_d","1",""
"null","","html-keyboard-response","231","515339","0.0-6.0-2.3","","<div style=""font-size:60px;"">+</div>","null","","","","","","",""
"535.9800000442192","","image-keyboard-response","232","515876","0.0-6.0-0.4","","img/red.png","32","trial","null","false","0.4,0.6","4:nogo_d","",""
"null","","html-keyboard-response","233","516880","0.0-6.0-1.4","","<img src=""img/red-n.png"" border=""10"">","null","trial","null","","0.4,0.6","4:nogo_d","0",""
"null","","html-keyboard-response","234","517882","0.0-6.0-2.4","","<div style=""font-size:60px;"">+</div>","null","","","","","","",""
"555.129999993369","","image-keyboard-response","235","518438","0.0-6.0-0.5","","img/yellow.png","32","trial","32","true","0.6,0.4","3:go_c","",""
"null","","html-keyboard-response","236","519441","0.0-6.0-1.5","","<img src=""img/yellow-r.png"" border=""10"">","null","trial","32","","0.6,0.4","3:go_c","1",""
"null","","html-keyboard-response","237","520443","0.0-6.0-2.5","","<div style=""font-size:60px;"">+</div>","null","","","","","","",""
"394.61999997729436","","image-keyboard-response","238","520838","0.0-6.0-0.6","","img/pink.png","32","trial","32","true","0.8,0.2","1:go_a","",""
"null","","html-keyboard-response","239","521841","0.0-6.0-1.6","","<img src=""img/pink-n.png"" border=""10"">","null","trial","32","","0.8,0.2","1:go_a","0",""
"null","","html-keyboard-response","240","522843","0.0-6.0-2.6","","<div style=""font-size:60px;"">+</div>","null","","","","","","",""
"562.4250000109896","","image-keyboard-response","241","523406","0.0-6.0-0.7","","img/orange.png","32","trial","null","false","0.2,0.8","2:nogo_b","",""
"null","","html-keyboard-response","242","524410","0.0-6.0-1.7","","<img src=""img/orange-r.png"" border=""10"">","null","trial","null","","0.2,0.8","2:nogo_b","1",""
"null","","html-keyboard-response","243","525412","0.0-6.0-2.7","","<div style=""font-size:60px;"">+</div>","null","","","","","","",""
"838.6349999927916","","image-keyboard-response","244","526252","0.0-6.0-0.8","","img/red.png","32","trial","null","false","0.4,0.6","4:nogo_d","",""
"null","","html-keyboard-response","245","527254","0.0-6.0-1.8","","<img src=""img/red-n.png"" border=""10"">","null","trial","null","","0.4,0.6","4:nogo_d","0",""
"null","","html-keyboard-response","246","528262","0.0-6.0-2.8","","<div style=""font-size:60px;"">+</div>","null","","","","","","",""
"905.9349999879487","","image-keyboard-response","247","529168","0.0-6.0-0.9","","img/orange.png","32","trial","null","false","0.2,0.8","2:nogo_b","",""
"null","","html-keyboard-response","248","530172","0.0-6.0-1.9","","<img src=""img/orange-n.png"" border=""10"">","null","trial","null","","0.2,0.8","2:nogo_b","0",""
"null","","html-keyboard-response","249","531175","0.0-6.0-2.9","","<div style=""font-size:60px;"">+</div>","null","","","","","","",""
"659.7600000095554","","image-keyboard-response","250","531836","0.0-6.0-0.10","","img/pink.png","32","trial","32","true","0.8,0.2","1:go_a","",""
"null","","html-keyboard-response","251","532840","0.0-6.0-1.10","","<img src=""img/pink-r.png"" border=""10"">","null","trial","32","","0.8,0.2","1:go_a","1",""
"null","","html-keyboard-response","252","533843","0.0-6.0-2.10","","<div style=""font-size:60px;"">+</div>","null","","","","","","",""
"562.7400000230409","","image-keyboard-response","253","534407","0.0-6.0-0.11","","img/yellow.png","32","trial","32","true","0.6,0.4","3:go_c","",""
"null","","html-keyboard-response","254","535409","0.0-6.0-1.11","","<img src=""img/yellow-n.png"" border=""10"">","null","trial","32","","0.6,0.4","3:go_c","0",""
"null","","html-keyboard-response","255","536410","0.0-6.0-2.11","","<div style=""font-size:60px;"">+</div>","null","","","","","","",""
"null","","image-keyboard-response","256","537912","0.0-6.0-0.12","","img/yellow.png","null","trial","32","false","0.6,0.4","3:go_c","",""
"null","","html-keyboard-response","257","538915","0.0-6.0-1.12","","<img src=""img/yellow-n.png"">","null","trial","32","","0.6,0.4","3:go_c","0",""
"null","","html-keyboard-response","258","539916","0.0-6.0-2.12","","<div style=""font-size:60px;"">+</div>","null","","","","","","",""
"709.4149999902584","","image-keyboard-response","259","540627","0.0-6.0-0.13","","img/orange.png","32","trial","null","false","0.2,0.8","2:nogo_b","",""
"null","","html-keyboard-response","260","541630","0.0-6.0-1.13","","<img src=""img/orange-n.png"" border=""10"">","null","trial","null","","0.2,0.8","2:nogo_b","0",""
"null","","html-keyboard-response","261","542631","0.0-6.0-2.13","","<div style=""font-size:60px;"">+</div>","null","","","","","","",""
"701.8350000143982","","image-keyboard-response","262","543334","0.0-6.0-0.14","","img/red.png","32","trial","null","false","0.4,0.6","4:nogo_d","",""
"null","","html-keyboard-response","263","544336","0.0-6.0-1.14","","<img src=""img/red-r.png"" border=""10"">","null","trial","null","","0.4,0.6","4:nogo_d","1",""
"null","","html-keyboard-response","264","545341","0.0-6.0-2.14","","<div style=""font-size:60px;"">+</div>","null","","","","","","",""
"null","","image-keyboard-response","265","546843","0.0-6.0-0.15","","img/pink.png","null","trial","32","false","0.8,0.2","1:go_a","",""
"null","","html-keyboard-response","266","547845","0.0-6.0-1.15","","<img src=""img/pink-n.png"">","null","trial","32","","0.8,0.2","1:go_a","0",""
"null","","html-keyboard-response","267","548847","0.0-6.0-2.15","","<div style=""font-size:60px;"">+</div>","null","","","","","","",""
"534.8900000099093","","image-keyboard-response","268","549382","0.0-6.0-0.16","","img/yellow.png","32","trial","32","true","0.6,0.4","3:go_c","",""
"null","","html-keyboard-response","269","550385","0.0-6.0-1.16","","<img src=""img/yellow-r.png"" border=""10"">","null","trial","32","","0.6,0.4","3:go_c","1",""
"null","","html-keyboard-response","270","551389","0.0-6.0-2.16","","<div style=""font-size:60px;"">+</div>","null","","","","","","",""
"788.7350000091828","","image-keyboard-response","271","552179","0.0-6.0-0.17","","img/pink.png","32","trial","32","true","0.8,0.2","1:go_a","",""
"null","","html-keyboard-response","272","553186","0.0-6.0-1.17","","<img src=""img/pink-r.png"" border=""10"">","null","trial","32","","0.8,0.2","1:go_a","1",""
"null","","html-keyboard-response","273","554190","0.0-6.0-2.17","","<div style=""font-size:60px;"">+</div>","null","","","","","","",""
"null","","image-keyboard-response","274","555698","0.0-6.0-0.18","","img/orange.png","null","trial","null","true","0.2,0.8","2:nogo_b","",""
"null","","html-keyboard-response","275","556701","0.0-6.0-1.18","","<img src=""img/orange-r.png"">","null","trial","null","","0.2,0.8","2:nogo_b","1",""
"null","","html-keyboard-response","276","557704","0.0-6.0-2.18","","<div style=""font-size:60px;"">+</div>","null","","","","","","",""
"405.7250000187196","","image-keyboard-response","277","558111","0.0-6.0-0.19","","img/red.png","32","trial","null","false","0.4,0.6","4:nogo_d","",""
"null","","html-keyboard-response","278","559114","0.0-6.0-1.19","","<img src=""img/red-n.png"" border=""10"">","null","trial","null","","0.4,0.6","4:nogo_d","0",""
"null","","html-keyboard-response","279","560116","0.0-6.0-2.19","","<div style=""font-size:60px;"">+</div>","null","","","","","","",""
"926.4700000057928","","image-keyboard-response","280","561044","0.0-6.0-0.20","","img/pink.png","32","trial","32","true","0.8,0.2","1:go_a","",""
"null","","html-keyboard-response","281","562047","0.0-6.0-1.20","","<img src=""img/pink-r.png"" border=""10"">","null","trial","32","","0.8,0.2","1:go_a","1",""
"null","","html-keyboard-response","282","563050","0.0-6.0-2.20","","<div style=""font-size:60px;"">+</div>","null","","","","","","",""
"null","","image-keyboard-response","283","564554","0.0-6.0-0.21","","img/orange.png","null","trial","null","true","0.2,0.8","2:nogo_b","",""
"null","","html-keyboard-response","284","565559","0.0-6.0-1.21","","<img src=""img/orange-r.png"">","null","trial","null","","0.2,0.8","2:nogo_b","1",""
"null","","html-keyboard-response","285","566571","0.0-6.0-2.21","","<div style=""font-size:60px;"">+</div>","null","","","","","","",""
"null","","image-keyboard-response","286","568074","0.0-6.0-0.22","","img/yellow.png","null","trial","32","false","0.6,0.4","3:go_c","",""
"null","","html-keyboard-response","287","569077","0.0-6.0-1.22","","<img src=""img/yellow-n.png"">","null","trial","32","","0.6,0.4","3:go_c","0",""
"null","","html-keyboard-response","288","570079","0.0-6.0-2.22","","<div style=""font-size:60px;"">+</div>","null","","","","","","",""
"430.9650000068359","","image-keyboard-response","289","570511","0.0-6.0-0.23","","img/red.png","32","trial","null","false","0.4,0.6","4:nogo_d","",""
"null","","html-keyboard-response","290","571515","0.0-6.0-1.23","","<img src=""img/red-n.png"" border=""10"">","null","trial","null","","0.4,0.6","4:nogo_d","0",""
"null","","html-keyboard-response","291","572516","0.0-6.0-2.23","","<div style=""font-size:60px;"">+</div>","null","","","","","","",""
"null","","image-keyboard-response","292","574018","0.0-6.0-0.24","","img/orange.png","null","trial","null","true","0.2,0.8","2:nogo_b","",""
"null","","html-keyboard-response","293","575024","0.0-6.0-1.24","","<img src=""img/orange-r.png"">","null","trial","null","","0.2,0.8","2:nogo_b","1",""
"null","","html-keyboard-response","294","576025","0.0-6.0-2.24","","<div style=""font-size:60px;"">+</div>","null","","","","","","",""
"678.4300000290386","","image-keyboard-response","295","576705","0.0-6.0-0.25","","img/pink.png","32","trial","32","true","0.8,0.2","1:go_a","",""
"null","","html-keyboard-response","296","577708","0.0-6.0-1.25","","<img src=""img/pink-r.png"" border=""10"">","null","trial","32","","0.8,0.2","1:go_a","1",""
"null","","html-keyboard-response","297","578710","0.0-6.0-2.25","","<div style=""font-size:60px;"">+</div>","null","","","","","","",""
"606.0100000468083","","image-keyboard-response","298","579317","0.0-6.0-0.26","","img/red.png","32","trial","null","false","0.4,0.6","4:nogo_d","",""
"null","","html-keyboard-response","299","580322","0.0-6.0-1.26","","<img src=""img/red-n.png"" border=""10"">","null","trial","null","","0.4,0.6","4:nogo_d","0",""
"null","","html-keyboard-response","300","581324","0.0-6.0-2.26","","<div style=""font-size:60px;"">+</div>","null","","","","","","",""
"429.839999997057","","image-keyboard-response","301","581755","0.0-6.0-0.27","","img/yellow.png","32","trial","32","true","0.6,0.4","3:go_c","",""
"null","","html-keyboard-response","302","582758","0.0-6.0-1.27","","<img src=""img/yellow-r.png"" border=""10"">","null","trial","32","","0.6,0.4","3:go_c","1",""
"null","","html-keyboard-response","303","583759","0.0-6.0-2.27","","<div style=""font-size:60px;"">+</div>","null","","","","","","",""
"398.51999998791143","","image-keyboard-response","304","584159","0.0-6.0-0.28","","img/yellow.png","32","trial","32","true","0.6,0.4","3:go_c","",""
"null","","html-keyboard-response","305","585163","0.0-6.0-1.28","","<img src=""img/yellow-r.png"" border=""10"">","null","trial","32","","0.6,0.4","3:go_c","1",""
"null","","html-keyboard-response","306","586179","0.0-6.0-2.28","","<div style=""font-size:60px;"">+</div>","null","","","","","","",""
"null","","image-keyboard-response","307","587680","0.0-6.0-0.29","","img/red.png","null","trial","null","true","0.4,0.6","4:nogo_d","",""
"null","","html-keyboard-response","308","588682","0.0-6.0-1.29","","<img src=""img/red-r.png"">","null","trial","null","","0.4,0.6","4:nogo_d","1",""
"null","","html-keyboard-response","309","589684","0.0-6.0-2.29","","<div style=""font-size:60px;"">+</div>","null","","","","","","",""
"863.5249999933876","","image-keyboard-response","310","590550","0.0-6.0-0.30","","img/orange.png","32","trial","null","false","0.2,0.8","2:nogo_b","",""
"null","","html-keyboard-response","311","591559","0.0-6.0-1.30","","<img src=""img/orange-n.png"" border=""10"">","null","trial","null","","0.2,0.8","2:nogo_b","0",""
"null","","html-keyboard-response","312","592563","0.0-6.0-2.30","","<div style=""font-size:60px;"">+</div>","null","","","","","","",""
"688.869999954477","","image-keyboard-response","313","593254","0.0-6.0-0.31","","img/pink.png","32","trial","32","true","0.8,0.2","1:go_a","",""
"null","","html-keyboard-response","314","594258","0.0-6.0-1.31","","<img src=""img/pink-r.png"" border=""10"">","null","trial","32","","0.8,0.2","1:go_a","1",""
"null","","html-keyboard-response","315","595259","0.0-6.0-2.31","","<div style=""font-size:60px;"">+</div>","null","","","","","","",""
"861.5750000462867","","image-keyboard-response","316","596122","0.0-6.0-0.32","","img/pink.png","32","trial","32","true","0.8,0.2","1:go_a","",""
"null","","html-keyboard-response","317","597124","0.0-6.0-1.32","","<img src=""img/pink-r.png"" border=""10"">","null","trial","32","","0.8,0.2","1:go_a","1",""
"null","","html-keyboard-response","318","598127","0.0-6.0-2.32","","<div style=""font-size:60px;"">+</div>","null","","","","","","",""
"551.8600000068545","","image-keyboard-response","319","598680","0.0-6.0-0.33","","img/orange.png","32","trial","null","false","0.2,0.8","2:nogo_b","",""
"null","","html-keyboard-response","320","599683","0.0-6.0-1.33","","<img src=""img/orange-n.png"" border=""10"">","null","trial","null","","0.2,0.8","2:nogo_b","0",""
"null","","html-keyboard-response","321","600684","0.0-6.0-2.33","","<div style=""font-size:60px;"">+</div>","null","","","","","","",""
"null","","image-keyboard-response","322","602187","0.0-6.0-0.34","","img/red.png","null","trial","null","true","0.4,0.6","4:nogo_d","",""
"null","","html-keyboard-response","323","603189","0.0-6.0-1.34","","<img src=""img/red-n.png"">","null","trial","null","","0.4,0.6","4:nogo_d","0",""
"null","","html-keyboard-response","324","604191","0.0-6.0-2.34","","<div style=""font-size:60px;"">+</div>","null","","","","","","",""
"491.0299999755807","","image-keyboard-response","325","604683","0.0-6.0-0.35","","img/yellow.png","32","trial","32","true","0.6,0.4","3:go_c","",""
"null","","html-keyboard-response","326","605687","0.0-6.0-1.35","","<img src=""img/yellow-r.png"" border=""10"">","null","trial","32","","0.6,0.4","3:go_c","1",""
"null","","html-keyboard-response","327","606689","0.0-6.0-2.35","","<div style=""font-size:60px;"">+</div>","null","","","","","","",""
"930.1149999955669","","image-keyboard-response","328","607621","0.0-6.0-0.36","","img/yellow.png","32","trial","32","true","0.6,0.4","3:go_c","",""
"null","","html-keyboard-response","329","608625","0.0-6.0-1.36","","<img src=""img/yellow-n.png"" border=""10"">","null","trial","32","","0.6,0.4","3:go_c","0",""
"null","","html-keyboard-response","330","609627","0.0-6.0-2.36","","<div style=""font-size:60px;"">+</div>","null","","","","","","",""
"null","","image-keyboard-response","331","611128","0.0-6.0-0.37","","img/orange.png","null","trial","null","true","0.2,0.8","2:nogo_b","",""
"null","","html-keyboard-response","332","612130","0.0-6.0-1.37","","<img src=""img/orange-r.png"">","null","trial","null","","0.2,0.8","2:nogo_b","1",""
"null","","html-keyboard-response","333","613140","0.0-6.0-2.37","","<div style=""font-size:60px;"">+</div>","null","","","","","","",""
"482.29499999433756","","image-keyboard-response","334","613624","0.0-6.0-0.38","","img/pink.png","32","trial","32","true","0.8,0.2","1:go_a","",""
"null","","html-keyboard-response","335","614627","0.0-6.0-1.38","","<img src=""img/pink-r.png"" border=""10"">","null","trial","32","","0.8,0.2","1:go_a","1",""
"null","","html-keyboard-response","336","615629","0.0-6.0-2.38","","<div style=""font-size:60px;"">+</div>","null","","","","","","",""
"null","","image-keyboard-response","337","617130","0.0-6.0-0.39","","img/red.png","null","trial","null","true","0.4,0.6","4:nogo_d","",""
"null","","html-keyboard-response","338","618134","0.0-6.0-1.39","","<img src=""img/red-r.png"">","null","trial","null","","0.4,0.6","4:nogo_d","1",""
"null","","html-keyboard-response","339","619137","0.0-6.0-2.39","","<div style=""font-size:60px;"">+</div>","null","","","","","","",""
"598.6399999819696","","image-keyboard-response","340","619737","0.0-6.0-0.40","","img/yellow.png","32","trial","32","true","0.6,0.4","3:go_c","",""
"null","","html-keyboard-response","341","620740","0.0-6.0-1.40","","<img src=""img/yellow-r.png"" border=""10"">","null","trial","32","","0.6,0.4","3:go_c","1",""
"null","","html-keyboard-response","342","621742","0.0-6.0-2.40","","<div style=""font-size:60px;"">+</div>","null","","","","","","",""
"555.3949999739416","","image-keyboard-response","343","622299","0.0-6.0-0.41","","img/pink.png","32","trial","32","true","0.8,0.2","1:go_a","",""
"null","","html-keyboard-response","344","623303","0.0-6.0-1.41","","<img src=""img/pink-r.png"" border=""10"">","null","trial","32","","0.8,0.2","1:go_a","1",""
"null","","html-keyboard-response","345","624306","0.0-6.0-2.41","","<div style=""font-size:60px;"">+</div>","null","","","","","","",""
"482.0999999647029","","image-keyboard-response","346","624789","0.0-6.0-0.42","","img/red.png","32","trial","null","false","0.4,0.6","4:nogo_d","",""
"null","","html-keyboard-response","347","625791","0.0-6.0-1.42","","<img src=""img/red-r.png"" border=""10"">","null","trial","null","","0.4,0.6","4:nogo_d","1",""
"null","","html-keyboard-response","348","626792","0.0-6.0-2.42","","<div style=""font-size:60px;"">+</div>","null","","","","","","",""
"null","","image-keyboard-response","349","628294","0.0-6.0-0.43","","img/orange.png","null","trial","null","true","0.2,0.8","2:nogo_b","",""
"null","","html-keyboard-response","350","629296","0.0-6.0-1.43","","<img src=""img/orange-r.png"">","null","trial","null","","0.2,0.8","2:nogo_b","1",""
"null","","html-keyboard-response","351","630297","0.0-6.0-2.43","","<div style=""font-size:60px;"">+</div>","null","","","","","","",""
"null","","image-keyboard-response","352","631802","0.0-6.0-0.44","","img/orange.png","null","trial","null","true","0.2,0.8","2:nogo_b","",""
"null","","html-keyboard-response","353","632805","0.0-6.0-1.44","","<img src=""img/orange-n.png"">","null","trial","null","","0.2,0.8","2:nogo_b","0",""
"null","","html-keyboard-response","354","633807","0.0-6.0-2.44","","<div style=""font-size:60px;"">+</div>","null","","","","","","",""
"604.8849999788217","","image-keyboard-response","355","634414","0.0-6.0-0.45","","img/pink.png","32","trial","32","true","0.8,0.2","1:go_a","",""
"null","","html-keyboard-response","356","635418","0.0-6.0-1.45","","<img src=""img/pink-r.png"" border=""10"">","null","trial","32","","0.8,0.2","1:go_a","1",""
"null","","html-keyboard-response","357","636420","0.0-6.0-2.45","","<div style=""font-size:60px;"">+</div>","null","","","","","","",""
"null","","image-keyboard-response","358","637923","0.0-6.0-0.46","","img/red.png","null","trial","null","true","0.4,0.6","4:nogo_d","",""
"null","","html-keyboard-response","359","638926","0.0-6.0-1.46","","<img src=""img/red-n.png"">","null","trial","null","","0.4,0.6","4:nogo_d","0",""
"null","","html-keyboard-response","360","639928","0.0-6.0-2.46","","<div style=""font-size:60px;"">+</div>","null","","","","","","",""
"613.7600000365637","","image-keyboard-response","361","640543","0.0-6.0-0.47","","img/yellow.png","32","trial","32","true","0.6,0.4","3:go_c","",""
"null","","html-keyboard-response","362","641548","0.0-6.0-1.47","","<img src=""img/yellow-n.png"" border=""10"">","null","trial","32","","0.6,0.4","3:go_c","0",""
"null","","html-keyboard-response","363","642551","0.0-6.0-2.47","","<div style=""font-size:60px;"">+</div>","null","","","","","","",""
"389.7599999909289","","image-keyboard-response","364","642943","0.0-6.0-0.48","","img/red.png","32","trial","null","false","0.4,0.6","4:nogo_d","",""
"null","","html-keyboard-response","365","643945","0.0-6.0-1.48","","<img src=""img/red-n.png"" border=""10"">","null","trial","null","","0.4,0.6","4:nogo_d","0",""
"null","","html-keyboard-response","366","644947","0.0-6.0-2.48","","<div style=""font-size:60px;"">+</div>","null","","","","","","",""
"540.175000031013","","image-keyboard-response","367","645488","0.0-6.0-0.49","","img/pink.png","32","trial","32","true","0.8,0.2","1:go_a","",""
"null","","html-keyboard-response","368","646491","0.0-6.0-1.49","","<img src=""img/pink-n.png"" border=""10"">","null","trial","32","","0.8,0.2","1:go_a","0",""
"null","","html-keyboard-response","369","647492","0.0-6.0-2.49","","<div style=""font-size:60px;"">+</div>","null","","","","","","",""
"899.6000000042841","","image-keyboard-response","370","648393","0.0-6.0-0.50","","img/yellow.png","32","trial","32","true","0.6,0.4","3:go_c","",""
"null","","html-keyboard-response","371","649397","0.0-6.0-1.50","","<img src=""img/yellow-r.png"" border=""10"">","null","trial","32","","0.6,0.4","3:go_c","1",""
"null","","html-keyboard-response","372","650398","0.0-6.0-2.50","","<div style=""font-size:60px;"">+</div>","null","","","","","","",""
"694.7849999996834","","image-keyboard-response","373","651095","0.0-6.0-0.51","","img/orange.png","32","trial","null","false","0.2,0.8","2:nogo_b","",""
"null","","html-keyboard-response","374","652102","0.0-6.0-1.51","","<img src=""img/orange-n.png"" border=""10"">","null","trial","null","","0.2,0.8","2:nogo_b","0",""
"null","","html-keyboard-response","375","653104","0.0-6.0-2.51","","<div style=""font-size:60px;"">+</div>","null","","","","","","",""
"null","","image-keyboard-response","376","654605","0.0-6.0-0.52","","img/orange.png","null","trial","null","true","0.2,0.8","2:nogo_b","",""
"null","","html-keyboard-response","377","655607","0.0-6.0-1.52","","<img src=""img/orange-r.png"">","null","trial","null","","0.2,0.8","2:nogo_b","1",""
"null","","html-keyboard-response","378","656608","0.0-6.0-2.52","","<div style=""font-size:60px;"">+</div>","null","","","","","","",""
"526.2600000132807","","image-keyboard-response","379","657135","0.0-6.0-0.53","","img/pink.png","32","trial","32","true","0.8,0.2","1:go_a","",""
"null","","html-keyboard-response","380","658139","0.0-6.0-1.53","","<img src=""img/pink-n.png"" border=""10"">","null","trial","32","","0.8,0.2","1:go_a","0",""
"null","","html-keyboard-response","381","659141","0.0-6.0-2.53","","<div style=""font-size:60px;"">+</div>","null","","","","","","",""
"496.6899999999441","","image-keyboard-response","382","659639","0.0-6.0-0.54","","img/yellow.png","32","trial","32","true","0.6,0.4","3:go_c","",""
"null","","html-keyboard-response","383","660641","0.0-6.0-1.54","","<img src=""img/yellow-r.png"" border=""10"">","null","trial","32","","0.6,0.4","3:go_c","1",""
"null","","html-keyboard-response","384","661643","0.0-6.0-2.54","","<div style=""font-size:60px;"">+</div>","null","","","","","","",""
"626.4650000375696","","image-keyboard-response","385","662271","0.0-6.0-0.55","","img/red.png","32","trial","null","false","0.4,0.6","4:nogo_d","",""
"null","","html-keyboard-response","386","663273","0.0-6.0-1.55","","<img src=""img/red-r.png"" border=""10"">","null","trial","null","","0.4,0.6","4:nogo_d","1",""
"null","","html-keyboard-response","387","664275","0.0-6.0-2.55","","<div style=""font-size:60px;"">+</div>","null","","","","","","",""
"975.1849999884143","","image-keyboard-response","388","665251","0.0-6.0-0.56","","img/yellow.png","32","trial","32","true","0.6,0.4","3:go_c","",""
"null","","html-keyboard-response","389","666256","0.0-6.0-1.56","","<img src=""img/yellow-r.png"" border=""10"">","null","trial","32","","0.6,0.4","3:go_c","1",""
"null","","html-keyboard-response","390","667258","0.0-6.0-2.56","","<div style=""font-size:60px;"">+</div>","null","","","","","","",""
"765.224999981001","","image-keyboard-response","391","668025","0.0-6.0-0.57","","img/red.png","32","trial","null","false","0.4,0.6","4:nogo_d","",""
"null","","html-keyboard-response","392","669027","0.0-6.0-1.57","","<img src=""img/red-n.png"" border=""10"">","null","trial","null","","0.4,0.6","4:nogo_d","0",""
"null","","html-keyboard-response","393","670029","0.0-6.0-2.57","","<div style=""font-size:60px;"">+</div>","null","","","","","","",""
"564.8899999796413","","image-keyboard-response","394","670595","0.0-6.0-0.58","","img/pink.png","32","trial","32","true","0.8,0.2","1:go_a","",""
"null","","html-keyboard-response","395","671600","0.0-6.0-1.58","","<img src=""img/pink-r.png"" border=""10"">","null","trial","32","","0.8,0.2","1:go_a","1",""
"null","","html-keyboard-response","396","672602","0.0-6.0-2.58","","<div style=""font-size:60px;"">+</div>","null","","","","","","",""
"752.234999963548","","image-keyboard-response","397","673355","0.0-6.0-0.59","","img/orange.png","32","trial","null","false","0.2,0.8","2:nogo_b","",""
"null","","html-keyboard-response","398","674359","0.0-6.0-1.59","","<img src=""img/orange-n.png"" border=""10"">","null","trial","null","","0.2,0.8","2:nogo_b","0",""
"null","","html-keyboard-response","399","675360","0.0-6.0-2.59","","<div style=""font-size:60px;"">+</div>","null","","","","","","",""
"null","","image-keyboard-response","400","676862","0.0-6.0-0.60","","img/orange.png","null","trial","null","true","0.2,0.8","2:nogo_b","",""
"null","","html-keyboard-response","401","677865","0.0-6.0-1.60","","<img src=""img/orange-r.png"">","null","trial","null","","0.2,0.8","2:nogo_b","1",""
"null","","html-keyboard-response","402","678868","0.0-6.0-2.60","","<div style=""font-size:60px;"">+</div>","null","","","","","","",""
"582.9849999863654","","image-keyboard-response","403","679453","0.0-6.0-0.61","","img/pink.png","32","trial","32","true","0.8,0.2","1:go_a","",""
"null","","html-keyboard-response","404","680456","0.0-6.0-1.61","","<img src=""img/pink-r.png"" border=""10"">","null","trial","32","","0.8,0.2","1:go_a","1",""
"null","","html-keyboard-response","405","681458","0.0-6.0-2.61","","<div style=""font-size:60px;"">+</div>","null","","","","","","",""
"560.0099999574013","","image-keyboard-response","406","682018","0.0-6.0-0.62","","img/yellow.png","32","trial","32","true","0.6,0.4","3:go_c","",""
"null","","html-keyboard-response","407","683021","0.0-6.0-1.62","","<img src=""img/yellow-r.png"" border=""10"">","null","trial","32","","0.6,0.4","3:go_c","1",""
"null","","html-keyboard-response","408","684024","0.0-6.0-2.62","","<div style=""font-size:60px;"">+</div>","null","","","","","","",""
"622.8000000119209","","image-keyboard-response","409","684648","0.0-6.0-0.63","","img/red.png","32","trial","null","false","0.4,0.6","4:nogo_d","",""
"null","","html-keyboard-response","410","685651","0.0-6.0-1.63","","<img src=""img/red-r.png"" border=""10"">","null","trial","null","","0.4,0.6","4:nogo_d","1",""
"null","","html-keyboard-response","411","686653","0.0-6.0-2.63","","<div style=""font-size:60px;"">+</div>","null","","","","","","",""
"668.2499999878928","","image-keyboard-response","412","687322","0.0-6.0-0.64","","img/yellow.png","32","trial","32","true","0.6,0.4","3:go_c","",""
"null","","html-keyboard-response","413","688325","0.0-6.0-1.64","","<img src=""img/yellow-r.png"" border=""10"">","null","trial","32","","0.6,0.4","3:go_c","1",""
"null","","html-keyboard-response","414","689327","0.0-6.0-2.64","","<div style=""font-size:60px;"">+</div>","null","","","","","","",""
"847.8400000021793","","image-keyboard-response","415","690176","0.0-6.0-0.65","","img/red.png","32","trial","null","false","0.4,0.6","4:nogo_d","",""
"null","","html-keyboard-response","416","691179","0.0-6.0-1.65","","<img src=""img/red-n.png"" border=""10"">","null","trial","null","","0.4,0.6","4:nogo_d","0",""
"null","","html-keyboard-response","417","692182","0.0-6.0-2.65","","<div style=""font-size:60px;"">+</div>","null","","","","","","",""
"729.2849999503233","","image-keyboard-response","418","692913","0.0-6.0-0.66","","img/pink.png","32","trial","32","true","0.8,0.2","1:go_a","",""
"null","","html-keyboard-response","419","693919","0.0-6.0-1.66","","<img src=""img/pink-r.png"" border=""10"">","null","trial","32","","0.8,0.2","1:go_a","1",""
"null","","html-keyboard-response","420","694921","0.0-6.0-2.66","","<div style=""font-size:60px;"">+</div>","null","","","","","","",""
"917.5449999747798","","image-keyboard-response","421","695840","0.0-6.0-0.67","","img/orange.png","32","trial","null","false","0.2,0.8","2:nogo_b","",""
"null","","html-keyboard-response","422","696843","0.0-6.0-1.67","","<img src=""img/orange-r.png"" border=""10"">","null","trial","null","","0.2,0.8","2:nogo_b","1",""
"null","","html-keyboard-response","423","697844","0.0-6.0-2.67","","<div style=""font-size:60px;"">+</div>","null","","","","","","",""
"null","","image-keyboard-response","424","699347","0.0-6.0-0.68","","img/orange.png","null","trial","null","true","0.2,0.8","2:nogo_b","",""
"null","","html-keyboard-response","425","700350","0.0-6.0-1.68","","<img src=""img/orange-r.png"">","null","trial","null","","0.2,0.8","2:nogo_b","1",""
"null","","html-keyboard-response","426","701353","0.0-6.0-2.68","","<div style=""font-size:60px;"">+</div>","null","","","","","","",""
"646.1800000397488","","image-keyboard-response","427","702000","0.0-6.0-0.69","","img/red.png","32","trial","null","false","0.4,0.6","4:nogo_d","",""
"null","","html-keyboard-response","428","703004","0.0-6.0-1.69","","<img src=""img/red-r.png"" border=""10"">","null","trial","null","","0.4,0.6","4:nogo_d","1",""
"null","","html-keyboard-response","429","704005","0.0-6.0-2.69","","<div style=""font-size:60px;"">+</div>","null","","","","","","",""
"null","","image-keyboard-response","430","705514","0.0-6.0-0.70","","img/pink.png","null","trial","32","false","0.8,0.2","1:go_a","",""
"null","","html-keyboard-response","431","706517","0.0-6.0-1.70","","<img src=""img/pink-n.png"">","null","trial","32","","0.8,0.2","1:go_a","0",""
"null","","html-keyboard-response","432","707519","0.0-6.0-2.70","","<div style=""font-size:60px;"">+</div>","null","","","","","","",""
"null","","image-keyboard-response","433","709021","0.0-6.0-0.71","","img/yellow.png","null","trial","32","false","0.6,0.4","3:go_c","",""
"null","","html-keyboard-response","434","710024","0.0-6.0-1.71","","<img src=""img/yellow-n.png"">","null","trial","32","","0.6,0.4","3:go_c","0",""
"null","","html-keyboard-response","435","711025","0.0-6.0-2.71","","<div style=""font-size:60px;"">+</div>","null","","","","","","",""
"536.8900000466965","","image-keyboard-response","436","711564","0.0-6.0-0.72","","img/red.png","32","trial","null","false","0.4,0.6","4:nogo_d","",""
"null","","html-keyboard-response","437","712568","0.0-6.0-1.72","","<img src=""img/red-n.png"" border=""10"">","null","trial","null","","0.4,0.6","4:nogo_d","0",""
"null","","html-keyboard-response","438","713571","0.0-6.0-2.72","","<div style=""font-size:60px;"">+</div>","null","","","","","","",""
"521.2199999950826","","image-keyboard-response","439","714094","0.0-6.0-0.73","","img/yellow.png","32","trial","32","true","0.6,0.4","3:go_c","",""
"null","","html-keyboard-response","440","715099","0.0-6.0-1.73","","<img src=""img/yellow-n.png"" border=""10"">","null","trial","32","","0.6,0.4","3:go_c","0",""
"null","","html-keyboard-response","441","716101","0.0-6.0-2.73","","<div style=""font-size:60px;"">+</div>","null","","","","","","",""
"579.5400000060908","","image-keyboard-response","442","716681","0.0-6.0-0.74","","img/orange.png","32","trial","null","false","0.2,0.8","2:nogo_b","",""
"null","","html-keyboard-response","443","717685","0.0-6.0-1.74","","<img src=""img/orange-r.png"" border=""10"">","null","trial","null","","0.2,0.8","2:nogo_b","1",""
"null","","html-keyboard-response","444","718693","0.0-6.0-2.74","","<div style=""font-size:60px;"">+</div>","null","","","","","","",""
"516.4300000178628","","image-keyboard-response","445","719211","0.0-6.0-0.75","","img/pink.png","32","trial","32","true","0.8,0.2","1:go_a","",""
"null","","html-keyboard-response","446","720216","0.0-6.0-1.75","","<img src=""img/pink-n.png"" border=""10"">","null","trial","32","","0.8,0.2","1:go_a","0",""
"null","","html-keyboard-response","447","721218","0.0-6.0-2.75","","<div style=""font-size:60px;"">+</div>","null","","","","","","",""
"673.9349999697879","","image-keyboard-response","448","721893","0.0-6.0-0.76","","img/pink.png","32","trial","32","true","0.8,0.2","1:go_a","",""
"null","","html-keyboard-response","449","722897","0.0-6.0-1.76","","<img src=""img/pink-r.png"" border=""10"">","null","trial","32","","0.8,0.2","1:go_a","1",""
"null","","html-keyboard-response","450","723900","0.0-6.0-2.76","","<div style=""font-size:60px;"">+</div>","null","","","","","","",""
"757.3400000110269","","image-keyboard-response","451","724659","0.0-6.0-0.77","","img/orange.png","32","trial","null","false","0.2,0.8","2:nogo_b","",""
"null","","html-keyboard-response","452","725662","0.0-6.0-1.77","","<img src=""img/orange-n.png"" border=""10"">","null","trial","null","","0.2,0.8","2:nogo_b","0",""
"null","","html-keyboard-response","453","726664","0.0-6.0-2.77","","<div style=""font-size:60px;"">+</div>","null","","","","","","",""
"789.3000000040047","","image-keyboard-response","454","727454","0.0-6.0-0.78","","img/red.png","32","trial","null","false","0.4,0.6","4:nogo_d","",""
"null","","html-keyboard-response","455","728458","0.0-6.0-1.78","","<img src=""img/red-r.png"" border=""10"">","null","trial","null","","0.4,0.6","4:nogo_d","1",""
"null","","html-keyboard-response","456","729460","0.0-6.0-2.78","","<div style=""font-size:60px;"">+</div>","null","","","","","","",""
"491.6650000377558","","image-keyboard-response","457","729954","0.0-6.0-0.79","","img/yellow.png","32","trial","32","true","0.6,0.4","3:go_c","",""
"null","","html-keyboard-response","458","730958","0.0-6.0-1.79","","<img src=""img/yellow-r.png"" border=""10"">","null","trial","32","","0.6,0.4","3:go_c","1",""
"null","","html-keyboard-response","459","731968","0.0-6.0-2.79","","<div style=""font-size:60px;"">+</div>","null","","","","","","",""
"null","","image-keyboard-response","460","733480","0.0-6.0-0.80","","img/yellow.png","null","trial","32","false","0.6,0.4","3:go_c","",""
"null","","html-keyboard-response","461","734484","0.0-6.0-1.80","","<img src=""img/yellow-n.png"">","null","trial","32","","0.6,0.4","3:go_c","0",""
"null","","html-keyboard-response","462","735486","0.0-6.0-2.80","","<div style=""font-size:60px;"">+</div>","null","","","","","","",""
"null","","image-keyboard-response","463","736987","0.0-6.0-0.81","","img/pink.png","null","trial","32","false","0.8,0.2","1:go_a","",""
"null","","html-keyboard-response","464","737990","0.0-6.0-1.81","","<img src=""img/pink-n.png"">","null","trial","32","","0.8,0.2","1:go_a","0",""
"null","","html-keyboard-response","465","738992","0.0-6.0-2.81","","<div style=""font-size:60px;"">+</div>","null","","","","","","",""
"null","","image-keyboard-response","466","740494","0.0-6.0-0.82","","img/red.png","null","trial","null","true","0.4,0.6","4:nogo_d","",""
"null","","html-keyboard-response","467","741498","0.0-6.0-1.82","","<img src=""img/red-n.png"">","null","trial","null","","0.4,0.6","4:nogo_d","0",""
"null","","html-keyboard-response","468","742499","0.0-6.0-2.82","","<div style=""font-size:60px;"">+</div>","null","","","","","","",""
"718.860000022687","","image-keyboard-response","469","743219","0.0-6.0-0.83","","img/orange.png","32","trial","null","false","0.2,0.8","2:nogo_b","",""
"null","","html-keyboard-response","470","744222","0.0-6.0-1.83","","<img src=""img/orange-r.png"" border=""10"">","null","trial","null","","0.2,0.8","2:nogo_b","1",""
"null","","html-keyboard-response","471","745226","0.0-6.0-2.83","","<div style=""font-size:60px;"">+</div>","null","","","","","","",""
"null","","image-keyboard-response","472","746729","0.0-6.0-0.84","","img/red.png","null","trial","null","true","0.4,0.6","4:nogo_d","",""
"null","","html-keyboard-response","473","747732","0.0-6.0-1.84","","<img src=""img/red-n.png"">","null","trial","null","","0.4,0.6","4:nogo_d","0",""
"null","","html-keyboard-response","474","748734","0.0-6.0-2.84","","<div style=""font-size:60px;"">+</div>","null","","","","","","",""
"537.9700000048615","","image-keyboard-response","475","749273","0.0-6.0-0.85","","img/pink.png","32","trial","32","true","0.8,0.2","1:go_a","",""
"null","","html-keyboard-response","476","750276","0.0-6.0-1.85","","<img src=""img/pink-r.png"" border=""10"">","null","trial","32","","0.8,0.2","1:go_a","1",""
"null","","html-keyboard-response","477","751279","0.0-6.0-2.85","","<div style=""font-size:60px;"">+</div>","null","","","","","","",""
"514.1349999466911","","image-keyboard-response","478","751794","0.0-6.0-0.86","","img/yellow.png","32","trial","32","true","0.6,0.4","3:go_c","",""
"null","","html-keyboard-response","479","752798","0.0-6.0-1.86","","<img src=""img/yellow-r.png"" border=""10"">","null","trial","32","","0.6,0.4","3:go_c","1",""
"null","","html-keyboard-response","480","753801","0.0-6.0-2.86","","<div style=""font-size:60px;"">+</div>","null","","","","","","",""
"621.1600000387989","","image-keyboard-response","481","754423","0.0-6.0-0.87","","img/orange.png","32","trial","null","false","0.2,0.8","2:nogo_b","",""
"null","","html-keyboard-response","482","755426","0.0-6.0-1.87","","<img src=""img/orange-n.png"" border=""10"">","null","trial","null","","0.2,0.8","2:nogo_b","0",""
"null","","html-keyboard-response","483","756430","0.0-6.0-2.87","","<div style=""font-size:60px;"">+</div>","null","","","","","","",""
"721.6649999609217","","image-keyboard-response","484","757153","0.0-6.0-0.88","","img/red.png","32","trial","null","false","0.4,0.6","4:nogo_d","",""
"null","","html-keyboard-response","485","758169","0.0-6.0-1.88","","<img src=""img/red-n.png"" border=""10"">","null","trial","null","","0.4,0.6","4:nogo_d","0",""
"null","","html-keyboard-response","486","759174","0.0-6.0-2.88","","<div style=""font-size:60px;"">+</div>","null","","","","","","",""
"842.160000000149","","image-keyboard-response","487","760017","0.0-6.0-0.89","","img/pink.png","32","trial","32","true","0.8,0.2","1:go_a","",""
"null","","html-keyboard-response","488","761019","0.0-6.0-1.89","","<img src=""img/pink-r.png"" border=""10"">","null","trial","32","","0.8,0.2","1:go_a","1",""
"null","","html-keyboard-response","489","762020","0.0-6.0-2.89","","<div style=""font-size:60px;"">+</div>","null","","","","","","",""
"548.6500000115484","","image-keyboard-response","490","762570","0.0-6.0-0.90","","img/yellow.png","32","trial","32","true","0.6,0.4","3:go_c","",""
"null","","html-keyboard-response","491","763573","0.0-6.0-1.90","","<img src=""img/yellow-r.png"" border=""10"">","null","trial","32","","0.6,0.4","3:go_c","1",""
"null","","html-keyboard-response","492","764575","0.0-6.0-2.90","","<div style=""font-size:60px;"">+</div>","null","","","","","","",""
"839.0350000117905","","image-keyboard-response","493","765415","0.0-6.0-0.91","","img/orange.png","32","trial","null","false","0.2,0.8","2:nogo_b","",""
"null","","html-keyboard-response","494","766417","0.0-6.0-1.91","","<img src=""img/orange-n.png"" border=""10"">","null","trial","null","","0.2,0.8","2:nogo_b","0",""
"null","","html-keyboard-response","495","767419","0.0-6.0-2.91","","<div style=""font-size:60px;"">+</div>","null","","","","","","",""
"null","","image-keyboard-response","496","768920","0.0-6.0-0.92","","img/red.png","null","trial","null","true","0.4,0.6","4:nogo_d","",""
"null","","html-keyboard-response","497","769922","0.0-6.0-1.92","","<img src=""img/red-r.png"">","null","trial","null","","0.4,0.6","4:nogo_d","1",""
"null","","html-keyboard-response","498","770923","0.0-6.0-2.92","","<div style=""font-size:60px;"">+</div>","null","","","","","","",""
"506.264999974519","","image-keyboard-response","499","771431","0.0-6.0-0.93","","img/pink.png","32","trial","32","true","0.8,0.2","1:go_a","",""
"null","","html-keyboard-response","500","772434","0.0-6.0-1.93","","<img src=""img/pink-r.png"" border=""10"">","null","trial","32","","0.8,0.2","1:go_a","1",""
"null","","html-keyboard-response","501","773435","0.0-6.0-2.93","","<div style=""font-size:60px;"">+</div>","null","","","","","","",""
"469.7950000409037","","image-keyboard-response","502","773906","0.0-6.0-0.94","","img/yellow.png","32","trial","32","true","0.6,0.4","3:go_c","",""
"null","","html-keyboard-response","503","774913","0.0-6.0-1.94","","<img src=""img/yellow-r.png"" border=""10"">","null","trial","32","","0.6,0.4","3:go_c","1",""
"null","","html-keyboard-response","504","775916","0.0-6.0-2.94","","<div style=""font-size:60px;"">+</div>","null","","","","","","",""
"null","","image-keyboard-response","505","777419","0.0-6.0-0.95","","img/orange.png","null","trial","null","true","0.2,0.8","2:nogo_b","",""
"null","","html-keyboard-response","506","778421","0.0-6.0-1.95","","<img src=""img/orange-r.png"">","null","trial","null","","0.2,0.8","2:nogo_b","1",""
"null","","html-keyboard-response","507","779423","0.0-6.0-2.95","","<div style=""font-size:60px;"">+</div>","null","","","","","","",""
"640.8149999915622","","image-keyboard-response","508","780065","0.0-6.0-0.96","","img/yellow.png","32","trial","32","true","0.6,0.4","3:go_c","",""
"null","","html-keyboard-response","509","781069","0.0-6.0-1.96","","<img src=""img/yellow-r.png"" border=""10"">","null","trial","32","","0.6,0.4","3:go_c","1",""
"null","","html-keyboard-response","510","782071","0.0-6.0-2.96","","<div style=""font-size:60px;"">+</div>","null","","","","","","",""
"null","","image-keyboard-response","511","783574","0.0-6.0-0.97","","img/orange.png","null","trial","null","true","0.2,0.8","2:nogo_b","",""
"null","","html-keyboard-response","512","784578","0.0-6.0-1.97","","<img src=""img/orange-r.png"">","null","trial","null","","0.2,0.8","2:nogo_b","1",""
"null","","html-keyboard-response","513","785580","0.0-6.0-2.97","","<div style=""font-size:60px;"">+</div>","null","","","","","","",""
"618.2950000511482","","image-keyboard-response","514","786200","0.0-6.0-0.98","","img/pink.png","32","trial","32","true","0.8,0.2","1:go_a","",""
"null","","html-keyboard-response","515","787205","0.0-6.0-1.98","","<img src=""img/pink-n.png"" border=""10"">","null","trial","32","","0.8,0.2","1:go_a","0",""
"null","","html-keyboard-response","516","788206","0.0-6.0-2.98","","<div style=""font-size:60px;"">+</div>","null","","","","","","",""
"null","","image-keyboard-response","517","789709","0.0-6.0-0.99","","img/red.png","null","trial","null","true","0.4,0.6","4:nogo_d","",""
"null","","html-keyboard-response","518","790714","0.0-6.0-1.99","","<img src=""img/red-r.png"">","null","trial","null","","0.4,0.6","4:nogo_d","1",""
"null","","html-keyboard-response","519","791716","0.0-6.0-2.99","","<div style=""font-size:60px;"">+</div>","null","","","","","","",""
"589.2449999810196","","image-keyboard-response","520","792306","0.0-6.0-0.100","","img/pink.png","32","trial","32","true","0.8,0.2","1:go_a","",""
"null","","html-keyboard-response","521","793310","0.0-6.0-1.100","","<img src=""img/pink-r.png"" border=""10"">","null","trial","32","","0.8,0.2","1:go_a","1",""
"null","","html-keyboard-response","522","794313","0.0-6.0-2.100","","<div style=""font-size:60px;"">+</div>","null","","","","","","",""
"569.9899999890476","","image-keyboard-response","523","794884","0.0-6.0-0.101","","img/red.png","32","trial","null","false","0.4,0.6","4:nogo_d","",""
"null","","html-keyboard-response","524","795887","0.0-6.0-1.101","","<img src=""img/red-n.png"" border=""10"">","null","trial","null","","0.4,0.6","4:nogo_d","0",""
"null","","html-keyboard-response","525","796890","0.0-6.0-2.101","","<div style=""font-size:60px;"">+</div>","null","","","","","","",""
"680.800000031013","","image-keyboard-response","526","797572","0.0-6.0-0.102","","img/yellow.png","32","trial","32","true","0.6,0.4","3:go_c","",""
"null","","html-keyboard-response","527","798575","0.0-6.0-1.102","","<img src=""img/yellow-r.png"" border=""10"">","null","trial","32","","0.6,0.4","3:go_c","1",""
"null","","html-keyboard-response","528","799578","0.0-6.0-2.102","","<div style=""font-size:60px;"">+</div>","null","","","","","","",""
"null","","image-keyboard-response","529","801081","0.0-6.0-0.103","","img/orange.png","null","trial","null","true","0.2,0.8","2:nogo_b","",""
"null","","html-keyboard-response","530","802084","0.0-6.0-1.103","","<img src=""img/orange-r.png"">","null","trial","null","","0.2,0.8","2:nogo_b","1",""
"null","","html-keyboard-response","531","803085","0.0-6.0-2.103","","<div style=""font-size:60px;"">+</div>","null","","","","","","",""
"607.83499997342","","image-keyboard-response","532","803694","0.0-6.0-0.104","","img/red.png","32","trial","null","false","0.4,0.6","4:nogo_d","",""
"null","","html-keyboard-response","533","804697","0.0-6.0-1.104","","<img src=""img/red-n.png"" border=""10"">","null","trial","null","","0.4,0.6","4:nogo_d","0",""
"null","","html-keyboard-response","534","805706","0.0-6.0-2.104","","<div style=""font-size:60px;"">+</div>","null","","","","","","",""
"779.9799999920651","","image-keyboard-response","535","806487","0.0-6.0-0.105","","img/yellow.png","32","trial","32","true","0.6,0.4","3:go_c","",""
"null","","html-keyboard-response","536","807490","0.0-6.0-1.105","","<img src=""img/yellow-r.png"" border=""10"">","null","trial","32","","0.6,0.4","3:go_c","1",""
"null","","html-keyboard-response","537","808494","0.0-6.0-2.105","","<div style=""font-size:60px;"">+</div>","null","","","","","","",""
"null","","image-keyboard-response","538","810000","0.0-6.0-0.106","","img/orange.png","null","trial","null","true","0.2,0.8","2:nogo_b","",""
"null","","html-keyboard-response","539","811004","0.0-6.0-1.106","","<img src=""img/orange-r.png"">","null","trial","null","","0.2,0.8","2:nogo_b","1",""
"null","","html-keyboard-response","540","812006","0.0-6.0-2.106","","<div style=""font-size:60px;"">+</div>","null","","","","","","",""
"null","","image-keyboard-response","541","813510","0.0-6.0-0.107","","img/pink.png","null","trial","32","false","0.8,0.2","1:go_a","",""
"null","","html-keyboard-response","542","814512","0.0-6.0-1.107","","<img src=""img/pink-n.png"">","null","trial","32","","0.8,0.2","1:go_a","0",""
"null","","html-keyboard-response","543","815514","0.0-6.0-2.107","","<div style=""font-size:60px;"">+</div>","null","","","","","","",""
"535.2650000131689","","image-keyboard-response","544","816050","0.0-6.0-0.108","","img/yellow.png","32","trial","32","true","0.6,0.4","3:go_c","",""
"null","","html-keyboard-response","545","817054","0.0-6.0-1.108","","<img src=""img/yellow-n.png"" border=""10"">","null","trial","32","","0.6,0.4","3:go_c","0",""
"null","","html-keyboard-response","546","818068","0.0-6.0-2.108","","<div style=""font-size:60px;"">+</div>","null","","","","","","",""
"602.9649999691173","","image-keyboard-response","547","818672","0.0-6.0-0.109","","img/pink.png","32","trial","32","true","0.8,0.2","1:go_a","",""
"null","","html-keyboard-response","548","819676","0.0-6.0-1.109","","<img src=""img/pink-r.png"" border=""10"">","null","trial","32","","0.8,0.2","1:go_a","1",""
"null","","html-keyboard-response","549","820679","0.0-6.0-2.109","","<div style=""font-size:60px;"">+</div>","null","","","","","","",""
"630.620000010822","","image-keyboard-response","550","821311","0.0-6.0-0.110","","img/red.png","32","trial","null","false","0.4,0.6","4:nogo_d","",""
"null","","html-keyboard-response","551","822314","0.0-6.0-1.110","","<img src=""img/red-r.png"" border=""10"">","null","trial","null","","0.4,0.6","4:nogo_d","1",""
"null","","html-keyboard-response","552","823316","0.0-6.0-2.110","","<div style=""font-size:60px;"">+</div>","null","","","","","","",""
"null","","image-keyboard-response","553","824818","0.0-6.0-0.111","","img/orange.png","null","trial","null","true","0.2,0.8","2:nogo_b","",""
"null","","html-keyboard-response","554","825821","0.0-6.0-1.111","","<img src=""img/orange-r.png"">","null","trial","null","","0.2,0.8","2:nogo_b","1",""
"null","","html-keyboard-response","555","826822","0.0-6.0-2.111","","<div style=""font-size:60px;"">+</div>","null","","","","","","",""
"554.2499999864958","","image-keyboard-response","556","827380","0.0-6.0-0.112","","img/yellow.png","32","trial","32","true","0.6,0.4","3:go_c","",""
"null","","html-keyboard-response","557","828383","0.0-6.0-1.112","","<img src=""img/yellow-r.png"" border=""10"">","null","trial","32","","0.6,0.4","3:go_c","1",""
"null","","html-keyboard-response","558","829384","0.0-6.0-2.112","","<div style=""font-size:60px;"">+</div>","null","","","","","","",""
"486.59499996574596","","image-keyboard-response","559","829872","0.0-6.0-0.113","","img/pink.png","32","trial","32","true","0.8,0.2","1:go_a","",""
"null","","html-keyboard-response","560","830878","0.0-6.0-1.113","","<img src=""img/pink-r.png"" border=""10"">","null","trial","32","","0.8,0.2","1:go_a","1",""
"null","","html-keyboard-response","561","831881","0.0-6.0-2.113","","<div style=""font-size:60px;"">+</div>","null","","","","","","",""
"505.5900000152178","","image-keyboard-response","562","832388","0.0-6.0-0.114","","img/red.png","32","trial","null","false","0.4,0.6","4:nogo_d","",""
"null","","html-keyboard-response","563","833392","0.0-6.0-1.114","","<img src=""img/red-r.png"" border=""10"">","null","trial","null","","0.4,0.6","4:nogo_d","1",""
"null","","html-keyboard-response","564","834393","0.0-6.0-2.114","","<div style=""font-size:60px;"">+</div>","null","","","","","","",""
"585.4399999952875","","image-keyboard-response","565","834980","0.0-6.0-0.115","","img/orange.png","32","trial","null","false","0.2,0.8","2:nogo_b","",""
"null","","html-keyboard-response","566","835983","0.0-6.0-1.115","","<img src=""img/orange-n.png"" border=""10"">","null","trial","null","","0.2,0.8","2:nogo_b","0",""
"null","","html-keyboard-response","567","836985","0.0-6.0-2.115","","<div style=""font-size:60px;"">+</div>","null","","","","","","",""
"902.1150000044145","","image-keyboard-response","568","837889","0.0-6.0-0.116","","img/yellow.png","32","trial","32","true","0.6,0.4","3:go_c","",""
"null","","html-keyboard-response","569","838892","0.0-6.0-1.116","","<img src=""img/yellow-n.png"" border=""10"">","null","trial","32","","0.6,0.4","3:go_c","0",""
"null","","html-keyboard-response","570","839895","0.0-6.0-2.116","","<div style=""font-size:60px;"">+</div>","null","","","","","","",""
"null","","image-keyboard-response","571","841397","0.0-6.0-0.117","","img/orange.png","null","trial","null","true","0.2,0.8","2:nogo_b","",""
"null","","html-keyboard-response","572","842399","0.0-6.0-1.117","","<img src=""img/orange-r.png"">","null","trial","null","","0.2,0.8","2:nogo_b","1",""
"null","","html-keyboard-response","573","843401","0.0-6.0-2.117","","<div style=""font-size:60px;"">+</div>","null","","","","","","",""
"480.5649999761954","","image-keyboard-response","574","843882","0.0-6.0-0.118","","img/pink.png","32","trial","32","true","0.8,0.2","1:go_a","",""
"null","","html-keyboard-response","575","844885","0.0-6.0-1.118","","<img src=""img/pink-r.png"" border=""10"">","null","trial","32","","0.8,0.2","1:go_a","1",""
"null","","html-keyboard-response","576","845887","0.0-6.0-2.118","","<div style=""font-size:60px;"">+</div>","null","","","","","","",""
"637.7099999808706","","image-keyboard-response","577","846526","0.0-6.0-0.119","","img/red.png","32","trial","null","false","0.4,0.6","4:nogo_d","",""
"null","","html-keyboard-response","578","847530","0.0-6.0-1.119","","<img src=""img/red-n.png"" border=""10"">","null","trial","null","","0.4,0.6","4:nogo_d","0",""
"null","","html-keyboard-response","579","848533","0.0-6.0-2.119","","<div style=""font-size:60px;"">+</div>","null","","","","","","",""
"2904.3950000195764","","instructions","580","851438","0.0-7.0","[{""page_index"":0,""viewing_time"":2903.969999984838}]","","","","","","","","",""
"1060.2499999804422","","image-keyboard-response","581","852503","0.0-8.0-0.0","","img/orange.png","32","trial","32","true","0.8,0.2","3:go_c","",""
"null","","html-keyboard-response","582","853508","0.0-8.0-1.0","","<img src=""img/orange-r.png"" border=""10"">","null","trial","32","","0.8,0.2","3:go_c","1",""
"null","","html-keyboard-response","583","854511","0.0-8.0-2.0","","<div style=""font-size:60px;"">+</div>","null","","","","","","",""
"643.1000000447966","","image-keyboard-response","584","855156","0.0-8.0-0.1","","img/yellow.png","32","trial","null","false","0.2,0.8","2:nogo_b","",""
"null","","html-keyboard-response","585","856160","0.0-8.0-1.1","","<img src=""img/yellow-r.png"" border=""10"">","null","trial","null","","0.2,0.8","2:nogo_b","1",""
"null","","html-keyboard-response","586","857161","0.0-8.0-2.1","","<div style=""font-size:60px;"">+</div>","null","","","","","","",""
"null","","image-keyboard-response","587","858663","0.0-8.0-0.2","","img/blue.png","null","trial","null","true","0.2,0.8","4:nogo_d","",""
"null","","html-keyboard-response","588","859665","0.0-8.0-1.2","","<img src=""img/blue-r.png"">","null","trial","null","","0.2,0.8","4:nogo_d","1",""
"null","","html-keyboard-response","589","860667","0.0-8.0-2.2","","<div style=""font-size:60px;"">+</div>","null","","","","","","",""
"1284.574999997858","","image-keyboard-response","590","861953","0.0-8.0-0.3","","img/purple.png","32","trial","32","true","0.8,0.2","1:go_a","",""
"null","","html-keyboard-response","591","862958","0.0-8.0-1.3","","<img src=""img/purple-r.png"" border=""10"">","null","trial","32","","0.8,0.2","1:go_a","1",""
"null","","html-keyboard-response","592","863960","0.0-8.0-2.3","","<div style=""font-size:60px;"">+</div>","null","","","","","","",""
"null","","image-keyboard-response","593","865462","0.0-8.0-0.4","","img/orange.png","null","trial","32","false","0.8,0.2","3:go_c","",""
"null","","html-keyboard-response","594","866466","0.0-8.0-1.4","","<img src=""img/orange-n.png"">","null","trial","32","","0.8,0.2","3:go_c","0",""
"null","","html-keyboard-response","595","867467","0.0-8.0-2.4","","<div style=""font-size:60px;"">+</div>","null","","","","","","",""
"805.7549999793991","","image-keyboard-response","596","868275","0.0-8.0-0.5","","img/blue.png","32","trial","null","false","0.2,0.8","4:nogo_d","",""
"null","","html-keyboard-response","597","869277","0.0-8.0-1.5","","<img src=""img/blue-n.png"" border=""10"">","null","trial","null","","0.2,0.8","4:nogo_d","0",""
"null","","html-keyboard-response","598","870280","0.0-8.0-2.5","","<div style=""font-size:60px;"">+</div>","null","","","","","","",""
"null","","image-keyboard-response","599","871782","0.0-8.0-0.6","","img/purple.png","null","trial","32","false","0.8,0.2","1:go_a","",""
"null","","html-keyboard-response","600","872784","0.0-8.0-1.6","","<img src=""img/purple-n.png"">","null","trial","32","","0.8,0.2","1:go_a","0",""
"null","","html-keyboard-response","601","873786","0.0-8.0-2.6","","<div style=""font-size:60px;"">+</div>","null","","","","","","",""
"480.99999997066334","","image-keyboard-response","602","874268","0.0-8.0-0.7","","img/yellow.png","32","trial","null","false","0.2,0.8","2:nogo_b","",""
"null","","html-keyboard-response","603","875270","0.0-8.0-1.7","","<img src=""img/yellow-r.png"" border=""10"">","null","trial","null","","0.2,0.8","2:nogo_b","1",""
"null","","html-keyboard-response","604","876274","0.0-8.0-2.7","","<div style=""font-size:60px;"">+</div>","null","","","","","","",""
"526.0249999701045","","image-keyboard-response","605","876801","0.0-8.0-0.8","","img/yellow.png","32","trial","null","false","0.2,0.8","2:nogo_b","",""
"null","","html-keyboard-response","606","877803","0.0-8.0-1.8","","<img src=""img/yellow-n.png"" border=""10"">","null","trial","null","","0.2,0.8","2:nogo_b","0",""
"null","","html-keyboard-response","607","878807","0.0-8.0-2.8","","<div style=""font-size:60px;"">+</div>","null","","","","","","",""
"664.2250000149943","","image-keyboard-response","608","879473","0.0-8.0-0.9","","img/orange.png","32","trial","32","true","0.8,0.2","3:go_c","",""
"null","","html-keyboard-response","609","880477","0.0-8.0-1.9","","<img src=""img/orange-n.png"" border=""10"">","null","trial","32","","0.8,0.2","3:go_c","0",""
"null","","html-keyboard-response","610","881479","0.0-8.0-2.9","","<div style=""font-size:60px;"">+</div>","null","","","","","","",""
"null","","image-keyboard-response","611","882981","0.0-8.0-0.10","","img/purple.png","null","trial","32","false","0.8,0.2","1:go_a","",""
"null","","html-keyboard-response","612","883984","0.0-8.0-1.10","","<img src=""img/purple-n.png"">","null","trial","32","","0.8,0.2","1:go_a","0",""
"null","","html-keyboard-response","613","884986","0.0-8.0-2.10","","<div style=""font-size:60px;"">+</div>","null","","","","","","",""
"614.5249999826774","","image-keyboard-response","614","885602","0.0-8.0-0.11","","img/blue.png","32","trial","null","false","0.2,0.8","4:nogo_d","",""
"null","","html-keyboard-response","615","886607","0.0-8.0-1.11","","<img src=""img/blue-n.png"" border=""10"">","null","trial","null","","0.2,0.8","4:nogo_d","0",""
"null","","html-keyboard-response","616","887609","0.0-8.0-2.11","","<div style=""font-size:60px;"">+</div>","null","","","","","","",""
"683.1200000015087","","image-keyboard-response","617","888293","0.0-8.0-0.12","","img/yellow.png","32","trial","null","false","0.2,0.8","2:nogo_b","",""
"null","","html-keyboard-response","618","889296","0.0-8.0-1.12","","<img src=""img/yellow-n.png"" border=""10"">","null","trial","null","","0.2,0.8","2:nogo_b","0",""
"null","","html-keyboard-response","619","890299","0.0-8.0-2.12","","<div style=""font-size:60px;"">+</div>","null","","","","","","",""
"null","","image-keyboard-response","620","891800","0.0-8.0-0.13","","img/orange.png","null","trial","32","false","0.8,0.2","3:go_c","",""
"null","","html-keyboard-response","621","892803","0.0-8.0-1.13","","<img src=""img/orange-n.png"">","null","trial","32","","0.8,0.2","3:go_c","0",""
"null","","html-keyboard-response","622","893808","0.0-8.0-2.13","","<div style=""font-size:60px;"">+</div>","null","","","","","","",""
"null","","image-keyboard-response","623","895310","0.0-8.0-0.14","","img/blue.png","null","trial","null","true","0.2,0.8","4:nogo_d","",""
"null","","html-keyboard-response","624","896313","0.0-8.0-1.14","","<img src=""img/blue-r.png"">","null","trial","null","","0.2,0.8","4:nogo_d","1",""
"null","","html-keyboard-response","625","897314","0.0-8.0-2.14","","<div style=""font-size:60px;"">+</div>","null","","","","","","",""
"479.834999947343","","image-keyboard-response","626","897795","0.0-8.0-0.15","","img/purple.png","32","trial","32","true","0.8,0.2","1:go_a","",""
"null","","html-keyboard-response","627","898810","0.0-8.0-1.15","","<img src=""img/purple-r.png"" border=""10"">","null","trial","32","","0.8,0.2","1:go_a","1",""
"null","","html-keyboard-response","628","899812","0.0-8.0-2.15","","<div style=""font-size:60px;"">+</div>","null","","","","","","",""
"570.0700000161305","","image-keyboard-response","629","900383","0.0-8.0-0.16","","img/purple.png","32","trial","32","true","0.8,0.2","1:go_a","",""
"null","","html-keyboard-response","630","901386","0.0-8.0-1.16","","<img src=""img/purple-r.png"" border=""10"">","null","trial","32","","0.8,0.2","1:go_a","1",""
"null","","html-keyboard-response","631","902390","0.0-8.0-2.16","","<div style=""font-size:60px;"">+</div>","null","","","","","","",""
"null","","image-keyboard-response","632","903892","0.0-8.0-0.17","","img/blue.png","null","trial","null","true","0.2,0.8","4:nogo_d","",""
"null","","html-keyboard-response","633","904894","0.0-8.0-1.17","","<img src=""img/blue-n.png"">","null","trial","null","","0.2,0.8","4:nogo_d","0",""
"null","","html-keyboard-response","634","905895","0.0-8.0-2.17","","<div style=""font-size:60px;"">+</div>","null","","","","","","",""
"614.9299999815412","","image-keyboard-response","635","906511","0.0-8.0-0.18","","img/yellow.png","32","trial","null","false","0.2,0.8","2:nogo_b","",""
"null","","html-keyboard-response","636","907514","0.0-8.0-1.18","","<img src=""img/yellow-n.png"" border=""10"">","null","trial","null","","0.2,0.8","2:nogo_b","0",""
"null","","html-keyboard-response","637","908516","0.0-8.0-2.18","","<div style=""font-size:60px;"">+</div>","null","","","","","","",""
"null","","image-keyboard-response","638","910020","0.0-8.0-0.19","","img/orange.png","null","trial","32","false","0.8,0.2","3:go_c","",""
"null","","html-keyboard-response","639","911032","0.0-8.0-1.19","","<img src=""img/orange-n.png"">","null","trial","32","","0.8,0.2","3:go_c","0",""
"null","","html-keyboard-response","640","912034","0.0-8.0-2.19","","<div style=""font-size:60px;"">+</div>","null","","","","","","",""
"null","","image-keyboard-response","641","913535","0.0-8.0-0.20","","img/purple.png","null","trial","32","false","0.8,0.2","1:go_a","",""
"null","","html-keyboard-response","642","914539","0.0-8.0-1.20","","<img src=""img/purple-r.png"">","null","trial","32","","0.8,0.2","1:go_a","1",""
"null","","html-keyboard-response","643","915541","0.0-8.0-2.20","","<div style=""font-size:60px;"">+</div>","null","","","","","","",""
"440.1649999781512","","image-keyboard-response","644","915983","0.0-8.0-0.21","","img/blue.png","32","trial","null","false","0.2,0.8","4:nogo_d","",""
"null","","html-keyboard-response","645","916985","0.0-8.0-1.21","","<img src=""img/blue-n.png"" border=""10"">","null","trial","null","","0.2,0.8","4:nogo_d","0",""
"null","","html-keyboard-response","646","917990","0.0-8.0-2.21","","<div style=""font-size:60px;"">+</div>","null","","","","","","",""
"null","","image-keyboard-response","647","919492","0.0-8.0-0.22","","img/yellow.png","null","trial","null","true","0.2,0.8","2:nogo_b","",""
"null","","html-keyboard-response","648","920499","0.0-8.0-1.22","","<img src=""img/yellow-r.png"">","null","trial","null","","0.2,0.8","2:nogo_b","1",""
"null","","html-keyboard-response","649","921501","0.0-8.0-2.22","","<div style=""font-size:60px;"">+</div>","null","","","","","","",""
"455.0300000119023","","image-keyboard-response","650","921957","0.0-8.0-0.23","","img/orange.png","32","trial","32","true","0.8,0.2","3:go_c","",""
"null","","html-keyboard-response","651","922960","0.0-8.0-1.23","","<img src=""img/orange-r.png"" border=""10"">","null","trial","32","","0.8,0.2","3:go_c","1",""
"null","","html-keyboard-response","652","923962","0.0-8.0-2.23","","<div style=""font-size:60px;"">+</div>","null","","","","","","",""
"1119.3400000338443","","image-keyboard-response","653","925082","0.0-8.0-0.24","","img/yellow.png","32","trial","null","false","0.2,0.8","2:nogo_b","",""
"null","","html-keyboard-response","654","926088","0.0-8.0-1.24","","<img src=""img/yellow-n.png"" border=""10"">","null","trial","null","","0.2,0.8","2:nogo_b","0",""
"null","","html-keyboard-response","655","927090","0.0-8.0-2.24","","<div style=""font-size:60px;"">+</div>","null","","","","","","",""
"533.4300000104122","","image-keyboard-response","656","927625","0.0-8.0-0.25","","img/purple.png","32","trial","32","true","0.8,0.2","1:go_a","",""
"null","","html-keyboard-response","657","928629","0.0-8.0-1.25","","<img src=""img/purple-r.png"" border=""10"">","null","trial","32","","0.8,0.2","1:go_a","1",""
"null","","html-keyboard-response","658","929631","0.0-8.0-2.25","","<div style=""font-size:60px;"">+</div>","null","","","","","","",""
"535.8450000057928","","image-keyboard-response","659","930168","0.0-8.0-0.26","","img/blue.png","32","trial","null","false","0.2,0.8","4:nogo_d","",""
"null","","html-keyboard-response","660","931173","0.0-8.0-1.26","","<img src=""img/blue-n.png"" border=""10"">","null","trial","null","","0.2,0.8","4:nogo_d","0",""
"null","","html-keyboard-response","661","932174","0.0-8.0-2.26","","<div style=""font-size:60px;"">+</div>","null","","","","","","",""
"null","","image-keyboard-response","662","933678","0.0-8.0-0.27","","img/orange.png","null","trial","32","false","0.8,0.2","3:go_c","",""
"null","","html-keyboard-response","663","934681","0.0-8.0-1.27","","<img src=""img/orange-n.png"">","null","trial","32","","0.8,0.2","3:go_c","0",""
"null","","html-keyboard-response","664","935683","0.0-8.0-2.27","","<div style=""font-size:60px;"">+</div>","null","","","","","","",""
"null","","image-keyboard-response","665","937187","0.0-8.0-0.28","","img/purple.png","null","trial","32","false","0.8,0.2","1:go_a","",""
"null","","html-keyboard-response","666","938190","0.0-8.0-1.28","","<img src=""img/purple-r.png"">","null","trial","32","","0.8,0.2","1:go_a","1",""
"null","","html-keyboard-response","667","939192","0.0-8.0-2.28","","<div style=""font-size:60px;"">+</div>","null","","","","","","",""
"433.77000000327826","","image-keyboard-response","668","939626","0.0-8.0-0.29","","img/yellow.png","32","trial","null","false","0.2,0.8","2:nogo_b","",""
"null","","html-keyboard-response","669","940630","0.0-8.0-1.29","","<img src=""img/yellow-n.png"" border=""10"">","null","trial","null","","0.2,0.8","2:nogo_b","0",""
"null","","html-keyboard-response","670","941632","0.0-8.0-2.29","","<div style=""font-size:60px;"">+</div>","null","","","","","","",""
"null","","image-keyboard-response","671","943135","0.0-8.0-0.30","","img/blue.png","null","trial","null","true","0.2,0.8","4:nogo_d","",""
"null","","html-keyboard-response","672","944139","0.0-8.0-1.30","","<img src=""img/blue-r.png"">","null","trial","null","","0.2,0.8","4:nogo_d","1",""
"null","","html-keyboard-response","673","945154","0.0-8.0-2.30","","<div style=""font-size:60px;"">+</div>","null","","","","","","",""
"471.0149999591522","","image-keyboard-response","674","945626","0.0-8.0-0.31","","img/orange.png","32","trial","32","true","0.8,0.2","3:go_c","",""
