"rt","url","trial_type","trial_index","time_elapsed","internal_node_id","view_history","stimulus","key_press","test_part","correct_response","correct","use_rew","which_stim","reward","responses"
"11439.370000000054","consent.html","external-html","0","11569","0.0-0.0","","","","","","","","","",""
"90133.27500000014","","instructions","1","101717","0.0-1.0","[{""page_index"":0,""viewing_time"":3685.044999998354},{""page_index"":1,""viewing_time"":18338.285000001633},{""page_index"":2,""viewing_time"":7027.22999999969},{""page_index"":3,""viewing_time"":15003.94999999844},{""page_index"":4,""viewing_time"":12127.62500000099},{""page_index"":5,""viewing_time"":10568.999999999505},{""page_index"":6,""viewing_time"":23379.665000000386}]","","","","","","","","",""
"null","","image-keyboard-response","2","103222","0.0-2.0-0.0","","img/test3.PNG","null","practice","null","true","","","",""
"null","","html-keyboard-response","3","104227","0.0-2.0-1.0","","<img src=""img/test3-reward.PNG"">","null","","","","","","",""
"null","","html-keyboard-response","4","105229","0.0-2.0-2.0","","<div style=""font-size:60px;"">+</div>","null","","","","","","",""
"498.57000000338303","","image-keyboard-response","5","105731","0.0-2.0-0.1","","img/test1.PNG","32","practice","32","true","","","",""
"null","","html-keyboard-response","6","106734","0.0-2.0-1.1","","<img src=""img/test1-reward.PNG"" border=""10px; grey"">","null","","","","","","",""
"null","","html-keyboard-response","7","107737","0.0-2.0-2.1","","<div style=""font-size:60px;"">+</div>","null","","","","","","",""
"null","","image-keyboard-response","8","109239","0.0-2.0-0.2","","img/test2.PNG","null","practice","null","true","","","",""
"null","","html-keyboard-response","9","110241","0.0-2.0-1.2","","<img src=""img/test2-reward.PNG"">","null","","","","","","",""
"null","","html-keyboard-response","10","111243","0.0-2.0-2.2","","<div style=""font-size:60px;"">+</div>","null","","","","","","",""
"null","","image-keyboard-response","11","112748","0.0-2.0-0.3","","img/test2.PNG","null","practice","null","true","","","",""
"null","","html-keyboard-response","12","113750","0.0-2.0-1.3","","<img src=""img/test2-reward.PNG"">","null","","","","","","",""
"null","","html-keyboard-response","13","114753","0.0-2.0-2.3","","<div style=""font-size:60px;"">+</div>","null","","","","","","",""
"null","","image-keyboard-response","14","116256","0.0-2.0-0.4","","img/test3.PNG","null","practice","null","true","","","",""
"null","","html-keyboard-response","15","117259","0.0-2.0-1.4","","<img src=""img/test3-reward.PNG"">","null","","","","","","",""
"null","","html-keyboard-response","16","118261","0.0-2.0-2.4","","<div style=""font-size:60px;"">+</div>","null","","","","","","",""
"358.9299999985087","","image-keyboard-response","17","118622","0.0-2.0-0.5","","img/test1.PNG","32","practice","32","true","","","",""
"null","","html-keyboard-response","18","119635","0.0-2.0-1.5","","<img src=""img/test1-reward.PNG"" border=""10px; grey"">","null","","","","","","",""
"null","","html-keyboard-response","19","120639","0.0-2.0-2.5","","<div style=""font-size:60px;"">+</div>","null","","","","","","",""
"432.18999999953667","","image-keyboard-response","20","121072","0.0-2.0-0.6","","img/test1.PNG","32","practice","32","true","","","",""
"null","","html-keyboard-response","21","122074","0.0-2.0-1.6","","<img src=""img/test1-reward.PNG"" border=""10px; grey"">","null","","","","","","",""
"null","","html-keyboard-response","22","123076","0.0-2.0-2.6","","<div style=""font-size:60px;"">+</div>","null","","","","","","",""
"null","","image-keyboard-response","23","124577","0.0-2.0-0.7","","img/test3.PNG","null","practice","null","true","","","",""
"null","","html-keyboard-response","24","125579","0.0-2.0-1.7","","<img src=""img/test3-reward.PNG"">","null","","","","","","",""
"null","","html-keyboard-response","25","126580","0.0-2.0-2.7","","<div style=""font-size:60px;"">+</div>","null","","","","","","",""
"null","","image-keyboard-response","26","128084","0.0-2.0-0.8","","img/test2.PNG","null","practice","null","true","","","",""
"null","","html-keyboard-response","27","129086","0.0-2.0-1.8","","<img src=""img/test2-reward.PNG"">","null","","","","","","",""
"null","","html-keyboard-response","28","130089","0.0-2.0-2.8","","<div style=""font-size:60px;"">+</div>","null","","","","","","",""
"null","","image-keyboard-response","29","131592","0.0-2.0-0.9","","img/test2.PNG","null","practice","null","true","","","",""
"null","","html-keyboard-response","30","132596","0.0-2.0-1.9","","<img src=""img/test2-reward.PNG"">","null","","","","","","",""
"null","","html-keyboard-response","31","133597","0.0-2.0-2.9","","<div style=""font-size:60px;"">+</div>","null","","","","","","",""
"484.4300000004296","","image-keyboard-response","32","134083","0.0-2.0-0.10","","img/test1.PNG","32","practice","32","true","","","",""
"null","","html-keyboard-response","33","135085","0.0-2.0-1.10","","<img src=""img/test1-reward.PNG"" border=""10px; grey"">","null","","","","","","",""
"null","","html-keyboard-response","34","136086","0.0-2.0-2.10","","<div style=""font-size:60px;"">+</div>","null","","","","","","",""
"null","","image-keyboard-response","35","137591","0.0-2.0-0.11","","img/test3.PNG","null","practice","null","true","","","",""
"null","","html-keyboard-response","36","138594","0.0-2.0-1.11","","<img src=""img/test3-reward.PNG"">","null","","","","","","",""
"null","","html-keyboard-response","37","139601","0.0-2.0-2.11","","<div style=""font-size:60px;"">+</div>","null","","","","","","",""
"2609.550000001036","","instructions","38","142211","0.0-3.0","[{""page_index"":0,""viewing_time"":2609.120000000985}]","","","","","","","","",""
"880.8399999979883","","image-keyboard-response","39","143094","0.0-4.0-0.0","","img/blue.png","32","trial","32","true","0.8,0.2","1:go_a","",""
"null","","html-keyboard-response","40","144097","0.0-4.0-1.0","","<img src=""img/blue-r.png"" border=""10"">","null","trial","32","","0.8,0.2","1:go_a","1",""
"null","","html-keyboard-response","41","145100","0.0-4.0-2.0","","<div style=""font-size:60px;"">+</div>","null","","","","","","",""
"350.20000000076834","","image-keyboard-response","42","145453","0.0-4.0-0.1","","img/yellow.png","32","trial","null","false","0.2,0.8","2:nogo_b","",""
"null","","html-keyboard-response","43","146456","0.0-4.0-1.1","","<img src=""img/yellow-n.png"" border=""10"">","null","trial","null","","0.2,0.8","2:nogo_b","0",""
"null","","html-keyboard-response","44","147459","0.0-4.0-2.1","","<div style=""font-size:60px;"">+</div>","null","","","","","","",""
"494.0199999982724","","image-keyboard-response","45","147955","0.0-4.0-0.2","","img/blue.png","32","trial","32","true","0.8,0.2","1:go_a","",""
"null","","html-keyboard-response","46","148957","0.0-4.0-1.2","","<img src=""img/blue-r.png"" border=""10"">","null","trial","32","","0.8,0.2","1:go_a","1",""
"null","","html-keyboard-response","47","149960","0.0-4.0-2.2","","<div style=""font-size:60px;"">+</div>","null","","","","","","",""
"null","","image-keyboard-response","48","151461","0.0-4.0-0.3","","img/yellow.png","null","trial","null","true","0.2,0.8","2:nogo_b","",""
"null","","html-keyboard-response","49","152464","0.0-4.0-1.3","","<img src=""img/yellow-r.png"">","null","trial","null","","0.2,0.8","2:nogo_b","1",""
"null","","html-keyboard-response","50","153466","0.0-4.0-2.3","","<div style=""font-size:60px;"">+</div>","null","","","","","","",""
"1083.8049999983923","","image-keyboard-response","51","154551","0.0-4.0-0.4","","img/yellow.png","32","trial","null","false","0.2,0.8","2:nogo_b","",""
"null","","html-keyboard-response","52","155556","0.0-4.0-1.4","","<img src=""img/yellow-n.png"" border=""10"">","null","trial","null","","0.2,0.8","2:nogo_b","0",""
"null","","html-keyboard-response","53","156558","0.0-4.0-2.4","","<div style=""font-size:60px;"">+</div>","null","","","","","","",""
"446.2650000023132","","image-keyboard-response","54","157007","0.0-4.0-0.5","","img/blue.png","32","trial","32","true","0.8,0.2","1:go_a","",""
"null","","html-keyboard-response","55","158011","0.0-4.0-1.5","","<img src=""img/blue-r.png"" border=""10"">","null","trial","32","","0.8,0.2","1:go_a","1",""
"null","","html-keyboard-response","56","159013","0.0-4.0-2.5","","<div style=""font-size:60px;"">+</div>","null","","","","","","",""
"715.7299999998941","","image-keyboard-response","57","159731","0.0-4.0-0.6","","img/yellow.png","32","trial","null","false","0.2,0.8","2:nogo_b","",""
"null","","html-keyboard-response","58","160736","0.0-4.0-1.6","","<img src=""img/yellow-r.png"" border=""10"">","null","trial","null","","0.2,0.8","2:nogo_b","1",""
"null","","html-keyboard-response","59","161738","0.0-4.0-2.6","","<div style=""font-size:60px;"">+</div>","null","","","","","","",""
"375.2500000009604","","image-keyboard-response","60","162115","0.0-4.0-0.7","","img/blue.png","32","trial","32","true","0.8,0.2","1:go_a","",""
"null","","html-keyboard-response","61","163119","0.0-4.0-1.7","","<img src=""img/blue-r.png"" border=""10"">","null","trial","32","","0.8,0.2","1:go_a","1",""
"null","","html-keyboard-response","62","164121","0.0-4.0-2.7","","<div style=""font-size:60px;"">+</div>","null","","","","","","",""
"527.9150000023947","","image-keyboard-response","63","164651","0.0-4.0-0.8","","img/blue.png","32","trial","32","true","0.8,0.2","1:go_a","",""
"null","","html-keyboard-response","64","165656","0.0-4.0-1.8","","<img src=""img/blue-r.png"" border=""10"">","null","trial","32","","0.8,0.2","1:go_a","1",""
"null","","html-keyboard-response","65","166658","0.0-4.0-2.8","","<div style=""font-size:60px;"">+</div>","null","","","","","","",""
"null","","image-keyboard-response","66","168161","0.0-4.0-0.9","","img/yellow.png","null","trial","null","true","0.2,0.8","2:nogo_b","",""
"null","","html-keyboard-response","67","169165","0.0-4.0-1.9","","<img src=""img/yellow-r.png"">","null","trial","null","","0.2,0.8","2:nogo_b","1",""
"null","","html-keyboard-response","68","170167","0.0-4.0-2.9","","<div style=""font-size:60px;"">+</div>","null","","","","","","",""
"372.46500000037486","","image-keyboard-response","69","170542","0.0-4.0-0.10","","img/blue.png","32","trial","32","true","0.8,0.2","1:go_a","",""
"null","","html-keyboard-response","70","171554","0.0-4.0-1.10","","<img src=""img/blue-r.png"" border=""10"">","null","trial","32","","0.8,0.2","1:go_a","1",""
"null","","html-keyboard-response","71","172556","0.0-4.0-2.10","","<div style=""font-size:60px;"">+</div>","null","","","","","","",""
"620.1750000000175","","image-keyboard-response","72","173178","0.0-4.0-0.11","","img/yellow.png","32","trial","null","false","0.2,0.8","2:nogo_b","",""
"null","","html-keyboard-response","73","174182","0.0-4.0-1.11","","<img src=""img/yellow-n.png"" border=""10"">","null","trial","null","","0.2,0.8","2:nogo_b","0",""
"null","","html-keyboard-response","74","175183","0.0-4.0-2.11","","<div style=""font-size:60px;"">+</div>","null","","","","","","",""
"516.3499999980559","","image-keyboard-response","75","175702","0.0-4.0-0.12","","img/blue.png","32","trial","32","true","0.8,0.2","1:go_a","",""
"null","","html-keyboard-response","76","176706","0.0-4.0-1.12","","<img src=""img/blue-r.png"" border=""10"">","null","trial","32","","0.8,0.2","1:go_a","1",""
"null","","html-keyboard-response","77","177713","0.0-4.0-2.12","","<div style=""font-size:60px;"">+</div>","null","","","","","","",""
"null","","image-keyboard-response","78","179263","0.0-4.0-0.13","","img/yellow.png","null","trial","null","true","0.2,0.8","2:nogo_b","",""
"null","","html-keyboard-response","79","180266","0.0-4.0-1.13","","<img src=""img/yellow-r.png"">","null","trial","null","","0.2,0.8","2:nogo_b","1",""
"null","","html-keyboard-response","80","181268","0.0-4.0-2.13","","<div style=""font-size:60px;"">+</div>","null","","","","","","",""
"318.0049999973562","","image-keyboard-response","81","181587","0.0-4.0-0.14","","img/blue.png","32","trial","32","true","0.8,0.2","1:go_a","",""
"null","","html-keyboard-response","82","182590","0.0-4.0-1.14","","<img src=""img/blue-r.png"" border=""10"">","null","trial","32","","0.8,0.2","1:go_a","1",""
"null","","html-keyboard-response","83","183592","0.0-4.0-2.14","","<div style=""font-size:60px;"">+</div>","null","","","","","","",""
"null","","image-keyboard-response","84","185094","0.0-4.0-0.15","","img/yellow.png","null","trial","null","true","0.2,0.8","2:nogo_b","",""
"null","","html-keyboard-response","85","186096","0.0-4.0-1.15","","<img src=""img/yellow-r.png"">","null","trial","null","","0.2,0.8","2:nogo_b","1",""
"null","","html-keyboard-response","86","187099","0.0-4.0-2.15","","<div style=""font-size:60px;"">+</div>","null","","","","","","",""
"351.24999999970896","","image-keyboard-response","87","187452","0.0-4.0-0.16","","img/yellow.png","32","trial","null","false","0.2,0.8","2:nogo_b","",""
"null","","html-keyboard-response","88","188457","0.0-4.0-1.16","","<img src=""img/yellow-n.png"" border=""10"">","null","trial","null","","0.2,0.8","2:nogo_b","0",""
"null","","html-keyboard-response","89","189459","0.0-4.0-2.16","","<div style=""font-size:60px;"">+</div>","null","","","","","","",""
"483.5749999983818","","image-keyboard-response","90","189944","0.0-4.0-0.17","","img/blue.png","32","trial","32","true","0.8,0.2","1:go_a","",""
"null","","html-keyboard-response","91","190947","0.0-4.0-1.17","","<img src=""img/blue-r.png"" border=""10"">","null","trial","32","","0.8,0.2","1:go_a","1",""
"null","","html-keyboard-response","92","191949","0.0-4.0-2.17","","<div style=""font-size:60px;"">+</div>","null","","","","","","",""
"498.60500000067987","","image-keyboard-response","93","192450","0.0-4.0-0.18","","img/yellow.png","32","trial","null","false","0.2,0.8","2:nogo_b","",""
"null","","html-keyboard-response","94","193454","0.0-4.0-1.18","","<img src=""img/yellow-n.png"" border=""10"">","null","trial","null","","0.2,0.8","2:nogo_b","0",""
"null","","html-keyboard-response","95","194456","0.0-4.0-2.18","","<div style=""font-size:60px;"">+</div>","null","","","","","","",""
"284.2549999986659","","image-keyboard-response","96","194742","0.0-4.0-0.19","","img/blue.png","32","trial","32","true","0.8,0.2","1:go_a","",""
"null","","html-keyboard-response","97","195746","0.0-4.0-1.19","","<img src=""img/blue-r.png"" border=""10"">","null","trial","32","","0.8,0.2","1:go_a","1",""
"null","","html-keyboard-response","98","196748","0.0-4.0-2.19","","<div style=""font-size:60px;"">+</div>","null","","","","","","",""
"304.3649999999616","","image-keyboard-response","99","197055","0.0-4.0-0.20","","img/yellow.png","32","trial","null","false","0.2,0.8","2:nogo_b","",""
"null","","html-keyboard-response","100","198059","0.0-4.0-1.20","","<img src=""img/yellow-r.png"" border=""10"">","null","trial","null","","0.2,0.8","2:nogo_b","1",""
"null","","html-keyboard-response","101","199061","0.0-4.0-2.20","","<div style=""font-size:60px;"">+</div>","null","","","","","","",""
"486.55000000144355","","image-keyboard-response","102","199549","0.0-4.0-0.21","","img/blue.png","32","trial","32","true","0.8,0.2","1:go_a","",""
"null","","html-keyboard-response","103","200553","0.0-4.0-1.21","","<img src=""img/blue-r.png"" border=""10"">","null","trial","32","","0.8,0.2","1:go_a","1",""
"null","","html-keyboard-response","104","201555","0.0-4.0-2.21","","<div style=""font-size:60px;"">+</div>","null","","","","","","",""
"489.3999999985681","","image-keyboard-response","105","202046","0.0-4.0-0.22","","img/blue.png","32","trial","32","true","0.8,0.2","1:go_a","",""
"null","","html-keyboard-response","106","203050","0.0-4.0-1.22","","<img src=""img/blue-r.png"" border=""10"">","null","trial","32","","0.8,0.2","1:go_a","1",""
"null","","html-keyboard-response","107","204052","0.0-4.0-2.22","","<div style=""font-size:60px;"">+</div>","null","","","","","","",""
"null","","image-keyboard-response","108","205554","0.0-4.0-0.23","","img/yellow.png","null","trial","null","true","0.2,0.8","2:nogo_b","",""
"null","","html-keyboard-response","109","206558","0.0-4.0-1.23","","<img src=""img/yellow-n.png"">","null","trial","null","","0.2,0.8","2:nogo_b","0",""
"null","","html-keyboard-response","110","207560","0.0-4.0-2.23","","<div style=""font-size:60px;"">+</div>","null","","","","","","",""
"514.2100000011851","","image-keyboard-response","111","208076","0.0-4.0-0.24","","img/yellow.png","32","trial","null","false","0.2,0.8","2:nogo_b","",""
"null","","html-keyboard-response","112","209080","0.0-4.0-1.24","","<img src=""img/yellow-n.png"" border=""10"">","null","trial","null","","0.2,0.8","2:nogo_b","0",""
"null","","html-keyboard-response","113","210081","0.0-4.0-2.24","","<div style=""font-size:60px;"">+</div>","null","","","","","","",""
"558.1349999993108","","image-keyboard-response","114","210640","0.0-4.0-0.25","","img/blue.png","32","trial","32","true","0.8,0.2","1:go_a","",""
"null","","html-keyboard-response","115","211644","0.0-4.0-1.25","","<img src=""img/blue-r.png"" border=""10"">","null","trial","32","","0.8,0.2","1:go_a","1",""
"null","","html-keyboard-response","116","212646","0.0-4.0-2.25","","<div style=""font-size:60px;"">+</div>","null","","","","","","",""
"465.8799999997427","","image-keyboard-response","117","213114","0.0-4.0-0.26","","img/blue.png","32","trial","32","true","0.8,0.2","1:go_a","",""
"null","","html-keyboard-response","118","214117","0.0-4.0-1.26","","<img src=""img/blue-r.png"" border=""10"">","null","trial","32","","0.8,0.2","1:go_a","1",""
"null","","html-keyboard-response","119","215118","0.0-4.0-2.26","","<div style=""font-size:60px;"">+</div>","null","","","","","","",""
"null","","image-keyboard-response","120","216621","0.0-4.0-0.27","","img/yellow.png","null","trial","null","true","0.2,0.8","2:nogo_b","",""
"null","","html-keyboard-response","121","217624","0.0-4.0-1.27","","<img src=""img/yellow-r.png"">","null","trial","null","","0.2,0.8","2:nogo_b","1",""
"null","","html-keyboard-response","122","218626","0.0-4.0-2.27","","<div style=""font-size:60px;"">+</div>","null","","","","","","",""
"null","","image-keyboard-response","123","220129","0.0-4.0-0.28","","img/yellow.png","null","trial","null","true","0.2,0.8","2:nogo_b","",""
"null","","html-keyboard-response","124","221133","0.0-4.0-1.28","","<img src=""img/yellow-r.png"">","null","trial","null","","0.2,0.8","2:nogo_b","1",""
"null","","html-keyboard-response","125","222135","0.0-4.0-2.28","","<div style=""font-size:60px;"">+</div>","null","","","","","","",""
"367.36499999824446","","image-keyboard-response","126","222505","0.0-4.0-0.29","","img/blue.png","32","trial","32","true","0.8,0.2","1:go_a","",""
"null","","html-keyboard-response","127","223507","0.0-4.0-1.29","","<img src=""img/blue-n.png"" border=""10"">","null","trial","32","","0.8,0.2","1:go_a","0",""
"null","","html-keyboard-response","128","224509","0.0-4.0-2.29","","<div style=""font-size:60px;"">+</div>","null","","","","","","",""
"481.2099999981001","","image-keyboard-response","129","224993","0.0-4.0-0.30","","img/blue.png","32","trial","32","true","0.8,0.2","1:go_a","",""
"null","","html-keyboard-response","130","225996","0.0-4.0-1.30","","<img src=""img/blue-r.png"" border=""10"">","null","trial","32","","0.8,0.2","1:go_a","1",""
"null","","html-keyboard-response","131","226998","0.0-4.0-2.30","","<div style=""font-size:60px;"">+</div>","null","","","","","","",""
"1025.4899999999907","","image-keyboard-response","132","228026","0.0-4.0-0.31","","img/yellow.png","32","trial","null","false","0.2,0.8","2:nogo_b","",""
"null","","html-keyboard-response","133","229030","0.0-4.0-1.31","","<img src=""img/yellow-n.png"" border=""10"">","null","trial","null","","0.2,0.8","2:nogo_b","0",""
"null","","html-keyboard-response","134","230032","0.0-4.0-2.31","","<div style=""font-size:60px;"">+</div>","null","","","","","","",""
"1306.7899999987276","","image-keyboard-response","135","231341","0.0-4.0-0.32","","img/yellow.png","32","trial","null","false","0.2,0.8","2:nogo_b","",""
"null","","html-keyboard-response","136","232345","0.0-4.0-1.32","","<img src=""img/yellow-n.png"" border=""10"">","null","trial","null","","0.2,0.8","2:nogo_b","0",""
"null","","html-keyboard-response","137","233347","0.0-4.0-2.32","","<div style=""font-size:60px;"">+</div>","null","","","","","","",""
"483.96499999944353","","image-keyboard-response","138","233833","0.0-4.0-0.33","","img/blue.png","32","trial","32","true","0.8,0.2","1:go_a","",""
"null","","html-keyboard-response","139","234837","0.0-4.0-1.33","","<img src=""img/blue-n.png"" border=""10"">","null","trial","32","","0.8,0.2","1:go_a","0",""
"null","","html-keyboard-response","140","235838","0.0-4.0-2.33","","<div style=""font-size:60px;"">+</div>","null","","","","","","",""
"464.3050000013318","","image-keyboard-response","141","236305","0.0-4.0-0.34","","img/blue.png","32","trial","32","true","0.8,0.2","1:go_a","",""
"null","","html-keyboard-response","142","237309","0.0-4.0-1.34","","<img src=""img/blue-r.png"" border=""10"">","null","trial","32","","0.8,0.2","1:go_a","1",""
"null","","html-keyboard-response","143","238310","0.0-4.0-2.34","","<div style=""font-size:60px;"">+</div>","null","","","","","","",""
"null","","image-keyboard-response","144","239816","0.0-4.0-0.35","","img/yellow.png","null","trial","null","true","0.2,0.8","2:nogo_b","",""
"null","","html-keyboard-response","145","240818","0.0-4.0-1.35","","<img src=""img/yellow-r.png"">","null","trial","null","","0.2,0.8","2:nogo_b","1",""
"null","","html-keyboard-response","146","241820","0.0-4.0-2.35","","<div style=""font-size:60px;"">+</div>","null","","","","","","",""
"740.4249999999593","","image-keyboard-response","147","242561","0.0-4.0-0.36","","img/yellow.png","32","trial","null","false","0.2,0.8","2:nogo_b","",""
"null","","html-keyboard-response","148","243563","0.0-4.0-1.36","","<img src=""img/yellow-r.png"" border=""10"">","null","trial","null","","0.2,0.8","2:nogo_b","1",""
"null","","html-keyboard-response","149","244564","0.0-4.0-2.36","","<div style=""font-size:60px;"">+</div>","null","","","","","","",""
"476.04499999943073","","image-keyboard-response","150","245043","0.0-4.0-0.37","","img/blue.png","32","trial","32","true","0.8,0.2","1:go_a","",""
"null","","html-keyboard-response","151","246061","0.0-4.0-1.37","","<img src=""img/blue-r.png"" border=""10"">","null","trial","32","","0.8,0.2","1:go_a","1",""
"null","","html-keyboard-response","152","247063","0.0-4.0-2.37","","<div style=""font-size:60px;"">+</div>","null","","","","","","",""
"null","","image-keyboard-response","153","248566","0.0-4.0-0.38","","img/yellow.png","null","trial","null","true","0.2,0.8","2:nogo_b","",""
"null","","html-keyboard-response","154","249568","0.0-4.0-1.38","","<img src=""img/yellow-r.png"">","null","trial","null","","0.2,0.8","2:nogo_b","1",""
"null","","html-keyboard-response","155","250574","0.0-4.0-2.38","","<div style=""font-size:60px;"">+</div>","null","","","","","","",""
"336.1449999974866","","image-keyboard-response","156","250912","0.0-4.0-0.39","","img/blue.png","32","trial","32","true","0.8,0.2","1:go_a","",""
"null","","html-keyboard-response","157","251916","0.0-4.0-1.39","","<img src=""img/blue-r.png"" border=""10"">","null","trial","32","","0.8,0.2","1:go_a","1",""
"null","","html-keyboard-response","158","252918","0.0-4.0-2.39","","<div style=""font-size:60px;"">+</div>","null","","","","","","",""
"369.6400000007998","","image-keyboard-response","159","253289","0.0-4.0-0.40","","img/blue.png","32","trial","32","true","0.8,0.2","1:go_a","",""
"null","","html-keyboard-response","160","254291","0.0-4.0-1.40","","<img src=""img/blue-r.png"" border=""10"">","null","trial","32","","0.8,0.2","1:go_a","1",""
"null","","html-keyboard-response","161","255293","0.0-4.0-2.40","","<div style=""font-size:60px;"">+</div>","null","","","","","","",""
"null","","image-keyboard-response","162","256797","0.0-4.0-0.41","","img/yellow.png","null","trial","null","true","0.2,0.8","2:nogo_b","",""
"null","","html-keyboard-response","163","257800","0.0-4.0-1.41","","<img src=""img/yellow-r.png"">","null","trial","null","","0.2,0.8","2:nogo_b","1",""
"null","","html-keyboard-response","164","258801","0.0-4.0-2.41","","<div style=""font-size:60px;"">+</div>","null","","","","","","",""
"null","","image-keyboard-response","165","260303","0.0-4.0-0.42","","img/yellow.png","null","trial","null","true","0.2,0.8","2:nogo_b","",""
"null","","html-keyboard-response","166","261307","0.0-4.0-1.42","","<img src=""img/yellow-r.png"">","null","trial","null","","0.2,0.8","2:nogo_b","1",""
"null","","html-keyboard-response","167","262309","0.0-4.0-2.42","","<div style=""font-size:60px;"">+</div>","null","","","","","","",""
"482.3900000010617","","image-keyboard-response","168","262793","0.0-4.0-0.43","","img/blue.png","32","trial","32","true","0.8,0.2","1:go_a","",""
"null","","html-keyboard-response","169","263797","0.0-4.0-1.43","","<img src=""img/blue-n.png"" border=""10"">","null","trial","32","","0.8,0.2","1:go_a","0",""
"null","","html-keyboard-response","170","264798","0.0-4.0-2.43","","<div style=""font-size:60px;"">+</div>","null","","","","","","",""
"519.6649999998044","","image-keyboard-response","171","265321","0.0-4.0-0.44","","img/blue.png","32","trial","32","true","0.8,0.2","1:go_a","",""
"null","","html-keyboard-response","172","266325","0.0-4.0-1.44","","<img src=""img/blue-r.png"" border=""10"">","null","trial","32","","0.8,0.2","1:go_a","1",""
"null","","html-keyboard-response","173","267327","0.0-4.0-2.44","","<div style=""font-size:60px;"">+</div>","null","","","","","","",""
"497.34499999979744","","image-keyboard-response","174","267827","0.0-4.0-0.45","","img/yellow.png","32","trial","null","false","0.2,0.8","2:nogo_b","",""
"null","","html-keyboard-response","175","268829","0.0-4.0-1.45","","<img src=""img/yellow-n.png"" border=""10"">","null","trial","null","","0.2,0.8","2:nogo_b","0",""
"null","","html-keyboard-response","176","269832","0.0-4.0-2.45","","<div style=""font-size:60px;"">+</div>","null","","","","","","",""
"337.69000000029337","","image-keyboard-response","177","270170","0.0-4.0-0.46","","img/yellow.png","32","trial","null","false","0.2,0.8","2:nogo_b","",""
"null","","html-keyboard-response","178","271173","0.0-4.0-1.46","","<img src=""img/yellow-n.png"" border=""10"">","null","trial","null","","0.2,0.8","2:nogo_b","0",""
"null","","html-keyboard-response","179","272175","0.0-4.0-2.46","","<div style=""font-size:60px;"">+</div>","null","","","","","","",""
"342.9550000000745","","image-keyboard-response","180","272519","0.0-4.0-0.47","","img/blue.png","32","trial","32","true","0.8,0.2","1:go_a","",""
"null","","html-keyboard-response","181","273521","0.0-4.0-1.47","","<img src=""img/blue-r.png"" border=""10"">","null","trial","32","","0.8,0.2","1:go_a","1",""
"null","","html-keyboard-response","182","274533","0.0-4.0-2.47","","<div style=""font-size:60px;"">+</div>","null","","","","","","",""
"434.12499999976717","","image-keyboard-response","183","274970","0.0-4.0-0.48","","img/blue.png","32","trial","32","true","0.8,0.2","1:go_a","",""
"null","","html-keyboard-response","184","275973","0.0-4.0-1.48","","<img src=""img/blue-r.png"" border=""10"">","null","trial","32","","0.8,0.2","1:go_a","1",""
"null","","html-keyboard-response","185","276975","0.0-4.0-2.48","","<div style=""font-size:60px;"">+</div>","null","","","","","","",""
"null","","image-keyboard-response","186","278477","0.0-4.0-0.49","","img/yellow.png","null","trial","null","true","0.2,0.8","2:nogo_b","",""
"null","","html-keyboard-response","187","279480","0.0-4.0-1.49","","<img src=""img/yellow-r.png"">","null","trial","null","","0.2,0.8","2:nogo_b","1",""
"null","","html-keyboard-response","188","280482","0.0-4.0-2.49","","<div style=""font-size:60px;"">+</div>","null","","","","","","",""
"350.02000000170665","","image-keyboard-response","189","280834","0.0-4.0-0.50","","img/yellow.png","32","trial","null","false","0.2,0.8","2:nogo_b","",""
"null","","html-keyboard-response","190","281838","0.0-4.0-1.50","","<img src=""img/yellow-n.png"" border=""10"">","null","trial","null","","0.2,0.8","2:nogo_b","0",""
"null","","html-keyboard-response","191","282841","0.0-4.0-2.50","","<div style=""font-size:60px;"">+</div>","null","","","","","","",""
"435.6200000002282","","image-keyboard-response","192","283277","0.0-4.0-0.51","","img/blue.png","32","trial","32","true","0.8,0.2","1:go_a","",""
"null","","html-keyboard-response","193","284281","0.0-4.0-1.51","","<img src=""img/blue-n.png"" border=""10"">","null","trial","32","","0.8,0.2","1:go_a","0",""
"null","","html-keyboard-response","194","285284","0.0-4.0-2.51","","<div style=""font-size:60px;"">+</div>","null","","","","","","",""
"null","","image-keyboard-response","195","286787","0.0-4.0-0.52","","img/yellow.png","null","trial","null","true","0.2,0.8","2:nogo_b","",""
"null","","html-keyboard-response","196","287791","0.0-4.0-1.52","","<img src=""img/yellow-n.png"">","null","trial","null","","0.2,0.8","2:nogo_b","0",""
"null","","html-keyboard-response","197","288793","0.0-4.0-2.52","","<div style=""font-size:60px;"">+</div>","null","","","","","","",""
"595.8599999976577","","image-keyboard-response","198","289390","0.0-4.0-0.53","","img/blue.png","32","trial","32","true","0.8,0.2","1:go_a","",""
"null","","html-keyboard-response","199","290394","0.0-4.0-1.53","","<img src=""img/blue-r.png"" border=""10"">","null","trial","32","","0.8,0.2","1:go_a","1",""
"null","","html-keyboard-response","200","291396","0.0-4.0-2.53","","<div style=""font-size:60px;"">+</div>","null","","","","","","",""
"null","","image-keyboard-response","201","292900","0.0-4.0-0.54","","img/yellow.png","null","trial","null","true","0.2,0.8","2:nogo_b","",""
"null","","html-keyboard-response","202","293903","0.0-4.0-1.54","","<img src=""img/yellow-r.png"">","null","trial","null","","0.2,0.8","2:nogo_b","1",""
"null","","html-keyboard-response","203","294905","0.0-4.0-2.54","","<div style=""font-size:60px;"">+</div>","null","","","","","","",""
"318.91999999794643","","image-keyboard-response","204","295226","0.0-4.0-0.55","","img/blue.png","32","trial","32","true","0.8,0.2","1:go_a","",""
"null","","html-keyboard-response","205","296230","0.0-4.0-1.55","","<img src=""img/blue-n.png"" border=""10"">","null","trial","32","","0.8,0.2","1:go_a","0",""
"null","","html-keyboard-response","206","297232","0.0-4.0-2.55","","<div style=""font-size:60px;"">+</div>","null","","","","","","",""
"574.2499999978463","","image-keyboard-response","207","297809","0.0-4.0-0.56","","img/blue.png","32","trial","32","true","0.8,0.2","1:go_a","",""
"null","","html-keyboard-response","208","298816","0.0-4.0-1.56","","<img src=""img/blue-r.png"" border=""10"">","null","trial","32","","0.8,0.2","1:go_a","1",""
"null","","html-keyboard-response","209","299825","0.0-4.0-2.56","","<div style=""font-size:60px;"">+</div>","null","","","","","","",""
"null","","image-keyboard-response","210","301327","0.0-4.0-0.57","","img/yellow.png","null","trial","null","true","0.2,0.8","2:nogo_b","",""
"null","","html-keyboard-response","211","302339","0.0-4.0-1.57","","<img src=""img/yellow-r.png"">","null","trial","null","","0.2,0.8","2:nogo_b","1",""
"null","","html-keyboard-response","212","303341","0.0-4.0-2.57","","<div style=""font-size:60px;"">+</div>","null","","","","","","",""
"null","","image-keyboard-response","213","304843","0.0-4.0-0.58","","img/yellow.png","null","trial","null","true","0.2,0.8","2:nogo_b","",""
"null","","html-keyboard-response","214","305846","0.0-4.0-1.58","","<img src=""img/yellow-r.png"">","null","trial","null","","0.2,0.8","2:nogo_b","1",""
"null","","html-keyboard-response","215","306848","0.0-4.0-2.58","","<div style=""font-size:60px;"">+</div>","null","","","","","","",""
"360.48999999905936","","image-keyboard-response","216","307211","0.0-4.0-0.59","","img/blue.png","32","trial","32","true","0.8,0.2","1:go_a","",""
"null","","html-keyboard-response","217","308216","0.0-4.0-1.59","","<img src=""img/blue-r.png"" border=""10"">","null","trial","32","","0.8,0.2","1:go_a","1",""
"null","","html-keyboard-response","218","309218","0.0-4.0-2.59","","<div style=""font-size:60px;"">+</div>","null","","","","","","",""
"2915.5250000003725","","instructions","219","312134","0.0-5.0","[{""page_index"":0,""viewing_time"":2914.8849999983795}]","","","","","","","","",""
"1046.135000000475","","image-keyboard-response","220","313184","0.0-6.0-0.0","","img/orange.png","32","trial","null","false","0.4,0.6","4:nogo_d","",""
"null","","html-keyboard-response","221","314186","0.0-6.0-1.0","","<img src=""img/orange-n.png"" border=""10"">","null","trial","null","","0.4,0.6","4:nogo_d","0",""
"null","","html-keyboard-response","222","315187","0.0-6.0-2.0","","<div style=""font-size:60px;"">+</div>","null","","","","","","",""
"442.18999999790685","","image-keyboard-response","223","315632","0.0-6.0-0.1","","img/blue.png","32","trial","32","true","0.6,0.4","3:go_c","",""
"null","","html-keyboard-response","224","316637","0.0-6.0-1.1","","<img src=""img/blue-r.png"" border=""10"">","null","trial","32","","0.6,0.4","3:go_c","1",""
"null","","html-keyboard-response","225","317639","0.0-6.0-2.1","","<div style=""font-size:60px;"">+</div>","null","","","","","","",""
"922.2900000022491","","image-keyboard-response","226","318563","0.0-6.0-0.2","","img/yellow.png","32","trial","32","true","0.8,0.2","1:go_a","",""
"null","","html-keyboard-response","227","319566","0.0-6.0-1.2","","<img src=""img/yellow-r.png"" border=""10"">","null","trial","32","","0.8,0.2","1:go_a","1",""
"null","","html-keyboard-response","228","320567","0.0-6.0-2.2","","<div style=""font-size:60px;"">+</div>","null","","","","","","",""
"750.240000001213","","image-keyboard-response","229","321320","0.0-6.0-0.3","","img/green.png","32","trial","null","false","0.2,0.8","2:nogo_b","",""
"null","","html-keyboard-response","230","322324","0.0-6.0-1.3","","<img src=""img/green-n.png"" border=""10"">","null","trial","null","","0.2,0.8","2:nogo_b","0",""
"null","","html-keyboard-response","231","323327","0.0-6.0-2.3","","<div style=""font-size:60px;"">+</div>","null","","","","","","",""
"709.9249999991735","","image-keyboard-response","232","324039","0.0-6.0-0.4","","img/orange.png","32","trial","null","false","0.4,0.6","4:nogo_d","",""
"null","","html-keyboard-response","233","325044","0.0-6.0-1.4","","<img src=""img/orange-r.png"" border=""10"">","null","trial","null","","0.4,0.6","4:nogo_d","1",""
"null","","html-keyboard-response","234","326046","0.0-6.0-2.4","","<div style=""font-size:60px;"">+</div>","null","","","","","","",""
"516.7750000000233","","image-keyboard-response","235","326565","0.0-6.0-0.5","","img/green.png","32","trial","null","false","0.2,0.8","2:nogo_b","",""
"null","","html-keyboard-response","236","327569","0.0-6.0-1.5","","<img src=""img/green-n.png"" border=""10"">","null","trial","null","","0.2,0.8","2:nogo_b","0",""
"null","","html-keyboard-response","237","328570","0.0-6.0-2.5","","<div style=""font-size:60px;"">+</div>","null","","","","","","",""
"506.70499999978347","","image-keyboard-response","238","329078","0.0-6.0-0.6","","img/blue.png","32","trial","32","true","0.6,0.4","3:go_c","",""
"null","","html-keyboard-response","239","330082","0.0-6.0-1.6","","<img src=""img/blue-r.png"" border=""10"">","null","trial","32","","0.6,0.4","3:go_c","1",""
"null","","html-keyboard-response","240","331083","0.0-6.0-2.6","","<div style=""font-size:60px;"">+</div>","null","","","","","","",""
"488.23500000074273","","image-keyboard-response","241","331572","0.0-6.0-0.7","","img/yellow.png","32","trial","32","true","0.8,0.2","1:go_a","",""
"null","","html-keyboard-response","242","332575","0.0-6.0-1.7","","<img src=""img/yellow-r.png"" border=""10"">","null","trial","32","","0.8,0.2","1:go_a","1",""
"null","","html-keyboard-response","243","333577","0.0-6.0-2.7","","<div style=""font-size:60px;"">+</div>","null","","","","","","",""
"null","","image-keyboard-response","244","335079","0.0-6.0-0.8","","img/green.png","null","trial","null","true","0.2,0.8","2:nogo_b","",""
"null","","html-keyboard-response","245","336081","0.0-6.0-1.8","","<img src=""img/green-n.png"">","null","trial","null","","0.2,0.8","2:nogo_b","0",""
"null","","html-keyboard-response","246","337083","0.0-6.0-2.8","","<div style=""font-size:60px;"">+</div>","null","","","","","","",""
"362.2350000005099","","image-keyboard-response","247","337447","0.0-6.0-0.9","","img/yellow.png","32","trial","32","true","0.8,0.2","1:go_a","",""
"null","","html-keyboard-response","248","338450","0.0-6.0-1.9","","<img src=""img/yellow-r.png"" border=""10"">","null","trial","32","","0.8,0.2","1:go_a","1",""
"null","","html-keyboard-response","249","339452","0.0-6.0-2.9","","<div style=""font-size:60px;"">+</div>","null","","","","","","",""
"549.2249999988126","","image-keyboard-response","250","340004","0.0-6.0-0.10","","img/orange.png","32","trial","null","false","0.4,0.6","4:nogo_d","",""
"null","","html-keyboard-response","251","341008","0.0-6.0-1.10","","<img src=""img/orange-r.png"" border=""10"">","null","trial","null","","0.4,0.6","4:nogo_d","1",""
"null","","html-keyboard-response","252","342010","0.0-6.0-2.10","","<div style=""font-size:60px;"">+</div>","null","","","","","","",""
"348.6850000008126","","image-keyboard-response","253","342360","0.0-6.0-0.11","","img/blue.png","32","trial","32","true","0.6,0.4","3:go_c","",""
"null","","html-keyboard-response","254","343364","0.0-6.0-1.11","","<img src=""img/blue-n.png"" border=""10"">","null","trial","32","","0.6,0.4","3:go_c","0",""
"null","","html-keyboard-response","255","344365","0.0-6.0-2.11","","<div style=""font-size:60px;"">+</div>","null","","","","","","",""
"607.2350000031292","","image-keyboard-response","256","344975","0.0-6.0-0.12","","img/yellow.png","32","trial","32","true","0.8,0.2","1:go_a","",""
"null","","html-keyboard-response","257","345979","0.0-6.0-1.12","","<img src=""img/yellow-r.png"" border=""10"">","null","trial","32","","0.8,0.2","1:go_a","1",""
"null","","html-keyboard-response","258","346980","0.0-6.0-2.12","","<div style=""font-size:60px;"">+</div>","null","","","","","","",""
"579.0049999995972","","image-keyboard-response","259","347562","0.0-6.0-0.13","","img/blue.png","32","trial","32","true","0.6,0.4","3:go_c","",""
"null","","html-keyboard-response","260","348566","0.0-6.0-1.13","","<img src=""img/blue-r.png"" border=""10"">","null","trial","32","","0.6,0.4","3:go_c","1",""
"null","","html-keyboard-response","261","349568","0.0-6.0-2.13","","<div style=""font-size:60px;"">+</div>","null","","","","","","",""
"528.5900000017136","","image-keyboard-response","262","350097","0.0-6.0-0.14","","img/orange.png","32","trial","null","false","0.4,0.6","4:nogo_d","",""
"null","","html-keyboard-response","263","351101","0.0-6.0-1.14","","<img src=""img/orange-n.png"" border=""10"">","null","trial","null","","0.4,0.6","4:nogo_d","0",""
"null","","html-keyboard-response","264","352103","0.0-6.0-2.14","","<div style=""font-size:60px;"">+</div>","null","","","","","","",""
"null","","image-keyboard-response","265","353607","0.0-6.0-0.15","","img/green.png","null","trial","null","true","0.2,0.8","2:nogo_b","",""
"null","","html-keyboard-response","266","354611","0.0-6.0-1.15","","<img src=""img/green-r.png"">","null","trial","null","","0.2,0.8","2:nogo_b","1",""
"null","","html-keyboard-response","267","355613","0.0-6.0-2.15","","<div style=""font-size:60px;"">+</div>","null","","","","","","",""
"574.4349999986589","","image-keyboard-response","268","356190","0.0-6.0-0.16","","img/orange.png","32","trial","null","false","0.4,0.6","4:nogo_d","",""
"null","","html-keyboard-response","269","357193","0.0-6.0-1.16","","<img src=""img/orange-r.png"" border=""10"">","null","trial","null","","0.4,0.6","4:nogo_d","1",""
"null","","html-keyboard-response","270","358196","0.0-6.0-2.16","","<div style=""font-size:60px;"">+</div>","null","","","","","","",""
"416.96000000229105","","image-keyboard-response","271","358616","0.0-6.0-0.17","","img/blue.png","32","trial","32","true","0.6,0.4","3:go_c","",""
"null","","html-keyboard-response","272","359621","0.0-6.0-1.17","","<img src=""img/blue-r.png"" border=""10"">","null","trial","32","","0.6,0.4","3:go_c","1",""
"null","","html-keyboard-response","273","360623","0.0-6.0-2.17","","<div style=""font-size:60px;"">+</div>","null","","","","","","",""
"688.4400000017486","","image-keyboard-response","274","361312","0.0-6.0-0.18","","img/yellow.png","32","trial","32","true","0.8,0.2","1:go_a","",""
"null","","html-keyboard-response","275","362315","0.0-6.0-1.18","","<img src=""img/yellow-r.png"" border=""10"">","null","trial","32","","0.8,0.2","1:go_a","1",""
"null","","html-keyboard-response","276","363316","0.0-6.0-2.18","","<div style=""font-size:60px;"">+</div>","null","","","","","","",""
"null","","image-keyboard-response","277","364820","0.0-6.0-0.19","","img/green.png","null","trial","null","true","0.2,0.8","2:nogo_b","",""
"null","","html-keyboard-response","278","365824","0.0-6.0-1.19","","<img src=""img/green-r.png"">","null","trial","null","","0.2,0.8","2:nogo_b","1",""
"null","","html-keyboard-response","279","366826","0.0-6.0-2.19","","<div style=""font-size:60px;"">+</div>","null","","","","","","",""
"589.6000000029453","","image-keyboard-response","280","367418","0.0-6.0-0.20","","img/orange.png","32","trial","null","false","0.4,0.6","4:nogo_d","",""
"null","","html-keyboard-response","281","368423","0.0-6.0-1.20","","<img src=""img/orange-r.png"" border=""10"">","null","trial","null","","0.4,0.6","4:nogo_d","1",""
"null","","html-keyboard-response","282","369426","0.0-6.0-2.20","","<div style=""font-size:60px;"">+</div>","null","","","","","","",""
"671.7849999986356","","image-keyboard-response","283","370100","0.0-6.0-0.21","","img/green.png","32","trial","null","false","0.2,0.8","2:nogo_b","",""
"null","","html-keyboard-response","284","371105","0.0-6.0-1.21","","<img src=""img/green-n.png"" border=""10"">","null","trial","null","","0.2,0.8","2:nogo_b","0",""
"null","","html-keyboard-response","285","372119","0.0-6.0-2.21","","<div style=""font-size:60px;"">+</div>","null","","","","","","",""
"693.4499999988475","","image-keyboard-response","286","372815","0.0-6.0-0.22","","img/yellow.png","32","trial","32","true","0.8,0.2","1:go_a","",""
"null","","html-keyboard-response","287","373817","0.0-6.0-1.22","","<img src=""img/yellow-r.png"" border=""10"">","null","trial","32","","0.8,0.2","1:go_a","1",""
"null","","html-keyboard-response","288","374818","0.0-6.0-2.22","","<div style=""font-size:60px;"">+</div>","null","","","","","","",""
"611.1349999991944","","image-keyboard-response","289","375432","0.0-6.0-0.23","","img/blue.png","32","trial","32","true","0.6,0.4","3:go_c","",""
"null","","html-keyboard-response","290","376436","0.0-6.0-1.23","","<img src=""img/blue-r.png"" border=""10"">","null","trial","32","","0.6,0.4","3:go_c","1",""
"null","","html-keyboard-response","291","377437","0.0-6.0-2.23","","<div style=""font-size:60px;"">+</div>","null","","","","","","",""
"766.7899999978836","","image-keyboard-response","292","378206","0.0-6.0-0.24","","img/yellow.png","32","trial","32","true","0.8,0.2","1:go_a","",""
"null","","html-keyboard-response","293","379208","0.0-6.0-1.24","","<img src=""img/yellow-n.png"" border=""10"">","null","trial","32","","0.8,0.2","1:go_a","0",""
"null","","html-keyboard-response","294","380210","0.0-6.0-2.24","","<div style=""font-size:60px;"">+</div>","null","","","","","","",""
"587.0099999992526","","image-keyboard-response","295","380799","0.0-6.0-0.25","","img/blue.png","32","trial","32","true","0.6,0.4","3:go_c","",""
"null","","html-keyboard-response","296","381803","0.0-6.0-1.25","","<img src=""img/blue-r.png"" border=""10"">","null","trial","32","","0.6,0.4","3:go_c","1",""
"null","","html-keyboard-response","297","382805","0.0-6.0-2.25","","<div style=""font-size:60px;"">+</div>","null","","","","","","",""
"591.9399999984307","","image-keyboard-response","298","383399","0.0-6.0-0.26","","img/orange.png","32","trial","null","false","0.4,0.6","4:nogo_d","",""
"null","","html-keyboard-response","299","384402","0.0-6.0-1.26","","<img src=""img/orange-r.png"" border=""10"">","null","trial","null","","0.4,0.6","4:nogo_d","1",""
"null","","html-keyboard-response","300","385406","0.0-6.0-2.26","","<div style=""font-size:60px;"">+</div>","null","","","","","","",""
"null","","image-keyboard-response","301","386908","0.0-6.0-0.27","","img/green.png","null","trial","null","true","0.2,0.8","2:nogo_b","",""
"null","","html-keyboard-response","302","387912","0.0-6.0-1.27","","<img src=""img/green-r.png"">","null","trial","null","","0.2,0.8","2:nogo_b","1",""
"null","","html-keyboard-response","303","388913","0.0-6.0-2.27","","<div style=""font-size:60px;"">+</div>","null","","","","","","",""
"null","","image-keyboard-response","304","390416","0.0-6.0-0.28","","img/green.png","null","trial","null","true","0.2,0.8","2:nogo_b","",""
"null","","html-keyboard-response","305","391419","0.0-6.0-1.28","","<img src=""img/green-r.png"">","null","trial","null","","0.2,0.8","2:nogo_b","1",""
"null","","html-keyboard-response","306","392421","0.0-6.0-2.28","","<div style=""font-size:60px;"">+</div>","null","","","","","","",""
"396.6450000007171","","image-keyboard-response","307","392820","0.0-6.0-0.29","","img/orange.png","32","trial","null","false","0.4,0.6","4:nogo_d","",""
"null","","html-keyboard-response","308","393824","0.0-6.0-1.29","","<img src=""img/orange-n.png"" border=""10"">","null","trial","null","","0.4,0.6","4:nogo_d","0",""
"null","","html-keyboard-response","309","394826","0.0-6.0-2.29","","<div style=""font-size:60px;"">+</div>","null","","","","","","",""
"865.6149999987683","","image-keyboard-response","310","395693","0.0-6.0-0.30","","img/yellow.png","32","trial","32","true","0.8,0.2","1:go_a","",""
"null","","html-keyboard-response","311","396697","0.0-6.0-1.30","","<img src=""img/yellow-r.png"" border=""10"">","null","trial","32","","0.8,0.2","1:go_a","1",""
"null","","html-keyboard-response","312","397699","0.0-6.0-2.30","","<div style=""font-size:60px;"">+</div>","null","","","","","","",""
"402.1099999991129","","image-keyboard-response","313","398102","0.0-6.0-0.31","","img/blue.png","32","trial","32","true","0.6,0.4","3:go_c","",""
"null","","html-keyboard-response","314","399107","0.0-6.0-1.31","","<img src=""img/blue-r.png"" border=""10"">","null","trial","32","","0.6,0.4","3:go_c","1",""
"null","","html-keyboard-response","315","400108","0.0-6.0-2.31","","<div style=""font-size:60px;"">+</div>","null","","","","","","",""
"766.3549999997485","","image-keyboard-response","316","400877","0.0-6.0-0.32","","img/yellow.png","32","trial","32","true","0.8,0.2","1:go_a","",""
"null","","html-keyboard-response","317","401881","0.0-6.0-1.32","","<img src=""img/yellow-r.png"" border=""10"">","null","trial","32","","0.8,0.2","1:go_a","1",""
"null","","html-keyboard-response","318","402883","0.0-6.0-2.32","","<div style=""font-size:60px;"">+</div>","null","","","","","","",""
"459.4200000028359","","image-keyboard-response","319","403344","0.0-6.0-0.33","","img/blue.png","32","trial","32","true","0.6,0.4","3:go_c","",""
"null","","html-keyboard-response","320","404347","0.0-6.0-1.33","","<img src=""img/blue-n.png"" border=""10"">","null","trial","32","","0.6,0.4","3:go_c","0",""
"null","","html-keyboard-response","321","405348","0.0-6.0-2.33","","<div style=""font-size:60px;"">+</div>","null","","","","","","",""
"888.9999999991851","","image-keyboard-response","322","406240","0.0-6.0-0.34","","img/green.png","32","trial","null","false","0.2,0.8","2:nogo_b","",""
"null","","html-keyboard-response","323","407244","0.0-6.0-1.34","","<img src=""img/green-n.png"" border=""10"">","null","trial","null","","0.2,0.8","2:nogo_b","0",""
"null","","html-keyboard-response","324","408246","0.0-6.0-2.34","","<div style=""font-size:60px;"">+</div>","null","","","","","","",""
"535.5099999979138","","image-keyboard-response","325","408783","0.0-6.0-0.35","","img/orange.png","32","trial","null","false","0.4,0.6","4:nogo_d","",""
"null","","html-keyboard-response","326","409787","0.0-6.0-1.35","","<img src=""img/orange-n.png"" border=""10"">","null","trial","null","","0.4,0.6","4:nogo_d","0",""
"null","","html-keyboard-response","327","410789","0.0-6.0-2.35","","<div style=""font-size:60px;"">+</div>","null","","","","","","",""
"865.525000001071","","image-keyboard-response","328","411656","0.0-6.0-0.36","","img/green.png","32","trial","null","false","0.2,0.8","2:nogo_b","",""
"null","","html-keyboard-response","329","412660","0.0-6.0-1.36","","<img src=""img/green-n.png"" border=""10"">","null","trial","null","","0.2,0.8","2:nogo_b","0",""
"null","","html-keyboard-response","330","413662","0.0-6.0-2.36","","<div style=""font-size:60px;"">+</div>","null","","","","","","",""
"548.0100000022212","","image-keyboard-response","331","414212","0.0-6.0-0.37","","img/yellow.png","32","trial","32","true","0.8,0.2","1:go_a","",""
"null","","html-keyboard-response","332","415217","0.0-6.0-1.37","","<img src=""img/yellow-r.png"" border=""10"">","null","trial","32","","0.8,0.2","1:go_a","1",""
"null","","html-keyboard-response","333","416220","0.0-6.0-2.37","","<div style=""font-size:60px;"">+</div>","null","","","","","","",""
"641.524999999092","","image-keyboard-response","334","416863","0.0-6.0-0.38","","img/orange.png","32","trial","null","false","0.4,0.6","4:nogo_d","",""
"null","","html-keyboard-response","335","417868","0.0-6.0-1.38","","<img src=""img/orange-n.png"" border=""10"">","null","trial","null","","0.4,0.6","4:nogo_d","0",""
"null","","html-keyboard-response","336","418872","0.0-6.0-2.38","","<div style=""font-size:60px;"">+</div>","null","","","","","","",""
"548.2050000027521","","image-keyboard-response","337","419421","0.0-6.0-0.39","","img/blue.png","32","trial","32","true","0.6,0.4","3:go_c","",""
"null","","html-keyboard-response","338","420424","0.0-6.0-1.39","","<img src=""img/blue-n.png"" border=""10"">","null","trial","32","","0.6,0.4","3:go_c","0",""
"null","","html-keyboard-response","339","421426","0.0-6.0-2.39","","<div style=""font-size:60px;"">+</div>","null","","","","","","",""
"699.625000001106","","image-keyboard-response","340","422127","0.0-6.0-0.40","","img/orange.png","32","trial","null","false","0.4,0.6","4:nogo_d","",""
"null","","html-keyboard-response","341","423130","0.0-6.0-1.40","","<img src=""img/orange-n.png"" border=""10"">","null","trial","null","","0.4,0.6","4:nogo_d","0",""
"null","","html-keyboard-response","342","424133","0.0-6.0-2.40","","<div style=""font-size:60px;"">+</div>","null","","","","","","",""
"596.0899999990361","","image-keyboard-response","343","424730","0.0-6.0-0.41","","img/yellow.png","32","trial","32","true","0.8,0.2","1:go_a","",""
"null","","html-keyboard-response","344","425733","0.0-6.0-1.41","","<img src=""img/yellow-r.png"" border=""10"">","null","trial","32","","0.8,0.2","1:go_a","1",""
"null","","html-keyboard-response","345","426736","0.0-6.0-2.41","","<div style=""font-size:60px;"">+</div>","null","","","","","","",""
"null","","image-keyboard-response","346","428239","0.0-6.0-0.42","","img/green.png","null","trial","null","true","0.2,0.8","2:nogo_b","",""
"null","","html-keyboard-response","347","429241","0.0-6.0-1.42","","<img src=""img/green-r.png"">","null","trial","null","","0.2,0.8","2:nogo_b","1",""
"null","","html-keyboard-response","348","430244","0.0-6.0-2.42","","<div style=""font-size:60px;"">+</div>","null","","","","","","",""
"630.3599999991711","","image-keyboard-response","349","430877","0.0-6.0-0.43","","img/blue.png","32","trial","32","true","0.6,0.4","3:go_c","",""
"null","","html-keyboard-response","350","431881","0.0-6.0-1.43","","<img src=""img/blue-n.png"" border=""10"">","null","trial","32","","0.6,0.4","3:go_c","0",""
"null","","html-keyboard-response","351","432883","0.0-6.0-2.43","","<div style=""font-size:60px;"">+</div>","null","","","","","","",""
"606.004999997851","","image-keyboard-response","352","433491","0.0-6.0-0.44","","img/orange.png","32","trial","null","false","0.4,0.6","4:nogo_d","",""
"null","","html-keyboard-response","353","434496","0.0-6.0-1.44","","<img src=""img/orange-r.png"" border=""10"">","null","trial","null","","0.4,0.6","4:nogo_d","1",""
"null","","html-keyboard-response","354","435498","0.0-6.0-2.44","","<div style=""font-size:60px;"">+</div>","null","","","","","","",""
"null","","image-keyboard-response","355","437001","0.0-6.0-0.45","","img/green.png","null","trial","null","true","0.2,0.8","2:nogo_b","",""
"null","","html-keyboard-response","356","438004","0.0-6.0-1.45","","<img src=""img/green-r.png"">","null","trial","null","","0.2,0.8","2:nogo_b","1",""
"null","","html-keyboard-response","357","439007","0.0-6.0-2.45","","<div style=""font-size:60px;"">+</div>","null","","","","","","",""
"916.8800000007031","","image-keyboard-response","358","439926","0.0-6.0-0.46","","img/blue.png","32","trial","32","true","0.6,0.4","3:go_c","",""
"null","","html-keyboard-response","359","440929","0.0-6.0-1.46","","<img src=""img/blue-n.png"" border=""10"">","null","trial","32","","0.6,0.4","3:go_c","0",""
"null","","html-keyboard-response","360","441933","0.0-6.0-2.46","","<div style=""font-size:60px;"">+</div>","null","","","","","","",""
"467.0700000023935","","image-keyboard-response","361","442402","0.0-6.0-0.47","","img/yellow.png","32","trial","32","true","0.8,0.2","1:go_a","",""
"null","","html-keyboard-response","362","443408","0.0-6.0-1.47","","<img src=""img/yellow-n.png"" border=""10"">","null","trial","32","","0.8,0.2","1:go_a","0",""
"null","","html-keyboard-response","363","444409","0.0-6.0-2.47","","<div style=""font-size:60px;"">+</div>","null","","","","","","",""
"633.2949999996345","","image-keyboard-response","364","445044","0.0-6.0-0.48","","img/orange.png","32","trial","null","false","0.4,0.6","4:nogo_d","",""
"null","","html-keyboard-response","365","446048","0.0-6.0-1.48","","<img src=""img/orange-n.png"" border=""10"">","null","trial","null","","0.4,0.6","4:nogo_d","0",""
"null","","html-keyboard-response","366","447050","0.0-6.0-2.48","","<div style=""font-size:60px;"">+</div>","null","","","","","","",""
"533.22499999922","","image-keyboard-response","367","447585","0.0-6.0-0.49","","img/blue.png","32","trial","32","true","0.6,0.4","3:go_c","",""
"null","","html-keyboard-response","368","448589","0.0-6.0-1.49","","<img src=""img/blue-r.png"" border=""10"">","null","trial","32","","0.6,0.4","3:go_c","1",""
"null","","html-keyboard-response","369","449590","0.0-6.0-2.49","","<div style=""font-size:60px;"">+</div>","null","","","","","","",""
"787.9499999980908","","image-keyboard-response","370","450379","0.0-6.0-0.50","","img/green.png","32","trial","null","false","0.2,0.8","2:nogo_b","",""
"null","","html-keyboard-response","371","451382","0.0-6.0-1.50","","<img src=""img/green-n.png"" border=""10"">","null","trial","null","","0.2,0.8","2:nogo_b","0",""
"null","","html-keyboard-response","372","452383","0.0-6.0-2.50","","<div style=""font-size:60px;"">+</div>","null","","","","","","",""
"567.1949999996577","","image-keyboard-response","373","452953","0.0-6.0-0.51","","img/yellow.png","32","trial","32","true","0.8,0.2","1:go_a","",""
"null","","html-keyboard-response","374","453956","0.0-6.0-1.51","","<img src=""img/yellow-r.png"" border=""10"">","null","trial","32","","0.8,0.2","1:go_a","1",""
"null","","html-keyboard-response","375","454957","0.0-6.0-2.51","","<div style=""font-size:60px;"">+</div>","null","","","","","","",""
"null","","image-keyboard-response","376","456460","0.0-6.0-0.52","","img/blue.png","null","trial","32","false","0.6,0.4","3:go_c","",""
"null","","html-keyboard-response","377","457463","0.0-6.0-1.52","","<img src=""img/blue-r.png"">","null","trial","32","","0.6,0.4","3:go_c","1",""
"null","","html-keyboard-response","378","458466","0.0-6.0-2.52","","<div style=""font-size:60px;"">+</div>","null","","","","","","",""
"null","","image-keyboard-response","379","459969","0.0-6.0-0.53","","img/green.png","null","trial","null","true","0.2,0.8","2:nogo_b","",""
"null","","html-keyboard-response","380","460971","0.0-6.0-1.53","","<img src=""img/green-r.png"">","null","trial","null","","0.2,0.8","2:nogo_b","1",""
"null","","html-keyboard-response","381","461973","0.0-6.0-2.53","","<div style=""font-size:60px;"">+</div>","null","","","","","","",""
"452.88000000070315","","image-keyboard-response","382","462428","0.0-6.0-0.54","","img/yellow.png","32","trial","32","true","0.8,0.2","1:go_a","",""
"null","","html-keyboard-response","383","463430","0.0-6.0-1.54","","<img src=""img/yellow-r.png"" border=""10"">","null","trial","32","","0.8,0.2","1:go_a","1",""
"null","","html-keyboard-response","384","464440","0.0-6.0-2.54","","<div style=""font-size:60px;"">+</div>","null","","","","","","",""
"544.5199999994948","","image-keyboard-response","385","464987","0.0-6.0-0.55","","img/orange.png","32","trial","null","false","0.4,0.6","4:nogo_d","",""
"null","","html-keyboard-response","386","465991","0.0-6.0-1.55","","<img src=""img/orange-n.png"" border=""10"">","null","trial","null","","0.4,0.6","4:nogo_d","0",""
"null","","html-keyboard-response","387","466993","0.0-6.0-2.55","","<div style=""font-size:60px;"">+</div>","null","","","","","","",""
"null","","image-keyboard-response","388","468496","0.0-6.0-0.56","","img/green.png","null","trial","null","true","0.2,0.8","2:nogo_b","",""
"null","","html-keyboard-response","389","469503","0.0-6.0-1.56","","<img src=""img/green-r.png"">","null","trial","null","","0.2,0.8","2:nogo_b","1",""
"null","","html-keyboard-response","390","470506","0.0-6.0-2.56","","<div style=""font-size:60px;"">+</div>","null","","","","","","",""
"828.8899999970454","","image-keyboard-response","391","471337","0.0-6.0-0.57","","img/orange.png","32","trial","null","false","0.4,0.6","4:nogo_d","",""
"null","","html-keyboard-response","392","472341","0.0-6.0-1.57","","<img src=""img/orange-n.png"" border=""10"">","null","trial","null","","0.4,0.6","4:nogo_d","0",""
"null","","html-keyboard-response","393","473345","0.0-6.0-2.57","","<div style=""font-size:60px;"">+</div>","null","","","","","","",""
"437.92000000033295","","image-keyboard-response","394","473785","0.0-6.0-0.58","","img/yellow.png","32","trial","32","true","0.8,0.2","1:go_a","",""
"null","","html-keyboard-response","395","474789","0.0-6.0-1.58","","<img src=""img/yellow-r.png"" border=""10"">","null","trial","32","","0.8,0.2","1:go_a","1",""
"null","","html-keyboard-response","396","475791","0.0-6.0-2.58","","<div style=""font-size:60px;"">+</div>","null","","","","","","",""
"651.3200000008801","","image-keyboard-response","397","476445","0.0-6.0-0.59","","img/blue.png","32","trial","32","true","0.6,0.4","3:go_c","",""
"null","","html-keyboard-response","398","477448","0.0-6.0-1.59","","<img src=""img/blue-n.png"" border=""10"">","null","trial","32","","0.6,0.4","3:go_c","0",""
"null","","html-keyboard-response","399","478455","0.0-6.0-2.59","","<div style=""font-size:60px;"">+</div>","null","","","","","","",""
"550.984999998007","","image-keyboard-response","400","479008","0.0-6.0-0.60","","img/orange.png","32","trial","null","false","0.4,0.6","4:nogo_d","",""
"null","","html-keyboard-response","401","480013","0.0-6.0-1.60","","<img src=""img/orange-r.png"" border=""10"">","null","trial","null","","0.4,0.6","4:nogo_d","1",""
"null","","html-keyboard-response","402","481016","0.0-6.0-2.60","","<div style=""font-size:60px;"">+</div>","null","","","","","","",""
"408.1299999997718","","image-keyboard-response","403","481425","0.0-6.0-0.61","","img/yellow.png","32","trial","32","true","0.8,0.2","1:go_a","",""
"null","","html-keyboard-response","404","482427","0.0-6.0-1.61","","<img src=""img/yellow-r.png"" border=""10"">","null","trial","32","","0.8,0.2","1:go_a","1",""
"null","","html-keyboard-response","405","483429","0.0-6.0-2.61","","<div style=""font-size:60px;"">+</div>","null","","","","","","",""
"741.3449999985751","","image-keyboard-response","406","484172","0.0-6.0-0.62","","img/blue.png","32","trial","32","true","0.6,0.4","3:go_c","",""
"null","","html-keyboard-response","407","485176","0.0-6.0-1.62","","<img src=""img/blue-n.png"" border=""10"">","null","trial","32","","0.6,0.4","3:go_c","0",""
"null","","html-keyboard-response","408","486178","0.0-6.0-2.62","","<div style=""font-size:60px;"">+</div>","null","","","","","","",""
"null","","image-keyboard-response","409","487681","0.0-6.0-0.63","","img/green.png","null","trial","null","true","0.2,0.8","2:nogo_b","",""
"null","","html-keyboard-response","410","488685","0.0-6.0-1.63","","<img src=""img/green-r.png"">","null","trial","null","","0.2,0.8","2:nogo_b","1",""
"null","","html-keyboard-response","411","489698","0.0-6.0-2.63","","<div style=""font-size:60px;"">+</div>","null","","","","","","",""
"472.6599999994505","","image-keyboard-response","412","490173","0.0-6.0-0.64","","img/green.png","32","trial","null","false","0.2,0.8","2:nogo_b","",""
"null","","html-keyboard-response","413","491177","0.0-6.0-1.64","","<img src=""img/green-n.png"" border=""10"">","null","trial","null","","0.2,0.8","2:nogo_b","0",""
"null","","html-keyboard-response","414","492179","0.0-6.0-2.64","","<div style=""font-size:60px;"">+</div>","null","","","","","","",""
"553.6100000026636","","image-keyboard-response","415","492735","0.0-6.0-0.65","","img/orange.png","32","trial","null","false","0.4,0.6","4:nogo_d","",""
"null","","html-keyboard-response","416","493738","0.0-6.0-1.65","","<img src=""img/orange-n.png"" border=""10"">","null","trial","null","","0.4,0.6","4:nogo_d","0",""
"null","","html-keyboard-response","417","494740","0.0-6.0-2.65","","<div style=""font-size:60px;"">+</div>","null","","","","","","",""
"435.5500000020256","","image-keyboard-response","418","495178","0.0-6.0-0.66","","img/blue.png","32","trial","32","true","0.6,0.4","3:go_c","",""
"null","","html-keyboard-response","419","496182","0.0-6.0-1.66","","<img src=""img/blue-r.png"" border=""10"">","null","trial","32","","0.6,0.4","3:go_c","1",""
"null","","html-keyboard-response","420","497184","0.0-6.0-2.66","","<div style=""font-size:60px;"">+</div>","null","","","","","","",""
"353.50999999715714","","image-keyboard-response","421","497540","0.0-6.0-0.67","","img/yellow.png","32","trial","32","true","0.8,0.2","1:go_a","",""
"null","","html-keyboard-response","422","498544","0.0-6.0-1.67","","<img src=""img/yellow-n.png"" border=""10"">","null","trial","32","","0.8,0.2","1:go_a","0",""
"null","","html-keyboard-response","423","499546","0.0-6.0-2.67","","<div style=""font-size:60px;"">+</div>","null","","","","","","",""
"788.6300000027404","","image-keyboard-response","424","500336","0.0-6.0-0.68","","img/green.png","32","trial","null","false","0.2,0.8","2:nogo_b","",""
"null","","html-keyboard-response","425","501340","0.0-6.0-1.68","","<img src=""img/green-n.png"" border=""10"">","null","trial","null","","0.2,0.8","2:nogo_b","0",""
"null","","html-keyboard-response","426","502344","0.0-6.0-2.68","","<div style=""font-size:60px;"">+</div>","null","","","","","","",""
"774.9499999991385","","image-keyboard-response","427","503121","0.0-6.0-0.69","","img/blue.png","32","trial","32","true","0.6,0.4","3:go_c","",""
"null","","html-keyboard-response","428","504124","0.0-6.0-1.69","","<img src=""img/blue-r.png"" border=""10"">","null","trial","32","","0.6,0.4","3:go_c","1",""
"null","","html-keyboard-response","429","505126","0.0-6.0-2.69","","<div style=""font-size:60px;"">+</div>","null","","","","","","",""
"604.2650000017602","","image-keyboard-response","430","505733","0.0-6.0-0.70","","img/orange.png","32","trial","null","false","0.4,0.6","4:nogo_d","",""
"null","","html-keyboard-response","431","506736","0.0-6.0-1.70","","<img src=""img/orange-r.png"" border=""10"">","null","trial","null","","0.4,0.6","4:nogo_d","1",""
"null","","html-keyboard-response","432","507738","0.0-6.0-2.70","","<div style=""font-size:60px;"">+</div>","null","","","","","","",""
"511.3199999978533","","image-keyboard-response","433","508250","0.0-6.0-0.71","","img/yellow.png","32","trial","32","true","0.8,0.2","1:go_a","",""
"null","","html-keyboard-response","434","509253","0.0-6.0-1.71","","<img src=""img/yellow-r.png"" border=""10"">","null","trial","32","","0.8,0.2","1:go_a","1",""
"null","","html-keyboard-response","435","510254","0.0-6.0-2.71","","<div style=""font-size:60px;"">+</div>","null","","","","","","",""
"646.4299999970244","","image-keyboard-response","436","510901","0.0-6.0-0.72","","img/orange.png","32","trial","null","false","0.4,0.6","4:nogo_d","",""
"null","","html-keyboard-response","437","511906","0.0-6.0-1.72","","<img src=""img/orange-n.png"" border=""10"">","null","trial","null","","0.4,0.6","4:nogo_d","0",""
"null","","html-keyboard-response","438","512907","0.0-6.0-2.72","","<div style=""font-size:60px;"">+</div>","null","","","","","","",""
"null","","image-keyboard-response","439","514409","0.0-6.0-0.73","","img/green.png","null","trial","null","true","0.2,0.8","2:nogo_b","",""
"null","","html-keyboard-response","440","515413","0.0-6.0-1.73","","<img src=""img/green-r.png"">","null","trial","null","","0.2,0.8","2:nogo_b","1",""
"null","","html-keyboard-response","441","516414","0.0-6.0-2.73","","<div style=""font-size:60px;"">+</div>","null","","","","","","",""
"583.1549999965937","","image-keyboard-response","442","517000","0.0-6.0-0.74","","img/yellow.png","32","trial","32","true","0.8,0.2","1:go_a","",""
"null","","html-keyboard-response","443","518004","0.0-6.0-1.74","","<img src=""img/yellow-r.png"" border=""10"">","null","trial","32","","0.8,0.2","1:go_a","1",""
"null","","html-keyboard-response","444","519006","0.0-6.0-2.74","","<div style=""font-size:60px;"">+</div>","null","","","","","","",""
"null","","image-keyboard-response","445","520509","0.0-6.0-0.75","","img/blue.png","null","trial","32","false","0.6,0.4","3:go_c","",""
"null","","html-keyboard-response","446","521513","0.0-6.0-1.75","","<img src=""img/blue-r.png"">","null","trial","32","","0.6,0.4","3:go_c","1",""
"null","","html-keyboard-response","447","522515","0.0-6.0-2.75","","<div style=""font-size:60px;"">+</div>","null","","","","","","",""
"628.5500000012107","","image-keyboard-response","448","523146","0.0-6.0-0.76","","img/orange.png","32","trial","null","false","0.4,0.6","4:nogo_d","",""
"null","","html-keyboard-response","449","524150","0.0-6.0-1.76","","<img src=""img/orange-n.png"" border=""10"">","null","trial","null","","0.4,0.6","4:nogo_d","0",""
"null","","html-keyboard-response","450","525151","0.0-6.0-2.76","","<div style=""font-size:60px;"">+</div>","null","","","","","","",""
"null","","image-keyboard-response","451","526654","0.0-6.0-0.77","","img/green.png","null","trial","null","true","0.2,0.8","2:nogo_b","",""
"null","","html-keyboard-response","452","527659","0.0-6.0-1.77","","<img src=""img/green-n.png"">","null","trial","null","","0.2,0.8","2:nogo_b","0",""
"null","","html-keyboard-response","453","528672","0.0-6.0-2.77","","<div style=""font-size:60px;"">+</div>","null","","","","","","",""
"718.3750000004657","","image-keyboard-response","454","529393","0.0-6.0-0.78","","img/blue.png","32","trial","32","true","0.6,0.4","3:go_c","",""
"null","","html-keyboard-response","455","530397","0.0-6.0-1.78","","<img src=""img/blue-n.png"" border=""10"">","null","trial","32","","0.6,0.4","3:go_c","0",""
"null","","html-keyboard-response","456","531399","0.0-6.0-2.78","","<div style=""font-size:60px;"">+</div>","null","","","","","","",""
"596.2849999995669","","image-keyboard-response","457","531997","0.0-6.0-0.79","","img/yellow.png","32","trial","32","true","0.8,0.2","1:go_a","",""
"null","","html-keyboard-response","458","533002","0.0-6.0-1.79","","<img src=""img/yellow-r.png"" border=""10"">","null","trial","32","","0.8,0.2","1:go_a","1",""
"null","","html-keyboard-response","459","534003","0.0-6.0-2.79","","<div style=""font-size:60px;"">+</div>","null","","","","","","",""
"null","","image-keyboard-response","460","535507","0.0-6.0-0.80","","img/blue.png","null","trial","32","false","0.6,0.4","3:go_c","",""
"null","","html-keyboard-response","461","536511","0.0-6.0-1.80","","<img src=""img/blue-n.png"">","null","trial","32","","0.6,0.4","3:go_c","0",""
"null","","html-keyboard-response","462","537523","0.0-6.0-2.80","","<div style=""font-size:60px;"">+</div>","null","","","","","","",""
"542.1199999982491","","image-keyboard-response","463","538067","0.0-6.0-0.81","","img/yellow.png","32","trial","32","true","0.8,0.2","1:go_a","",""
"null","","html-keyboard-response","464","539073","0.0-6.0-1.81","","<img src=""img/yellow-r.png"" border=""10"">","null","trial","32","","0.8,0.2","1:go_a","1",""
"null","","html-keyboard-response","465","540075","0.0-6.0-2.81","","<div style=""font-size:60px;"">+</div>","null","","","","","","",""
"null","","image-keyboard-response","466","541578","0.0-6.0-0.82","","img/orange.png","null","trial","null","true","0.4,0.6","4:nogo_d","",""
"null","","html-keyboard-response","467","542595","0.0-6.0-1.82","","<img src=""img/orange-r.png"">","null","trial","null","","0.4,0.6","4:nogo_d","1",""
"null","","html-keyboard-response","468","543599","0.0-6.0-2.82","","<div style=""font-size:60px;"">+</div>","null","","","","","","",""
"null","","image-keyboard-response","469","545102","0.0-6.0-0.83","","img/green.png","null","trial","null","true","0.2,0.8","2:nogo_b","",""
"null","","html-keyboard-response","470","546106","0.0-6.0-1.83","","<img src=""img/green-n.png"">","null","trial","null","","0.2,0.8","2:nogo_b","0",""
"null","","html-keyboard-response","471","547109","0.0-6.0-2.83","","<div style=""font-size:60px;"">+</div>","null","","","","","","",""
"850.6400000004796","","image-keyboard-response","472","547962","0.0-6.0-0.84","","img/blue.png","32","trial","32","true","0.6,0.4","3:go_c","",""
"null","","html-keyboard-response","473","548965","0.0-6.0-1.84","","<img src=""img/blue-r.png"" border=""10"">","null","trial","32","","0.6,0.4","3:go_c","1",""
"null","","html-keyboard-response","474","549967","0.0-6.0-2.84","","<div style=""font-size:60px;"">+</div>","null","","","","","","",""
"null","","image-keyboard-response","475","551471","0.0-6.0-0.85","","img/green.png","null","trial","null","true","0.2,0.8","2:nogo_b","",""
"null","","html-keyboard-response","476","552474","0.0-6.0-1.85","","<img src=""img/green-r.png"">","null","trial","null","","0.2,0.8","2:nogo_b","1",""
"null","","html-keyboard-response","477","553477","0.0-6.0-2.85","","<div style=""font-size:60px;"">+</div>","null","","","","","","",""
"886.4050000010757","","image-keyboard-response","478","554364","0.0-6.0-0.86","","img/orange.png","32","trial","null","false","0.4,0.6","4:nogo_d","",""
"null","","html-keyboard-response","479","555368","0.0-6.0-1.86","","<img src=""img/orange-r.png"" border=""10"">","null","trial","null","","0.4,0.6","4:nogo_d","1",""
"null","","html-keyboard-response","480","556371","0.0-6.0-2.86","","<div style=""font-size:60px;"">+</div>","null","","","","","","",""
"403.89499999943655","","image-keyboard-response","481","556777","0.0-6.0-0.87","","img/yellow.png","32","trial","32","true","0.8,0.2","1:go_a","",""
"null","","html-keyboard-response","482","557782","0.0-6.0-1.87","","<img src=""img/yellow-r.png"" border=""10"">","null","trial","32","","0.8,0.2","1:go_a","1",""
"null","","html-keyboard-response","483","558783","0.0-6.0-2.87","","<div style=""font-size:60px;"">+</div>","null","","","","","","",""
"null","","image-keyboard-response","484","560286","0.0-6.0-0.88","","img/blue.png","null","trial","32","false","0.6,0.4","3:go_c","",""
"null","","html-keyboard-response","485","561291","0.0-6.0-1.88","","<img src=""img/blue-n.png"">","null","trial","32","","0.6,0.4","3:go_c","0",""
"null","","html-keyboard-response","486","562292","0.0-6.0-2.88","","<div style=""font-size:60px;"">+</div>","null","","","","","","",""
"null","","image-keyboard-response","487","563795","0.0-6.0-0.89","","img/green.png","null","trial","null","true","0.2,0.8","2:nogo_b","",""
"null","","html-keyboard-response","488","564798","0.0-6.0-1.89","","<img src=""img/green-r.png"">","null","trial","null","","0.2,0.8","2:nogo_b","1",""
"null","","html-keyboard-response","489","565802","0.0-6.0-2.89","","<div style=""font-size:60px;"">+</div>","null","","","","","","",""
"812.385000001057","","image-keyboard-response","490","566615","0.0-6.0-0.90","","img/orange.png","32","trial","null","false","0.4,0.6","4:nogo_d","",""
"null","","html-keyboard-response","491","567618","0.0-6.0-1.90","","<img src=""img/orange-r.png"" border=""10"">","null","trial","null","","0.4,0.6","4:nogo_d","1",""
"null","","html-keyboard-response","492","568621","0.0-6.0-2.90","","<div style=""font-size:60px;"">+</div>","null","","","","","","",""
"439.2499999994179","","image-keyboard-response","493","569062","0.0-6.0-0.91","","img/yellow.png","32","trial","32","true","0.8,0.2","1:go_a","",""
"null","","html-keyboard-response","494","570066","0.0-6.0-1.91","","<img src=""img/yellow-r.png"" border=""10"">","null","trial","32","","0.8,0.2","1:go_a","1",""
"null","","html-keyboard-response","495","571067","0.0-6.0-2.91","","<div style=""font-size:60px;"">+</div>","null","","","","","","",""
"711.0150000008289","","image-keyboard-response","496","571780","0.0-6.0-0.92","","img/orange.png","32","trial","null","false","0.4,0.6","4:nogo_d","",""
"null","","html-keyboard-response","497","572782","0.0-6.0-1.92","","<img src=""img/orange-n.png"" border=""10"">","null","trial","null","","0.4,0.6","4:nogo_d","0",""
"null","","html-keyboard-response","498","573784","0.0-6.0-2.92","","<div style=""font-size:60px;"">+</div>","null","","","","","","",""
"418.29499999945983","","image-keyboard-response","499","574205","0.0-6.0-0.93","","img/yellow.png","32","trial","32","true","0.8,0.2","1:go_a","",""
"null","","html-keyboard-response","500","575210","0.0-6.0-1.93","","<img src=""img/yellow-r.png"" border=""10"">","null","trial","32","","0.8,0.2","1:go_a","1",""
"null","","html-keyboard-response","501","576212","0.0-6.0-2.93","","<div style=""font-size:60px;"">+</div>","null","","","","","","",""
"null","","image-keyboard-response","502","577715","0.0-6.0-0.94","","img/green.png","null","trial","null","true","0.2,0.8","2:nogo_b","",""
"null","","html-keyboard-response","503","578717","0.0-6.0-1.94","","<img src=""img/green-r.png"">","null","trial","null","","0.2,0.8","2:nogo_b","1",""
"null","","html-keyboard-response","504","579719","0.0-6.0-2.94","","<div style=""font-size:60px;"">+</div>","null","","","","","","",""
"null","","image-keyboard-response","505","581222","0.0-6.0-0.95","","img/blue.png","null","trial","32","false","0.6,0.4","3:go_c","",""
"null","","html-keyboard-response","506","582226","0.0-6.0-1.95","","<img src=""img/blue-r.png"">","null","trial","32","","0.6,0.4","3:go_c","1",""
"null","","html-keyboard-response","507","583228","0.0-6.0-2.95","","<div style=""font-size:60px;"">+</div>","null","","","","","","",""
"890.0499999981839","","image-keyboard-response","508","584120","0.0-6.0-0.96","","img/orange.png","32","trial","null","false","0.4,0.6","4:nogo_d","",""
"null","","html-keyboard-response","509","585123","0.0-6.0-1.96","","<img src=""img/orange-n.png"" border=""10"">","null","trial","null","","0.4,0.6","4:nogo_d","0",""
"null","","html-keyboard-response","510","586126","0.0-6.0-2.96","","<div style=""font-size:60px;"">+</div>","null","","","","","","",""
"404.4099999992177","","image-keyboard-response","511","586532","0.0-6.0-0.97","","img/yellow.png","32","trial","32","true","0.8,0.2","1:go_a","",""
"null","","html-keyboard-response","512","587536","0.0-6.0-1.97","","<img src=""img/yellow-r.png"" border=""10"">","null","trial","32","","0.8,0.2","1:go_a","1",""
"null","","html-keyboard-response","513","588538","0.0-6.0-2.97","","<div style=""font-size:60px;"">+</div>","null","","","","","","",""
"null","","image-keyboard-response","514","590041","0.0-6.0-0.98","","img/blue.png","null","trial","32","false","0.6,0.4","3:go_c","",""
"null","","html-keyboard-response","515","591045","0.0-6.0-1.98","","<img src=""img/blue-r.png"">","null","trial","32","","0.6,0.4","3:go_c","1",""
"null","","html-keyboard-response","516","592047","0.0-6.0-2.98","","<div style=""font-size:60px;"">+</div>","null","","","","","","",""
"null","","image-keyboard-response","517","593550","0.0-6.0-0.99","","img/green.png","null","trial","null","true","0.2,0.8","2:nogo_b","",""
"null","","html-keyboard-response","518","594554","0.0-6.0-1.99","","<img src=""img/green-r.png"">","null","trial","null","","0.2,0.8","2:nogo_b","1",""
"null","","html-keyboard-response","519","595556","0.0-6.0-2.99","","<div style=""font-size:60px;"">+</div>","null","","","","","","",""
"null","","image-keyboard-response","520","597059","0.0-6.0-0.100","","img/green.png","null","trial","null","true","0.2,0.8","2:nogo_b","",""
"null","","html-keyboard-response","521","598064","0.0-6.0-1.100","","<img src=""img/green-r.png"">","null","trial","null","","0.2,0.8","2:nogo_b","1",""
"null","","html-keyboard-response","522","599070","0.0-6.0-2.100","","<div style=""font-size:60px;"">+</div>","null","","","","","","",""
"null","","image-keyboard-response","523","600573","0.0-6.0-0.101","","img/blue.png","null","trial","32","false","0.6,0.4","3:go_c","",""
"null","","html-keyboard-response","524","601575","0.0-6.0-1.101","","<img src=""img/blue-n.png"">","null","trial","32","","0.6,0.4","3:go_c","0",""
"null","","html-keyboard-response","525","602591","0.0-6.0-2.101","","<div style=""font-size:60px;"">+</div>","null","","","","","","",""
"395.6849999994738","","image-keyboard-response","526","602988","0.0-6.0-0.102","","img/yellow.png","32","trial","32","true","0.8,0.2","1:go_a","",""
"null","","html-keyboard-response","527","603994","0.0-6.0-1.102","","<img src=""img/yellow-r.png"" border=""10"">","null","trial","32","","0.8,0.2","1:go_a","1",""
"null","","html-keyboard-response","528","604996","0.0-6.0-2.102","","<div style=""font-size:60px;"">+</div>","null","","","","","","",""
"null","","image-keyboard-response","529","606499","0.0-6.0-0.103","","img/orange.png","null","trial","null","true","0.4,0.6","4:nogo_d","",""
"null","","html-keyboard-response","530","607503","0.0-6.0-1.103","","<img src=""img/orange-n.png"">","null","trial","null","","0.4,0.6","4:nogo_d","0",""
"null","","html-keyboard-response","531","608505","0.0-6.0-2.103","","<div style=""font-size:60px;"">+</div>","null","","","","","","",""
"411.0550000005169","","image-keyboard-response","532","608917","0.0-6.0-0.104","","img/yellow.png","32","trial","32","true","0.8,0.2","1:go_a","",""
"null","","html-keyboard-response","533","609921","0.0-6.0-1.104","","<img src=""img/yellow-r.png"" border=""10"">","null","trial","32","","0.8,0.2","1:go_a","1",""
"null","","html-keyboard-response","534","610922","0.0-6.0-2.104","","<div style=""font-size:60px;"">+</div>","null","","","","","","",""
"null","","image-keyboard-response","535","612425","0.0-6.0-0.105","","img/blue.png","null","trial","32","false","0.6,0.4","3:go_c","",""
"null","","html-keyboard-response","536","613429","0.0-6.0-1.105","","<img src=""img/blue-n.png"">","null","trial","32","","0.6,0.4","3:go_c","0",""
"null","","html-keyboard-response","537","614431","0.0-6.0-2.105","","<div style=""font-size:60px;"">+</div>","null","","","","","","",""
"null","","image-keyboard-response","538","615933","0.0-6.0-0.106","","img/orange.png","null","trial","null","true","0.4,0.6","4:nogo_d","",""
"null","","html-keyboard-response","539","616937","0.0-6.0-1.106","","<img src=""img/orange-n.png"">","null","trial","null","","0.4,0.6","4:nogo_d","0",""
"null","","html-keyboard-response","540","617938","0.0-6.0-2.106","","<div style=""font-size:60px;"">+</div>","null","","","","","","",""
"null","","image-keyboard-response","541","619441","0.0-6.0-0.107","","img/green.png","null","trial","null","true","0.2,0.8","2:nogo_b","",""
"null","","html-keyboard-response","542","620444","0.0-6.0-1.107","","<img src=""img/green-r.png"">","null","trial","null","","0.2,0.8","2:nogo_b","1",""
"null","","html-keyboard-response","543","621446","0.0-6.0-2.107","","<div style=""font-size:60px;"">+</div>","null","","","","","","",""
"null","","image-keyboard-response","544","622950","0.0-6.0-0.108","","img/green.png","null","trial","null","true","0.2,0.8","2:nogo_b","",""
"null","","html-keyboard-response","545","623954","0.0-6.0-1.108","","<img src=""img/green-r.png"">","null","trial","null","","0.2,0.8","2:nogo_b","1",""
"null","","html-keyboard-response","546","624971","0.0-6.0-2.108","","<div style=""font-size:60px;"">+</div>","null","","","","","","",""
"null","","image-keyboard-response","547","626474","0.0-6.0-0.109","","img/blue.png","null","trial","32","false","0.6,0.4","3:go_c","",""
"null","","html-keyboard-response","548","627478","0.0-6.0-1.109","","<img src=""img/blue-r.png"">","null","trial","32","","0.6,0.4","3:go_c","1",""
"null","","html-keyboard-response","549","628479","0.0-6.0-2.109","","<div style=""font-size:60px;"">+</div>","null","","","","","","",""
"393.759999999078","","image-keyboard-response","550","628874","0.0-6.0-0.110","","img/yellow.png","32","trial","32","true","0.8,0.2","1:go_a","",""
"null","","html-keyboard-response","551","629879","0.0-6.0-1.110","","<img src=""img/yellow-r.png"" border=""10"">","null","trial","32","","0.8,0.2","1:go_a","1",""
"null","","html-keyboard-response","552","630882","0.0-6.0-2.110","","<div style=""font-size:60px;"">+</div>","null","","","","","","",""
"null","","image-keyboard-response","553","632384","0.0-6.0-0.111","","img/orange.png","null","trial","null","true","0.4,0.6","4:nogo_d","",""
"null","","html-keyboard-response","554","633387","0.0-6.0-1.111","","<img src=""img/orange-r.png"">","null","trial","null","","0.4,0.6","4:nogo_d","1",""
"null","","html-keyboard-response","555","634388","0.0-6.0-2.111","","<div style=""font-size:60px;"">+</div>","null","","","","","","",""
"null","","image-keyboard-response","556","635890","0.0-6.0-0.112","","img/blue.png","null","trial","32","false","0.6,0.4","3:go_c","",""
"null","","html-keyboard-response","557","636894","0.0-6.0-1.112","","<img src=""img/blue-n.png"">","null","trial","32","","0.6,0.4","3:go_c","0",""
"null","","html-keyboard-response","558","637897","0.0-6.0-2.112","","<div style=""font-size:60px;"">+</div>","null","","","","","","",""
"null","","image-keyboard-response","559","639399","0.0-6.0-0.113","","img/orange.png","null","trial","null","true","0.4,0.6","4:nogo_d","",""
"null","","html-keyboard-response","560","640401","0.0-6.0-1.113","","<img src=""img/orange-r.png"">","null","trial","null","","0.4,0.6","4:nogo_d","1",""
"null","","html-keyboard-response","561","641402","0.0-6.0-2.113","","<div style=""font-size:60px;"">+</div>","null","","","","","","",""
"351.0949999981094","","image-keyboard-response","562","641755","0.0-6.0-0.114","","img/yellow.png","32","trial","32","true","0.8,0.2","1:go_a","",""
"null","","html-keyboard-response","563","642758","0.0-6.0-1.114","","<img src=""img/yellow-r.png"" border=""10"">","null","trial","32","","0.8,0.2","1:go_a","1",""
"null","","html-keyboard-response","564","643768","0.0-6.0-2.114","","<div style=""font-size:60px;"">+</div>","null","","","","","","",""
"545.6300000005867","","image-keyboard-response","565","644316","0.0-6.0-0.115","","img/green.png","32","trial","null","false","0.2,0.8","2:nogo_b","",""
"null","","html-keyboard-response","566","645320","0.0-6.0-1.115","","<img src=""img/green-n.png"" border=""10"">","null","trial","null","","0.2,0.8","2:nogo_b","0",""
"null","","html-keyboard-response","567","646322","0.0-6.0-2.115","","<div style=""font-size:60px;"">+</div>","null","","","","","","",""
"null","","image-keyboard-response","568","647825","0.0-6.0-0.116","","img/blue.png","null","trial","32","false","0.6,0.4","3:go_c","",""
"null","","html-keyboard-response","569","648828","0.0-6.0-1.116","","<img src=""img/blue-n.png"">","null","trial","32","","0.6,0.4","3:go_c","0",""
"null","","html-keyboard-response","570","649830","0.0-6.0-2.116","","<div style=""font-size:60px;"">+</div>","null","","","","","","",""
"null","","image-keyboard-response","571","651333","0.0-6.0-0.117","","img/orange.png","null","trial","null","true","0.4,0.6","4:nogo_d","",""
"null","","html-keyboard-response","572","652337","0.0-6.0-1.117","","<img src=""img/orange-r.png"">","null","trial","null","","0.4,0.6","4:nogo_d","1",""
"null","","html-keyboard-response","573","653338","0.0-6.0-2.117","","<div style=""font-size:60px;"">+</div>","null","","","","","","",""
"364.7300000011455","","image-keyboard-response","574","653707","0.0-6.0-0.118","","img/yellow.png","32","trial","32","true","0.8,0.2","1:go_a","",""
"null","","html-keyboard-response","575","654711","0.0-6.0-1.118","","<img src=""img/yellow-r.png"" border=""10"">","null","trial","32","","0.8,0.2","1:go_a","1",""
"null","","html-keyboard-response","576","655726","0.0-6.0-2.118","","<div style=""font-size:60px;"">+</div>","null","","","","","","",""
"null","","image-keyboard-response","577","657229","0.0-6.0-0.119","","img/green.png","null","trial","null","true","0.2,0.8","2:nogo_b","",""
"null","","html-keyboard-response","578","658239","0.0-6.0-1.119","","<img src=""img/green-r.png"">","null","trial","null","","0.2,0.8","2:nogo_b","1",""
"null","","html-keyboard-response","579","659251","0.0-6.0-2.119","","<div style=""font-size:60px;"">+</div>","null","","","","","","",""
"2870.555000001332","","instructions","580","662122","0.0-7.0","[{""page_index"":0,""viewing_time"":2870.2550000016345}]","","","","","","","","",""
"1106.5600000000559","","image-keyboard-response","581","663231","0.0-8.0-0.0","","img/purple.png","32","trial","32","true","0.6,0.4","3:go_c","",""
"null","","html-keyboard-response","582","664233","0.0-8.0-1.0","","<img src=""img/purple-r.png"" border=""10"">","null","trial","32","","0.6,0.4","3:go_c","1",""
"null","","html-keyboard-response","583","665235","0.0-8.0-2.0","","<div style=""font-size:60px;"">+</div>","null","","","","","","",""
"987.0850000006612","","image-keyboard-response","584","666224","0.0-8.0-0.1","","img/green.png","32","trial","null","false","0.4,0.6","2:nogo_b","",""
"null","","html-keyboard-response","585","667229","0.0-8.0-1.1","","<img src=""img/green-n.png"" border=""10"">","null","trial","null","","0.4,0.6","2:nogo_b","0",""
"null","","html-keyboard-response","586","668231","0.0-8.0-2.1","","<div style=""font-size:60px;"">+</div>","null","","","","","","",""
"571.4800000023097","","image-keyboard-response","587","668804","0.0-8.0-0.2","","img/pink.png","32","trial","32","true","0.6,0.4","1:go_a","",""
"null","","html-keyboard-response","588","669809","0.0-8.0-1.2","","<img src=""img/pink-r.png"" border=""10"">","null","trial","32","","0.6,0.4","1:go_a","1",""
"null","","html-keyboard-response","589","670811","0.0-8.0-2.2","","<div style=""font-size:60px;"">+</div>","null","","","","","","",""
"694.4149999980582","","image-keyboard-response","590","671508","0.0-8.0-0.3","","img/red.png","32","trial","null","false","0.4,0.6","4:nogo_d","",""
"null","","html-keyboard-response","591","672512","0.0-8.0-1.3","","<img src=""img/red-n.png"" border=""10"">","null","trial","null","","0.4,0.6","4:nogo_d","0",""
"null","","html-keyboard-response","592","673514","0.0-8.0-2.3","","<div style=""font-size:60px;"">+</div>","null","","","","","","",""
"null","","image-keyboard-response","593","675016","0.0-8.0-0.4","","img/red.png","null","trial","null","true","0.4,0.6","4:nogo_d","",""
"null","","html-keyboard-response","594","676020","0.0-8.0-1.4","","<img src=""img/red-r.png"">","null","trial","null","","0.4,0.6","4:nogo_d","1",""
"null","","html-keyboard-response","595","677023","0.0-8.0-2.4","","<div style=""font-size:60px;"">+</div>","null","","","","","","",""
"1044.5399999989895","","image-keyboard-response","596","678070","0.0-8.0-0.5","","img/green.png","32","trial","null","false","0.4,0.6","2:nogo_b","",""
"null","","html-keyboard-response","597","679073","0.0-8.0-1.5","","<img src=""img/green-n.png"" border=""10"">","null","trial","null","","0.4,0.6","2:nogo_b","0",""
"null","","html-keyboard-response","598","680076","0.0-8.0-2.5","","<div style=""font-size:60px;"">+</div>","null","","","","","","",""
"655.6049999999814","","image-keyboard-response","599","680734","0.0-8.0-0.6","","img/purple.png","32","trial","32","true","0.6,0.4","3:go_c","",""
"null","","html-keyboard-response","600","681738","0.0-8.0-1.6","","<img src=""img/purple-n.png"" border=""10"">","null","trial","32","","0.6,0.4","3:go_c","0",""
"null","","html-keyboard-response","601","682741","0.0-8.0-2.6","","<div style=""font-size:60px;"">+</div>","null","","","","","","",""
"410.2600000005914","","image-keyboard-response","602","683153","0.0-8.0-0.7","","img/pink.png","32","trial","32","true","0.6,0.4","1:go_a","",""
"null","","html-keyboard-response","603","684157","0.0-8.0-1.7","","<img src=""img/pink-r.png"" border=""10"">","null","trial","32","","0.6,0.4","1:go_a","1",""
"null","","html-keyboard-response","604","685159","0.0-8.0-2.7","","<div style=""font-size:60px;"">+</div>","null","","","","","","",""
"681.7750000009546","","image-keyboard-response","605","685843","0.0-8.0-0.8","","img/green.png","32","trial","null","false","0.4,0.6","2:nogo_b","",""
"null","","html-keyboard-response","606","686848","0.0-8.0-1.8","","<img src=""img/green-r.png"" border=""10"">","null","trial","null","","0.4,0.6","2:nogo_b","1",""
"null","","html-keyboard-response","607","687850","0.0-8.0-2.8","","<div style=""font-size:60px;"">+</div>","null","","","","","","",""
"594.7950000008568","","image-keyboard-response","608","688446","0.0-8.0-0.9","","img/purple.png","32","trial","32","true","0.6,0.4","3:go_c","",""
"null","","html-keyboard-response","609","689451","0.0-8.0-1.9","","<img src=""img/purple-n.png"" border=""10"">","null","trial","32","","0.6,0.4","3:go_c","0",""
"null","","html-keyboard-response","610","690453","0.0-8.0-2.9","","<div style=""font-size:60px;"">+</div>","null","","","","","","",""
"986.3550000009127","","image-keyboard-response","611","691440","0.0-8.0-0.10","","img/red.png","32","trial","null","false","0.4,0.6","4:nogo_d","",""
"null","","html-keyboard-response","612","692443","0.0-8.0-1.10","","<img src=""img/red-n.png"" border=""10"">","null","trial","null","","0.4,0.6","4:nogo_d","0",""
"null","","html-keyboard-response","613","693446","0.0-8.0-2.10","","<div style=""font-size:60px;"">+</div>","null","","","","","","",""
"506.7049999998417","","image-keyboard-response","614","693955","0.0-8.0-0.11","","img/pink.png","32","trial","32","true","0.6,0.4","1:go_a","",""
"null","","html-keyboard-response","615","694959","0.0-8.0-1.11","","<img src=""img/pink-r.png"" border=""10"">","null","trial","32","","0.6,0.4","1:go_a","1",""
"null","","html-keyboard-response","616","695973","0.0-8.0-2.11","","<div style=""font-size:60px;"">+</div>","null","","","","","","",""
"444.0199999989709","","image-keyboard-response","617","696420","0.0-8.0-0.12","","img/pink.png","32","trial","32","true","0.6,0.4","1:go_a","",""
"null","","html-keyboard-response","618","697424","0.0-8.0-1.12","","<img src=""img/pink-r.png"" border=""10"">","null","trial","32","","0.6,0.4","1:go_a","1",""
"null","","html-keyboard-response","619","698426","0.0-8.0-2.12","","<div style=""font-size:60px;"">+</div>","null","","","","","","",""
"null","","image-keyboard-response","620","699927","0.0-8.0-0.13","","img/purple.png","null","trial","32","false","0.6,0.4","3:go_c","",""
"null","","html-keyboard-response","621","700931","0.0-8.0-1.13","","<img src=""img/purple-n.png"">","null","trial","32","","0.6,0.4","3:go_c","0",""
"null","","html-keyboard-response","622","701933","0.0-8.0-2.13","","<div style=""font-size:60px;"">+</div>","null","","","","","","",""
"null","","image-keyboard-response","623","703436","0.0-8.0-0.14","","img/red.png","null","trial","null","true","0.4,0.6","4:nogo_d","",""
"null","","html-keyboard-response","624","704438","0.0-8.0-1.14","","<img src=""img/red-r.png"">","null","trial","null","","0.4,0.6","4:nogo_d","1",""
"null","","html-keyboard-response","625","705441","0.0-8.0-2.14","","<div style=""font-size:60px;"">+</div>","null","","","","","","",""
"null","","image-keyboard-response","626","706944","0.0-8.0-0.15","","img/green.png","null","trial","null","true","0.4,0.6","2:nogo_b","",""
"null","","html-keyboard-response","627","707946","0.0-8.0-1.15","","<img src=""img/green-r.png"">","null","trial","null","","0.4,0.6","2:nogo_b","1",""
"null","","html-keyboard-response","628","708947","0.0-8.0-2.15","","<div style=""font-size:60px;"">+</div>","null","","","","","","",""
"null","","image-keyboard-response","629","710450","0.0-8.0-0.16","","img/green.png","null","trial","null","true","0.4,0.6","2:nogo_b","",""
"null","","html-keyboard-response","630","711454","0.0-8.0-1.16","","<img src=""img/green-n.png"">","null","trial","null","","0.4,0.6","2:nogo_b","0",""
"null","","html-keyboard-response","631","712456","0.0-8.0-2.16","","<div style=""font-size:60px;"">+</div>","null","","","","","","",""
"558.2099999992643","","image-keyboard-response","632","713017","0.0-8.0-0.17","","img/red.png","32","trial","null","false","0.4,0.6","4:nogo_d","",""
"null","","html-keyboard-response","633","714023","0.0-8.0-1.17","","<img src=""img/red-r.png"" border=""10"">","null","trial","null","","0.4,0.6","4:nogo_d","1",""
"null","","html-keyboard-response","634","715026","0.0-8.0-2.17","","<div style=""font-size:60px;"">+</div>","null","","","","","","",""
"450.5199999985052","","image-keyboard-response","635","715479","0.0-8.0-0.18","","img/pink.png","32","trial","32","true","0.6,0.4","1:go_a","",""
"null","","html-keyboard-response","636","716483","0.0-8.0-1.18","","<img src=""img/pink-n.png"" border=""10"">","null","trial","32","","0.6,0.4","1:go_a","0",""
"null","","html-keyboard-response","637","717485","0.0-8.0-2.18","","<div style=""font-size:60px;"">+</div>","null","","","","","","",""
"null","","image-keyboard-response","638","718996","0.0-8.0-0.19","","img/purple.png","null","trial","32","false","0.6,0.4","3:go_c","",""
"null","","html-keyboard-response","639","720005","0.0-8.0-1.19","","<img src=""img/purple-n.png"">","null","trial","32","","0.6,0.4","3:go_c","0",""
"null","","html-keyboard-response","640","721007","0.0-8.0-2.19","","<div style=""font-size:60px;"">+</div>","null","","","","","","",""
"null","","image-keyboard-response","641","722508","0.0-8.0-0.20","","img/green.png","null","trial","null","true","0.4,0.6","2:nogo_b","",""
"null","","html-keyboard-response","642","723512","0.0-8.0-1.20","","<img src=""img/green-r.png"">","null","trial","null","","0.4,0.6","2:nogo_b","1",""
"null","","html-keyboard-response","643","724514","0.0-8.0-2.20","","<div style=""font-size:60px;"">+</div>","null","","","","","","",""
"557.2499999980209","","image-keyboard-response","644","725073","0.0-8.0-0.21","","img/pink.png","32","trial","32","true","0.6,0.4","1:go_a","",""
"null","","html-keyboard-response","645","726076","0.0-8.0-1.21","","<img src=""img/pink-r.png"" border=""10"">","null","trial","32","","0.6,0.4","1:go_a","1",""
"null","","html-keyboard-response","646","727078","0.0-8.0-2.21","","<div style=""font-size:60px;"">+</div>","null","","","","","","",""
"369.9499999966938","","image-keyboard-response","647","727450","0.0-8.0-0.22","","img/red.png","32","trial","null","false","0.4,0.6","4:nogo_d","",""
"null","","html-keyboard-response","648","728454","0.0-8.0-1.22","","<img src=""img/red-n.png"" border=""10"">","null","trial","null","","0.4,0.6","4:nogo_d","0",""
"null","","html-keyboard-response","649","729456","0.0-8.0-2.22","","<div style=""font-size:60px;"">+</div>","null","","","","","","",""
"null","","image-keyboard-response","650","730958","0.0-8.0-0.23","","img/purple.png","null","trial","32","false","0.6,0.4","3:go_c","",""
"null","","html-keyboard-response","651","731962","0.0-8.0-1.23","","<img src=""img/purple-r.png"">","null","trial","32","","0.6,0.4","3:go_c","1",""
"null","","html-keyboard-response","652","732965","0.0-8.0-2.23","","<div style=""font-size:60px;"">+</div>","null","","","","","","",""
"621.7999999971362","","image-keyboard-response","653","733589","0.0-8.0-0.24","","img/red.png","32","trial","null","false","0.4,0.6","4:nogo_d","",""
"null","","html-keyboard-response","654","734595","0.0-8.0-1.24","","<img src=""img/red-n.png"" border=""10"">","null","trial","null","","0.4,0.6","4:nogo_d","0",""
"null","","html-keyboard-response","655","735597","0.0-8.0-2.24","","<div style=""font-size:60px;"">+</div>","null","","","","","","",""
"415.73000000056345","","image-keyboard-response","656","736015","0.0-8.0-0.25","","img/pink.png","32","trial","32","true","0.6,0.4","1:go_a","",""
"null","","html-keyboard-response","657","737019","0.0-8.0-1.25","","<img src=""img/pink-r.png"" border=""10"">","null","trial","32","","0.6,0.4","1:go_a","1",""
"null","","html-keyboard-response","658","738025","0.0-8.0-2.25","","<div style=""font-size:60px;"">+</div>","null","","","","","","",""
"null","","image-keyboard-response","659","739527","0.0-8.0-0.26","","img/purple.png","null","trial","32","false","0.6,0.4","3:go_c","",""
"null","","html-keyboard-response","660","740532","0.0-8.0-1.26","","<img src=""img/purple-n.png"">","null","trial","32","","0.6,0.4","3:go_c","0",""
"null","","html-keyboard-response","661","741534","0.0-8.0-2.26","","<div style=""font-size:60px;"">+</div>","null","","","","","","",""
"null","","image-keyboard-response","662","743038","0.0-8.0-0.27","","img/green.png","null","trial","null","true","0.4,0.6","2:nogo_b","",""
"null","","html-keyboard-response","663","744041","0.0-8.0-1.27","","<img src=""img/green-r.png"">","null","trial","null","","0.4,0.6","2:nogo_b","1",""
"null","","html-keyboard-response","664","745044","0.0-8.0-2.27","","<div style=""font-size:60px;"">+</div>","null","","","","","","",""
"null","","image-keyboard-response","665","746546","0.0-8.0-0.28","","img/red.png","null","trial","null","true","0.4,0.6","4:nogo_d","",""
"null","","html-keyboard-response","666","747551","0.0-8.0-1.28","","<img src=""img/red-r.png"">","null","trial","null","","0.4,0.6","4:nogo_d","1",""
"null","","html-keyboard-response","667","748553","0.0-8.0-2.28","","<div style=""font-size:60px;"">+</div>","null","","","","","","",""
"350.51000000012573","","image-keyboard-response","668","748905","0.0-8.0-0.29","","img/pink.png","32","trial","32","true","0.6,0.4","1:go_a","",""
"null","","html-keyboard-response","669","749907","0.0-8.0-1.29","","<img src=""img/pink-r.png"" border=""10"">","null","trial","32","","0.6,0.4","1:go_a","1",""
"null","","html-keyboard-response","670","750910","0.0-8.0-2.29","","<div style=""font-size:60px;"">+</div>","null","","","","","","",""
"null","","image-keyboard-response","671","752412","0.0-8.0-0.30","","img/green.png","null","trial","null","true","0.4,0.6","2:nogo_b","",""
"null","","html-keyboard-response","672","753419","0.0-8.0-1.30","","<img src=""img/green-r.png"">","null","trial","null","","0.4,0.6","2:nogo_b","1",""
"null","","html-keyboard-response","673","754420","0.0-8.0-2.30","","<div style=""font-size:60px;"">+</div>","null","","","","","","",""
"null","","image-keyboard-response","674","755937","0.0-8.0-0.31","","img/purple.png","null","trial","32","false","0.6,0.4","3:go_c","",""
