"rt","url","trial_type","trial_index","time_elapsed","internal_node_id","view_history","stimulus","key_press","test_part","correct_response","correct","use_rew","which_stim","reward","responses"
"6308.200000017881","consent.html","external-html","0","6394","0.0-0.0","","","","","","","","","",""
"123122","","instructions","1","129517","0.0-1.0","[{""page_index"":0,""viewing_time"":10073.300000011921},{""page_index"":1,""viewing_time"":27473.5},{""page_index"":2,""viewing_time"":7430.5999999940395},{""page_index"":3,""viewing_time"":35694.5},{""page_index"":4,""viewing_time"":18706.5},{""page_index"":5,""viewing_time"":8023},{""page_index"":6,""viewing_time"":15719.800000011921}]","","","","","","","","",""
"null","","image-keyboard-response","2","131018","0.0-2.0-0.0","","img/test3.PNG","null","practice","null","true","","","",""
"null","","html-keyboard-response","3","132022","0.0-2.0-1.0","","<img src=""img/test3-reward.PNG"">","null","","","","","","",""
"null","","html-keyboard-response","4","133038","0.0-2.0-2.0","","<div style=""font-size:60px;"">+</div>","null","","","","","","",""
"null","","image-keyboard-response","5","134546","0.0-2.0-0.1","","img/test2.PNG","null","practice","null","true","","","",""
"null","","html-keyboard-response","6","135558","0.0-2.0-1.1","","<img src=""img/test2-reward.PNG"">","null","","","","","","",""
"null","","html-keyboard-response","7","136562","0.0-2.0-2.1","","<div style=""font-size:60px;"">+</div>","null","","","","","","",""
"367.80000001192093","","image-keyboard-response","8","136931","0.0-2.0-0.2","","img/test1.PNG","32","practice","32","true","","","",""
"null","","html-keyboard-response","9","137941","0.0-2.0-1.2","","<img src=""img/test1-reward.PNG"" border=""10px; grey"">","null","","","","","","",""
"null","","html-keyboard-response","10","138945","0.0-2.0-2.2","","<div style=""font-size:60px;"">+</div>","null","","","","","","",""
"592.8999999761581","","image-keyboard-response","11","139538","0.0-2.0-0.3","","img/test1.PNG","32","practice","32","true","","","",""
"null","","html-keyboard-response","12","140544","0.0-2.0-1.3","","<img src=""img/test1-reward.PNG"" border=""10px; grey"">","null","","","","","","",""
"null","","html-keyboard-response","13","141547","0.0-2.0-2.3","","<div style=""font-size:60px;"">+</div>","null","","","","","","",""
"null","","image-keyboard-response","14","143053","0.0-2.0-0.4","","img/test3.PNG","null","practice","null","true","","","",""
"null","","html-keyboard-response","15","144061","0.0-2.0-1.4","","<img src=""img/test3-reward.PNG"">","null","","","","","","",""
"null","","html-keyboard-response","16","145061","0.0-2.0-2.4","","<div style=""font-size:60px;"">+</div>","null","","","","","","",""
"null","","image-keyboard-response","17","146574","0.0-2.0-0.5","","img/test2.PNG","null","practice","null","true","","","",""
"null","","html-keyboard-response","18","147590","0.0-2.0-1.5","","<img src=""img/test2-reward.PNG"">","null","","","","","","",""
"null","","html-keyboard-response","19","148604","0.0-2.0-2.5","","<div style=""font-size:60px;"">+</div>","null","","","","","","",""
"420.90000000596046","","image-keyboard-response","20","149026","0.0-2.0-0.6","","img/test1.PNG","32","practice","32","true","","","",""
"null","","html-keyboard-response","21","150031","0.0-2.0-1.6","","<img src=""img/test1-reward.PNG"" border=""10px; grey"">","null","","","","","","",""
"null","","html-keyboard-response","22","151037","0.0-2.0-2.6","","<div style=""font-size:60px;"">+</div>","null","","","","","","",""
"null","","image-keyboard-response","23","152539","0.0-2.0-0.7","","img/test3.PNG","null","practice","null","true","","","",""
"null","","html-keyboard-response","24","153545","0.0-2.0-1.7","","<img src=""img/test3-reward.PNG"">","null","","","","","","",""
"null","","html-keyboard-response","25","154550","0.0-2.0-2.7","","<div style=""font-size:60px;"">+</div>","null","","","","","","",""
"null","","image-keyboard-response","26","156055","0.0-2.0-0.8","","img/test2.PNG","null","practice","null","true","","","",""
"null","","html-keyboard-response","27","157057","0.0-2.0-1.8","","<img src=""img/test2-reward.PNG"">","null","","","","","","",""
"null","","html-keyboard-response","28","158072","0.0-2.0-2.8","","<div style=""font-size:60px;"">+</div>","null","","","","","","",""
"null","","image-keyboard-response","29","159579","0.0-2.0-0.9","","img/test3.PNG","null","practice","null","true","","","",""
"null","","html-keyboard-response","30","160579","0.0-2.0-1.9","","<img src=""img/test3-reward.PNG"">","null","","","","","","",""
"null","","html-keyboard-response","31","161580","0.0-2.0-2.9","","<div style=""font-size:60px;"">+</div>","null","","","","","","",""
"365.39999997615814","","image-keyboard-response","32","161946","0.0-2.0-0.10","","img/test1.PNG","32","practice","32","true","","","",""
"null","","html-keyboard-response","33","162957","0.0-2.0-1.10","","<img src=""img/test1-reward.PNG"" border=""10px; grey"">","null","","","","","","",""
"null","","html-keyboard-response","34","163959","0.0-2.0-2.10","","<div style=""font-size:60px;"">+</div>","null","","","","","","",""
"null","","image-keyboard-response","35","165466","0.0-2.0-0.11","","img/test2.PNG","null","practice","null","true","","","",""
"null","","html-keyboard-response","36","166473","0.0-2.0-1.11","","<img src=""img/test2-reward.PNG"">","null","","","","","","",""
"null","","html-keyboard-response","37","167478","0.0-2.0-2.11","","<div style=""font-size:60px;"">+</div>","null","","","","","","",""
"2881.4000000059605","","instructions","38","170360","0.0-3.0","[{""page_index"":0,""viewing_time"":2881.199999988079}]","","","","","","","","",""
"609.2999999821186","","image-keyboard-response","39","170970","0.0-4.0-0.0","","img/red.png","32","trial","32","true","0.8,0.2","1:go_a","",""
"null","","html-keyboard-response","40","171983","0.0-4.0-1.0","","<img src=""img/red-r.png"" border=""10"">","null","trial","32","","0.8,0.2","1:go_a","1",""
"null","","html-keyboard-response","41","172989","0.0-4.0-2.0","","<div style=""font-size:60px;"">+</div>","null","","","","","","",""
"732.5","","image-keyboard-response","42","173722","0.0-4.0-0.1","","img/grey.png","32","trial","null","false","0.2,0.8","2:nogo_b","",""
"null","","html-keyboard-response","43","174729","0.0-4.0-1.1","","<img src=""img/grey-n.png"" border=""10"">","null","trial","null","","0.2,0.8","2:nogo_b","0",""
"null","","html-keyboard-response","44","175732","0.0-4.0-2.1","","<div style=""font-size:60px;"">+</div>","null","","","","","","",""
"518.1000000238419","","image-keyboard-response","45","176251","0.0-4.0-0.2","","img/grey.png","32","trial","null","false","0.2,0.8","2:nogo_b","",""
"null","","html-keyboard-response","46","177255","0.0-4.0-1.2","","<img src=""img/grey-n.png"" border=""10"">","null","trial","null","","0.2,0.8","2:nogo_b","0",""
"null","","html-keyboard-response","47","178260","0.0-4.0-2.2","","<div style=""font-size:60px;"">+</div>","null","","","","","","",""
"366","","image-keyboard-response","48","178626","0.0-4.0-0.3","","img/red.png","32","trial","32","true","0.8,0.2","1:go_a","",""
"null","","html-keyboard-response","49","179637","0.0-4.0-1.3","","<img src=""img/red-r.png"" border=""10"">","null","trial","32","","0.8,0.2","1:go_a","1",""
"null","","html-keyboard-response","50","180651","0.0-4.0-2.3","","<div style=""font-size:60px;"">+</div>","null","","","","","","",""
"438.69999998807907","","image-keyboard-response","51","181091","0.0-4.0-0.4","","img/red.png","32","trial","32","true","0.8,0.2","1:go_a","",""
"null","","html-keyboard-response","52","182097","0.0-4.0-1.4","","<img src=""img/red-r.png"" border=""10"">","null","trial","32","","0.8,0.2","1:go_a","1",""
"null","","html-keyboard-response","53","183098","0.0-4.0-2.4","","<div style=""font-size:60px;"">+</div>","null","","","","","","",""
"null","","image-keyboard-response","54","184612","0.0-4.0-0.5","","img/grey.png","null","trial","null","true","0.2,0.8","2:nogo_b","",""
"null","","html-keyboard-response","55","185617","0.0-4.0-1.5","","<img src=""img/grey-r.png"">","null","trial","null","","0.2,0.8","2:nogo_b","1",""
"null","","html-keyboard-response","56","186629","0.0-4.0-2.5","","<div style=""font-size:60px;"">+</div>","null","","","","","","",""
"420.7999999821186","","image-keyboard-response","57","187050","0.0-4.0-0.6","","img/red.png","32","trial","32","true","0.8,0.2","1:go_a","",""
"null","","html-keyboard-response","58","188057","0.0-4.0-1.6","","<img src=""img/red-r.png"" border=""10"">","null","trial","32","","0.8,0.2","1:go_a","1",""
"null","","html-keyboard-response","59","189065","0.0-4.0-2.6","","<div style=""font-size:60px;"">+</div>","null","","","","","","",""
"848.6999999880791","","image-keyboard-response","60","189914","0.0-4.0-0.7","","img/grey.png","32","trial","null","false","0.2,0.8","2:nogo_b","",""
"null","","html-keyboard-response","61","190915","0.0-4.0-1.7","","<img src=""img/grey-n.png"" border=""10"">","null","trial","null","","0.2,0.8","2:nogo_b","0",""
"null","","html-keyboard-response","62","191918","0.0-4.0-2.7","","<div style=""font-size:60px;"">+</div>","null","","","","","","",""
"459.7999999821186","","image-keyboard-response","63","192378","0.0-4.0-0.8","","img/red.png","32","trial","32","true","0.8,0.2","1:go_a","",""
"null","","html-keyboard-response","64","193387","0.0-4.0-1.8","","<img src=""img/red-r.png"" border=""10"">","null","trial","32","","0.8,0.2","1:go_a","1",""
"null","","html-keyboard-response","65","194391","0.0-4.0-2.8","","<div style=""font-size:60px;"">+</div>","null","","","","","","",""
"null","","image-keyboard-response","66","195901","0.0-4.0-0.9","","img/grey.png","null","trial","null","true","0.2,0.8","2:nogo_b","",""
"null","","html-keyboard-response","67","196903","0.0-4.0-1.9","","<img src=""img/grey-r.png"">","null","trial","null","","0.2,0.8","2:nogo_b","1",""
"null","","html-keyboard-response","68","197904","0.0-4.0-2.9","","<div style=""font-size:60px;"">+</div>","null","","","","","","",""
"null","","image-keyboard-response","69","199408","0.0-4.0-0.10","","img/grey.png","null","trial","null","true","0.2,0.8","2:nogo_b","",""
"null","","html-keyboard-response","70","200410","0.0-4.0-1.10","","<img src=""img/grey-n.png"">","null","trial","null","","0.2,0.8","2:nogo_b","0",""
"null","","html-keyboard-response","71","201416","0.0-4.0-2.10","","<div style=""font-size:60px;"">+</div>","null","","","","","","",""
"449.40000000596046","","image-keyboard-response","72","201866","0.0-4.0-0.11","","img/red.png","32","trial","32","true","0.8,0.2","1:go_a","",""
"null","","html-keyboard-response","73","202871","0.0-4.0-1.11","","<img src=""img/red-r.png"" border=""10"">","null","trial","32","","0.8,0.2","1:go_a","1",""
"null","","html-keyboard-response","74","203885","0.0-4.0-2.11","","<div style=""font-size:60px;"">+</div>","null","","","","","","",""
"null","","image-keyboard-response","75","205397","0.0-4.0-0.12","","img/grey.png","null","trial","null","true","0.2,0.8","2:nogo_b","",""
"null","","html-keyboard-response","76","206401","0.0-4.0-1.12","","<img src=""img/grey-r.png"">","null","trial","null","","0.2,0.8","2:nogo_b","1",""
"null","","html-keyboard-response","77","207401","0.0-4.0-2.12","","<div style=""font-size:60px;"">+</div>","null","","","","","","",""
"448.09999999403954","","image-keyboard-response","78","207850","0.0-4.0-0.13","","img/red.png","32","trial","32","true","0.8,0.2","1:go_a","",""
"null","","html-keyboard-response","79","208854","0.0-4.0-1.13","","<img src=""img/red-r.png"" border=""10"">","null","trial","32","","0.8,0.2","1:go_a","1",""
"null","","html-keyboard-response","80","209860","0.0-4.0-2.13","","<div style=""font-size:60px;"">+</div>","null","","","","","","",""
"629","","image-keyboard-response","81","210490","0.0-4.0-0.14","","img/red.png","32","trial","32","true","0.8,0.2","1:go_a","",""
"null","","html-keyboard-response","82","211496","0.0-4.0-1.14","","<img src=""img/red-r.png"" border=""10"">","null","trial","32","","0.8,0.2","1:go_a","1",""
"null","","html-keyboard-response","83","212503","0.0-4.0-2.14","","<div style=""font-size:60px;"">+</div>","null","","","","","","",""
"706.5","","image-keyboard-response","84","213210","0.0-4.0-0.15","","img/grey.png","32","trial","null","false","0.2,0.8","2:nogo_b","",""
"null","","html-keyboard-response","85","214213","0.0-4.0-1.15","","<img src=""img/grey-n.png"" border=""10"">","null","trial","null","","0.2,0.8","2:nogo_b","0",""
"null","","html-keyboard-response","86","215217","0.0-4.0-2.15","","<div style=""font-size:60px;"">+</div>","null","","","","","","",""
"944","","image-keyboard-response","87","216162","0.0-4.0-0.16","","img/grey.png","32","trial","null","false","0.2,0.8","2:nogo_b","",""
"null","","html-keyboard-response","88","217167","0.0-4.0-1.16","","<img src=""img/grey-n.png"" border=""10"">","null","trial","null","","0.2,0.8","2:nogo_b","0",""
"null","","html-keyboard-response","89","218183","0.0-4.0-2.16","","<div style=""font-size:60px;"">+</div>","null","","","","","","",""
"522.1999999880791","","image-keyboard-response","90","218706","0.0-4.0-0.17","","img/red.png","32","trial","32","true","0.8,0.2","1:go_a","",""
"null","","html-keyboard-response","91","219720","0.0-4.0-1.17","","<img src=""img/red-n.png"" border=""10"">","null","trial","32","","0.8,0.2","1:go_a","0",""
"null","","html-keyboard-response","92","220732","0.0-4.0-2.17","","<div style=""font-size:60px;"">+</div>","null","","","","","","",""
"493","","image-keyboard-response","93","221226","0.0-4.0-0.18","","img/grey.png","32","trial","null","false","0.2,0.8","2:nogo_b","",""
"null","","html-keyboard-response","94","222241","0.0-4.0-1.18","","<img src=""img/grey-n.png"" border=""10"">","null","trial","null","","0.2,0.8","2:nogo_b","0",""
"null","","html-keyboard-response","95","223245","0.0-4.0-2.18","","<div style=""font-size:60px;"">+</div>","null","","","","","","",""
"308.89999997615814","","image-keyboard-response","96","223554","0.0-4.0-0.19","","img/red.png","32","trial","32","true","0.8,0.2","1:go_a","",""
"null","","html-keyboard-response","97","224560","0.0-4.0-1.19","","<img src=""img/red-r.png"" border=""10"">","null","trial","32","","0.8,0.2","1:go_a","1",""
"null","","html-keyboard-response","98","225573","0.0-4.0-2.19","","<div style=""font-size:60px;"">+</div>","null","","","","","","",""
"452.69999998807907","","image-keyboard-response","99","226026","0.0-4.0-0.20","","img/red.png","32","trial","32","true","0.8,0.2","1:go_a","",""
"null","","html-keyboard-response","100","227027","0.0-4.0-1.20","","<img src=""img/red-r.png"" border=""10"">","null","trial","32","","0.8,0.2","1:go_a","1",""
"null","","html-keyboard-response","101","228033","0.0-4.0-2.20","","<div style=""font-size:60px;"">+</div>","null","","","","","","",""
"null","","image-keyboard-response","102","229538","0.0-4.0-0.21","","img/grey.png","null","trial","null","true","0.2,0.8","2:nogo_b","",""
"null","","html-keyboard-response","103","230544","0.0-4.0-1.21","","<img src=""img/grey-r.png"">","null","trial","null","","0.2,0.8","2:nogo_b","1",""
"null","","html-keyboard-response","104","231545","0.0-4.0-2.21","","<div style=""font-size:60px;"">+</div>","null","","","","","","",""
"344.59999999403954","","image-keyboard-response","105","231890","0.0-4.0-0.22","","img/red.png","32","trial","32","true","0.8,0.2","1:go_a","",""
"null","","html-keyboard-response","106","232900","0.0-4.0-1.22","","<img src=""img/red-r.png"" border=""10"">","null","trial","32","","0.8,0.2","1:go_a","1",""
"null","","html-keyboard-response","107","233902","0.0-4.0-2.22","","<div style=""font-size:60px;"">+</div>","null","","","","","","",""
"null","","image-keyboard-response","108","235409","0.0-4.0-0.23","","img/grey.png","null","trial","null","true","0.2,0.8","2:nogo_b","",""
"null","","html-keyboard-response","109","236412","0.0-4.0-1.23","","<img src=""img/grey-r.png"">","null","trial","null","","0.2,0.8","2:nogo_b","1",""
"null","","html-keyboard-response","110","237418","0.0-4.0-2.23","","<div style=""font-size:60px;"">+</div>","null","","","","","","",""
"511.59999999403954","","image-keyboard-response","111","237931","0.0-4.0-0.24","","img/grey.png","32","trial","null","false","0.2,0.8","2:nogo_b","",""
"null","","html-keyboard-response","112","238944","0.0-4.0-1.24","","<img src=""img/grey-n.png"" border=""10"">","null","trial","null","","0.2,0.8","2:nogo_b","0",""
"null","","html-keyboard-response","113","239950","0.0-4.0-2.24","","<div style=""font-size:60px;"">+</div>","null","","","","","","",""
"291.7000000178814","","image-keyboard-response","114","240242","0.0-4.0-0.25","","img/red.png","32","trial","32","true","0.8,0.2","1:go_a","",""
"null","","html-keyboard-response","115","241248","0.0-4.0-1.25","","<img src=""img/red-r.png"" border=""10"">","null","trial","32","","0.8,0.2","1:go_a","1",""
"null","","html-keyboard-response","116","242249","0.0-4.0-2.25","","<div style=""font-size:60px;"">+</div>","null","","","","","","",""
"496.59999999403954","","image-keyboard-response","117","242746","0.0-4.0-0.26","","img/red.png","32","trial","32","true","0.8,0.2","1:go_a","",""
"null","","html-keyboard-response","118","243752","0.0-4.0-1.26","","<img src=""img/red-r.png"" border=""10"">","null","trial","32","","0.8,0.2","1:go_a","1",""
"null","","html-keyboard-response","119","244760","0.0-4.0-2.26","","<div style=""font-size:60px;"">+</div>","null","","","","","","",""
"null","","image-keyboard-response","120","246267","0.0-4.0-0.27","","img/grey.png","null","trial","null","true","0.2,0.8","2:nogo_b","",""
"null","","html-keyboard-response","121","247269","0.0-4.0-1.27","","<img src=""img/grey-n.png"">","null","trial","null","","0.2,0.8","2:nogo_b","0",""
"null","","html-keyboard-response","122","248274","0.0-4.0-2.27","","<div style=""font-size:60px;"">+</div>","null","","","","","","",""
"null","","image-keyboard-response","123","249782","0.0-4.0-0.28","","img/grey.png","null","trial","null","true","0.2,0.8","2:nogo_b","",""
"null","","html-keyboard-response","124","250784","0.0-4.0-1.28","","<img src=""img/grey-r.png"">","null","trial","null","","0.2,0.8","2:nogo_b","1",""
"null","","html-keyboard-response","125","251785","0.0-4.0-2.28","","<div style=""font-size:60px;"">+</div>","null","","","","","","",""
"440.59999999403954","","image-keyboard-response","126","252226","0.0-4.0-0.29","","img/red.png","32","trial","32","true","0.8,0.2","1:go_a","",""
"null","","html-keyboard-response","127","253230","0.0-4.0-1.29","","<img src=""img/red-r.png"" border=""10"">","null","trial","32","","0.8,0.2","1:go_a","1",""
"null","","html-keyboard-response","128","254237","0.0-4.0-2.29","","<div style=""font-size:60px;"">+</div>","null","","","","","","",""
"484","","image-keyboard-response","129","254722","0.0-4.0-0.30","","img/red.png","32","trial","32","true","0.8,0.2","1:go_a","",""
"null","","html-keyboard-response","130","255731","0.0-4.0-1.30","","<img src=""img/red-r.png"" border=""10"">","null","trial","32","","0.8,0.2","1:go_a","1",""
"null","","html-keyboard-response","131","256737","0.0-4.0-2.30","","<div style=""font-size:60px;"">+</div>","null","","","","","","",""
"null","","image-keyboard-response","132","258243","0.0-4.0-0.31","","img/grey.png","null","trial","null","true","0.2,0.8","2:nogo_b","",""
"null","","html-keyboard-response","133","259250","0.0-4.0-1.31","","<img src=""img/grey-r.png"">","null","trial","null","","0.2,0.8","2:nogo_b","1",""
"null","","html-keyboard-response","134","260264","0.0-4.0-2.31","","<div style=""font-size:60px;"">+</div>","null","","","","","","",""
"null","","image-keyboard-response","135","261768","0.0-4.0-0.32","","img/grey.png","null","trial","null","true","0.2,0.8","2:nogo_b","",""
"null","","html-keyboard-response","136","262777","0.0-4.0-1.32","","<img src=""img/grey-r.png"">","null","trial","null","","0.2,0.8","2:nogo_b","1",""
"null","","html-keyboard-response","137","263785","0.0-4.0-2.32","","<div style=""font-size:60px;"">+</div>","null","","","","","","",""
"520.8999999761581","","image-keyboard-response","138","264306","0.0-4.0-0.33","","img/red.png","32","trial","32","true","0.8,0.2","1:go_a","",""
"null","","html-keyboard-response","139","265321","0.0-4.0-1.33","","<img src=""img/red-r.png"" border=""10"">","null","trial","32","","0.8,0.2","1:go_a","1",""
"null","","html-keyboard-response","140","266324","0.0-4.0-2.33","","<div style=""font-size:60px;"">+</div>","null","","","","","","",""
"500.90000000596046","","image-keyboard-response","141","266825","0.0-4.0-0.34","","img/red.png","32","trial","32","true","0.8,0.2","1:go_a","",""
"null","","html-keyboard-response","142","267833","0.0-4.0-1.34","","<img src=""img/red-r.png"" border=""10"">","null","trial","32","","0.8,0.2","1:go_a","1",""
"null","","html-keyboard-response","143","268846","0.0-4.0-2.34","","<div style=""font-size:60px;"">+</div>","null","","","","","","",""
"null","","image-keyboard-response","144","270357","0.0-4.0-0.35","","img/grey.png","null","trial","null","true","0.2,0.8","2:nogo_b","",""
"null","","html-keyboard-response","145","271361","0.0-4.0-1.35","","<img src=""img/grey-r.png"">","null","trial","null","","0.2,0.8","2:nogo_b","1",""
"null","","html-keyboard-response","146","272362","0.0-4.0-2.35","","<div style=""font-size:60px;"">+</div>","null","","","","","","",""
"327.09999999403954","","image-keyboard-response","147","272690","0.0-4.0-0.36","","img/grey.png","32","trial","null","false","0.2,0.8","2:nogo_b","",""
"null","","html-keyboard-response","148","273699","0.0-4.0-1.36","","<img src=""img/grey-n.png"" border=""10"">","null","trial","null","","0.2,0.8","2:nogo_b","0",""
"null","","html-keyboard-response","149","274707","0.0-4.0-2.36","","<div style=""font-size:60px;"">+</div>","null","","","","","","",""
"398.09999999403954","","image-keyboard-response","150","275106","0.0-4.0-0.37","","img/red.png","32","trial","32","true","0.8,0.2","1:go_a","",""
"null","","html-keyboard-response","151","276117","0.0-4.0-1.37","","<img src=""img/red-r.png"" border=""10"">","null","trial","32","","0.8,0.2","1:go_a","1",""
"null","","html-keyboard-response","152","277119","0.0-4.0-2.37","","<div style=""font-size:60px;"">+</div>","null","","","","","","",""
"442.2000000178814","","image-keyboard-response","153","277561","0.0-4.0-0.38","","img/grey.png","32","trial","null","false","0.2,0.8","2:nogo_b","",""
"null","","html-keyboard-response","154","278564","0.0-4.0-1.38","","<img src=""img/grey-r.png"" border=""10"">","null","trial","null","","0.2,0.8","2:nogo_b","1",""
"null","","html-keyboard-response","155","279566","0.0-4.0-2.38","","<div style=""font-size:60px;"">+</div>","null","","","","","","",""
"507","","image-keyboard-response","156","280073","0.0-4.0-0.39","","img/red.png","32","trial","32","true","0.8,0.2","1:go_a","",""
"null","","html-keyboard-response","157","281077","0.0-4.0-1.39","","<img src=""img/red-r.png"" border=""10"">","null","trial","32","","0.8,0.2","1:go_a","1",""
"null","","html-keyboard-response","158","282080","0.0-4.0-2.39","","<div style=""font-size:60px;"">+</div>","null","","","","","","",""
"456.30000001192093","","image-keyboard-response","159","282537","0.0-4.0-0.40","","img/grey.png","32","trial","null","false","0.2,0.8","2:nogo_b","",""
"null","","html-keyboard-response","160","283540","0.0-4.0-1.40","","<img src=""img/grey-n.png"" border=""10"">","null","trial","null","","0.2,0.8","2:nogo_b","0",""
"null","","html-keyboard-response","161","284542","0.0-4.0-2.40","","<div style=""font-size:60px;"">+</div>","null","","","","","","",""
"419.30000001192093","","image-keyboard-response","162","284961","0.0-4.0-0.41","","img/red.png","32","trial","32","true","0.8,0.2","1:go_a","",""
"null","","html-keyboard-response","163","285973","0.0-4.0-1.41","","<img src=""img/red-r.png"" border=""10"">","null","trial","32","","0.8,0.2","1:go_a","1",""
"null","","html-keyboard-response","164","286981","0.0-4.0-2.41","","<div style=""font-size:60px;"">+</div>","null","","","","","","",""
"null","","image-keyboard-response","165","288488","0.0-4.0-0.42","","img/grey.png","null","trial","null","true","0.2,0.8","2:nogo_b","",""
"null","","html-keyboard-response","166","289492","0.0-4.0-1.42","","<img src=""img/grey-n.png"">","null","trial","null","","0.2,0.8","2:nogo_b","0",""
"null","","html-keyboard-response","167","290493","0.0-4.0-2.42","","<div style=""font-size:60px;"">+</div>","null","","","","","","",""
"356.5","","image-keyboard-response","168","290850","0.0-4.0-0.43","","img/red.png","32","trial","32","true","0.8,0.2","1:go_a","",""
"null","","html-keyboard-response","169","291856","0.0-4.0-1.43","","<img src=""img/red-r.png"" border=""10"">","null","trial","32","","0.8,0.2","1:go_a","1",""
"null","","html-keyboard-response","170","292870","0.0-4.0-2.43","","<div style=""font-size:60px;"">+</div>","null","","","","","","",""
"522.3000000119209","","image-keyboard-response","171","293393","0.0-4.0-0.44","","img/red.png","32","trial","32","true","0.8,0.2","1:go_a","",""
"null","","html-keyboard-response","172","294410","0.0-4.0-1.44","","<img src=""img/red-n.png"" border=""10"">","null","trial","32","","0.8,0.2","1:go_a","0",""
"null","","html-keyboard-response","173","295417","0.0-4.0-2.44","","<div style=""font-size:60px;"">+</div>","null","","","","","","",""
"328.2000000178814","","image-keyboard-response","174","295745","0.0-4.0-0.45","","img/grey.png","32","trial","null","false","0.2,0.8","2:nogo_b","",""
"null","","html-keyboard-response","175","296762","0.0-4.0-1.45","","<img src=""img/grey-n.png"" border=""10"">","null","trial","null","","0.2,0.8","2:nogo_b","0",""
"null","","html-keyboard-response","176","297774","0.0-4.0-2.45","","<div style=""font-size:60px;"">+</div>","null","","","","","","",""
"362.69999998807907","","image-keyboard-response","177","298137","0.0-4.0-0.46","","img/grey.png","32","trial","null","false","0.2,0.8","2:nogo_b","",""
"null","","html-keyboard-response","178","299139","0.0-4.0-1.46","","<img src=""img/grey-n.png"" border=""10"">","null","trial","null","","0.2,0.8","2:nogo_b","0",""
"null","","html-keyboard-response","179","300142","0.0-4.0-2.46","","<div style=""font-size:60px;"">+</div>","null","","","","","","",""
"378.5","","image-keyboard-response","180","300521","0.0-4.0-0.47","","img/red.png","32","trial","32","true","0.8,0.2","1:go_a","",""
"null","","html-keyboard-response","181","301525","0.0-4.0-1.47","","<img src=""img/red-r.png"" border=""10"">","null","trial","32","","0.8,0.2","1:go_a","1",""
"null","","html-keyboard-response","182","302530","0.0-4.0-2.47","","<div style=""font-size:60px;"">+</div>","null","","","","","","",""
"470.90000000596046","","image-keyboard-response","183","303002","0.0-4.0-0.48","","img/grey.png","32","trial","null","false","0.2,0.8","2:nogo_b","",""
"null","","html-keyboard-response","184","304003","0.0-4.0-1.48","","<img src=""img/grey-n.png"" border=""10"">","null","trial","null","","0.2,0.8","2:nogo_b","0",""
"null","","html-keyboard-response","185","305019","0.0-4.0-2.48","","<div style=""font-size:60px;"">+</div>","null","","","","","","",""
"350.09999999403954","","image-keyboard-response","186","305369","0.0-4.0-0.49","","img/red.png","32","trial","32","true","0.8,0.2","1:go_a","",""
"null","","html-keyboard-response","187","306373","0.0-4.0-1.49","","<img src=""img/red-r.png"" border=""10"">","null","trial","32","","0.8,0.2","1:go_a","1",""
"null","","html-keyboard-response","188","307379","0.0-4.0-2.49","","<div style=""font-size:60px;"">+</div>","null","","","","","","",""
"null","","image-keyboard-response","189","308890","0.0-4.0-0.50","","img/grey.png","null","trial","null","true","0.2,0.8","2:nogo_b","",""
"null","","html-keyboard-response","190","309896","0.0-4.0-1.50","","<img src=""img/grey-r.png"">","null","trial","null","","0.2,0.8","2:nogo_b","1",""
"null","","html-keyboard-response","191","310910","0.0-4.0-2.50","","<div style=""font-size:60px;"">+</div>","null","","","","","","",""
"531","","image-keyboard-response","192","311442","0.0-4.0-0.51","","img/red.png","32","trial","32","true","0.8,0.2","1:go_a","",""
"null","","html-keyboard-response","193","312446","0.0-4.0-1.51","","<img src=""img/red-r.png"" border=""10"">","null","trial","32","","0.8,0.2","1:go_a","1",""
"null","","html-keyboard-response","194","313452","0.0-4.0-2.51","","<div style=""font-size:60px;"">+</div>","null","","","","","","",""
"525.1999999880791","","image-keyboard-response","195","313978","0.0-4.0-0.52","","img/red.png","32","trial","32","true","0.8,0.2","1:go_a","",""
"null","","html-keyboard-response","196","314993","0.0-4.0-1.52","","<img src=""img/red-r.png"" border=""10"">","null","trial","32","","0.8,0.2","1:go_a","1",""
"null","","html-keyboard-response","197","316000","0.0-4.0-2.52","","<div style=""font-size:60px;"">+</div>","null","","","","","","",""
"505.30000001192093","","image-keyboard-response","198","316505","0.0-4.0-0.53","","img/grey.png","32","trial","null","false","0.2,0.8","2:nogo_b","",""
"null","","html-keyboard-response","199","317518","0.0-4.0-1.53","","<img src=""img/grey-n.png"" border=""10"">","null","trial","null","","0.2,0.8","2:nogo_b","0",""
"null","","html-keyboard-response","200","318520","0.0-4.0-2.53","","<div style=""font-size:60px;"">+</div>","null","","","","","","",""
"null","","image-keyboard-response","201","320026","0.0-4.0-0.54","","img/grey.png","null","trial","null","true","0.2,0.8","2:nogo_b","",""
"null","","html-keyboard-response","202","321034","0.0-4.0-1.54","","<img src=""img/grey-r.png"">","null","trial","null","","0.2,0.8","2:nogo_b","1",""
"null","","html-keyboard-response","203","322041","0.0-4.0-2.54","","<div style=""font-size:60px;"">+</div>","null","","","","","","",""
"575.3000000119209","","image-keyboard-response","204","322617","0.0-4.0-0.55","","img/red.png","32","trial","32","true","0.8,0.2","1:go_a","",""
"null","","html-keyboard-response","205","323630","0.0-4.0-1.55","","<img src=""img/red-r.png"" border=""10"">","null","trial","32","","0.8,0.2","1:go_a","1",""
"null","","html-keyboard-response","206","324634","0.0-4.0-2.55","","<div style=""font-size:60px;"">+</div>","null","","","","","","",""
"439.19999998807907","","image-keyboard-response","207","325074","0.0-4.0-0.56","","img/red.png","32","trial","32","true","0.8,0.2","1:go_a","",""
"null","","html-keyboard-response","208","326082","0.0-4.0-1.56","","<img src=""img/red-r.png"" border=""10"">","null","trial","32","","0.8,0.2","1:go_a","1",""
"null","","html-keyboard-response","209","327089","0.0-4.0-2.56","","<div style=""font-size:60px;"">+</div>","null","","","","","","",""
"968.5","","image-keyboard-response","210","328058","0.0-4.0-0.57","","img/grey.png","32","trial","null","false","0.2,0.8","2:nogo_b","",""
"null","","html-keyboard-response","211","329074","0.0-4.0-1.57","","<img src=""img/grey-n.png"" border=""10"">","null","trial","null","","0.2,0.8","2:nogo_b","0",""
"null","","html-keyboard-response","212","330075","0.0-4.0-2.57","","<div style=""font-size:60px;"">+</div>","null","","","","","","",""
"454.59999999403954","","image-keyboard-response","213","330530","0.0-4.0-0.58","","img/red.png","32","trial","32","true","0.8,0.2","1:go_a","",""
"null","","html-keyboard-response","214","331539","0.0-4.0-1.58","","<img src=""img/red-r.png"" border=""10"">","null","trial","32","","0.8,0.2","1:go_a","1",""
"null","","html-keyboard-response","215","332545","0.0-4.0-2.58","","<div style=""font-size:60px;"">+</div>","null","","","","","","",""
"null","","image-keyboard-response","216","334060","0.0-4.0-0.59","","img/grey.png","null","trial","null","true","0.2,0.8","2:nogo_b","",""
"null","","html-keyboard-response","217","335067","0.0-4.0-1.59","","<img src=""img/grey-n.png"">","null","trial","null","","0.2,0.8","2:nogo_b","0",""
"null","","html-keyboard-response","218","336073","0.0-4.0-2.59","","<div style=""font-size:60px;"">+</div>","null","","","","","","",""
"3669.0999999940395","","instructions","219","339742","0.0-5.0","[{""page_index"":0,""viewing_time"":3668.9000000059605}]","","","","","","","","",""
"1202.800000011921","","image-keyboard-response","220","340946","0.0-6.0-0.0","","img/yellow.png","32","trial","32","true","0.6,0.4","3:go_c","",""
"null","","html-keyboard-response","221","341959","0.0-6.0-1.0","","<img src=""img/yellow-n.png"" border=""10"">","null","trial","32","","0.6,0.4","3:go_c","0",""
"null","","html-keyboard-response","222","342963","0.0-6.0-2.0","","<div style=""font-size:60px;"">+</div>","null","","","","","","",""
"318.7000000178814","","image-keyboard-response","223","343282","0.0-6.0-0.1","","img/green.png","32","trial","32","true","0.8,0.2","1:go_a","",""
"null","","html-keyboard-response","224","344287","0.0-6.0-1.1","","<img src=""img/green-r.png"" border=""10"">","null","trial","32","","0.8,0.2","1:go_a","1",""
"null","","html-keyboard-response","225","345302","0.0-6.0-2.1","","<div style=""font-size:60px;"">+</div>","null","","","","","","",""
"1090.9000000059605","","image-keyboard-response","226","346394","0.0-6.0-0.2","","img/orange.png","32","trial","null","false","0.4,0.6","4:nogo_d","",""
"null","","html-keyboard-response","227","347396","0.0-6.0-1.2","","<img src=""img/orange-r.png"" border=""10"">","null","trial","null","","0.4,0.6","4:nogo_d","1",""
"null","","html-keyboard-response","228","348412","0.0-6.0-2.2","","<div style=""font-size:60px;"">+</div>","null","","","","","","",""
"821.8000000119209","","image-keyboard-response","229","349234","0.0-6.0-0.3","","img/pink.png","32","trial","null","false","0.2,0.8","2:nogo_b","",""
"null","","html-keyboard-response","230","350245","0.0-6.0-1.3","","<img src=""img/pink-n.png"" border=""10"">","null","trial","null","","0.2,0.8","2:nogo_b","0",""
"null","","html-keyboard-response","231","351246","0.0-6.0-2.3","","<div style=""font-size:60px;"">+</div>","null","","","","","","",""
"null","","image-keyboard-response","232","352757","0.0-6.0-0.4","","img/pink.png","null","trial","null","true","0.2,0.8","2:nogo_b","",""
"null","","html-keyboard-response","233","353759","0.0-6.0-1.4","","<img src=""img/pink-r.png"">","null","trial","null","","0.2,0.8","2:nogo_b","1",""
"null","","html-keyboard-response","234","354765","0.0-6.0-2.4","","<div style=""font-size:60px;"">+</div>","null","","","","","","",""
"572.3000000119209","","image-keyboard-response","235","355338","0.0-6.0-0.5","","img/orange.png","32","trial","null","false","0.4,0.6","4:nogo_d","",""
"null","","html-keyboard-response","236","356352","0.0-6.0-1.5","","<img src=""img/orange-n.png"" border=""10"">","null","trial","null","","0.4,0.6","4:nogo_d","0",""
"null","","html-keyboard-response","237","357364","0.0-6.0-2.5","","<div style=""font-size:60px;"">+</div>","null","","","","","","",""
"581.4000000059605","","image-keyboard-response","238","357946","0.0-6.0-0.6","","img/green.png","32","trial","32","true","0.8,0.2","1:go_a","",""
"null","","html-keyboard-response","239","358950","0.0-6.0-1.6","","<img src=""img/green-r.png"" border=""10"">","null","trial","32","","0.8,0.2","1:go_a","1",""
"null","","html-keyboard-response","240","359956","0.0-6.0-2.6","","<div style=""font-size:60px;"">+</div>","null","","","","","","",""
"1229.7000000178814","","image-keyboard-response","241","361186","0.0-6.0-0.7","","img/yellow.png","32","trial","32","true","0.6,0.4","3:go_c","",""
"null","","html-keyboard-response","242","362194","0.0-6.0-1.7","","<img src=""img/yellow-n.png"" border=""10"">","null","trial","32","","0.6,0.4","3:go_c","0",""
"null","","html-keyboard-response","243","363201","0.0-6.0-2.7","","<div style=""font-size:60px;"">+</div>","null","","","","","","",""
"null","","image-keyboard-response","244","364714","0.0-6.0-0.8","","img/yellow.png","null","trial","32","false","0.6,0.4","3:go_c","",""
"null","","html-keyboard-response","245","365718","0.0-6.0-1.8","","<img src=""img/yellow-r.png"">","null","trial","32","","0.6,0.4","3:go_c","1",""
"null","","html-keyboard-response","246","366721","0.0-6.0-2.8","","<div style=""font-size:60px;"">+</div>","null","","","","","","",""
"632.5999999940395","","image-keyboard-response","247","367354","0.0-6.0-0.9","","img/green.png","32","trial","32","true","0.8,0.2","1:go_a","",""
"null","","html-keyboard-response","248","368370","0.0-6.0-1.9","","<img src=""img/green-n.png"" border=""10"">","null","trial","32","","0.8,0.2","1:go_a","0",""
"null","","html-keyboard-response","249","369377","0.0-6.0-2.9","","<div style=""font-size:60px;"">+</div>","null","","","","","","",""
"800.6000000238419","","image-keyboard-response","250","370178","0.0-6.0-0.10","","img/pink.png","32","trial","null","false","0.2,0.8","2:nogo_b","",""
"null","","html-keyboard-response","251","371182","0.0-6.0-1.10","","<img src=""img/pink-r.png"" border=""10"">","null","trial","null","","0.2,0.8","2:nogo_b","1",""
"null","","html-keyboard-response","252","372185","0.0-6.0-2.10","","<div style=""font-size:60px;"">+</div>","null","","","","","","",""
"920.5999999940395","","image-keyboard-response","253","373106","0.0-6.0-0.11","","img/orange.png","32","trial","null","false","0.4,0.6","4:nogo_d","",""
"null","","html-keyboard-response","254","374123","0.0-6.0-1.11","","<img src=""img/orange-r.png"" border=""10"">","null","trial","null","","0.4,0.6","4:nogo_d","1",""
"null","","html-keyboard-response","255","375139","0.0-6.0-2.11","","<div style=""font-size:60px;"">+</div>","null","","","","","","",""
"574.2000000178814","","image-keyboard-response","256","375714","0.0-6.0-0.12","","img/orange.png","32","trial","null","false","0.4,0.6","4:nogo_d","",""
"null","","html-keyboard-response","257","376729","0.0-6.0-1.12","","<img src=""img/orange-n.png"" border=""10"">","null","trial","null","","0.4,0.6","4:nogo_d","0",""
"null","","html-keyboard-response","258","377735","0.0-6.0-2.12","","<div style=""font-size:60px;"">+</div>","null","","","","","","",""
"1138","","image-keyboard-response","259","378874","0.0-6.0-0.13","","img/pink.png","32","trial","null","false","0.2,0.8","2:nogo_b","",""
"null","","html-keyboard-response","260","379875","0.0-6.0-1.13","","<img src=""img/pink-n.png"" border=""10"">","null","trial","null","","0.2,0.8","2:nogo_b","0",""
"null","","html-keyboard-response","261","380881","0.0-6.0-2.13","","<div style=""font-size:60px;"">+</div>","null","","","","","","",""
"640","","image-keyboard-response","262","381522","0.0-6.0-0.14","","img/green.png","32","trial","32","true","0.8,0.2","1:go_a","",""
"null","","html-keyboard-response","263","382527","0.0-6.0-1.14","","<img src=""img/green-r.png"" border=""10"">","null","trial","32","","0.8,0.2","1:go_a","1",""
"null","","html-keyboard-response","264","383531","0.0-6.0-2.14","","<div style=""font-size:60px;"">+</div>","null","","","","","","",""
"null","","image-keyboard-response","265","385040","0.0-6.0-0.15","","img/yellow.png","null","trial","32","false","0.6,0.4","3:go_c","",""
"null","","html-keyboard-response","266","386045","0.0-6.0-1.15","","<img src=""img/yellow-n.png"">","null","trial","32","","0.6,0.4","3:go_c","0",""
"null","","html-keyboard-response","267","387048","0.0-6.0-2.15","","<div style=""font-size:60px;"">+</div>","null","","","","","","",""
"681.5","","image-keyboard-response","268","387730","0.0-6.0-0.16","","img/yellow.png","32","trial","32","true","0.6,0.4","3:go_c","",""
"null","","html-keyboard-response","269","388742","0.0-6.0-1.16","","<img src=""img/yellow-n.png"" border=""10"">","null","trial","32","","0.6,0.4","3:go_c","0",""
"null","","html-keyboard-response","270","389748","0.0-6.0-2.16","","<div style=""font-size:60px;"">+</div>","null","","","","","","",""
"null","","image-keyboard-response","271","391257","0.0-6.0-0.17","","img/pink.png","null","trial","null","true","0.2,0.8","2:nogo_b","",""
"null","","html-keyboard-response","272","392262","0.0-6.0-1.17","","<img src=""img/pink-n.png"">","null","trial","null","","0.2,0.8","2:nogo_b","0",""
"null","","html-keyboard-response","273","393278","0.0-6.0-2.17","","<div style=""font-size:60px;"">+</div>","null","","","","","","",""
"843.3000000119209","","image-keyboard-response","274","394122","0.0-6.0-0.18","","img/green.png","32","trial","32","true","0.8,0.2","1:go_a","",""
"null","","html-keyboard-response","275","395133","0.0-6.0-1.18","","<img src=""img/green-n.png"" border=""10"">","null","trial","32","","0.8,0.2","1:go_a","0",""
"null","","html-keyboard-response","276","396140","0.0-6.0-2.18","","<div style=""font-size:60px;"">+</div>","null","","","","","","",""
"924.8000000119209","","image-keyboard-response","277","397066","0.0-6.0-0.19","","img/orange.png","32","trial","null","false","0.4,0.6","4:nogo_d","",""
"null","","html-keyboard-response","278","398080","0.0-6.0-1.19","","<img src=""img/orange-r.png"" border=""10"">","null","trial","null","","0.4,0.6","4:nogo_d","1",""
"null","","html-keyboard-response","279","399082","0.0-6.0-2.19","","<div style=""font-size:60px;"">+</div>","null","","","","","","",""
"782.8000000119209","","image-keyboard-response","280","399866","0.0-6.0-0.20","","img/yellow.png","32","trial","32","true","0.6,0.4","3:go_c","",""
"null","","html-keyboard-response","281","400879","0.0-6.0-1.20","","<img src=""img/yellow-n.png"" border=""10"">","null","trial","32","","0.6,0.4","3:go_c","0",""
"null","","html-keyboard-response","282","401885","0.0-6.0-2.20","","<div style=""font-size:60px;"">+</div>","null","","","","","","",""
"596.1999999880791","","image-keyboard-response","283","402482","0.0-6.0-0.21","","img/green.png","32","trial","32","true","0.8,0.2","1:go_a","",""
"null","","html-keyboard-response","284","403493","0.0-6.0-1.21","","<img src=""img/green-r.png"" border=""10"">","null","trial","32","","0.8,0.2","1:go_a","1",""
"null","","html-keyboard-response","285","404495","0.0-6.0-2.21","","<div style=""font-size:60px;"">+</div>","null","","","","","","",""
"null","","image-keyboard-response","286","406000","0.0-6.0-0.22","","img/pink.png","null","trial","null","true","0.2,0.8","2:nogo_b","",""
"null","","html-keyboard-response","287","407005","0.0-6.0-1.22","","<img src=""img/pink-r.png"">","null","trial","null","","0.2,0.8","2:nogo_b","1",""
"null","","html-keyboard-response","288","408011","0.0-6.0-2.22","","<div style=""font-size:60px;"">+</div>","null","","","","","","",""
"null","","image-keyboard-response","289","409520","0.0-6.0-0.23","","img/orange.png","null","trial","null","true","0.4,0.6","4:nogo_d","",""
"null","","html-keyboard-response","290","410526","0.0-6.0-1.23","","<img src=""img/orange-n.png"">","null","trial","null","","0.4,0.6","4:nogo_d","0",""
"null","","html-keyboard-response","291","411533","0.0-6.0-2.23","","<div style=""font-size:60px;"">+</div>","null","","","","","","",""
"null","","image-keyboard-response","292","413036","0.0-6.0-0.24","","img/pink.png","null","trial","null","true","0.2,0.8","2:nogo_b","",""
"null","","html-keyboard-response","293","414049","0.0-6.0-1.24","","<img src=""img/pink-n.png"">","null","trial","null","","0.2,0.8","2:nogo_b","0",""
"null","","html-keyboard-response","294","415051","0.0-6.0-2.24","","<div style=""font-size:60px;"">+</div>","null","","","","","","",""
"990.1000000238419","","image-keyboard-response","295","416042","0.0-6.0-0.25","","img/orange.png","32","trial","null","false","0.4,0.6","4:nogo_d","",""
"null","","html-keyboard-response","296","417051","0.0-6.0-1.25","","<img src=""img/orange-n.png"" border=""10"">","null","trial","null","","0.4,0.6","4:nogo_d","0",""
"null","","html-keyboard-response","297","418059","0.0-6.0-2.25","","<div style=""font-size:60px;"">+</div>","null","","","","","","",""
"637.8000000119209","","image-keyboard-response","298","418698","0.0-6.0-0.26","","img/green.png","32","trial","32","true","0.8,0.2","1:go_a","",""
"null","","html-keyboard-response","299","419714","0.0-6.0-1.26","","<img src=""img/green-r.png"" border=""10"">","null","trial","32","","0.8,0.2","1:go_a","1",""
"null","","html-keyboard-response","300","420719","0.0-6.0-2.26","","<div style=""font-size:60px;"">+</div>","null","","","","","","",""
"610.2999999821186","","image-keyboard-response","301","421330","0.0-6.0-0.27","","img/yellow.png","32","trial","32","true","0.6,0.4","3:go_c","",""
"null","","html-keyboard-response","302","422332","0.0-6.0-1.27","","<img src=""img/yellow-r.png"" border=""10"">","null","trial","32","","0.6,0.4","3:go_c","1",""
"null","","html-keyboard-response","303","423341","0.0-6.0-2.27","","<div style=""font-size:60px;"">+</div>","null","","","","","","",""
"595.7000000178814","","image-keyboard-response","304","423938","0.0-6.0-0.28","","img/green.png","32","trial","32","true","0.8,0.2","1:go_a","",""
"null","","html-keyboard-response","305","424945","0.0-6.0-1.28","","<img src=""img/green-r.png"" border=""10"">","null","trial","32","","0.8,0.2","1:go_a","1",""
"null","","html-keyboard-response","306","425947","0.0-6.0-2.28","","<div style=""font-size:60px;"">+</div>","null","","","","","","",""
"null","","image-keyboard-response","307","427453","0.0-6.0-0.29","","img/yellow.png","null","trial","32","false","0.6,0.4","3:go_c","",""
"null","","html-keyboard-response","308","428460","0.0-6.0-1.29","","<img src=""img/yellow-n.png"">","null","trial","32","","0.6,0.4","3:go_c","0",""
"null","","html-keyboard-response","309","429465","0.0-6.0-2.29","","<div style=""font-size:60px;"">+</div>","null","","","","","","",""
"null","","image-keyboard-response","310","430980","0.0-6.0-0.30","","img/orange.png","null","trial","null","true","0.4,0.6","4:nogo_d","",""
"null","","html-keyboard-response","311","431981","0.0-6.0-1.30","","<img src=""img/orange-r.png"">","null","trial","null","","0.4,0.6","4:nogo_d","1",""
"null","","html-keyboard-response","312","432992","0.0-6.0-2.30","","<div style=""font-size:60px;"">+</div>","null","","","","","","",""
"433.80000001192093","","image-keyboard-response","313","433426","0.0-6.0-0.31","","img/pink.png","32","trial","null","false","0.2,0.8","2:nogo_b","",""
"null","","html-keyboard-response","314","434434","0.0-6.0-1.31","","<img src=""img/pink-n.png"" border=""10"">","null","trial","null","","0.2,0.8","2:nogo_b","0",""
"null","","html-keyboard-response","315","435439","0.0-6.0-2.31","","<div style=""font-size:60px;"">+</div>","null","","","","","","",""
"null","","image-keyboard-response","316","436947","0.0-6.0-0.32","","img/yellow.png","null","trial","32","false","0.6,0.4","3:go_c","",""
"null","","html-keyboard-response","317","437960","0.0-6.0-1.32","","<img src=""img/yellow-n.png"">","null","trial","32","","0.6,0.4","3:go_c","0",""
"null","","html-keyboard-response","318","438965","0.0-6.0-2.32","","<div style=""font-size:60px;"">+</div>","null","","","","","","",""
"412","","image-keyboard-response","319","439378","0.0-6.0-0.33","","img/green.png","32","trial","32","true","0.8,0.2","1:go_a","",""
"null","","html-keyboard-response","320","440381","0.0-6.0-1.33","","<img src=""img/green-r.png"" border=""10"">","null","trial","32","","0.8,0.2","1:go_a","1",""
"null","","html-keyboard-response","321","441390","0.0-6.0-2.33","","<div style=""font-size:60px;"">+</div>","null","","","","","","",""
"null","","image-keyboard-response","322","442903","0.0-6.0-0.34","","img/pink.png","null","trial","null","true","0.2,0.8","2:nogo_b","",""
"null","","html-keyboard-response","323","443919","0.0-6.0-1.34","","<img src=""img/pink-r.png"">","null","trial","null","","0.2,0.8","2:nogo_b","1",""
"null","","html-keyboard-response","324","444922","0.0-6.0-2.34","","<div style=""font-size:60px;"">+</div>","null","","","","","","",""
"511.30000001192093","","image-keyboard-response","325","445434","0.0-6.0-0.35","","img/orange.png","32","trial","null","false","0.4,0.6","4:nogo_d","",""
"null","","html-keyboard-response","326","446442","0.0-6.0-1.35","","<img src=""img/orange-r.png"" border=""10"">","null","trial","null","","0.4,0.6","4:nogo_d","1",""
"null","","html-keyboard-response","327","447443","0.0-6.0-2.35","","<div style=""font-size:60px;"">+</div>","null","","","","","","",""
"902.5999999940395","","image-keyboard-response","328","448346","0.0-6.0-0.36","","img/yellow.png","32","trial","32","true","0.6,0.4","3:go_c","",""
"null","","html-keyboard-response","329","449354","0.0-6.0-1.36","","<img src=""img/yellow-r.png"" border=""10"">","null","trial","32","","0.6,0.4","3:go_c","1",""
"null","","html-keyboard-response","330","450357","0.0-6.0-2.36","","<div style=""font-size:60px;"">+</div>","null","","","","","","",""
"null","","image-keyboard-response","331","451863","0.0-6.0-0.37","","img/orange.png","null","trial","null","true","0.4,0.6","4:nogo_d","",""
"null","","html-keyboard-response","332","452877","0.0-6.0-1.37","","<img src=""img/orange-n.png"">","null","trial","null","","0.4,0.6","4:nogo_d","0",""
"null","","html-keyboard-response","333","453885","0.0-6.0-2.37","","<div style=""font-size:60px;"">+</div>","null","","","","","","",""
"908.2000000178814","","image-keyboard-response","334","454794","0.0-6.0-0.38","","img/pink.png","32","trial","null","false","0.2,0.8","2:nogo_b","",""
"null","","html-keyboard-response","335","455799","0.0-6.0-1.38","","<img src=""img/pink-n.png"" border=""10"">","null","trial","null","","0.2,0.8","2:nogo_b","0",""
"null","","html-keyboard-response","336","456805","0.0-6.0-2.38","","<div style=""font-size:60px;"">+</div>","null","","","","","","",""
"356.2999999821186","","image-keyboard-response","337","457162","0.0-6.0-0.39","","img/green.png","32","trial","32","true","0.8,0.2","1:go_a","",""
"null","","html-keyboard-response","338","458170","0.0-6.0-1.39","","<img src=""img/green-r.png"" border=""10"">","null","trial","32","","0.8,0.2","1:go_a","1",""
"null","","html-keyboard-response","339","459176","0.0-6.0-2.39","","<div style=""font-size:60px;"">+</div>","null","","","","","","",""
"null","","image-keyboard-response","340","460686","0.0-6.0-0.40","","img/orange.png","null","trial","null","true","0.4,0.6","4:nogo_d","",""
"null","","html-keyboard-response","341","461692","0.0-6.0-1.40","","<img src=""img/orange-r.png"">","null","trial","null","","0.4,0.6","4:nogo_d","1",""
"null","","html-keyboard-response","342","462699","0.0-6.0-2.40","","<div style=""font-size:60px;"">+</div>","null","","","","","","",""
"null","","image-keyboard-response","343","464214","0.0-6.0-0.41","","img/pink.png","null","trial","null","true","0.2,0.8","2:nogo_b","",""
"null","","html-keyboard-response","344","465218","0.0-6.0-1.41","","<img src=""img/pink-n.png"">","null","trial","null","","0.2,0.8","2:nogo_b","0",""
"null","","html-keyboard-response","345","466233","0.0-6.0-2.41","","<div style=""font-size:60px;"">+</div>","null","","","","","","",""
"831.8999999761581","","image-keyboard-response","346","467066","0.0-6.0-0.42","","img/yellow.png","32","trial","32","true","0.6,0.4","3:go_c","",""
"null","","html-keyboard-response","347","468069","0.0-6.0-1.42","","<img src=""img/yellow-n.png"" border=""10"">","null","trial","32","","0.6,0.4","3:go_c","0",""
"null","","html-keyboard-response","348","469071","0.0-6.0-2.42","","<div style=""font-size:60px;"">+</div>","null","","","","","","",""
"489.80000001192093","","image-keyboard-response","349","469562","0.0-6.0-0.43","","img/green.png","32","trial","32","true","0.8,0.2","1:go_a","",""
"null","","html-keyboard-response","350","470564","0.0-6.0-1.43","","<img src=""img/green-n.png"" border=""10"">","null","trial","32","","0.8,0.2","1:go_a","0",""
"null","","html-keyboard-response","351","471578","0.0-6.0-2.43","","<div style=""font-size:60px;"">+</div>","null","","","","","","",""
"null","","image-keyboard-response","352","473086","0.0-6.0-0.44","","img/orange.png","null","trial","null","true","0.4,0.6","4:nogo_d","",""
"null","","html-keyboard-response","353","474091","0.0-6.0-1.44","","<img src=""img/orange-r.png"">","null","trial","null","","0.4,0.6","4:nogo_d","1",""
"null","","html-keyboard-response","354","475099","0.0-6.0-2.44","","<div style=""font-size:60px;"">+</div>","null","","","","","","",""
"894.6000000238419","","image-keyboard-response","355","475994","0.0-6.0-0.45","","img/yellow.png","32","trial","32","true","0.6,0.4","3:go_c","",""
"null","","html-keyboard-response","356","477008","0.0-6.0-1.45","","<img src=""img/yellow-r.png"" border=""10"">","null","trial","32","","0.6,0.4","3:go_c","1",""
"null","","html-keyboard-response","357","478022","0.0-6.0-2.45","","<div style=""font-size:60px;"">+</div>","null","","","","","","",""
"1147.2000000178814","","image-keyboard-response","358","479170","0.0-6.0-0.46","","img/pink.png","32","trial","null","false","0.2,0.8","2:nogo_b","",""
"null","","html-keyboard-response","359","480172","0.0-6.0-1.46","","<img src=""img/pink-n.png"" border=""10"">","null","trial","null","","0.2,0.8","2:nogo_b","0",""
"null","","html-keyboard-response","360","481174","0.0-6.0-2.46","","<div style=""font-size:60px;"">+</div>","null","","","","","","",""
"955.6000000238419","","image-keyboard-response","361","482130","0.0-6.0-0.47","","img/green.png","32","trial","32","true","0.8,0.2","1:go_a","",""
"null","","html-keyboard-response","362","483133","0.0-6.0-1.47","","<img src=""img/green-n.png"" border=""10"">","null","trial","32","","0.8,0.2","1:go_a","0",""
"null","","html-keyboard-response","363","484136","0.0-6.0-2.47","","<div style=""font-size:60px;"">+</div>","null","","","","","","",""
"737.0999999940395","","image-keyboard-response","364","484874","0.0-6.0-0.48","","img/pink.png","32","trial","null","false","0.2,0.8","2:nogo_b","",""
"null","","html-keyboard-response","365","485881","0.0-6.0-1.48","","<img src=""img/pink-n.png"" border=""10"">","null","trial","null","","0.2,0.8","2:nogo_b","0",""
"null","","html-keyboard-response","366","486893","0.0-6.0-2.48","","<div style=""font-size:60px;"">+</div>","null","","","","","","",""
"587.5999999940395","","image-keyboard-response","367","487482","0.0-6.0-0.49","","img/green.png","32","trial","32","true","0.8,0.2","1:go_a","",""
"null","","html-keyboard-response","368","488484","0.0-6.0-1.49","","<img src=""img/green-r.png"" border=""10"">","null","trial","32","","0.8,0.2","1:go_a","1",""
"null","","html-keyboard-response","369","489489","0.0-6.0-2.49","","<div style=""font-size:60px;"">+</div>","null","","","","","","",""
"null","","image-keyboard-response","370","491000","0.0-6.0-0.50","","img/yellow.png","null","trial","32","false","0.6,0.4","3:go_c","",""
"null","","html-keyboard-response","371","492005","0.0-6.0-1.50","","<img src=""img/yellow-n.png"">","null","trial","32","","0.6,0.4","3:go_c","0",""
"null","","html-keyboard-response","372","493014","0.0-6.0-2.50","","<div style=""font-size:60px;"">+</div>","null","","","","","","",""
"null","","image-keyboard-response","373","494528","0.0-6.0-0.51","","img/orange.png","null","trial","null","true","0.4,0.6","4:nogo_d","",""
"null","","html-keyboard-response","374","495534","0.0-6.0-1.51","","<img src=""img/orange-r.png"">","null","trial","null","","0.4,0.6","4:nogo_d","1",""
"null","","html-keyboard-response","375","496535","0.0-6.0-2.51","","<div style=""font-size:60px;"">+</div>","null","","","","","","",""
"810.5","","image-keyboard-response","376","497346","0.0-6.0-0.52","","img/pink.png","32","trial","null","false","0.2,0.8","2:nogo_b","",""
"null","","html-keyboard-response","377","498351","0.0-6.0-1.52","","<img src=""img/pink-n.png"" border=""10"">","null","trial","null","","0.2,0.8","2:nogo_b","0",""
"null","","html-keyboard-response","378","499354","0.0-6.0-2.52","","<div style=""font-size:60px;"">+</div>","null","","","","","","",""
"791.1999999880791","","image-keyboard-response","379","500146","0.0-6.0-0.53","","img/green.png","32","trial","32","true","0.8,0.2","1:go_a","",""
"null","","html-keyboard-response","380","501157","0.0-6.0-1.53","","<img src=""img/green-r.png"" border=""10"">","null","trial","32","","0.8,0.2","1:go_a","1",""
"null","","html-keyboard-response","381","502173","0.0-6.0-2.53","","<div style=""font-size:60px;"">+</div>","null","","","","","","",""
"null","","image-keyboard-response","382","503681","0.0-6.0-0.54","","img/orange.png","null","trial","null","true","0.4,0.6","4:nogo_d","",""
"null","","html-keyboard-response","383","504690","0.0-6.0-1.54","","<img src=""img/orange-n.png"">","null","trial","null","","0.4,0.6","4:nogo_d","0",""
"null","","html-keyboard-response","384","505692","0.0-6.0-2.54","","<div style=""font-size:60px;"">+</div>","null","","","","","","",""
"null","","image-keyboard-response","385","507195","0.0-6.0-0.55","","img/yellow.png","null","trial","32","false","0.6,0.4","3:go_c","",""
"null","","html-keyboard-response","386","508200","0.0-6.0-1.55","","<img src=""img/yellow-n.png"">","null","trial","32","","0.6,0.4","3:go_c","0",""
"null","","html-keyboard-response","387","509207","0.0-6.0-2.55","","<div style=""font-size:60px;"">+</div>","null","","","","","","",""
"954.4000000059605","","image-keyboard-response","388","510162","0.0-6.0-0.56","","img/yellow.png","32","trial","32","true","0.6,0.4","3:go_c","",""
"null","","html-keyboard-response","389","511171","0.0-6.0-1.56","","<img src=""img/yellow-n.png"" border=""10"">","null","trial","32","","0.6,0.4","3:go_c","0",""
"null","","html-keyboard-response","390","512176","0.0-6.0-2.56","","<div style=""font-size:60px;"">+</div>","null","","","","","","",""
"473","","image-keyboard-response","391","512650","0.0-6.0-0.57","","img/pink.png","32","trial","null","false","0.2,0.8","2:nogo_b","",""
"null","","html-keyboard-response","392","513654","0.0-6.0-1.57","","<img src=""img/pink-n.png"" border=""10"">","null","trial","null","","0.2,0.8","2:nogo_b","0",""
"null","","html-keyboard-response","393","514662","0.0-6.0-2.57","","<div style=""font-size:60px;"">+</div>","null","","","","","","",""
"411","","image-keyboard-response","394","515074","0.0-6.0-0.58","","img/green.png","32","trial","32","true","0.8,0.2","1:go_a","",""
"null","","html-keyboard-response","395","516089","0.0-6.0-1.58","","<img src=""img/green-r.png"" border=""10"">","null","trial","32","","0.8,0.2","1:go_a","1",""
"null","","html-keyboard-response","396","517092","0.0-6.0-2.58","","<div style=""font-size:60px;"">+</div>","null","","","","","","",""
"null","","image-keyboard-response","397","518606","0.0-6.0-0.59","","img/orange.png","null","trial","null","true","0.4,0.6","4:nogo_d","",""
"null","","html-keyboard-response","398","519609","0.0-6.0-1.59","","<img src=""img/orange-r.png"">","null","trial","null","","0.4,0.6","4:nogo_d","1",""
"null","","html-keyboard-response","399","520612","0.0-6.0-2.59","","<div style=""font-size:60px;"">+</div>","null","","","","","","",""
"null","","image-keyboard-response","400","522113","0.0-6.0-0.60","","img/orange.png","null","trial","null","true","0.4,0.6","4:nogo_d","",""
"null","","html-keyboard-response","401","523116","0.0-6.0-1.60","","<img src=""img/orange-r.png"">","null","trial","null","","0.4,0.6","4:nogo_d","1",""
"null","","html-keyboard-response","402","524127","0.0-6.0-2.60","","<div style=""font-size:60px;"">+</div>","null","","","","","","",""
"714.2999999821186","","image-keyboard-response","403","524842","0.0-6.0-0.61","","img/pink.png","32","trial","null","false","0.2,0.8","2:nogo_b","",""
"null","","html-keyboard-response","404","525845","0.0-6.0-1.61","","<img src=""img/pink-n.png"" border=""10"">","null","trial","null","","0.2,0.8","2:nogo_b","0",""
"null","","html-keyboard-response","405","526847","0.0-6.0-2.61","","<div style=""font-size:60px;"">+</div>","null","","","","","","",""
"1026.4000000059605","","image-keyboard-response","406","527874","0.0-6.0-0.62","","img/yellow.png","32","trial","32","true","0.6,0.4","3:go_c","",""
"null","","html-keyboard-response","407","528883","0.0-6.0-1.62","","<img src=""img/yellow-r.png"" border=""10"">","null","trial","32","","0.6,0.4","3:go_c","1",""
"null","","html-keyboard-response","408","529899","0.0-6.0-2.62","","<div style=""font-size:60px;"">+</div>","null","","","","","","",""
"469.90000000596046","","image-keyboard-response","409","530369","0.0-6.0-0.63","","img/green.png","32","trial","32","true","0.8,0.2","1:go_a","",""
"null","","html-keyboard-response","410","531376","0.0-6.0-1.63","","<img src=""img/green-r.png"" border=""10"">","null","trial","32","","0.8,0.2","1:go_a","1",""
"null","","html-keyboard-response","411","532378","0.0-6.0-2.63","","<div style=""font-size:60px;"">+</div>","null","","","","","","",""
"null","","image-keyboard-response","412","533893","0.0-6.0-0.64","","img/yellow.png","null","trial","32","false","0.6,0.4","3:go_c","",""
"null","","html-keyboard-response","413","534900","0.0-6.0-1.64","","<img src=""img/yellow-r.png"">","null","trial","32","","0.6,0.4","3:go_c","1",""
"null","","html-keyboard-response","414","535901","0.0-6.0-2.64","","<div style=""font-size:60px;"">+</div>","null","","","","","","",""
"587.9000000059605","","image-keyboard-response","415","536490","0.0-6.0-0.65","","img/orange.png","32","trial","null","false","0.4,0.6","4:nogo_d","",""
"null","","html-keyboard-response","416","537498","0.0-6.0-1.65","","<img src=""img/orange-n.png"" border=""10"">","null","trial","null","","0.4,0.6","4:nogo_d","0",""
"null","","html-keyboard-response","417","538499","0.0-6.0-2.65","","<div style=""font-size:60px;"">+</div>","null","","","","","","",""
"413.7000000178814","","image-keyboard-response","418","538914","0.0-6.0-0.66","","img/green.png","32","trial","32","true","0.8,0.2","1:go_a","",""
"null","","html-keyboard-response","419","539922","0.0-6.0-1.66","","<img src=""img/green-r.png"" border=""10"">","null","trial","32","","0.8,0.2","1:go_a","1",""
"null","","html-keyboard-response","420","540929","0.0-6.0-2.66","","<div style=""font-size:60px;"">+</div>","null","","","","","","",""
"null","","image-keyboard-response","421","542435","0.0-6.0-0.67","","img/pink.png","null","trial","null","true","0.2,0.8","2:nogo_b","",""
"null","","html-keyboard-response","422","543440","0.0-6.0-1.67","","<img src=""img/pink-r.png"">","null","trial","null","","0.2,0.8","2:nogo_b","1",""
"null","","html-keyboard-response","423","544451","0.0-6.0-2.67","","<div style=""font-size:60px;"">+</div>","null","","","","","","",""
"782.4000000059605","","image-keyboard-response","424","545234","0.0-6.0-0.68","","img/yellow.png","32","trial","32","true","0.6,0.4","3:go_c","",""
"null","","html-keyboard-response","425","546241","0.0-6.0-1.68","","<img src=""img/yellow-r.png"" border=""10"">","null","trial","32","","0.6,0.4","3:go_c","1",""
"null","","html-keyboard-response","426","547249","0.0-6.0-2.68","","<div style=""font-size:60px;"">+</div>","null","","","","","","",""
"null","","image-keyboard-response","427","548757","0.0-6.0-0.69","","img/orange.png","null","trial","null","true","0.4,0.6","4:nogo_d","",""
"null","","html-keyboard-response","428","549762","0.0-6.0-1.69","","<img src=""img/orange-r.png"">","null","trial","null","","0.4,0.6","4:nogo_d","1",""
"null","","html-keyboard-response","429","550771","0.0-6.0-2.69","","<div style=""font-size:60px;"">+</div>","null","","","","","","",""
"382.59999999403954","","image-keyboard-response","430","551154","0.0-6.0-0.70","","img/green.png","32","trial","32","true","0.8,0.2","1:go_a","",""
"null","","html-keyboard-response","431","552167","0.0-6.0-1.70","","<img src=""img/green-r.png"" border=""10"">","null","trial","32","","0.8,0.2","1:go_a","1",""
"null","","html-keyboard-response","432","553171","0.0-6.0-2.70","","<div style=""font-size:60px;"">+</div>","null","","","","","","",""
"null","","image-keyboard-response","433","554677","0.0-6.0-0.71","","img/pink.png","null","trial","null","true","0.2,0.8","2:nogo_b","",""
"null","","html-keyboard-response","434","555681","0.0-6.0-1.71","","<img src=""img/pink-n.png"">","null","trial","null","","0.2,0.8","2:nogo_b","0",""
"null","","html-keyboard-response","435","556697","0.0-6.0-2.71","","<div style=""font-size:60px;"">+</div>","null","","","","","","",""
"719.5999999940395","","image-keyboard-response","436","557418","0.0-6.0-0.72","","img/green.png","32","trial","32","true","0.8,0.2","1:go_a","",""
"null","","html-keyboard-response","437","558424","0.0-6.0-1.72","","<img src=""img/green-n.png"" border=""10"">","null","trial","32","","0.8,0.2","1:go_a","0",""
"null","","html-keyboard-response","438","559429","0.0-6.0-2.72","","<div style=""font-size:60px;"">+</div>","null","","","","","","",""
"852","","image-keyboard-response","439","560281","0.0-6.0-0.73","","img/pink.png","32","trial","null","false","0.2,0.8","2:nogo_b","",""
"null","","html-keyboard-response","440","561289","0.0-6.0-1.73","","<img src=""img/pink-n.png"" border=""10"">","null","trial","null","","0.2,0.8","2:nogo_b","0",""
"null","","html-keyboard-response","441","562305","0.0-6.0-2.73","","<div style=""font-size:60px;"">+</div>","null","","","","","","",""
"759.7999999821186","","image-keyboard-response","442","563066","0.0-6.0-0.74","","img/orange.png","32","trial","null","false","0.4,0.6","4:nogo_d","",""
"null","","html-keyboard-response","443","564075","0.0-6.0-1.74","","<img src=""img/orange-r.png"" border=""10"">","null","trial","null","","0.4,0.6","4:nogo_d","1",""
"null","","html-keyboard-response","444","565081","0.0-6.0-2.74","","<div style=""font-size:60px;"">+</div>","null","","","","","","",""
"536","","image-keyboard-response","445","565618","0.0-6.0-0.75","","img/yellow.png","32","trial","32","true","0.6,0.4","3:go_c","",""
"null","","html-keyboard-response","446","566631","0.0-6.0-1.75","","<img src=""img/yellow-r.png"" border=""10"">","null","trial","32","","0.6,0.4","3:go_c","1",""
"null","","html-keyboard-response","447","567646","0.0-6.0-2.75","","<div style=""font-size:60px;"">+</div>","null","","","","","","",""
"458.7999999821186","","image-keyboard-response","448","568106","0.0-6.0-0.76","","img/pink.png","32","trial","null","false","0.2,0.8","2:nogo_b","",""
"null","","html-keyboard-response","449","569109","0.0-6.0-1.76","","<img src=""img/pink-n.png"" border=""10"">","null","trial","null","","0.2,0.8","2:nogo_b","0",""
"null","","html-keyboard-response","450","570114","0.0-6.0-2.76","","<div style=""font-size:60px;"">+</div>","null","","","","","","",""
"502.59999999403954","","image-keyboard-response","451","570618","0.0-6.0-0.77","","img/orange.png","32","trial","null","false","0.4,0.6","4:nogo_d","",""
"null","","html-keyboard-response","452","571620","0.0-6.0-1.77","","<img src=""img/orange-r.png"" border=""10"">","null","trial","null","","0.4,0.6","4:nogo_d","1",""
"null","","html-keyboard-response","453","572627","0.0-6.0-2.77","","<div style=""font-size:60px;"">+</div>","null","","","","","","",""
"382","","image-keyboard-response","454","573010","0.0-6.0-0.78","","img/green.png","32","trial","32","true","0.8,0.2","1:go_a","",""
"null","","html-keyboard-response","455","574024","0.0-6.0-1.78","","<img src=""img/green-r.png"" border=""10"">","null","trial","32","","0.8,0.2","1:go_a","1",""
"null","","html-keyboard-response","456","575027","0.0-6.0-2.78","","<div style=""font-size:60px;"">+</div>","null","","","","","","",""
"670.1000000238419","","image-keyboard-response","457","575698","0.0-6.0-0.79","","img/yellow.png","32","trial","32","true","0.6,0.4","3:go_c","",""
"null","","html-keyboard-response","458","576708","0.0-6.0-1.79","","<img src=""img/yellow-n.png"" border=""10"">","null","trial","32","","0.6,0.4","3:go_c","0",""
"null","","html-keyboard-response","459","577713","0.0-6.0-2.79","","<div style=""font-size:60px;"">+</div>","null","","","","","","",""
"null","","image-keyboard-response","460","579222","0.0-6.0-0.80","","img/orange.png","null","trial","null","true","0.4,0.6","4:nogo_d","",""
"null","","html-keyboard-response","461","580223","0.0-6.0-1.80","","<img src=""img/orange-n.png"">","null","trial","null","","0.4,0.6","4:nogo_d","0",""
"null","","html-keyboard-response","462","581233","0.0-6.0-2.80","","<div style=""font-size:60px;"">+</div>","null","","","","","","",""
"null","","image-keyboard-response","463","582745","0.0-6.0-0.81","","img/pink.png","null","trial","null","true","0.2,0.8","2:nogo_b","",""
"null","","html-keyboard-response","464","583746","0.0-6.0-1.81","","<img src=""img/pink-r.png"">","null","trial","null","","0.2,0.8","2:nogo_b","1",""
"null","","html-keyboard-response","465","584761","0.0-6.0-2.81","","<div style=""font-size:60px;"">+</div>","null","","","","","","",""
"null","","image-keyboard-response","466","586275","0.0-6.0-0.82","","img/yellow.png","null","trial","32","false","0.6,0.4","3:go_c","",""
"null","","html-keyboard-response","467","587281","0.0-6.0-1.82","","<img src=""img/yellow-n.png"">","null","trial","32","","0.6,0.4","3:go_c","0",""
"null","","html-keyboard-response","468","588283","0.0-6.0-2.82","","<div style=""font-size:60px;"">+</div>","null","","","","","","",""
"534.4000000059605","","image-keyboard-response","469","588818","0.0-6.0-0.83","","img/green.png","32","trial","32","true","0.8,0.2","1:go_a","",""
"null","","html-keyboard-response","470","589826","0.0-6.0-1.83","","<img src=""img/green-r.png"" border=""10"">","null","trial","32","","0.8,0.2","1:go_a","1",""
"null","","html-keyboard-response","471","590829","0.0-6.0-2.83","","<div style=""font-size:60px;"">+</div>","null","","","","","","",""
"436.40000000596046","","image-keyboard-response","472","591266","0.0-6.0-0.84","","img/green.png","32","trial","32","true","0.8,0.2","1:go_a","",""
"null","","html-keyboard-response","473","592273","0.0-6.0-1.84","","<img src=""img/green-r.png"" border=""10"">","null","trial","32","","0.8,0.2","1:go_a","1",""
"null","","html-keyboard-response","474","593276","0.0-6.0-2.84","","<div style=""font-size:60px;"">+</div>","null","","","","","","",""
"null","","image-keyboard-response","475","594791","0.0-6.0-0.85","","img/orange.png","null","trial","null","true","0.4,0.6","4:nogo_d","",""
"null","","html-keyboard-response","476","595797","0.0-6.0-1.85","","<img src=""img/orange-r.png"">","null","trial","null","","0.4,0.6","4:nogo_d","1",""
"null","","html-keyboard-response","477","596813","0.0-6.0-2.85","","<div style=""font-size:60px;"">+</div>","null","","","","","","",""
"null","","image-keyboard-response","478","598320","0.0-6.0-0.86","","img/pink.png","null","trial","null","true","0.2,0.8","2:nogo_b","",""
"null","","html-keyboard-response","479","599334","0.0-6.0-1.86","","<img src=""img/pink-r.png"">","null","trial","null","","0.2,0.8","2:nogo_b","1",""
"null","","html-keyboard-response","480","600348","0.0-6.0-2.86","","<div style=""font-size:60px;"">+</div>","null","","","","","","",""
"836.9000000059605","","image-keyboard-response","481","601186","0.0-6.0-0.87","","img/yellow.png","32","trial","32","true","0.6,0.4","3:go_c","",""
"null","","html-keyboard-response","482","602190","0.0-6.0-1.87","","<img src=""img/yellow-r.png"" border=""10"">","null","trial","32","","0.6,0.4","3:go_c","1",""
"null","","html-keyboard-response","483","603197","0.0-6.0-2.87","","<div style=""font-size:60px;"">+</div>","null","","","","","","",""
"923.9000000059605","","image-keyboard-response","484","604122","0.0-6.0-0.88","","img/pink.png","32","trial","null","false","0.2,0.8","2:nogo_b","",""
"null","","html-keyboard-response","485","605124","0.0-6.0-1.88","","<img src=""img/pink-r.png"" border=""10"">","null","trial","null","","0.2,0.8","2:nogo_b","1",""
"null","","html-keyboard-response","486","606127","0.0-6.0-2.88","","<div style=""font-size:60px;"">+</div>","null","","","","","","",""
"1105.9000000059605","","image-keyboard-response","487","607234","0.0-6.0-0.89","","img/yellow.png","32","trial","32","true","0.6,0.4","3:go_c","",""
"null","","html-keyboard-response","488","608242","0.0-6.0-1.89","","<img src=""img/yellow-r.png"" border=""10"">","null","trial","32","","0.6,0.4","3:go_c","1",""
"null","","html-keyboard-response","489","609244","0.0-6.0-2.89","","<div style=""font-size:60px;"">+</div>","null","","","","","","",""
"null","","image-keyboard-response","490","610750","0.0-6.0-0.90","","img/orange.png","null","trial","null","true","0.4,0.6","4:nogo_d","",""
"null","","html-keyboard-response","491","611758","0.0-6.0-1.90","","<img src=""img/orange-r.png"">","null","trial","null","","0.4,0.6","4:nogo_d","1",""
"null","","html-keyboard-response","492","612768","0.0-6.0-2.90","","<div style=""font-size:60px;"">+</div>","null","","","","","","",""
"408.7999999821186","","image-keyboard-response","493","613178","0.0-6.0-0.91","","img/green.png","32","trial","32","true","0.8,0.2","1:go_a","",""
"null","","html-keyboard-response","494","614183","0.0-6.0-1.91","","<img src=""img/green-r.png"" border=""10"">","null","trial","32","","0.8,0.2","1:go_a","1",""
"null","","html-keyboard-response","495","615186","0.0-6.0-2.91","","<div style=""font-size:60px;"">+</div>","null","","","","","","",""
"591.2000000178814","","image-keyboard-response","496","615778","0.0-6.0-0.92","","img/green.png","32","trial","32","true","0.8,0.2","1:go_a","",""
"null","","html-keyboard-response","497","616784","0.0-6.0-1.92","","<img src=""img/green-n.png"" border=""10"">","null","trial","32","","0.8,0.2","1:go_a","0",""
"null","","html-keyboard-response","498","617799","0.0-6.0-2.92","","<div style=""font-size:60px;"">+</div>","null","","","","","","",""
"506.09999999403954","","image-keyboard-response","499","618306","0.0-6.0-0.93","","img/orange.png","32","trial","null","false","0.4,0.6","4:nogo_d","",""
"null","","html-keyboard-response","500","619308","0.0-6.0-1.93","","<img src=""img/orange-n.png"" border=""10"">","null","trial","null","","0.4,0.6","4:nogo_d","0",""
"null","","html-keyboard-response","501","620312","0.0-6.0-2.93","","<div style=""font-size:60px;"">+</div>","null","","","","","","",""
"529.1999999880791","","image-keyboard-response","502","620841","0.0-6.0-0.94","","img/yellow.png","32","trial","32","true","0.6,0.4","3:go_c","",""
"null","","html-keyboard-response","503","621851","0.0-6.0-1.94","","<img src=""img/yellow-n.png"" border=""10"">","null","trial","32","","0.6,0.4","3:go_c","0",""
"null","","html-keyboard-response","504","622857","0.0-6.0-2.94","","<div style=""font-size:60px;"">+</div>","null","","","","","","",""
"null","","image-keyboard-response","505","624365","0.0-6.0-0.95","","img/pink.png","null","trial","null","true","0.2,0.8","2:nogo_b","",""
"null","","html-keyboard-response","506","625381","0.0-6.0-1.95","","<img src=""img/pink-r.png"">","null","trial","null","","0.2,0.8","2:nogo_b","1",""
"null","","html-keyboard-response","507","626382","0.0-6.0-2.95","","<div style=""font-size:60px;"">+</div>","null","","","","","","",""
"null","","image-keyboard-response","508","627886","0.0-6.0-0.96","","img/pink.png","null","trial","null","true","0.2,0.8","2:nogo_b","",""
"null","","html-keyboard-response","509","628889","0.0-6.0-1.96","","<img src=""img/pink-r.png"">","null","trial","null","","0.2,0.8","2:nogo_b","1",""
"null","","html-keyboard-response","510","629893","0.0-6.0-2.96","","<div style=""font-size:60px;"">+</div>","null","","","","","","",""
"null","","image-keyboard-response","511","631397","0.0-6.0-0.97","","img/yellow.png","null","trial","32","false","0.6,0.4","3:go_c","",""
"null","","html-keyboard-response","512","632398","0.0-6.0-1.97","","<img src=""img/yellow-n.png"">","null","trial","32","","0.6,0.4","3:go_c","0",""
"null","","html-keyboard-response","513","633405","0.0-6.0-2.97","","<div style=""font-size:60px;"">+</div>","null","","","","","","",""
"null","","image-keyboard-response","514","634910","0.0-6.0-0.98","","img/orange.png","null","trial","null","true","0.4,0.6","4:nogo_d","",""
"null","","html-keyboard-response","515","635917","0.0-6.0-1.98","","<img src=""img/orange-n.png"">","null","trial","null","","0.4,0.6","4:nogo_d","0",""
"null","","html-keyboard-response","516","636925","0.0-6.0-2.98","","<div style=""font-size:60px;"">+</div>","null","","","","","","",""
"548.3000000119209","","image-keyboard-response","517","637474","0.0-6.0-0.99","","img/green.png","32","trial","32","true","0.8,0.2","1:go_a","",""
"null","","html-keyboard-response","518","638487","0.0-6.0-1.99","","<img src=""img/green-r.png"" border=""10"">","null","trial","32","","0.8,0.2","1:go_a","1",""
"null","","html-keyboard-response","519","639492","0.0-6.0-2.99","","<div style=""font-size:60px;"">+</div>","null","","","","","","",""
"661.0999999940395","","image-keyboard-response","520","640153","0.0-6.0-0.100","","img/green.png","32","trial","32","true","0.8,0.2","1:go_a","",""
"null","","html-keyboard-response","521","641158","0.0-6.0-1.100","","<img src=""img/green-r.png"" border=""10"">","null","trial","32","","0.8,0.2","1:go_a","1",""
"null","","html-keyboard-response","522","642163","0.0-6.0-2.100","","<div style=""font-size:60px;"">+</div>","null","","","","","","",""
"1270.4000000059605","","image-keyboard-response","523","643433","0.0-6.0-0.101","","img/orange.png","32","trial","null","false","0.4,0.6","4:nogo_d","",""
"null","","html-keyboard-response","524","644444","0.0-6.0-1.101","","<img src=""img/orange-r.png"" border=""10"">","null","trial","null","","0.4,0.6","4:nogo_d","1",""
"null","","html-keyboard-response","525","645450","0.0-6.0-2.101","","<div style=""font-size:60px;"">+</div>","null","","","","","","",""
"942.8000000119209","","image-keyboard-response","526","646393","0.0-6.0-0.102","","img/yellow.png","32","trial","32","true","0.6,0.4","3:go_c","",""
"null","","html-keyboard-response","527","647401","0.0-6.0-1.102","","<img src=""img/yellow-r.png"" border=""10"">","null","trial","32","","0.6,0.4","3:go_c","1",""
"null","","html-keyboard-response","528","648409","0.0-6.0-2.102","","<div style=""font-size:60px;"">+</div>","null","","","","","","",""
"720.4000000059605","","image-keyboard-response","529","649130","0.0-6.0-0.103","","img/pink.png","32","trial","null","false","0.2,0.8","2:nogo_b","",""
"null","","html-keyboard-response","530","650139","0.0-6.0-1.103","","<img src=""img/pink-r.png"" border=""10"">","null","trial","null","","0.2,0.8","2:nogo_b","1",""
"null","","html-keyboard-response","531","651140","0.0-6.0-2.103","","<div style=""font-size:60px;"">+</div>","null","","","","","","",""
"604.6999999880791","","image-keyboard-response","532","651745","0.0-6.0-0.104","","img/green.png","32","trial","32","true","0.8,0.2","1:go_a","",""
"null","","html-keyboard-response","533","652761","0.0-6.0-1.104","","<img src=""img/green-n.png"" border=""10"">","null","trial","32","","0.8,0.2","1:go_a","0",""
"null","","html-keyboard-response","534","653764","0.0-6.0-2.104","","<div style=""font-size:60px;"">+</div>","null","","","","","","",""
"null","","image-keyboard-response","535","655268","0.0-6.0-0.105","","img/orange.png","null","trial","null","true","0.4,0.6","4:nogo_d","",""
"null","","html-keyboard-response","536","656274","0.0-6.0-1.105","","<img src=""img/orange-r.png"">","null","trial","null","","0.4,0.6","4:nogo_d","1",""
"null","","html-keyboard-response","537","657290","0.0-6.0-2.105","","<div style=""font-size:60px;"">+</div>","null","","","","","","",""
"1119.0999999940395","","image-keyboard-response","538","658410","0.0-6.0-0.106","","img/pink.png","32","trial","null","false","0.2,0.8","2:nogo_b","",""
"null","","html-keyboard-response","539","659423","0.0-6.0-1.106","","<img src=""img/pink-n.png"" border=""10"">","null","trial","null","","0.2,0.8","2:nogo_b","0",""
"null","","html-keyboard-response","540","660433","0.0-6.0-2.106","","<div style=""font-size:60px;"">+</div>","null","","","","","","",""
"null","","image-keyboard-response","541","661935","0.0-6.0-0.107","","img/yellow.png","null","trial","32","false","0.6,0.4","3:go_c","",""
"null","","html-keyboard-response","542","662936","0.0-6.0-1.107","","<img src=""img/yellow-n.png"">","null","trial","32","","0.6,0.4","3:go_c","0",""
"null","","html-keyboard-response","543","663942","0.0-6.0-2.107","","<div style=""font-size:60px;"">+</div>","null","","","","","","",""
"1107.199999988079","","image-keyboard-response","544","665049","0.0-6.0-0.108","","img/yellow.png","32","trial","32","true","0.6,0.4","3:go_c","",""
"null","","html-keyboard-response","545","666053","0.0-6.0-1.108","","<img src=""img/yellow-r.png"" border=""10"">","null","trial","32","","0.6,0.4","3:go_c","1",""
"null","","html-keyboard-response","546","667070","0.0-6.0-2.108","","<div style=""font-size:60px;"">+</div>","null","","","","","","",""
"475.7999999821186","","image-keyboard-response","547","667546","0.0-6.0-0.109","","img/green.png","32","trial","32","true","0.8,0.2","1:go_a","",""
"null","","html-keyboard-response","548","668553","0.0-6.0-1.109","","<img src=""img/green-r.png"" border=""10"">","null","trial","32","","0.8,0.2","1:go_a","1",""
"null","","html-keyboard-response","549","669559","0.0-6.0-2.109","","<div style=""font-size:60px;"">+</div>","null","","","","","","",""
"618.3000000119209","","image-keyboard-response","550","670177","0.0-6.0-0.110","","img/orange.png","32","trial","null","false","0.4,0.6","4:nogo_d","",""
"null","","html-keyboard-response","551","671191","0.0-6.0-1.110","","<img src=""img/orange-r.png"" border=""10"">","null","trial","null","","0.4,0.6","4:nogo_d","1",""
"null","","html-keyboard-response","552","672207","0.0-6.0-2.110","","<div style=""font-size:60px;"">+</div>","null","","","","","","",""
"null","","image-keyboard-response","553","673715","0.0-6.0-0.111","","img/pink.png","null","trial","null","true","0.2,0.8","2:nogo_b","",""
"null","","html-keyboard-response","554","674721","0.0-6.0-1.111","","<img src=""img/pink-r.png"">","null","trial","null","","0.2,0.8","2:nogo_b","1",""
"null","","html-keyboard-response","555","675737","0.0-6.0-2.111","","<div style=""font-size:60px;"">+</div>","null","","","","","","",""
"1272.0999999940395","","image-keyboard-response","556","677010","0.0-6.0-0.112","","img/yellow.png","32","trial","32","true","0.6,0.4","3:go_c","",""
"null","","html-keyboard-response","557","678025","0.0-6.0-1.112","","<img src=""img/yellow-r.png"" border=""10"">","null","trial","32","","0.6,0.4","3:go_c","1",""
"null","","html-keyboard-response","558","679040","0.0-6.0-2.112","","<div style=""font-size:60px;"">+</div>","null","","","","","","",""
"1017.1999999880791","","image-keyboard-response","559","680057","0.0-6.0-0.113","","img/orange.png","32","trial","null","false","0.4,0.6","4:nogo_d","",""
"null","","html-keyboard-response","560","681063","0.0-6.0-1.113","","<img src=""img/orange-n.png"" border=""10"">","null","trial","null","","0.4,0.6","4:nogo_d","0",""
"null","","html-keyboard-response","561","682066","0.0-6.0-2.113","","<div style=""font-size:60px;"">+</div>","null","","","","","","",""
"974.7000000178814","","image-keyboard-response","562","683041","0.0-6.0-0.114","","img/pink.png","32","trial","null","false","0.2,0.8","2:nogo_b","",""
"null","","html-keyboard-response","563","684046","0.0-6.0-1.114","","<img src=""img/pink-n.png"" border=""10"">","null","trial","null","","0.2,0.8","2:nogo_b","0",""
"null","","html-keyboard-response","564","685047","0.0-6.0-2.114","","<div style=""font-size:60px;"">+</div>","null","","","","","","",""
"506.2000000178814","","image-keyboard-response","565","685553","0.0-6.0-0.115","","img/green.png","32","trial","32","true","0.8,0.2","1:go_a","",""
"null","","html-keyboard-response","566","686554","0.0-6.0-1.115","","<img src=""img/green-r.png"" border=""10"">","null","trial","32","","0.8,0.2","1:go_a","1",""
"null","","html-keyboard-response","567","687562","0.0-6.0-2.115","","<div style=""font-size:60px;"">+</div>","null","","","","","","",""
"null","","image-keyboard-response","568","689072","0.0-6.0-0.116","","img/orange.png","null","trial","null","true","0.4,0.6","4:nogo_d","",""
"null","","html-keyboard-response","569","690076","0.0-6.0-1.116","","<img src=""img/orange-r.png"">","null","trial","null","","0.4,0.6","4:nogo_d","1",""
"null","","html-keyboard-response","570","691083","0.0-6.0-2.116","","<div style=""font-size:60px;"">+</div>","null","","","","","","",""
"438.19999998807907","","image-keyboard-response","571","691522","0.0-6.0-0.117","","img/green.png","32","trial","32","true","0.8,0.2","1:go_a","",""
"null","","html-keyboard-response","572","692538","0.0-6.0-1.117","","<img src=""img/green-r.png"" border=""10"">","null","trial","32","","0.8,0.2","1:go_a","1",""
"null","","html-keyboard-response","573","693546","0.0-6.0-2.117","","<div style=""font-size:60px;"">+</div>","null","","","","","","",""
"743.8000000119209","","image-keyboard-response","574","694290","0.0-6.0-0.118","","img/pink.png","32","trial","null","false","0.2,0.8","2:nogo_b","",""
"null","","html-keyboard-response","575","695305","0.0-6.0-1.118","","<img src=""img/pink-n.png"" border=""10"">","null","trial","null","","0.2,0.8","2:nogo_b","0",""
"null","","html-keyboard-response","576","696311","0.0-6.0-2.118","","<div style=""font-size:60px;"">+</div>","null","","","","","","",""
"null","","image-keyboard-response","577","697820","0.0-6.0-0.119","","img/yellow.png","null","trial","32","false","0.6,0.4","3:go_c","",""
"null","","html-keyboard-response","578","698825","0.0-6.0-1.119","","<img src=""img/yellow-n.png"">","null","trial","32","","0.6,0.4","3:go_c","0",""
"null","","html-keyboard-response","579","699829","0.0-6.0-2.119","","<div style=""font-size:60px;"">+</div>","null","","","","","","",""
"3841.199999988079","","instructions","580","703671","0.0-7.0","[{""page_index"":0,""viewing_time"":3841}]","","","","","","","","",""
"1369.5","","image-keyboard-response","581","705041","0.0-8.0-0.0","","img/red.png","32","trial","null","false","0.4,0.6","4:nogo_d","",""
"null","","html-keyboard-response","582","706045","0.0-8.0-1.0","","<img src=""img/red-n.png"" border=""10"">","null","trial","null","","0.4,0.6","4:nogo_d","0",""
"null","","html-keyboard-response","583","707050","0.0-8.0-2.0","","<div style=""font-size:60px;"">+</div>","null","","","","","","",""
"447.09999999403954","","image-keyboard-response","584","707497","0.0-8.0-0.1","","img/orange.png","32","trial","null","false","0.4,0.6","2:nogo_b","",""
"null","","html-keyboard-response","585","708506","0.0-8.0-1.1","","<img src=""img/orange-r.png"" border=""10"">","null","trial","null","","0.4,0.6","2:nogo_b","1",""
"null","","html-keyboard-response","586","709512","0.0-8.0-2.1","","<div style=""font-size:60px;"">+</div>","null","","","","","","",""
"296.40000000596046","","image-keyboard-response","587","709809","0.0-8.0-0.2","","img/yellow.png","32","trial","32","true","0.6,0.4","1:go_a","",""
"null","","html-keyboard-response","588","710815","0.0-8.0-1.2","","<img src=""img/yellow-r.png"" border=""10"">","null","trial","32","","0.6,0.4","1:go_a","1",""
"null","","html-keyboard-response","589","711828","0.0-8.0-2.2","","<div style=""font-size:60px;"">+</div>","null","","","","","","",""
"268.59999999403954","","image-keyboard-response","590","712097","0.0-8.0-0.3","","img/green.png","32","trial","32","true","0.6,0.4","3:go_c","",""
"null","","html-keyboard-response","591","713103","0.0-8.0-1.3","","<img src=""img/green-n.png"" border=""10"">","null","trial","32","","0.6,0.4","3:go_c","0",""
"null","","html-keyboard-response","592","714106","0.0-8.0-2.3","","<div style=""font-size:60px;"">+</div>","null","","","","","","",""
"366.80000001192093","","image-keyboard-response","593","714474","0.0-8.0-0.4","","img/red.png","32","trial","null","false","0.4,0.6","4:nogo_d","",""
"null","","html-keyboard-response","594","715485","0.0-8.0-1.4","","<img src=""img/red-r.png"" border=""10"">","null","trial","null","","0.4,0.6","4:nogo_d","1",""
"null","","html-keyboard-response","595","716487","0.0-8.0-2.4","","<div style=""font-size:60px;"">+</div>","null","","","","","","",""
"298.09999999403954","","image-keyboard-response","596","716785","0.0-8.0-0.5","","img/yellow.png","32","trial","32","true","0.6,0.4","1:go_a","",""
"null","","html-keyboard-response","597","717793","0.0-8.0-1.5","","<img src=""img/yellow-n.png"" border=""10"">","null","trial","32","","0.6,0.4","1:go_a","0",""
"null","","html-keyboard-response","598","718806","0.0-8.0-2.5","","<div style=""font-size:60px;"">+</div>","null","","","","","","",""
"618.9000000059605","","image-keyboard-response","599","719425","0.0-8.0-0.6","","img/orange.png","32","trial","null","false","0.4,0.6","2:nogo_b","",""
"null","","html-keyboard-response","600","720438","0.0-8.0-1.6","","<img src=""img/orange-n.png"" border=""10"">","null","trial","null","","0.4,0.6","2:nogo_b","0",""
"null","","html-keyboard-response","601","721443","0.0-8.0-2.6","","<div style=""font-size:60px;"">+</div>","null","","","","","","",""
"341.40000000596046","","image-keyboard-response","602","721785","0.0-8.0-0.7","","img/green.png","32","trial","32","true","0.6,0.4","3:go_c","",""
"null","","html-keyboard-response","603","722793","0.0-8.0-1.7","","<img src=""img/green-r.png"" border=""10"">","null","trial","32","","0.6,0.4","3:go_c","1",""
"null","","html-keyboard-response","604","723797","0.0-8.0-2.7","","<div style=""font-size:60px;"">+</div>","null","","","","","","",""
"707.5999999940395","","image-keyboard-response","605","724506","0.0-8.0-0.8","","img/green.png","32","trial","32","true","0.6,0.4","3:go_c","",""
"null","","html-keyboard-response","606","725508","0.0-8.0-1.8","","<img src=""img/green-r.png"" border=""10"">","null","trial","32","","0.6,0.4","3:go_c","1",""
"null","","html-keyboard-response","607","726513","0.0-8.0-2.8","","<div style=""font-size:60px;"">+</div>","null","","","","","","",""
"495.90000000596046","","image-keyboard-response","608","727009","0.0-8.0-0.9","","img/orange.png","32","trial","null","false","0.4,0.6","2:nogo_b","",""
"null","","html-keyboard-response","609","728021","0.0-8.0-1.9","","<img src=""img/orange-r.png"" border=""10"">","null","trial","null","","0.4,0.6","2:nogo_b","1",""
"null","","html-keyboard-response","610","729025","0.0-8.0-2.9","","<div style=""font-size:60px;"">+</div>","null","","","","","","",""
"519.5","","image-keyboard-response","611","729545","0.0-8.0-0.10","","img/yellow.png","32","trial","32","true","0.6,0.4","1:go_a","",""
"null","","html-keyboard-response","612","730562","0.0-8.0-1.10","","<img src=""img/yellow-n.png"" border=""10"">","null","trial","32","","0.6,0.4","1:go_a","0",""
"null","","html-keyboard-response","613","731569","0.0-8.0-2.10","","<div style=""font-size:60px;"">+</div>","null","","","","","","",""
"608.3000000119209","","image-keyboard-response","614","732178","0.0-8.0-0.11","","img/red.png","32","trial","null","false","0.4,0.6","4:nogo_d","",""
"null","","html-keyboard-response","615","733189","0.0-8.0-1.11","","<img src=""img/red-r.png"" border=""10"">","null","trial","null","","0.4,0.6","4:nogo_d","1",""
"null","","html-keyboard-response","616","734203","0.0-8.0-2.11","","<div style=""font-size:60px;"">+</div>","null","","","","","","",""
"null","","image-keyboard-response","617","735713","0.0-8.0-0.12","","img/yellow.png","null","trial","32","false","0.6,0.4","1:go_a","",""
"null","","html-keyboard-response","618","736718","0.0-8.0-1.12","","<img src=""img/yellow-r.png"">","null","trial","32","","0.6,0.4","1:go_a","1",""
"null","","html-keyboard-response","619","737719","0.0-8.0-2.12","","<div style=""font-size:60px;"">+</div>","null","","","","","","",""
"1034.4000000059605","","image-keyboard-response","620","738753","0.0-8.0-0.13","","img/red.png","32","trial","null","false","0.4,0.6","4:nogo_d","",""
"null","","html-keyboard-response","621","739757","0.0-8.0-1.13","","<img src=""img/red-n.png"" border=""10"">","null","trial","null","","0.4,0.6","4:nogo_d","0",""
"null","","html-keyboard-response","622","740762","0.0-8.0-2.13","","<div style=""font-size:60px;"">+</div>","null","","","","","","",""
"null","","image-keyboard-response","623","742274","0.0-8.0-0.14","","img/orange.png","null","trial","null","true","0.4,0.6","2:nogo_b","",""
"null","","html-keyboard-response","624","743279","0.0-8.0-1.14","","<img src=""img/orange-r.png"">","null","trial","null","","0.4,0.6","2:nogo_b","1",""
"null","","html-keyboard-response","625","744284","0.0-8.0-2.14","","<div style=""font-size:60px;"">+</div>","null","","","","","","",""
"1157.2000000178814","","image-keyboard-response","626","745441","0.0-8.0-0.15","","img/green.png","32","trial","32","true","0.6,0.4","3:go_c","",""
"null","","html-keyboard-response","627","746450","0.0-8.0-1.15","","<img src=""img/green-r.png"" border=""10"">","null","trial","32","","0.6,0.4","3:go_c","1",""
"null","","html-keyboard-response","628","747454","0.0-8.0-2.15","","<div style=""font-size:60px;"">+</div>","null","","","","","","",""
"570.5","","image-keyboard-response","629","748025","0.0-8.0-0.16","","img/green.png","32","trial","32","true","0.6,0.4","3:go_c","",""
"null","","html-keyboard-response","630","749028","0.0-8.0-1.16","","<img src=""img/green-r.png"" border=""10"">","null","trial","32","","0.6,0.4","3:go_c","1",""
"null","","html-keyboard-response","631","750033","0.0-8.0-2.16","","<div style=""font-size:60px;"">+</div>","null","","","","","","",""
"null","","image-keyboard-response","632","751536","0.0-8.0-0.17","","img/red.png","null","trial","null","true","0.4,0.6","4:nogo_d","",""
"null","","html-keyboard-response","633","752552","0.0-8.0-1.17","","<img src=""img/red-r.png"">","null","trial","null","","0.4,0.6","4:nogo_d","1",""
"null","","html-keyboard-response","634","753567","0.0-8.0-2.17","","<div style=""font-size:60px;"">+</div>","null","","","","","","",""
"873.5","","image-keyboard-response","635","754441","0.0-8.0-0.18","","img/orange.png","32","trial","null","false","0.4,0.6","2:nogo_b","",""
"null","","html-keyboard-response","636","755458","0.0-8.0-1.18","","<img src=""img/orange-n.png"" border=""10"">","null","trial","null","","0.4,0.6","2:nogo_b","0",""
"null","","html-keyboard-response","637","756467","0.0-8.0-2.18","","<div style=""font-size:60px;"">+</div>","null","","","","","","",""
"null","","image-keyboard-response","638","757974","0.0-8.0-0.19","","img/yellow.png","null","trial","32","false","0.6,0.4","1:go_a","",""
"null","","html-keyboard-response","639","758978","0.0-8.0-1.19","","<img src=""img/yellow-n.png"">","null","trial","32","","0.6,0.4","1:go_a","0",""
"null","","html-keyboard-response","640","759979","0.0-8.0-2.19","","<div style=""font-size:60px;"">+</div>","null","","","","","","",""
"1038","","image-keyboard-response","641","761017","0.0-8.0-0.20","","img/green.png","32","trial","32","true","0.6,0.4","3:go_c","",""
"null","","html-keyboard-response","642","762027","0.0-8.0-1.20","","<img src=""img/green-r.png"" border=""10"">","null","trial","32","","0.6,0.4","3:go_c","1",""
"null","","html-keyboard-response","643","763033","0.0-8.0-2.20","","<div style=""font-size:60px;"">+</div>","null","","","","","","",""
"null","","image-keyboard-response","644","764540","0.0-8.0-0.21","","img/yellow.png","null","trial","32","false","0.6,0.4","1:go_a","",""
"null","","html-keyboard-response","645","765548","0.0-8.0-1.21","","<img src=""img/yellow-n.png"">","null","trial","32","","0.6,0.4","1:go_a","0",""
"null","","html-keyboard-response","646","766551","0.0-8.0-2.21","","<div style=""font-size:60px;"">+</div>","null","","","","","","",""
"617.7000000178814","","image-keyboard-response","647","767169","0.0-8.0-0.22","","img/orange.png","32","trial","null","false","0.4,0.6","2:nogo_b","",""
"null","","html-keyboard-response","648","768183","0.0-8.0-1.22","","<img src=""img/orange-r.png"" border=""10"">","null","trial","null","","0.4,0.6","2:nogo_b","1",""
"null","","html-keyboard-response","649","769195","0.0-8.0-2.22","","<div style=""font-size:60px;"">+</div>","null","","","","","","",""
"997.5","","image-keyboard-response","650","770193","0.0-8.0-0.23","","img/red.png","32","trial","null","false","0.4,0.6","4:nogo_d","",""
"null","","html-keyboard-response","651","771209","0.0-8.0-1.23","","<img src=""img/red-r.png"" border=""10"">","null","trial","null","","0.4,0.6","4:nogo_d","1",""
"null","","html-keyboard-response","652","772210","0.0-8.0-2.23","","<div style=""font-size:60px;"">+</div>","null","","","","","","",""
"null","","image-keyboard-response","653","773721","0.0-8.0-0.24","","img/yellow.png","null","trial","32","false","0.6,0.4","1:go_a","",""
"null","","html-keyboard-response","654","774726","0.0-8.0-1.24","","<img src=""img/yellow-r.png"">","null","trial","32","","0.6,0.4","1:go_a","1",""
"null","","html-keyboard-response","655","775733","0.0-8.0-2.24","","<div style=""font-size:60px;"">+</div>","null","","","","","","",""
"1067.5","","image-keyboard-response","656","776801","0.0-8.0-0.25","","img/orange.png","32","trial","null","false","0.4,0.6","2:nogo_b","",""
"null","","html-keyboard-response","657","777815","0.0-8.0-1.25","","<img src=""img/orange-n.png"" border=""10"">","null","trial","null","","0.4,0.6","2:nogo_b","0",""
"null","","html-keyboard-response","658","778820","0.0-8.0-2.25","","<div style=""font-size:60px;"">+</div>","null","","","","","","",""
"421.2000000178814","","image-keyboard-response","659","779242","0.0-8.0-0.26","","img/green.png","32","trial","32","true","0.6,0.4","3:go_c","",""
"null","","html-keyboard-response","660","780252","0.0-8.0-1.26","","<img src=""img/green-r.png"" border=""10"">","null","trial","32","","0.6,0.4","3:go_c","1",""
"null","","html-keyboard-response","661","781256","0.0-8.0-2.26","","<div style=""font-size:60px;"">+</div>","null","","","","","","",""
"337.10000002384186","","image-keyboard-response","662","781593","0.0-8.0-0.27","","img/red.png","32","trial","null","false","0.4,0.6","4:nogo_d","",""
"null","","html-keyboard-response","663","782596","0.0-8.0-1.27","","<img src=""img/red-n.png"" border=""10"">","null","trial","null","","0.4,0.6","4:nogo_d","0",""
"null","","html-keyboard-response","664","783602","0.0-8.0-2.27","","<div style=""font-size:60px;"">+</div>","null","","","","","","",""
"null","","image-keyboard-response","665","785117","0.0-8.0-0.28","","img/yellow.png","null","trial","32","false","0.6,0.4","1:go_a","",""
"null","","html-keyboard-response","666","786134","0.0-8.0-1.28","","<img src=""img/yellow-n.png"">","null","trial","32","","0.6,0.4","1:go_a","0",""
"null","","html-keyboard-response","667","787137","0.0-8.0-2.28","","<div style=""font-size:60px;"">+</div>","null","","","","","","",""
"511.80000001192093","","image-keyboard-response","668","787649","0.0-8.0-0.29","","img/red.png","32","trial","null","false","0.4,0.6","4:nogo_d","",""
"null","","html-keyboard-response","669","788660","0.0-8.0-1.29","","<img src=""img/red-r.png"" border=""10"">","null","trial","null","","0.4,0.6","4:nogo_d","1",""
"null","","html-keyboard-response","670","789665","0.0-8.0-2.29","","<div style=""font-size:60px;"">+</div>","null","","","","","","",""
"551.6000000238419","","image-keyboard-response","671","790217","0.0-8.0-0.30","","img/green.png","32","trial","32","true","0.6,0.4","3:go_c","",""
"null","","html-keyboard-response","672","791220","0.0-8.0-1.30","","<img src=""img/green-n.png"" border=""10"">","null","trial","32","","0.6,0.4","3:go_c","0",""
"null","","html-keyboard-response","673","792233","0.0-8.0-2.30","","<div style=""font-size:60px;"">+</div>","null","","","","","","",""
"792.1000000238419","","image-keyboard-response","674","793025","0.0-8.0-0.31","","img/orange.png","32","trial","null","false","0.4,0.6","2:nogo_b","",""
"null","","html-keyboard-response","675","794031","0.0-8.0-1.31","","<img src=""img/orange-n.png"" border=""10"">","null","trial","null","","0.4,0.6","2:nogo_b","0",""
"null","","html-keyboard-response","676","795040","0.0-8.0-2.31","","<div style=""font-size:60px;"">+</div>","null","","","","","","",""
"848.8000000119209","","image-keyboard-response","677","795889","0.0-8.0-0.32","","img/yellow.png","32","trial","32","true","0.6,0.4","1:go_a","",""
