"rt","url","trial_type","trial_index","time_elapsed","internal_node_id","view_history","stimulus","key_press","test_part","correct_response","correct","use_rew","which_stim","reward","responses"
"6618.569999933243","consent.html","external-html","0","6703","0.0-0.0","","","","","","","","","",""
"73558.3100002259","","instructions","1","80263","0.0-1.0","[{""page_index"":0,""viewing_time"":3500.63499994576},{""page_index"":1,""viewing_time"":9371.805000118911},{""page_index"":2,""viewing_time"":5251.070000231266},{""page_index"":3,""viewing_time"":4476.005000062287},{""page_index"":4,""viewing_time"":7018.960000015795},{""page_index"":5,""viewing_time"":23986.929999664426},{""page_index"":6,""viewing_time"":19952.02000020072}]","","","","","","","","",""
"null","","image-keyboard-response","2","81765","0.0-2.0-0.0","","img/test3.PNG","null","practice","null","true","","","",""
"null","","html-keyboard-response","3","82767","0.0-2.0-1.0","","<img src=""img/test3-reward.PNG"">","null","","","","","","",""
"null","","html-keyboard-response","4","83768","0.0-2.0-2.0","","<div style=""font-size:60px;"">+</div>","null","","","","","","",""
"null","","image-keyboard-response","5","85269","0.0-2.0-0.1","","img/test2.PNG","null","practice","null","true","","","",""
"null","","html-keyboard-response","6","86272","0.0-2.0-1.1","","<img src=""img/test2-reward.PNG"">","null","","","","","","",""
"null","","html-keyboard-response","7","87274","0.0-2.0-2.1","","<div style=""font-size:60px;"">+</div>","null","","","","","","",""
"null","","image-keyboard-response","8","88776","0.0-2.0-0.2","","img/test1.PNG","null","practice","32","false","","","",""
"null","","html-keyboard-response","9","89777","0.0-2.0-1.2","","<img src=""img/test1-neutral.PNG"">","null","","","","","","",""
"null","","html-keyboard-response","10","90779","0.0-2.0-2.2","","<div style=""font-size:60px;"">+</div>","null","","","","","","",""
"null","","image-keyboard-response","11","92281","0.0-2.0-0.3","","img/test2.PNG","null","practice","null","true","","","",""
"null","","html-keyboard-response","12","93283","0.0-2.0-1.3","","<img src=""img/test2-reward.PNG"">","null","","","","","","",""
"null","","html-keyboard-response","13","94284","0.0-2.0-2.3","","<div style=""font-size:60px;"">+</div>","null","","","","","","",""
"null","","image-keyboard-response","14","95786","0.0-2.0-0.4","","img/test3.PNG","null","practice","null","true","","","",""
"null","","html-keyboard-response","15","96788","0.0-2.0-1.4","","<img src=""img/test3-reward.PNG"">","null","","","","","","",""
"null","","html-keyboard-response","16","97790","0.0-2.0-2.4","","<div style=""font-size:60px;"">+</div>","null","","","","","","",""
"784.9949998781085","","image-keyboard-response","17","98576","0.0-2.0-0.5","","img/test1.PNG","32","practice","32","true","","","",""
"null","","html-keyboard-response","18","99579","0.0-2.0-1.5","","<img src=""img/test1-reward.PNG"" border=""10px; grey"">","null","","","","","","",""
"null","","html-keyboard-response","19","100580","0.0-2.0-2.5","","<div style=""font-size:60px;"">+</div>","null","","","","","","",""
"null","","image-keyboard-response","20","102083","0.0-2.0-0.6","","img/test3.PNG","null","practice","null","true","","","",""
"null","","html-keyboard-response","21","103084","0.0-2.0-1.6","","<img src=""img/test3-reward.PNG"">","null","","","","","","",""
"null","","html-keyboard-response","22","104086","0.0-2.0-2.6","","<div style=""font-size:60px;"">+</div>","null","","","","","","",""
"null","","image-keyboard-response","23","105589","0.0-2.0-0.7","","img/test1.PNG","null","practice","32","false","","","",""
"null","","html-keyboard-response","24","106591","0.0-2.0-1.7","","<img src=""img/test1-neutral.PNG"">","null","","","","","","",""
"null","","html-keyboard-response","25","107593","0.0-2.0-2.7","","<div style=""font-size:60px;"">+</div>","null","","","","","","",""
"null","","image-keyboard-response","26","109096","0.0-2.0-0.8","","img/test2.PNG","null","practice","null","true","","","",""
"null","","html-keyboard-response","27","110098","0.0-2.0-1.8","","<img src=""img/test2-reward.PNG"">","null","","","","","","",""
"null","","html-keyboard-response","28","111100","0.0-2.0-2.8","","<div style=""font-size:60px;"">+</div>","null","","","","","","",""
"388.1099997088313","","image-keyboard-response","29","111489","0.0-2.0-0.9","","img/test3.PNG","32","practice","null","false","","","",""
"null","","html-keyboard-response","30","112492","0.0-2.0-1.9","","<img src=""img/test3-neutral.PNG"" border=""10px; grey"">","null","","","","","","",""
"null","","html-keyboard-response","31","113494","0.0-2.0-2.9","","<div style=""font-size:60px;"">+</div>","null","","","","","","",""
"null","","image-keyboard-response","32","114996","0.0-2.0-0.10","","img/test2.PNG","null","practice","null","true","","","",""
"null","","html-keyboard-response","33","115997","0.0-2.0-1.10","","<img src=""img/test2-reward.PNG"">","null","","","","","","",""
"null","","html-keyboard-response","34","116998","0.0-2.0-2.10","","<div style=""font-size:60px;"">+</div>","null","","","","","","",""
"null","","image-keyboard-response","35","118499","0.0-2.0-0.11","","img/test1.PNG","null","practice","32","false","","","",""
"null","","html-keyboard-response","36","119501","0.0-2.0-1.11","","<img src=""img/test1-neutral.PNG"">","null","","","","","","",""
"null","","html-keyboard-response","37","120503","0.0-2.0-2.11","","<div style=""font-size:60px;"">+</div>","null","","","","","","",""
"2048.369999974966","","instructions","38","122551","0.0-3.0","[{""page_index"":0,""viewing_time"":2048.1349998153746}]","","","","","","","","",""
"null","","image-keyboard-response","39","124053","0.0-4.0-0.0","","img/grey.png","null","trial","null","true","0.2,0.8","2:nogo_b","",""
"null","","html-keyboard-response","40","125055","0.0-4.0-1.0","","<img src=""img/grey-r.png"">","null","trial","null","","0.2,0.8","2:nogo_b","1",""
"null","","html-keyboard-response","41","126056","0.0-4.0-2.0","","<div style=""font-size:60px;"">+</div>","null","","","","","","",""
"418.16499968990684","","image-keyboard-response","42","126475","0.0-4.0-0.1","","img/orange.png","32","trial","32","true","0.8,0.2","1:go_a","",""
"null","","html-keyboard-response","43","127477","0.0-4.0-1.1","","<img src=""img/orange-r.png"" border=""10"">","null","trial","32","","0.8,0.2","1:go_a","1",""
"null","","html-keyboard-response","44","128478","0.0-4.0-2.1","","<div style=""font-size:60px;"">+</div>","null","","","","","","",""
"477.2450001910329","","image-keyboard-response","45","128956","0.0-4.0-0.2","","img/grey.png","32","trial","null","false","0.2,0.8","2:nogo_b","",""
"null","","html-keyboard-response","46","129961","0.0-4.0-1.2","","<img src=""img/grey-n.png"" border=""10"">","null","trial","null","","0.2,0.8","2:nogo_b","0",""
"null","","html-keyboard-response","47","130962","0.0-4.0-2.2","","<div style=""font-size:60px;"">+</div>","null","","","","","","",""
"655.8250002563","","image-keyboard-response","48","131619","0.0-4.0-0.3","","img/orange.png","32","trial","32","true","0.8,0.2","1:go_a","",""
"null","","html-keyboard-response","49","132620","0.0-4.0-1.3","","<img src=""img/orange-r.png"" border=""10"">","null","trial","32","","0.8,0.2","1:go_a","1",""
"null","","html-keyboard-response","50","133621","0.0-4.0-2.3","","<div style=""font-size:60px;"">+</div>","null","","","","","","",""
"497.5749999284744","","image-keyboard-response","51","134120","0.0-4.0-0.4","","img/orange.png","32","trial","32","true","0.8,0.2","1:go_a","",""
"null","","html-keyboard-response","52","135122","0.0-4.0-1.4","","<img src=""img/orange-r.png"" border=""10"">","null","trial","32","","0.8,0.2","1:go_a","1",""
"null","","html-keyboard-response","53","136124","0.0-4.0-2.4","","<div style=""font-size:60px;"">+</div>","null","","","","","","",""
"798.285000026226","","image-keyboard-response","54","136923","0.0-4.0-0.5","","img/grey.png","32","trial","null","false","0.2,0.8","2:nogo_b","",""
"null","","html-keyboard-response","55","137925","0.0-4.0-1.5","","<img src=""img/grey-r.png"" border=""10"">","null","trial","null","","0.2,0.8","2:nogo_b","1",""
"null","","html-keyboard-response","56","138926","0.0-4.0-2.5","","<div style=""font-size:60px;"">+</div>","null","","","","","","",""
"1093.3600002899766","","image-keyboard-response","57","140020","0.0-4.0-0.6","","img/orange.png","32","trial","32","true","0.8,0.2","1:go_a","",""
"null","","html-keyboard-response","58","141023","0.0-4.0-1.6","","<img src=""img/orange-r.png"" border=""10"">","null","trial","32","","0.8,0.2","1:go_a","1",""
"null","","html-keyboard-response","59","142024","0.0-4.0-2.6","","<div style=""font-size:60px;"">+</div>","null","","","","","","",""
"331.925000064075","","image-keyboard-response","60","142357","0.0-4.0-0.7","","img/grey.png","32","trial","null","false","0.2,0.8","2:nogo_b","",""
"null","","html-keyboard-response","61","143358","0.0-4.0-1.7","","<img src=""img/grey-n.png"" border=""10"">","null","trial","null","","0.2,0.8","2:nogo_b","0",""
"null","","html-keyboard-response","62","144360","0.0-4.0-2.7","","<div style=""font-size:60px;"">+</div>","null","","","","","","",""
"412.25000005215406","","image-keyboard-response","63","144773","0.0-4.0-0.8","","img/grey.png","32","trial","null","false","0.2,0.8","2:nogo_b","",""
"null","","html-keyboard-response","64","145775","0.0-4.0-1.8","","<img src=""img/grey-r.png"" border=""10"">","null","trial","null","","0.2,0.8","2:nogo_b","1",""
"null","","html-keyboard-response","65","146777","0.0-4.0-2.8","","<div style=""font-size:60px;"">+</div>","null","","","","","","",""
"718.6900000087917","","image-keyboard-response","66","147496","0.0-4.0-0.9","","img/orange.png","32","trial","32","true","0.8,0.2","1:go_a","",""
"null","","html-keyboard-response","67","148499","0.0-4.0-1.9","","<img src=""img/orange-n.png"" border=""10"">","null","trial","32","","0.8,0.2","1:go_a","0",""
"null","","html-keyboard-response","68","149501","0.0-4.0-2.9","","<div style=""font-size:60px;"">+</div>","null","","","","","","",""
"327.95500010252","","image-keyboard-response","69","149832","0.0-4.0-0.10","","img/orange.png","32","trial","32","true","0.8,0.2","1:go_a","",""
"null","","html-keyboard-response","70","150834","0.0-4.0-1.10","","<img src=""img/orange-r.png"" border=""10"">","null","trial","32","","0.8,0.2","1:go_a","1",""
"null","","html-keyboard-response","71","151835","0.0-4.0-2.10","","<div style=""font-size:60px;"">+</div>","null","","","","","","",""
"465.0249998085201","","image-keyboard-response","72","152301","0.0-4.0-0.11","","img/grey.png","32","trial","null","false","0.2,0.8","2:nogo_b","",""
"null","","html-keyboard-response","73","153303","0.0-4.0-1.11","","<img src=""img/grey-n.png"" border=""10"">","null","trial","null","","0.2,0.8","2:nogo_b","0",""
"null","","html-keyboard-response","74","154306","0.0-4.0-2.11","","<div style=""font-size:60px;"">+</div>","null","","","","","","",""
"null","","image-keyboard-response","75","155808","0.0-4.0-0.12","","img/orange.png","null","trial","32","false","0.8,0.2","1:go_a","",""
"null","","html-keyboard-response","76","156810","0.0-4.0-1.12","","<img src=""img/orange-n.png"">","null","trial","32","","0.8,0.2","1:go_a","0",""
"null","","html-keyboard-response","77","157811","0.0-4.0-2.12","","<div style=""font-size:60px;"">+</div>","null","","","","","","",""
"762.4749997630715","","image-keyboard-response","78","158574","0.0-4.0-0.13","","img/grey.png","32","trial","null","false","0.2,0.8","2:nogo_b","",""
"null","","html-keyboard-response","79","159577","0.0-4.0-1.13","","<img src=""img/grey-r.png"" border=""10"">","null","trial","null","","0.2,0.8","2:nogo_b","1",""
"null","","html-keyboard-response","80","160579","0.0-4.0-2.13","","<div style=""font-size:60px;"">+</div>","null","","","","","","",""
"972.915000282228","","image-keyboard-response","81","161552","0.0-4.0-0.14","","img/orange.png","32","trial","32","true","0.8,0.2","1:go_a","",""
"null","","html-keyboard-response","82","162554","0.0-4.0-1.14","","<img src=""img/orange-r.png"" border=""10"">","null","trial","32","","0.8,0.2","1:go_a","1",""
"null","","html-keyboard-response","83","163555","0.0-4.0-2.14","","<div style=""font-size:60px;"">+</div>","null","","","","","","",""
"754.7600003890693","","image-keyboard-response","84","164311","0.0-4.0-0.15","","img/grey.png","32","trial","null","false","0.2,0.8","2:nogo_b","",""
"null","","html-keyboard-response","85","165313","0.0-4.0-1.15","","<img src=""img/grey-n.png"" border=""10"">","null","trial","null","","0.2,0.8","2:nogo_b","0",""
"null","","html-keyboard-response","86","166313","0.0-4.0-2.15","","<div style=""font-size:60px;"">+</div>","null","","","","","","",""
"688.5999999940395","","image-keyboard-response","87","167003","0.0-4.0-0.16","","img/grey.png","32","trial","null","false","0.2,0.8","2:nogo_b","",""
"null","","html-keyboard-response","88","168005","0.0-4.0-1.16","","<img src=""img/grey-n.png"" border=""10"">","null","trial","null","","0.2,0.8","2:nogo_b","0",""
"null","","html-keyboard-response","89","169008","0.0-4.0-2.16","","<div style=""font-size:60px;"">+</div>","null","","","","","","",""
"345.19000025466084","","image-keyboard-response","90","169354","0.0-4.0-0.17","","img/orange.png","32","trial","32","true","0.8,0.2","1:go_a","",""
"null","","html-keyboard-response","91","170356","0.0-4.0-1.17","","<img src=""img/orange-r.png"" border=""10"">","null","trial","32","","0.8,0.2","1:go_a","1",""
"null","","html-keyboard-response","92","171357","0.0-4.0-2.17","","<div style=""font-size:60px;"">+</div>","null","","","","","","",""
"487.4450000934303","","image-keyboard-response","93","171846","0.0-4.0-0.18","","img/grey.png","32","trial","null","false","0.2,0.8","2:nogo_b","",""
"null","","html-keyboard-response","94","172848","0.0-4.0-1.18","","<img src=""img/grey-r.png"" border=""10"">","null","trial","null","","0.2,0.8","2:nogo_b","1",""
"null","","html-keyboard-response","95","173849","0.0-4.0-2.18","","<div style=""font-size:60px;"">+</div>","null","","","","","","",""
"451.9199999049306","","image-keyboard-response","96","174302","0.0-4.0-0.19","","img/orange.png","32","trial","32","true","0.8,0.2","1:go_a","",""
"null","","html-keyboard-response","97","175304","0.0-4.0-1.19","","<img src=""img/orange-r.png"" border=""10"">","null","trial","32","","0.8,0.2","1:go_a","1",""
"null","","html-keyboard-response","98","176307","0.0-4.0-2.19","","<div style=""font-size:60px;"">+</div>","null","","","","","","",""
"561.4399998448789","","image-keyboard-response","99","176869","0.0-4.0-0.20","","img/grey.png","32","trial","null","false","0.2,0.8","2:nogo_b","",""
"null","","html-keyboard-response","100","177872","0.0-4.0-1.20","","<img src=""img/grey-r.png"" border=""10"">","null","trial","null","","0.2,0.8","2:nogo_b","1",""
"null","","html-keyboard-response","101","178874","0.0-4.0-2.20","","<div style=""font-size:60px;"">+</div>","null","","","","","","",""
"715.9400000236928","","image-keyboard-response","102","179590","0.0-4.0-0.21","","img/orange.png","32","trial","32","true","0.8,0.2","1:go_a","",""
"null","","html-keyboard-response","103","180592","0.0-4.0-1.21","","<img src=""img/orange-r.png"" border=""10"">","null","trial","32","","0.8,0.2","1:go_a","1",""
"null","","html-keyboard-response","104","181594","0.0-4.0-2.21","","<div style=""font-size:60px;"">+</div>","null","","","","","","",""
"null","","image-keyboard-response","105","183095","0.0-4.0-0.22","","img/grey.png","null","trial","null","true","0.2,0.8","2:nogo_b","",""
"null","","html-keyboard-response","106","184096","0.0-4.0-1.22","","<img src=""img/grey-r.png"">","null","trial","null","","0.2,0.8","2:nogo_b","1",""
"null","","html-keyboard-response","107","185098","0.0-4.0-2.22","","<div style=""font-size:60px;"">+</div>","null","","","","","","",""
"527.2499998100102","","image-keyboard-response","108","185626","0.0-4.0-0.23","","img/orange.png","32","trial","32","true","0.8,0.2","1:go_a","",""
"null","","html-keyboard-response","109","186629","0.0-4.0-1.23","","<img src=""img/orange-r.png"" border=""10"">","null","trial","32","","0.8,0.2","1:go_a","1",""
"null","","html-keyboard-response","110","187631","0.0-4.0-2.23","","<div style=""font-size:60px;"">+</div>","null","","","","","","",""
"758.0699999816716","","image-keyboard-response","111","188389","0.0-4.0-0.24","","img/grey.png","32","trial","null","false","0.2,0.8","2:nogo_b","",""
"null","","html-keyboard-response","112","189391","0.0-4.0-1.24","","<img src=""img/grey-n.png"" border=""10"">","null","trial","null","","0.2,0.8","2:nogo_b","0",""
"null","","html-keyboard-response","113","190394","0.0-4.0-2.24","","<div style=""font-size:60px;"">+</div>","null","","","","","","",""
"741.1899999715388","","image-keyboard-response","114","191137","0.0-4.0-0.25","","img/orange.png","32","trial","32","true","0.8,0.2","1:go_a","",""
"null","","html-keyboard-response","115","192139","0.0-4.0-1.25","","<img src=""img/orange-r.png"" border=""10"">","null","trial","32","","0.8,0.2","1:go_a","1",""
"null","","html-keyboard-response","116","193141","0.0-4.0-2.25","","<div style=""font-size:60px;"">+</div>","null","","","","","","",""
"null","","image-keyboard-response","117","194642","0.0-4.0-0.26","","img/grey.png","null","trial","null","true","0.2,0.8","2:nogo_b","",""
"null","","html-keyboard-response","118","195644","0.0-4.0-1.26","","<img src=""img/grey-r.png"">","null","trial","null","","0.2,0.8","2:nogo_b","1",""
"null","","html-keyboard-response","119","196646","0.0-4.0-2.26","","<div style=""font-size:60px;"">+</div>","null","","","","","","",""
"346.84500005096197","","image-keyboard-response","120","196993","0.0-4.0-0.27","","img/orange.png","32","trial","32","true","0.8,0.2","1:go_a","",""
"null","","html-keyboard-response","121","197996","0.0-4.0-1.27","","<img src=""img/orange-r.png"" border=""10"">","null","trial","32","","0.8,0.2","1:go_a","1",""
"null","","html-keyboard-response","122","198997","0.0-4.0-2.27","","<div style=""font-size:60px;"">+</div>","null","","","","","","",""
"551.0900001972914","","image-keyboard-response","123","199549","0.0-4.0-0.28","","img/grey.png","32","trial","null","false","0.2,0.8","2:nogo_b","",""
"null","","html-keyboard-response","124","200550","0.0-4.0-1.28","","<img src=""img/grey-r.png"" border=""10"">","null","trial","null","","0.2,0.8","2:nogo_b","1",""
"null","","html-keyboard-response","125","201552","0.0-4.0-2.28","","<div style=""font-size:60px;"">+</div>","null","","","","","","",""
"1019.1399999894202","","image-keyboard-response","126","202571","0.0-4.0-0.29","","img/orange.png","32","trial","32","true","0.8,0.2","1:go_a","",""
"null","","html-keyboard-response","127","203573","0.0-4.0-1.29","","<img src=""img/orange-r.png"" border=""10"">","null","trial","32","","0.8,0.2","1:go_a","1",""
"null","","html-keyboard-response","128","204576","0.0-4.0-2.29","","<div style=""font-size:60px;"">+</div>","null","","","","","","",""
"607.2500003501773","","image-keyboard-response","129","205184","0.0-4.0-0.30","","img/orange.png","32","trial","32","true","0.8,0.2","1:go_a","",""
"null","","html-keyboard-response","130","206186","0.0-4.0-1.30","","<img src=""img/orange-r.png"" border=""10"">","null","trial","32","","0.8,0.2","1:go_a","1",""
"null","","html-keyboard-response","131","207188","0.0-4.0-2.30","","<div style=""font-size:60px;"">+</div>","null","","","","","","",""
"556.7550002597272","","image-keyboard-response","132","207746","0.0-4.0-0.31","","img/grey.png","32","trial","null","false","0.2,0.8","2:nogo_b","",""
"null","","html-keyboard-response","133","208748","0.0-4.0-1.31","","<img src=""img/grey-n.png"" border=""10"">","null","trial","null","","0.2,0.8","2:nogo_b","0",""
"null","","html-keyboard-response","134","209749","0.0-4.0-2.31","","<div style=""font-size:60px;"">+</div>","null","","","","","","",""
"659.8049998283386","","image-keyboard-response","135","210410","0.0-4.0-0.32","","img/grey.png","32","trial","null","false","0.2,0.8","2:nogo_b","",""
"null","","html-keyboard-response","136","211414","0.0-4.0-1.32","","<img src=""img/grey-n.png"" border=""10"">","null","trial","null","","0.2,0.8","2:nogo_b","0",""
"null","","html-keyboard-response","137","212415","0.0-4.0-2.32","","<div style=""font-size:60px;"">+</div>","null","","","","","","",""
"null","","image-keyboard-response","138","213918","0.0-4.0-0.33","","img/orange.png","null","trial","32","false","0.8,0.2","1:go_a","",""
"null","","html-keyboard-response","139","214920","0.0-4.0-1.33","","<img src=""img/orange-n.png"">","null","trial","32","","0.8,0.2","1:go_a","0",""
"null","","html-keyboard-response","140","215921","0.0-4.0-2.33","","<div style=""font-size:60px;"">+</div>","null","","","","","","",""
"556.9449998438358","","image-keyboard-response","141","216479","0.0-4.0-0.34","","img/grey.png","32","trial","null","false","0.2,0.8","2:nogo_b","",""
"null","","html-keyboard-response","142","217482","0.0-4.0-1.34","","<img src=""img/grey-n.png"" border=""10"">","null","trial","null","","0.2,0.8","2:nogo_b","0",""
"null","","html-keyboard-response","143","218483","0.0-4.0-2.34","","<div style=""font-size:60px;"">+</div>","null","","","","","","",""
"792.565000243485","","image-keyboard-response","144","219276","0.0-4.0-0.35","","img/orange.png","32","trial","32","true","0.8,0.2","1:go_a","",""
"null","","html-keyboard-response","145","220279","0.0-4.0-1.35","","<img src=""img/orange-r.png"" border=""10"">","null","trial","32","","0.8,0.2","1:go_a","1",""
"null","","html-keyboard-response","146","221281","0.0-4.0-2.35","","<div style=""font-size:60px;"">+</div>","null","","","","","","",""
"786.9499996304512","","image-keyboard-response","147","222068","0.0-4.0-0.36","","img/grey.png","32","trial","null","false","0.2,0.8","2:nogo_b","",""
"null","","html-keyboard-response","148","223070","0.0-4.0-1.36","","<img src=""img/grey-n.png"" border=""10"">","null","trial","null","","0.2,0.8","2:nogo_b","0",""
"null","","html-keyboard-response","149","224071","0.0-4.0-2.36","","<div style=""font-size:60px;"">+</div>","null","","","","","","",""
"null","","image-keyboard-response","150","225573","0.0-4.0-0.37","","img/orange.png","null","trial","32","false","0.8,0.2","1:go_a","",""
"null","","html-keyboard-response","151","226575","0.0-4.0-1.37","","<img src=""img/orange-n.png"">","null","trial","32","","0.8,0.2","1:go_a","0",""
"null","","html-keyboard-response","152","227577","0.0-4.0-2.37","","<div style=""font-size:60px;"">+</div>","null","","","","","","",""
"null","","image-keyboard-response","153","229078","0.0-4.0-0.38","","img/grey.png","null","trial","null","true","0.2,0.8","2:nogo_b","",""
"null","","html-keyboard-response","154","230083","0.0-4.0-1.38","","<img src=""img/grey-r.png"">","null","trial","null","","0.2,0.8","2:nogo_b","1",""
"null","","html-keyboard-response","155","231085","0.0-4.0-2.38","","<div style=""font-size:60px;"">+</div>","null","","","","","","",""
"307.78499972075224","","image-keyboard-response","156","231394","0.0-4.0-0.39","","img/orange.png","32","trial","32","true","0.8,0.2","1:go_a","",""
"null","","html-keyboard-response","157","232396","0.0-4.0-1.39","","<img src=""img/orange-r.png"" border=""10"">","null","trial","32","","0.8,0.2","1:go_a","1",""
"null","","html-keyboard-response","158","233398","0.0-4.0-2.39","","<div style=""font-size:60px;"">+</div>","null","","","","","","",""
"671.7600002884865","","image-keyboard-response","159","234071","0.0-4.0-0.40","","img/grey.png","32","trial","null","false","0.2,0.8","2:nogo_b","",""
"null","","html-keyboard-response","160","235074","0.0-4.0-1.40","","<img src=""img/grey-n.png"" border=""10"">","null","trial","null","","0.2,0.8","2:nogo_b","0",""
"null","","html-keyboard-response","161","236075","0.0-4.0-2.40","","<div style=""font-size:60px;"">+</div>","null","","","","","","",""
"null","","image-keyboard-response","162","237577","0.0-4.0-0.41","","img/orange.png","null","trial","32","false","0.8,0.2","1:go_a","",""
"null","","html-keyboard-response","163","238579","0.0-4.0-1.41","","<img src=""img/orange-r.png"">","null","trial","32","","0.8,0.2","1:go_a","1",""
"null","","html-keyboard-response","164","239580","0.0-4.0-2.41","","<div style=""font-size:60px;"">+</div>","null","","","","","","",""
"null","","image-keyboard-response","165","241082","0.0-4.0-0.42","","img/orange.png","null","trial","32","false","0.8,0.2","1:go_a","",""
"null","","html-keyboard-response","166","242083","0.0-4.0-1.42","","<img src=""img/orange-n.png"">","null","trial","32","","0.8,0.2","1:go_a","0",""
"null","","html-keyboard-response","167","243084","0.0-4.0-2.42","","<div style=""font-size:60px;"">+</div>","null","","","","","","",""
"null","","image-keyboard-response","168","244587","0.0-4.0-0.43","","img/grey.png","null","trial","null","true","0.2,0.8","2:nogo_b","",""
"null","","html-keyboard-response","169","245589","0.0-4.0-1.43","","<img src=""img/grey-n.png"">","null","trial","null","","0.2,0.8","2:nogo_b","0",""
"null","","html-keyboard-response","170","246590","0.0-4.0-2.43","","<div style=""font-size:60px;"">+</div>","null","","","","","","",""
"null","","image-keyboard-response","171","248091","0.0-4.0-0.44","","img/grey.png","null","trial","null","true","0.2,0.8","2:nogo_b","",""
"null","","html-keyboard-response","172","249094","0.0-4.0-1.44","","<img src=""img/grey-r.png"">","null","trial","null","","0.2,0.8","2:nogo_b","1",""
"null","","html-keyboard-response","173","250096","0.0-4.0-2.44","","<div style=""font-size:60px;"">+</div>","null","","","","","","",""
"467.7099999971688","","image-keyboard-response","174","250565","0.0-4.0-0.45","","img/orange.png","32","trial","32","true","0.8,0.2","1:go_a","",""
"null","","html-keyboard-response","175","251567","0.0-4.0-1.45","","<img src=""img/orange-r.png"" border=""10"">","null","trial","32","","0.8,0.2","1:go_a","1",""
"null","","html-keyboard-response","176","252568","0.0-4.0-2.45","","<div style=""font-size:60px;"">+</div>","null","","","","","","",""
"null","","image-keyboard-response","177","254083","0.0-4.0-0.46","","img/grey.png","null","trial","null","true","0.2,0.8","2:nogo_b","",""
"null","","html-keyboard-response","178","255087","0.0-4.0-1.46","","<img src=""img/grey-n.png"">","null","trial","null","","0.2,0.8","2:nogo_b","0",""
"null","","html-keyboard-response","179","256089","0.0-4.0-2.46","","<div style=""font-size:60px;"">+</div>","null","","","","","","",""
"586.3499999977648","","image-keyboard-response","180","256676","0.0-4.0-0.47","","img/orange.png","32","trial","32","true","0.8,0.2","1:go_a","",""
"null","","html-keyboard-response","181","257679","0.0-4.0-1.47","","<img src=""img/orange-r.png"" border=""10"">","null","trial","32","","0.8,0.2","1:go_a","1",""
"null","","html-keyboard-response","182","258680","0.0-4.0-2.47","","<div style=""font-size:60px;"">+</div>","null","","","","","","",""
"813.6749998666346","","image-keyboard-response","183","259495","0.0-4.0-0.48","","img/grey.png","32","trial","null","false","0.2,0.8","2:nogo_b","",""
"null","","html-keyboard-response","184","260498","0.0-4.0-1.48","","<img src=""img/grey-r.png"" border=""10"">","null","trial","null","","0.2,0.8","2:nogo_b","1",""
"null","","html-keyboard-response","185","261499","0.0-4.0-2.48","","<div style=""font-size:60px;"">+</div>","null","","","","","","",""
"null","","image-keyboard-response","186","263001","0.0-4.0-0.49","","img/orange.png","null","trial","32","false","0.8,0.2","1:go_a","",""
"null","","html-keyboard-response","187","264004","0.0-4.0-1.49","","<img src=""img/orange-n.png"">","null","trial","32","","0.8,0.2","1:go_a","0",""
"null","","html-keyboard-response","188","265005","0.0-4.0-2.49","","<div style=""font-size:60px;"">+</div>","null","","","","","","",""
"944.2950002849102","","image-keyboard-response","189","265951","0.0-4.0-0.50","","img/orange.png","32","trial","32","true","0.8,0.2","1:go_a","",""
"null","","html-keyboard-response","190","266952","0.0-4.0-1.50","","<img src=""img/orange-r.png"" border=""10"">","null","trial","32","","0.8,0.2","1:go_a","1",""
"null","","html-keyboard-response","191","267954","0.0-4.0-2.50","","<div style=""font-size:60px;"">+</div>","null","","","","","","",""
"830.5200003087521","","image-keyboard-response","192","268785","0.0-4.0-0.51","","img/grey.png","32","trial","null","false","0.2,0.8","2:nogo_b","",""
"null","","html-keyboard-response","193","269787","0.0-4.0-1.51","","<img src=""img/grey-n.png"" border=""10"">","null","trial","null","","0.2,0.8","2:nogo_b","0",""
"null","","html-keyboard-response","194","270788","0.0-4.0-2.51","","<div style=""font-size:60px;"">+</div>","null","","","","","","",""
"null","","image-keyboard-response","195","272289","0.0-4.0-0.52","","img/grey.png","null","trial","null","true","0.2,0.8","2:nogo_b","",""
"null","","html-keyboard-response","196","273291","0.0-4.0-1.52","","<img src=""img/grey-r.png"">","null","trial","null","","0.2,0.8","2:nogo_b","1",""
"null","","html-keyboard-response","197","274292","0.0-4.0-2.52","","<div style=""font-size:60px;"">+</div>","null","","","","","","",""
"null","","image-keyboard-response","198","275793","0.0-4.0-0.53","","img/orange.png","null","trial","32","false","0.8,0.2","1:go_a","",""
"null","","html-keyboard-response","199","276796","0.0-4.0-1.53","","<img src=""img/orange-n.png"">","null","trial","32","","0.8,0.2","1:go_a","0",""
"null","","html-keyboard-response","200","277797","0.0-4.0-2.53","","<div style=""font-size:60px;"">+</div>","null","","","","","","",""
"501.7900001257658","","image-keyboard-response","201","278300","0.0-4.0-0.54","","img/orange.png","32","trial","32","true","0.8,0.2","1:go_a","",""
"null","","html-keyboard-response","202","279301","0.0-4.0-1.54","","<img src=""img/orange-r.png"" border=""10"">","null","trial","32","","0.8,0.2","1:go_a","1",""
"null","","html-keyboard-response","203","280304","0.0-4.0-2.54","","<div style=""font-size:60px;"">+</div>","null","","","","","","",""
"null","","image-keyboard-response","204","281805","0.0-4.0-0.55","","img/grey.png","null","trial","null","true","0.2,0.8","2:nogo_b","",""
"null","","html-keyboard-response","205","282809","0.0-4.0-1.55","","<img src=""img/grey-r.png"">","null","trial","null","","0.2,0.8","2:nogo_b","1",""
"null","","html-keyboard-response","206","283811","0.0-4.0-2.55","","<div style=""font-size:60px;"">+</div>","null","","","","","","",""
"321.5350001119077","","image-keyboard-response","207","284134","0.0-4.0-0.56","","img/grey.png","32","trial","null","false","0.2,0.8","2:nogo_b","",""
"null","","html-keyboard-response","208","285135","0.0-4.0-1.56","","<img src=""img/grey-n.png"" border=""10"">","null","trial","null","","0.2,0.8","2:nogo_b","0",""
"null","","html-keyboard-response","209","286137","0.0-4.0-2.56","","<div style=""font-size:60px;"">+</div>","null","","","","","","",""
"626.6349996440113","","image-keyboard-response","210","286766","0.0-4.0-0.57","","img/orange.png","32","trial","32","true","0.8,0.2","1:go_a","",""
"null","","html-keyboard-response","211","287768","0.0-4.0-1.57","","<img src=""img/orange-r.png"" border=""10"">","null","trial","32","","0.8,0.2","1:go_a","1",""
"null","","html-keyboard-response","212","288769","0.0-4.0-2.57","","<div style=""font-size:60px;"">+</div>","null","","","","","","",""
"644.5249998942018","","image-keyboard-response","213","289415","0.0-4.0-0.58","","img/grey.png","32","trial","null","false","0.2,0.8","2:nogo_b","",""
"null","","html-keyboard-response","214","290417","0.0-4.0-1.58","","<img src=""img/grey-n.png"" border=""10"">","null","trial","null","","0.2,0.8","2:nogo_b","0",""
"null","","html-keyboard-response","215","291420","0.0-4.0-2.58","","<div style=""font-size:60px;"">+</div>","null","","","","","","",""
"662.5500000081956","","image-keyboard-response","216","292083","0.0-4.0-0.59","","img/orange.png","32","trial","32","true","0.8,0.2","1:go_a","",""
"null","","html-keyboard-response","217","293085","0.0-4.0-1.59","","<img src=""img/orange-r.png"" border=""10"">","null","trial","32","","0.8,0.2","1:go_a","1",""
"null","","html-keyboard-response","218","294087","0.0-4.0-2.59","","<div style=""font-size:60px;"">+</div>","null","","","","","","",""
"6231.57999990508","","instructions","219","300319","0.0-5.0","[{""page_index"":0,""viewing_time"":6231.32500005886}]","","","","","","","","",""
"1130.899999756366","","image-keyboard-response","220","301451","0.0-6.0-0.0","","img/pink.png","32","trial","32","true","0.8,0.2","1:go_a","",""
"null","","html-keyboard-response","221","302453","0.0-6.0-1.0","","<img src=""img/pink-r.png"" border=""10"">","null","trial","32","","0.8,0.2","1:go_a","1",""
"null","","html-keyboard-response","222","303453","0.0-6.0-2.0","","<div style=""font-size:60px;"">+</div>","null","","","","","","",""
"788.4599999524653","","image-keyboard-response","223","304242","0.0-6.0-0.1","","img/red.png","32","trial","null","false","0.4,0.6","4:nogo_d","",""
"null","","html-keyboard-response","224","305245","0.0-6.0-1.1","","<img src=""img/red-r.png"" border=""10"">","null","trial","null","","0.4,0.6","4:nogo_d","1",""
"null","","html-keyboard-response","225","306247","0.0-6.0-2.1","","<div style=""font-size:60px;"">+</div>","null","","","","","","",""
"857.0949998684227","","image-keyboard-response","226","307105","0.0-6.0-0.2","","img/grey.png","32","trial","null","false","0.2,0.8","2:nogo_b","",""
"null","","html-keyboard-response","227","308106","0.0-6.0-1.2","","<img src=""img/grey-n.png"" border=""10"">","null","trial","null","","0.2,0.8","2:nogo_b","0",""
"null","","html-keyboard-response","228","309107","0.0-6.0-2.2","","<div style=""font-size:60px;"">+</div>","null","","","","","","",""
"538.135000038892","","image-keyboard-response","229","309646","0.0-6.0-0.3","","img/blue.png","32","trial","32","true","0.6,0.4","3:go_c","",""
"null","","html-keyboard-response","230","310648","0.0-6.0-1.3","","<img src=""img/blue-r.png"" border=""10"">","null","trial","32","","0.6,0.4","3:go_c","1",""
"null","","html-keyboard-response","231","311650","0.0-6.0-2.3","","<div style=""font-size:60px;"">+</div>","null","","","","","","",""
"768.3299998752773","","image-keyboard-response","232","312419","0.0-6.0-0.4","","img/grey.png","32","trial","null","false","0.2,0.8","2:nogo_b","",""
"null","","html-keyboard-response","233","313421","0.0-6.0-1.4","","<img src=""img/grey-n.png"" border=""10"">","null","trial","null","","0.2,0.8","2:nogo_b","0",""
"null","","html-keyboard-response","234","314422","0.0-6.0-2.4","","<div style=""font-size:60px;"">+</div>","null","","","","","","",""
"472.1900001168251","","image-keyboard-response","235","314895","0.0-6.0-0.5","","img/pink.png","32","trial","32","true","0.8,0.2","1:go_a","",""
"null","","html-keyboard-response","236","315897","0.0-6.0-1.5","","<img src=""img/pink-n.png"" border=""10"">","null","trial","32","","0.8,0.2","1:go_a","0",""
"null","","html-keyboard-response","237","316898","0.0-6.0-2.5","","<div style=""font-size:60px;"">+</div>","null","","","","","","",""
"378.1550000421703","","image-keyboard-response","238","317277","0.0-6.0-0.6","","img/blue.png","32","trial","32","true","0.6,0.4","3:go_c","",""
"null","","html-keyboard-response","239","318278","0.0-6.0-1.6","","<img src=""img/blue-r.png"" border=""10"">","null","trial","32","","0.6,0.4","3:go_c","1",""
"null","","html-keyboard-response","240","319281","0.0-6.0-2.6","","<div style=""font-size:60px;"">+</div>","null","","","","","","",""
"516.6750000789762","","image-keyboard-response","241","319798","0.0-6.0-0.7","","img/red.png","32","trial","null","false","0.4,0.6","4:nogo_d","",""
"null","","html-keyboard-response","242","320801","0.0-6.0-1.7","","<img src=""img/red-n.png"" border=""10"">","null","trial","null","","0.4,0.6","4:nogo_d","0",""
"null","","html-keyboard-response","243","321802","0.0-6.0-2.7","","<div style=""font-size:60px;"">+</div>","null","","","","","","",""
"592.2500002197921","","image-keyboard-response","244","322396","0.0-6.0-0.8","","img/pink.png","32","trial","32","true","0.8,0.2","1:go_a","",""
"null","","html-keyboard-response","245","323398","0.0-6.0-1.8","","<img src=""img/pink-n.png"" border=""10"">","null","trial","32","","0.8,0.2","1:go_a","0",""
"null","","html-keyboard-response","246","324399","0.0-6.0-2.8","","<div style=""font-size:60px;"">+</div>","null","","","","","","",""
"517.8499999456108","","image-keyboard-response","247","324917","0.0-6.0-0.9","","img/grey.png","32","trial","null","false","0.2,0.8","2:nogo_b","",""
"null","","html-keyboard-response","248","325920","0.0-6.0-1.9","","<img src=""img/grey-n.png"" border=""10"">","null","trial","null","","0.2,0.8","2:nogo_b","0",""
"null","","html-keyboard-response","249","326921","0.0-6.0-2.9","","<div style=""font-size:60px;"">+</div>","null","","","","","","",""
"331.4849999733269","","image-keyboard-response","250","327253","0.0-6.0-0.10","","img/red.png","32","trial","null","false","0.4,0.6","4:nogo_d","",""
"null","","html-keyboard-response","251","328255","0.0-6.0-1.10","","<img src=""img/red-r.png"" border=""10"">","null","trial","null","","0.4,0.6","4:nogo_d","1",""
"null","","html-keyboard-response","252","329257","0.0-6.0-2.10","","<div style=""font-size:60px;"">+</div>","null","","","","","","",""
"271.44999988377094","","image-keyboard-response","253","329529","0.0-6.0-0.11","","img/blue.png","32","trial","32","true","0.6,0.4","3:go_c","",""
"null","","html-keyboard-response","254","330531","0.0-6.0-1.11","","<img src=""img/blue-r.png"" border=""10"">","null","trial","32","","0.6,0.4","3:go_c","1",""
"null","","html-keyboard-response","255","331532","0.0-6.0-2.11","","<div style=""font-size:60px;"">+</div>","null","","","","","","",""
"null","","image-keyboard-response","256","333033","0.0-6.0-0.12","","img/grey.png","null","trial","null","true","0.2,0.8","2:nogo_b","",""
"null","","html-keyboard-response","257","334035","0.0-6.0-1.12","","<img src=""img/grey-r.png"">","null","trial","null","","0.2,0.8","2:nogo_b","1",""
"null","","html-keyboard-response","258","335037","0.0-6.0-2.12","","<div style=""font-size:60px;"">+</div>","null","","","","","","",""
"362.57999995723367","","image-keyboard-response","259","335401","0.0-6.0-0.13","","img/blue.png","32","trial","32","true","0.6,0.4","3:go_c","",""
"null","","html-keyboard-response","260","336404","0.0-6.0-1.13","","<img src=""img/blue-r.png"" border=""10"">","null","trial","32","","0.6,0.4","3:go_c","1",""
"null","","html-keyboard-response","261","337405","0.0-6.0-2.13","","<div style=""font-size:60px;"">+</div>","null","","","","","","",""
"null","","image-keyboard-response","262","338907","0.0-6.0-0.14","","img/red.png","null","trial","null","true","0.4,0.6","4:nogo_d","",""
"null","","html-keyboard-response","263","339909","0.0-6.0-1.14","","<img src=""img/red-r.png"">","null","trial","null","","0.4,0.6","4:nogo_d","1",""
"null","","html-keyboard-response","264","340910","0.0-6.0-2.14","","<div style=""font-size:60px;"">+</div>","null","","","","","","",""
"456.15999959409237","","image-keyboard-response","265","341367","0.0-6.0-0.15","","img/pink.png","32","trial","32","true","0.8,0.2","1:go_a","",""
"null","","html-keyboard-response","266","342371","0.0-6.0-1.15","","<img src=""img/pink-n.png"" border=""10"">","null","trial","32","","0.8,0.2","1:go_a","0",""
"null","","html-keyboard-response","267","343373","0.0-6.0-2.15","","<div style=""font-size:60px;"">+</div>","null","","","","","","",""
"750.2999999560416","","image-keyboard-response","268","344124","0.0-6.0-0.16","","img/blue.png","32","trial","32","true","0.6,0.4","3:go_c","",""
"null","","html-keyboard-response","269","345129","0.0-6.0-1.16","","<img src=""img/blue-n.png"" border=""10"">","null","trial","32","","0.6,0.4","3:go_c","0",""
"null","","html-keyboard-response","270","346131","0.0-6.0-2.16","","<div style=""font-size:60px;"">+</div>","null","","","","","","",""
"935.0800001993775","","image-keyboard-response","271","347066","0.0-6.0-0.17","","img/red.png","32","trial","null","false","0.4,0.6","4:nogo_d","",""
"null","","html-keyboard-response","272","348068","0.0-6.0-1.17","","<img src=""img/red-n.png"" border=""10"">","null","trial","null","","0.4,0.6","4:nogo_d","0",""
"null","","html-keyboard-response","273","349070","0.0-6.0-2.17","","<div style=""font-size:60px;"">+</div>","null","","","","","","",""
"381.5699997358024","","image-keyboard-response","274","349452","0.0-6.0-0.18","","img/grey.png","32","trial","null","false","0.2,0.8","2:nogo_b","",""
"null","","html-keyboard-response","275","350454","0.0-6.0-1.18","","<img src=""img/grey-n.png"" border=""10"">","null","trial","null","","0.2,0.8","2:nogo_b","0",""
"null","","html-keyboard-response","276","351456","0.0-6.0-2.18","","<div style=""font-size:60px;"">+</div>","null","","","","","","",""
"null","","image-keyboard-response","277","352958","0.0-6.0-0.19","","img/pink.png","null","trial","32","false","0.8,0.2","1:go_a","",""
"null","","html-keyboard-response","278","353963","0.0-6.0-1.19","","<img src=""img/pink-n.png"">","null","trial","32","","0.8,0.2","1:go_a","0",""
"null","","html-keyboard-response","279","354964","0.0-6.0-2.19","","<div style=""font-size:60px;"">+</div>","null","","","","","","",""
"759.3900002539158","","image-keyboard-response","280","355724","0.0-6.0-0.20","","img/pink.png","32","trial","32","true","0.8,0.2","1:go_a","",""
"null","","html-keyboard-response","281","356726","0.0-6.0-1.20","","<img src=""img/pink-n.png"" border=""10"">","null","trial","32","","0.8,0.2","1:go_a","0",""
"null","","html-keyboard-response","282","357728","0.0-6.0-2.20","","<div style=""font-size:60px;"">+</div>","null","","","","","","",""
"868.1399999186397","","image-keyboard-response","283","358597","0.0-6.0-0.21","","img/grey.png","32","trial","null","false","0.2,0.8","2:nogo_b","",""
"null","","html-keyboard-response","284","359599","0.0-6.0-1.21","","<img src=""img/grey-n.png"" border=""10"">","null","trial","null","","0.2,0.8","2:nogo_b","0",""
"null","","html-keyboard-response","285","360600","0.0-6.0-2.21","","<div style=""font-size:60px;"">+</div>","null","","","","","","",""
"753.0899997800589","","image-keyboard-response","286","361355","0.0-6.0-0.22","","img/blue.png","32","trial","32","true","0.6,0.4","3:go_c","",""
"null","","html-keyboard-response","287","362356","0.0-6.0-1.22","","<img src=""img/blue-n.png"" border=""10"">","null","trial","32","","0.6,0.4","3:go_c","0",""
"null","","html-keyboard-response","288","363357","0.0-6.0-2.22","","<div style=""font-size:60px;"">+</div>","null","","","","","","",""
"608.0000000074506","","image-keyboard-response","289","363967","0.0-6.0-0.23","","img/red.png","32","trial","null","false","0.4,0.6","4:nogo_d","",""
"null","","html-keyboard-response","290","364970","0.0-6.0-1.23","","<img src=""img/red-n.png"" border=""10"">","null","trial","null","","0.4,0.6","4:nogo_d","0",""
"null","","html-keyboard-response","291","365972","0.0-6.0-2.23","","<div style=""font-size:60px;"">+</div>","null","","","","","","",""
"742.0049998909235","","image-keyboard-response","292","366715","0.0-6.0-0.24","","img/pink.png","32","trial","32","true","0.8,0.2","1:go_a","",""
"null","","html-keyboard-response","293","367717","0.0-6.0-1.24","","<img src=""img/pink-n.png"" border=""10"">","null","trial","32","","0.8,0.2","1:go_a","0",""
"null","","html-keyboard-response","294","368719","0.0-6.0-2.24","","<div style=""font-size:60px;"">+</div>","null","","","","","","",""
"430.35499984398484","","image-keyboard-response","295","369150","0.0-6.0-0.25","","img/red.png","32","trial","null","false","0.4,0.6","4:nogo_d","",""
"null","","html-keyboard-response","296","370153","0.0-6.0-1.25","","<img src=""img/red-n.png"" border=""10"">","null","trial","null","","0.4,0.6","4:nogo_d","0",""
"null","","html-keyboard-response","297","371155","0.0-6.0-2.25","","<div style=""font-size:60px;"">+</div>","null","","","","","","",""
"310.9900001436472","","image-keyboard-response","298","371467","0.0-6.0-0.26","","img/grey.png","32","trial","null","false","0.2,0.8","2:nogo_b","",""
"null","","html-keyboard-response","299","372469","0.0-6.0-1.26","","<img src=""img/grey-n.png"" border=""10"">","null","trial","null","","0.2,0.8","2:nogo_b","0",""
"null","","html-keyboard-response","300","373470","0.0-6.0-2.26","","<div style=""font-size:60px;"">+</div>","null","","","","","","",""
"null","","image-keyboard-response","301","374972","0.0-6.0-0.27","","img/blue.png","null","trial","32","false","0.6,0.4","3:go_c","",""
"null","","html-keyboard-response","302","375974","0.0-6.0-1.27","","<img src=""img/blue-n.png"">","null","trial","32","","0.6,0.4","3:go_c","0",""
"null","","html-keyboard-response","303","376975","0.0-6.0-2.27","","<div style=""font-size:60px;"">+</div>","null","","","","","","",""
"null","","image-keyboard-response","304","378478","0.0-6.0-0.28","","img/pink.png","null","trial","32","false","0.8,0.2","1:go_a","",""
"null","","html-keyboard-response","305","379481","0.0-6.0-1.28","","<img src=""img/pink-n.png"">","null","trial","32","","0.8,0.2","1:go_a","0",""
"null","","html-keyboard-response","306","380482","0.0-6.0-2.28","","<div style=""font-size:60px;"">+</div>","null","","","","","","",""
"null","","image-keyboard-response","307","381984","0.0-6.0-0.29","","img/blue.png","null","trial","32","false","0.6,0.4","3:go_c","",""
"null","","html-keyboard-response","308","382986","0.0-6.0-1.29","","<img src=""img/blue-n.png"">","null","trial","32","","0.6,0.4","3:go_c","0",""
"null","","html-keyboard-response","309","383987","0.0-6.0-2.29","","<div style=""font-size:60px;"">+</div>","null","","","","","","",""
"null","","image-keyboard-response","310","385490","0.0-6.0-0.30","","img/grey.png","null","trial","null","true","0.2,0.8","2:nogo_b","",""
"null","","html-keyboard-response","311","386492","0.0-6.0-1.30","","<img src=""img/grey-r.png"">","null","trial","null","","0.2,0.8","2:nogo_b","1",""
"null","","html-keyboard-response","312","387493","0.0-6.0-2.30","","<div style=""font-size:60px;"">+</div>","null","","","","","","",""
"246.91500002518296","","image-keyboard-response","313","387741","0.0-6.0-0.31","","img/red.png","32","trial","null","false","0.4,0.6","4:nogo_d","",""
"null","","html-keyboard-response","314","388744","0.0-6.0-1.31","","<img src=""img/red-n.png"" border=""10"">","null","trial","null","","0.4,0.6","4:nogo_d","0",""
"null","","html-keyboard-response","315","389745","0.0-6.0-2.31","","<div style=""font-size:60px;"">+</div>","null","","","","","","",""
"274.58499977365136","","image-keyboard-response","316","390021","0.0-6.0-0.32","","img/grey.png","32","trial","null","false","0.2,0.8","2:nogo_b","",""
"null","","html-keyboard-response","317","391023","0.0-6.0-1.32","","<img src=""img/grey-r.png"" border=""10"">","null","trial","null","","0.2,0.8","2:nogo_b","1",""
"null","","html-keyboard-response","318","392025","0.0-6.0-2.32","","<div style=""font-size:60px;"">+</div>","null","","","","","","",""
"366.6649996303022","","image-keyboard-response","319","392393","0.0-6.0-0.33","","img/blue.png","32","trial","32","true","0.6,0.4","3:go_c","",""
"null","","html-keyboard-response","320","393394","0.0-6.0-1.33","","<img src=""img/blue-r.png"" border=""10"">","null","trial","32","","0.6,0.4","3:go_c","1",""
"null","","html-keyboard-response","321","394396","0.0-6.0-2.33","","<div style=""font-size:60px;"">+</div>","null","","","","","","",""
"292.4000001512468","","image-keyboard-response","322","394689","0.0-6.0-0.34","","img/pink.png","32","trial","32","true","0.8,0.2","1:go_a","",""
"null","","html-keyboard-response","323","395690","0.0-6.0-1.34","","<img src=""img/pink-r.png"" border=""10"">","null","trial","32","","0.8,0.2","1:go_a","1",""
"null","","html-keyboard-response","324","396692","0.0-6.0-2.34","","<div style=""font-size:60px;"">+</div>","null","","","","","","",""
"291.9600000604987","","image-keyboard-response","325","396985","0.0-6.0-0.35","","img/red.png","32","trial","null","false","0.4,0.6","4:nogo_d","",""
"null","","html-keyboard-response","326","397986","0.0-6.0-1.35","","<img src=""img/red-r.png"" border=""10"">","null","trial","null","","0.4,0.6","4:nogo_d","1",""
"null","","html-keyboard-response","327","398987","0.0-6.0-2.35","","<div style=""font-size:60px;"">+</div>","null","","","","","","",""
"267.7699998021126","","image-keyboard-response","328","399256","0.0-6.0-0.36","","img/blue.png","32","trial","32","true","0.6,0.4","3:go_c","",""
"null","","html-keyboard-response","329","400258","0.0-6.0-1.36","","<img src=""img/blue-n.png"" border=""10"">","null","trial","32","","0.6,0.4","3:go_c","0",""
"null","","html-keyboard-response","330","401259","0.0-6.0-2.36","","<div style=""font-size:60px;"">+</div>","null","","","","","","",""
"null","","image-keyboard-response","331","402760","0.0-6.0-0.37","","img/pink.png","null","trial","32","false","0.8,0.2","1:go_a","",""
"null","","html-keyboard-response","332","403763","0.0-6.0-1.37","","<img src=""img/pink-r.png"">","null","trial","32","","0.8,0.2","1:go_a","1",""
"null","","html-keyboard-response","333","404765","0.0-6.0-2.37","","<div style=""font-size:60px;"">+</div>","null","","","","","","",""
"230.55499978363514","","image-keyboard-response","334","404996","0.0-6.0-0.38","","img/red.png","32","trial","null","false","0.4,0.6","4:nogo_d","",""
"null","","html-keyboard-response","335","405999","0.0-6.0-1.38","","<img src=""img/red-n.png"" border=""10"">","null","trial","null","","0.4,0.6","4:nogo_d","0",""
"null","","html-keyboard-response","336","407000","0.0-6.0-2.38","","<div style=""font-size:60px;"">+</div>","null","","","","","","",""
"540.6800000928342","","image-keyboard-response","337","407541","0.0-6.0-0.39","","img/grey.png","32","trial","null","false","0.2,0.8","2:nogo_b","",""
"null","","html-keyboard-response","338","408544","0.0-6.0-1.39","","<img src=""img/grey-n.png"" border=""10"">","null","trial","null","","0.2,0.8","2:nogo_b","0",""
"null","","html-keyboard-response","339","409546","0.0-6.0-2.39","","<div style=""font-size:60px;"">+</div>","null","","","","","","",""
"null","","image-keyboard-response","340","411048","0.0-6.0-0.40","","img/red.png","null","trial","null","true","0.4,0.6","4:nogo_d","",""
"null","","html-keyboard-response","341","412051","0.0-6.0-1.40","","<img src=""img/red-r.png"">","null","trial","null","","0.4,0.6","4:nogo_d","1",""
"null","","html-keyboard-response","342","413052","0.0-6.0-2.40","","<div style=""font-size:60px;"">+</div>","null","","","","","","",""
"null","","image-keyboard-response","343","414553","0.0-6.0-0.41","","img/blue.png","null","trial","32","false","0.6,0.4","3:go_c","",""
"null","","html-keyboard-response","344","415556","0.0-6.0-1.41","","<img src=""img/blue-r.png"">","null","trial","32","","0.6,0.4","3:go_c","1",""
"null","","html-keyboard-response","345","416557","0.0-6.0-2.41","","<div style=""font-size:60px;"">+</div>","null","","","","","","",""
"305.1749998703599","","image-keyboard-response","346","416863","0.0-6.0-0.42","","img/pink.png","32","trial","32","true","0.8,0.2","1:go_a","",""
"null","","html-keyboard-response","347","417866","0.0-6.0-1.42","","<img src=""img/pink-r.png"" border=""10"">","null","trial","32","","0.8,0.2","1:go_a","1",""
"null","","html-keyboard-response","348","418868","0.0-6.0-2.42","","<div style=""font-size:60px;"">+</div>","null","","","","","","",""
"509.97000001370907","","image-keyboard-response","349","419379","0.0-6.0-0.43","","img/grey.png","32","trial","null","false","0.2,0.8","2:nogo_b","",""
"null","","html-keyboard-response","350","420381","0.0-6.0-1.43","","<img src=""img/grey-n.png"" border=""10"">","null","trial","null","","0.2,0.8","2:nogo_b","0",""
"null","","html-keyboard-response","351","421383","0.0-6.0-2.43","","<div style=""font-size:60px;"">+</div>","null","","","","","","",""
"null","","image-keyboard-response","352","422885","0.0-6.0-0.44","","img/blue.png","null","trial","32","false","0.6,0.4","3:go_c","",""
"null","","html-keyboard-response","353","423886","0.0-6.0-1.44","","<img src=""img/blue-n.png"">","null","trial","32","","0.6,0.4","3:go_c","0",""
"null","","html-keyboard-response","354","424889","0.0-6.0-2.44","","<div style=""font-size:60px;"">+</div>","null","","","","","","",""
"null","","image-keyboard-response","355","426391","0.0-6.0-0.45","","img/grey.png","null","trial","null","true","0.2,0.8","2:nogo_b","",""
"null","","html-keyboard-response","356","427393","0.0-6.0-1.45","","<img src=""img/grey-r.png"">","null","trial","null","","0.2,0.8","2:nogo_b","1",""
"null","","html-keyboard-response","357","428395","0.0-6.0-2.45","","<div style=""font-size:60px;"">+</div>","null","","","","","","",""
"583.7199999950826","","image-keyboard-response","358","428979","0.0-6.0-0.46","","img/red.png","32","trial","null","false","0.4,0.6","4:nogo_d","",""
"null","","html-keyboard-response","359","429982","0.0-6.0-1.46","","<img src=""img/red-n.png"" border=""10"">","null","trial","null","","0.4,0.6","4:nogo_d","0",""
"null","","html-keyboard-response","360","430985","0.0-6.0-2.46","","<div style=""font-size:60px;"">+</div>","null","","","","","","",""
"null","","image-keyboard-response","361","432487","0.0-6.0-0.47","","img/pink.png","null","trial","32","false","0.8,0.2","1:go_a","",""
"null","","html-keyboard-response","362","433489","0.0-6.0-1.47","","<img src=""img/pink-n.png"">","null","trial","32","","0.8,0.2","1:go_a","0",""
"null","","html-keyboard-response","363","434490","0.0-6.0-2.47","","<div style=""font-size:60px;"">+</div>","null","","","","","","",""
"559.6199999563396","","image-keyboard-response","364","435050","0.0-6.0-0.48","","img/pink.png","32","trial","32","true","0.8,0.2","1:go_a","",""
"null","","html-keyboard-response","365","436052","0.0-6.0-1.48","","<img src=""img/pink-r.png"" border=""10"">","null","trial","32","","0.8,0.2","1:go_a","1",""
"null","","html-keyboard-response","366","437054","0.0-6.0-2.48","","<div style=""font-size:60px;"">+</div>","null","","","","","","",""
"null","","image-keyboard-response","367","438555","0.0-6.0-0.49","","img/blue.png","null","trial","32","false","0.6,0.4","3:go_c","",""
"null","","html-keyboard-response","368","439558","0.0-6.0-1.49","","<img src=""img/blue-n.png"">","null","trial","32","","0.6,0.4","3:go_c","0",""
"null","","html-keyboard-response","369","440559","0.0-6.0-2.49","","<div style=""font-size:60px;"">+</div>","null","","","","","","",""
"null","","image-keyboard-response","370","442061","0.0-6.0-0.50","","img/grey.png","null","trial","null","true","0.2,0.8","2:nogo_b","",""
"null","","html-keyboard-response","371","443063","0.0-6.0-1.50","","<img src=""img/grey-r.png"">","null","trial","null","","0.2,0.8","2:nogo_b","1",""
"null","","html-keyboard-response","372","444065","0.0-6.0-2.50","","<div style=""font-size:60px;"">+</div>","null","","","","","","",""
"556.6199999302626","","image-keyboard-response","373","444626","0.0-6.0-0.51","","img/red.png","32","trial","null","false","0.4,0.6","4:nogo_d","",""
"null","","html-keyboard-response","374","445629","0.0-6.0-1.51","","<img src=""img/red-r.png"" border=""10"">","null","trial","null","","0.4,0.6","4:nogo_d","1",""
"null","","html-keyboard-response","375","446632","0.0-6.0-2.51","","<div style=""font-size:60px;"">+</div>","null","","","","","","",""
"615.7949999906123","","image-keyboard-response","376","447248","0.0-6.0-0.52","","img/pink.png","32","trial","32","true","0.8,0.2","1:go_a","",""
"null","","html-keyboard-response","377","448250","0.0-6.0-1.52","","<img src=""img/pink-n.png"" border=""10"">","null","trial","32","","0.8,0.2","1:go_a","0",""
"null","","html-keyboard-response","378","449252","0.0-6.0-2.52","","<div style=""font-size:60px;"">+</div>","null","","","","","","",""
"null","","image-keyboard-response","379","450753","0.0-6.0-0.53","","img/grey.png","null","trial","null","true","0.2,0.8","2:nogo_b","",""
"null","","html-keyboard-response","380","451756","0.0-6.0-1.53","","<img src=""img/grey-r.png"">","null","trial","null","","0.2,0.8","2:nogo_b","1",""
"null","","html-keyboard-response","381","452757","0.0-6.0-2.53","","<div style=""font-size:60px;"">+</div>","null","","","","","","",""
"1008.7449997663498","","image-keyboard-response","382","453766","0.0-6.0-0.54","","img/red.png","32","trial","null","false","0.4,0.6","4:nogo_d","",""
"null","","html-keyboard-response","383","454769","0.0-6.0-1.54","","<img src=""img/red-n.png"" border=""10"">","null","trial","null","","0.4,0.6","4:nogo_d","0",""
"null","","html-keyboard-response","384","455770","0.0-6.0-2.54","","<div style=""font-size:60px;"">+</div>","null","","","","","","",""
"null","","image-keyboard-response","385","457271","0.0-6.0-0.55","","img/blue.png","null","trial","32","false","0.6,0.4","3:go_c","",""
"null","","html-keyboard-response","386","458273","0.0-6.0-1.55","","<img src=""img/blue-n.png"">","null","trial","32","","0.6,0.4","3:go_c","0",""
"null","","html-keyboard-response","387","459273","0.0-6.0-2.55","","<div style=""font-size:60px;"">+</div>","null","","","","","","",""
"null","","image-keyboard-response","388","460775","0.0-6.0-0.56","","img/pink.png","null","trial","32","false","0.8,0.2","1:go_a","",""
"null","","html-keyboard-response","389","461778","0.0-6.0-1.56","","<img src=""img/pink-n.png"">","null","trial","32","","0.8,0.2","1:go_a","0",""
"null","","html-keyboard-response","390","462780","0.0-6.0-2.56","","<div style=""font-size:60px;"">+</div>","null","","","","","","",""
"1087.2399997897446","","image-keyboard-response","391","463868","0.0-6.0-0.57","","img/red.png","32","trial","null","false","0.4,0.6","4:nogo_d","",""
"null","","html-keyboard-response","392","464870","0.0-6.0-1.57","","<img src=""img/red-r.png"" border=""10"">","null","trial","null","","0.4,0.6","4:nogo_d","1",""
"null","","html-keyboard-response","393","465871","0.0-6.0-2.57","","<div style=""font-size:60px;"">+</div>","null","","","","","","",""
"772.594999987632","","image-keyboard-response","394","466645","0.0-6.0-0.58","","img/grey.png","32","trial","null","false","0.2,0.8","2:nogo_b","",""
"null","","html-keyboard-response","395","467646","0.0-6.0-1.58","","<img src=""img/grey-r.png"" border=""10"">","null","trial","null","","0.2,0.8","2:nogo_b","1",""
"null","","html-keyboard-response","396","468649","0.0-6.0-2.58","","<div style=""font-size:60px;"">+</div>","null","","","","","","",""
"550.8349998854101","","image-keyboard-response","397","469201","0.0-6.0-0.59","","img/blue.png","32","trial","32","true","0.6,0.4","3:go_c","",""
"null","","html-keyboard-response","398","470203","0.0-6.0-1.59","","<img src=""img/blue-n.png"" border=""10"">","null","trial","32","","0.6,0.4","3:go_c","0",""
"null","","html-keyboard-response","399","471205","0.0-6.0-2.59","","<div style=""font-size:60px;"">+</div>","null","","","","","","",""
"998.4300001524389","","image-keyboard-response","400","472204","0.0-6.0-0.60","","img/red.png","32","trial","null","false","0.4,0.6","4:nogo_d","",""
"null","","html-keyboard-response","401","473207","0.0-6.0-1.60","","<img src=""img/red-r.png"" border=""10"">","null","trial","null","","0.4,0.6","4:nogo_d","1",""
"null","","html-keyboard-response","402","474209","0.0-6.0-2.60","","<div style=""font-size:60px;"">+</div>","null","","","","","","",""
"736.2500000745058","","image-keyboard-response","403","474946","0.0-6.0-0.61","","img/blue.png","32","trial","32","true","0.6,0.4","3:go_c","",""
"null","","html-keyboard-response","404","475948","0.0-6.0-1.61","","<img src=""img/blue-r.png"" border=""10"">","null","trial","32","","0.6,0.4","3:go_c","1",""
"null","","html-keyboard-response","405","476950","0.0-6.0-2.61","","<div style=""font-size:60px;"">+</div>","null","","","","","","",""
"829.0649997070432","","image-keyboard-response","406","477780","0.0-6.0-0.62","","img/pink.png","32","trial","32","true","0.8,0.2","1:go_a","",""
"null","","html-keyboard-response","407","478783","0.0-6.0-1.62","","<img src=""img/pink-n.png"" border=""10"">","null","trial","32","","0.8,0.2","1:go_a","0",""
"null","","html-keyboard-response","408","479784","0.0-6.0-2.62","","<div style=""font-size:60px;"">+</div>","null","","","","","","",""
"792.6549999974668","","image-keyboard-response","409","480578","0.0-6.0-0.63","","img/grey.png","32","trial","null","false","0.2,0.8","2:nogo_b","",""
"null","","html-keyboard-response","410","481581","0.0-6.0-1.63","","<img src=""img/grey-n.png"" border=""10"">","null","trial","null","","0.2,0.8","2:nogo_b","0",""
"null","","html-keyboard-response","411","482582","0.0-6.0-2.63","","<div style=""font-size:60px;"">+</div>","null","","","","","","",""
"705.5600001476705","","image-keyboard-response","412","483288","0.0-6.0-0.64","","img/red.png","32","trial","null","false","0.4,0.6","4:nogo_d","",""
"null","","html-keyboard-response","413","484291","0.0-6.0-1.64","","<img src=""img/red-n.png"" border=""10"">","null","trial","null","","0.4,0.6","4:nogo_d","0",""
"null","","html-keyboard-response","414","485292","0.0-6.0-2.64","","<div style=""font-size:60px;"">+</div>","null","","","","","","",""
"null","","image-keyboard-response","415","486793","0.0-6.0-0.65","","img/pink.png","null","trial","32","false","0.8,0.2","1:go_a","",""
"null","","html-keyboard-response","416","487796","0.0-6.0-1.65","","<img src=""img/pink-n.png"">","null","trial","32","","0.8,0.2","1:go_a","0",""
"null","","html-keyboard-response","417","488797","0.0-6.0-2.65","","<div style=""font-size:60px;"">+</div>","null","","","","","","",""
"1223.0650000274181","","image-keyboard-response","418","490021","0.0-6.0-0.66","","img/grey.png","32","trial","null","false","0.2,0.8","2:nogo_b","",""
"null","","html-keyboard-response","419","491023","0.0-6.0-1.66","","<img src=""img/grey-n.png"" border=""10"">","null","trial","null","","0.2,0.8","2:nogo_b","0",""
"null","","html-keyboard-response","420","492027","0.0-6.0-2.66","","<div style=""font-size:60px;"">+</div>","null","","","","","","",""
"null","","image-keyboard-response","421","493528","0.0-6.0-0.67","","img/blue.png","null","trial","32","false","0.6,0.4","3:go_c","",""
"null","","html-keyboard-response","422","494530","0.0-6.0-1.67","","<img src=""img/blue-n.png"">","null","trial","32","","0.6,0.4","3:go_c","0",""
"null","","html-keyboard-response","423","495532","0.0-6.0-2.67","","<div style=""font-size:60px;"">+</div>","null","","","","","","",""
"null","","image-keyboard-response","424","497034","0.0-6.0-0.68","","img/grey.png","null","trial","null","true","0.2,0.8","2:nogo_b","",""
"null","","html-keyboard-response","425","498037","0.0-6.0-1.68","","<img src=""img/grey-r.png"">","null","trial","null","","0.2,0.8","2:nogo_b","1",""
"null","","html-keyboard-response","426","499038","0.0-6.0-2.68","","<div style=""font-size:60px;"">+</div>","null","","","","","","",""
"708.420000039041","","image-keyboard-response","427","499747","0.0-6.0-0.69","","img/red.png","32","trial","null","false","0.4,0.6","4:nogo_d","",""
"null","","html-keyboard-response","428","500749","0.0-6.0-1.69","","<img src=""img/red-n.png"" border=""10"">","null","trial","null","","0.4,0.6","4:nogo_d","0",""
"null","","html-keyboard-response","429","501750","0.0-6.0-2.69","","<div style=""font-size:60px;"">+</div>","null","","","","","","",""
"null","","image-keyboard-response","430","503252","0.0-6.0-0.70","","img/pink.png","null","trial","32","false","0.8,0.2","1:go_a","",""
"null","","html-keyboard-response","431","504256","0.0-6.0-1.70","","<img src=""img/pink-n.png"">","null","trial","32","","0.8,0.2","1:go_a","0",""
"null","","html-keyboard-response","432","505256","0.0-6.0-2.70","","<div style=""font-size:60px;"">+</div>","null","","","","","","",""
"1038.1100000813603","","image-keyboard-response","433","506295","0.0-6.0-0.71","","img/blue.png","32","trial","32","true","0.6,0.4","3:go_c","",""
"null","","html-keyboard-response","434","507297","0.0-6.0-1.71","","<img src=""img/blue-n.png"" border=""10"">","null","trial","32","","0.6,0.4","3:go_c","0",""
"null","","html-keyboard-response","435","508299","0.0-6.0-2.71","","<div style=""font-size:60px;"">+</div>","null","","","","","","",""
"1299.4950003921986","","image-keyboard-response","436","509599","0.0-6.0-0.72","","img/blue.png","32","trial","32","true","0.6,0.4","3:go_c","",""
"null","","html-keyboard-response","437","510601","0.0-6.0-1.72","","<img src=""img/blue-r.png"" border=""10"">","null","trial","32","","0.6,0.4","3:go_c","1",""
"null","","html-keyboard-response","438","511603","0.0-6.0-2.72","","<div style=""font-size:60px;"">+</div>","null","","","","","","",""
"null","","image-keyboard-response","439","513104","0.0-6.0-0.73","","img/pink.png","null","trial","32","false","0.8,0.2","1:go_a","",""
"null","","html-keyboard-response","440","514106","0.0-6.0-1.73","","<img src=""img/pink-n.png"">","null","trial","32","","0.8,0.2","1:go_a","0",""
"null","","html-keyboard-response","441","515107","0.0-6.0-2.73","","<div style=""font-size:60px;"">+</div>","null","","","","","","",""
"null","","image-keyboard-response","442","516609","0.0-6.0-0.74","","img/grey.png","null","trial","null","true","0.2,0.8","2:nogo_b","",""
"null","","html-keyboard-response","443","517611","0.0-6.0-1.74","","<img src=""img/grey-r.png"">","null","trial","null","","0.2,0.8","2:nogo_b","1",""
"null","","html-keyboard-response","444","518612","0.0-6.0-2.74","","<div style=""font-size:60px;"">+</div>","null","","","","","","",""
"null","","image-keyboard-response","445","520113","0.0-6.0-0.75","","img/red.png","null","trial","null","true","0.4,0.6","4:nogo_d","",""
"null","","html-keyboard-response","446","521115","0.0-6.0-1.75","","<img src=""img/red-n.png"">","null","trial","null","","0.4,0.6","4:nogo_d","0",""
"null","","html-keyboard-response","447","522116","0.0-6.0-2.75","","<div style=""font-size:60px;"">+</div>","null","","","","","","",""
"null","","image-keyboard-response","448","523617","0.0-6.0-0.76","","img/grey.png","null","trial","null","true","0.2,0.8","2:nogo_b","",""
"null","","html-keyboard-response","449","524620","0.0-6.0-1.76","","<img src=""img/grey-r.png"">","null","trial","null","","0.2,0.8","2:nogo_b","1",""
"null","","html-keyboard-response","450","525621","0.0-6.0-2.76","","<div style=""font-size:60px;"">+</div>","null","","","","","","",""
"972.8399999439716","","image-keyboard-response","451","526596","0.0-6.0-0.77","","img/blue.png","32","trial","32","true","0.6,0.4","3:go_c","",""
"null","","html-keyboard-response","452","527599","0.0-6.0-1.77","","<img src=""img/blue-r.png"" border=""10"">","null","trial","32","","0.6,0.4","3:go_c","1",""
"null","","html-keyboard-response","453","528600","0.0-6.0-2.77","","<div style=""font-size:60px;"">+</div>","null","","","","","","",""
"694.9149998836219","","image-keyboard-response","454","529296","0.0-6.0-0.78","","img/pink.png","32","trial","32","true","0.8,0.2","1:go_a","",""
"null","","html-keyboard-response","455","530299","0.0-6.0-1.78","","<img src=""img/pink-r.png"" border=""10"">","null","trial","32","","0.8,0.2","1:go_a","1",""
"null","","html-keyboard-response","456","531300","0.0-6.0-2.78","","<div style=""font-size:60px;"">+</div>","null","","","","","","",""
"887.624999973923","","image-keyboard-response","457","532189","0.0-6.0-0.79","","img/red.png","32","trial","null","false","0.4,0.6","4:nogo_d","",""
"null","","html-keyboard-response","458","533191","0.0-6.0-1.79","","<img src=""img/red-r.png"" border=""10"">","null","trial","null","","0.4,0.6","4:nogo_d","1",""
"null","","html-keyboard-response","459","534193","0.0-6.0-2.79","","<div style=""font-size:60px;"">+</div>","null","","","","","","",""
"null","","image-keyboard-response","460","535694","0.0-6.0-0.80","","img/blue.png","null","trial","32","false","0.6,0.4","3:go_c","",""
"null","","html-keyboard-response","461","536696","0.0-6.0-1.80","","<img src=""img/blue-n.png"">","null","trial","32","","0.6,0.4","3:go_c","0",""
"null","","html-keyboard-response","462","537697","0.0-6.0-2.80","","<div style=""font-size:60px;"">+</div>","null","","","","","","",""
"null","","image-keyboard-response","463","539200","0.0-6.0-0.81","","img/grey.png","null","trial","null","true","0.2,0.8","2:nogo_b","",""
"null","","html-keyboard-response","464","540201","0.0-6.0-1.81","","<img src=""img/grey-r.png"">","null","trial","null","","0.2,0.8","2:nogo_b","1",""
"null","","html-keyboard-response","465","541205","0.0-6.0-2.81","","<div style=""font-size:60px;"">+</div>","null","","","","","","",""
"438.60499979928136","","image-keyboard-response","466","541644","0.0-6.0-0.82","","img/red.png","32","trial","null","false","0.4,0.6","4:nogo_d","",""
"null","","html-keyboard-response","467","542645","0.0-6.0-1.82","","<img src=""img/red-n.png"" border=""10"">","null","trial","null","","0.4,0.6","4:nogo_d","0",""
"null","","html-keyboard-response","468","543647","0.0-6.0-2.82","","<div style=""font-size:60px;"">+</div>","null","","","","","","",""
"null","","image-keyboard-response","469","545148","0.0-6.0-0.83","","img/pink.png","null","trial","32","false","0.8,0.2","1:go_a","",""
"null","","html-keyboard-response","470","546150","0.0-6.0-1.83","","<img src=""img/pink-n.png"">","null","trial","32","","0.8,0.2","1:go_a","0",""
"null","","html-keyboard-response","471","547151","0.0-6.0-2.83","","<div style=""font-size:60px;"">+</div>","null","","","","","","",""
"null","","image-keyboard-response","472","548653","0.0-6.0-0.84","","img/grey.png","null","trial","null","true","0.2,0.8","2:nogo_b","",""
"null","","html-keyboard-response","473","549654","0.0-6.0-1.84","","<img src=""img/grey-r.png"">","null","trial","null","","0.2,0.8","2:nogo_b","1",""
"null","","html-keyboard-response","474","550657","0.0-6.0-2.84","","<div style=""font-size:60px;"">+</div>","null","","","","","","",""
"316.20500003919005","","image-keyboard-response","475","550974","0.0-6.0-0.85","","img/blue.png","32","trial","32","true","0.6,0.4","3:go_c","",""
"null","","html-keyboard-response","476","551977","0.0-6.0-1.85","","<img src=""img/blue-r.png"" border=""10"">","null","trial","32","","0.6,0.4","3:go_c","1",""
"null","","html-keyboard-response","477","552978","0.0-6.0-2.85","","<div style=""font-size:60px;"">+</div>","null","","","","","","",""
"687.1899999678135","","image-keyboard-response","478","553666","0.0-6.0-0.86","","img/pink.png","32","trial","32","true","0.8,0.2","1:go_a","",""
"null","","html-keyboard-response","479","554667","0.0-6.0-1.86","","<img src=""img/pink-r.png"" border=""10"">","null","trial","32","","0.8,0.2","1:go_a","1",""
"null","","html-keyboard-response","480","555669","0.0-6.0-2.86","","<div style=""font-size:60px;"">+</div>","null","","","","","","",""
"597.8000001050532","","image-keyboard-response","481","556269","0.0-6.0-0.87","","img/red.png","32","trial","null","false","0.4,0.6","4:nogo_d","",""
"null","","html-keyboard-response","482","557270","0.0-6.0-1.87","","<img src=""img/red-n.png"" border=""10"">","null","trial","null","","0.4,0.6","4:nogo_d","0",""
"null","","html-keyboard-response","483","558272","0.0-6.0-2.87","","<div style=""font-size:60px;"">+</div>","null","","","","","","",""
"964.9849999696016","","image-keyboard-response","484","559237","0.0-6.0-0.88","","img/pink.png","32","trial","32","true","0.8,0.2","1:go_a","",""
"null","","html-keyboard-response","485","560241","0.0-6.0-1.88","","<img src=""img/pink-r.png"" border=""10"">","null","trial","32","","0.8,0.2","1:go_a","1",""
"null","","html-keyboard-response","486","561242","0.0-6.0-2.88","","<div style=""font-size:60px;"">+</div>","null","","","","","","",""
"761.2350000999868","","image-keyboard-response","487","562004","0.0-6.0-0.89","","img/grey.png","32","trial","null","false","0.2,0.8","2:nogo_b","",""
"null","","html-keyboard-response","488","563005","0.0-6.0-1.89","","<img src=""img/grey-n.png"" border=""10"">","null","trial","null","","0.2,0.8","2:nogo_b","0",""
"null","","html-keyboard-response","489","564007","0.0-6.0-2.89","","<div style=""font-size:60px;"">+</div>","null","","","","","","",""
"853.3499999903142","","image-keyboard-response","490","564861","0.0-6.0-0.90","","img/blue.png","32","trial","32","true","0.6,0.4","3:go_c","",""
"null","","html-keyboard-response","491","565863","0.0-6.0-1.90","","<img src=""img/blue-r.png"" border=""10"">","null","trial","32","","0.6,0.4","3:go_c","1",""
"null","","html-keyboard-response","492","566865","0.0-6.0-2.90","","<div style=""font-size:60px;"">+</div>","null","","","","","","",""
"637.6849999651313","","image-keyboard-response","493","567504","0.0-6.0-0.91","","img/red.png","32","trial","null","false","0.4,0.6","4:nogo_d","",""
"null","","html-keyboard-response","494","568506","0.0-6.0-1.91","","<img src=""img/red-n.png"" border=""10"">","null","trial","null","","0.4,0.6","4:nogo_d","0",""
"null","","html-keyboard-response","495","569508","0.0-6.0-2.91","","<div style=""font-size:60px;"">+</div>","null","","","","","","",""
"1012.7599998377264","","image-keyboard-response","496","570521","0.0-6.0-0.92","","img/blue.png","32","trial","32","true","0.6,0.4","3:go_c","",""
"null","","html-keyboard-response","497","571524","0.0-6.0-1.92","","<img src=""img/blue-n.png"" border=""10"">","null","trial","32","","0.6,0.4","3:go_c","0",""
"null","","html-keyboard-response","498","572525","0.0-6.0-2.92","","<div style=""font-size:60px;"">+</div>","null","","","","","","",""
"null","","image-keyboard-response","499","574026","0.0-6.0-0.93","","img/grey.png","null","trial","null","true","0.2,0.8","2:nogo_b","",""
"null","","html-keyboard-response","500","575029","0.0-6.0-1.93","","<img src=""img/grey-r.png"">","null","trial","null","","0.2,0.8","2:nogo_b","1",""
"null","","html-keyboard-response","501","576031","0.0-6.0-2.93","","<div style=""font-size:60px;"">+</div>","null","","","","","","",""
"369.89500001072884","","image-keyboard-response","502","576402","0.0-6.0-0.94","","img/pink.png","32","trial","32","true","0.8,0.2","1:go_a","",""
"null","","html-keyboard-response","503","577405","0.0-6.0-1.94","","<img src=""img/pink-r.png"" border=""10"">","null","trial","32","","0.8,0.2","1:go_a","1",""
"null","","html-keyboard-response","504","578408","0.0-6.0-2.94","","<div style=""font-size:60px;"">+</div>","null","","","","","","",""
"355.20000010728836","","image-keyboard-response","505","578763","0.0-6.0-0.95","","img/red.png","32","trial","null","false","0.4,0.6","4:nogo_d","",""
"null","","html-keyboard-response","506","579765","0.0-6.0-1.95","","<img src=""img/red-n.png"" border=""10"">","null","trial","null","","0.4,0.6","4:nogo_d","0",""
"null","","html-keyboard-response","507","580767","0.0-6.0-2.95","","<div style=""font-size:60px;"">+</div>","null","","","","","","",""
"662.7000002190471","","image-keyboard-response","508","581431","0.0-6.0-0.96","","img/pink.png","32","trial","32","true","0.8,0.2","1:go_a","",""
"null","","html-keyboard-response","509","582434","0.0-6.0-1.96","","<img src=""img/pink-r.png"" border=""10"">","null","trial","32","","0.8,0.2","1:go_a","1",""
"null","","html-keyboard-response","510","583436","0.0-6.0-2.96","","<div style=""font-size:60px;"">+</div>","null","","","","","","",""
"525.3200000151992","","image-keyboard-response","511","583962","0.0-6.0-0.97","","img/grey.png","32","trial","null","false","0.2,0.8","2:nogo_b","",""
"null","","html-keyboard-response","512","584964","0.0-6.0-1.97","","<img src=""img/grey-r.png"" border=""10"">","null","trial","null","","0.2,0.8","2:nogo_b","1",""
"null","","html-keyboard-response","513","585966","0.0-6.0-2.97","","<div style=""font-size:60px;"">+</div>","null","","","","","","",""
"492.2050000168383","","image-keyboard-response","514","586459","0.0-6.0-0.98","","img/blue.png","32","trial","32","true","0.6,0.4","3:go_c","",""
"null","","html-keyboard-response","515","587460","0.0-6.0-1.98","","<img src=""img/blue-n.png"" border=""10"">","null","trial","32","","0.6,0.4","3:go_c","0",""
"null","","html-keyboard-response","516","588462","0.0-6.0-2.98","","<div style=""font-size:60px;"">+</div>","null","","","","","","",""
"632.4900002218783","","image-keyboard-response","517","589096","0.0-6.0-0.99","","img/red.png","32","trial","null","false","0.4,0.6","4:nogo_d","",""
"null","","html-keyboard-response","518","590097","0.0-6.0-1.99","","<img src=""img/red-n.png"" border=""10"">","null","trial","null","","0.4,0.6","4:nogo_d","0",""
"null","","html-keyboard-response","519","591098","0.0-6.0-2.99","","<div style=""font-size:60px;"">+</div>","null","","","","","","",""
"788.9499999582767","","image-keyboard-response","520","591889","0.0-6.0-0.100","","img/grey.png","32","trial","null","false","0.2,0.8","2:nogo_b","",""
"null","","html-keyboard-response","521","592892","0.0-6.0-1.100","","<img src=""img/grey-r.png"" border=""10"">","null","trial","null","","0.2,0.8","2:nogo_b","1",""
"null","","html-keyboard-response","522","593893","0.0-6.0-2.100","","<div style=""font-size:60px;"">+</div>","null","","","","","","",""
"1265.9350000321865","","image-keyboard-response","523","595159","0.0-6.0-0.101","","img/red.png","32","trial","null","false","0.4,0.6","4:nogo_d","",""
"null","","html-keyboard-response","524","596161","0.0-6.0-1.101","","<img src=""img/red-n.png"" border=""10"">","null","trial","null","","0.4,0.6","4:nogo_d","0",""
"null","","html-keyboard-response","525","597162","0.0-6.0-2.101","","<div style=""font-size:60px;"">+</div>","null","","","","","","",""
"550.5849998444319","","image-keyboard-response","526","597714","0.0-6.0-0.102","","img/pink.png","32","trial","32","true","0.8,0.2","1:go_a","",""
"null","","html-keyboard-response","527","598716","0.0-6.0-1.102","","<img src=""img/pink-r.png"" border=""10"">","null","trial","32","","0.8,0.2","1:go_a","1",""
"null","","html-keyboard-response","528","599717","0.0-6.0-2.102","","<div style=""font-size:60px;"">+</div>","null","","","","","","",""
"401.4749997295439","","image-keyboard-response","529","600119","0.0-6.0-0.103","","img/blue.png","32","trial","32","true","0.6,0.4","3:go_c","",""
"null","","html-keyboard-response","530","601122","0.0-6.0-1.103","","<img src=""img/blue-r.png"" border=""10"">","null","trial","32","","0.6,0.4","3:go_c","1",""
"null","","html-keyboard-response","531","602123","0.0-6.0-2.103","","<div style=""font-size:60px;"">+</div>","null","","","","","","",""
"null","","image-keyboard-response","532","603625","0.0-6.0-0.104","","img/blue.png","null","trial","32","false","0.6,0.4","3:go_c","",""
"null","","html-keyboard-response","533","604628","0.0-6.0-1.104","","<img src=""img/blue-r.png"">","null","trial","32","","0.6,0.4","3:go_c","1",""
"null","","html-keyboard-response","534","605628","0.0-6.0-2.104","","<div style=""font-size:60px;"">+</div>","null","","","","","","",""
"null","","image-keyboard-response","535","607130","0.0-6.0-0.105","","img/red.png","null","trial","null","true","0.4,0.6","4:nogo_d","",""
"null","","html-keyboard-response","536","608133","0.0-6.0-1.105","","<img src=""img/red-n.png"">","null","trial","null","","0.4,0.6","4:nogo_d","0",""
"null","","html-keyboard-response","537","609135","0.0-6.0-2.105","","<div style=""font-size:60px;"">+</div>","null","","","","","","",""
"675.0799999572337","","image-keyboard-response","538","609811","0.0-6.0-0.106","","img/pink.png","32","trial","32","true","0.8,0.2","1:go_a","",""
"null","","html-keyboard-response","539","610813","0.0-6.0-1.106","","<img src=""img/pink-n.png"" border=""10"">","null","trial","32","","0.8,0.2","1:go_a","0",""
"null","","html-keyboard-response","540","611815","0.0-6.0-2.106","","<div style=""font-size:60px;"">+</div>","null","","","","","","",""
"736.765000037849","","image-keyboard-response","541","612553","0.0-6.0-0.107","","img/grey.png","32","trial","null","false","0.2,0.8","2:nogo_b","",""
"null","","html-keyboard-response","542","613554","0.0-6.0-1.107","","<img src=""img/grey-n.png"" border=""10"">","null","trial","null","","0.2,0.8","2:nogo_b","0",""
"null","","html-keyboard-response","543","614557","0.0-6.0-2.107","","<div style=""font-size:60px;"">+</div>","null","","","","","","",""
"813.1900001317263","","image-keyboard-response","544","615370","0.0-6.0-0.108","","img/blue.png","32","trial","32","true","0.6,0.4","3:go_c","",""
"null","","html-keyboard-response","545","616373","0.0-6.0-1.108","","<img src=""img/blue-n.png"" border=""10"">","null","trial","32","","0.6,0.4","3:go_c","0",""
"null","","html-keyboard-response","546","617375","0.0-6.0-2.108","","<div style=""font-size:60px;"">+</div>","null","","","","","","",""
"null","","image-keyboard-response","547","618877","0.0-6.0-0.109","","img/pink.png","null","trial","32","false","0.8,0.2","1:go_a","",""
"null","","html-keyboard-response","548","619881","0.0-6.0-1.109","","<img src=""img/pink-n.png"">","null","trial","32","","0.8,0.2","1:go_a","0",""
"null","","html-keyboard-response","549","620883","0.0-6.0-2.109","","<div style=""font-size:60px;"">+</div>","null","","","","","","",""
"null","","image-keyboard-response","550","622386","0.0-6.0-0.110","","img/red.png","null","trial","null","true","0.4,0.6","4:nogo_d","",""
"null","","html-keyboard-response","551","623387","0.0-6.0-1.110","","<img src=""img/red-n.png"">","null","trial","null","","0.4,0.6","4:nogo_d","0",""
"null","","html-keyboard-response","552","624389","0.0-6.0-2.110","","<div style=""font-size:60px;"">+</div>","null","","","","","","",""
"722.2449998371303","","image-keyboard-response","553","625111","0.0-6.0-0.111","","img/grey.png","32","trial","null","false","0.2,0.8","2:nogo_b","",""
"null","","html-keyboard-response","554","626114","0.0-6.0-1.111","","<img src=""img/grey-r.png"" border=""10"">","null","trial","null","","0.2,0.8","2:nogo_b","1",""
"null","","html-keyboard-response","555","627116","0.0-6.0-2.111","","<div style=""font-size:60px;"">+</div>","null","","","","","","",""
"507.234999909997","","image-keyboard-response","556","627624","0.0-6.0-0.112","","img/grey.png","32","trial","null","false","0.2,0.8","2:nogo_b","",""
"null","","html-keyboard-response","557","628625","0.0-6.0-1.112","","<img src=""img/grey-n.png"" border=""10"">","null","trial","null","","0.2,0.8","2:nogo_b","0",""
"null","","html-keyboard-response","558","629628","0.0-6.0-2.112","","<div style=""font-size:60px;"">+</div>","null","","","","","","",""
"525.1100002788007","","image-keyboard-response","559","630153","0.0-6.0-0.113","","img/red.png","32","trial","null","false","0.4,0.6","4:nogo_d","",""
"null","","html-keyboard-response","560","631155","0.0-6.0-1.113","","<img src=""img/red-r.png"" border=""10"">","null","trial","null","","0.4,0.6","4:nogo_d","1",""
"null","","html-keyboard-response","561","632158","0.0-6.0-2.113","","<div style=""font-size:60px;"">+</div>","null","","","","","","",""
"578.2000003382564","","image-keyboard-response","562","632737","0.0-6.0-0.114","","img/pink.png","32","trial","32","true","0.8,0.2","1:go_a","",""
"null","","html-keyboard-response","563","633740","0.0-6.0-1.114","","<img src=""img/pink-r.png"" border=""10"">","null","trial","32","","0.8,0.2","1:go_a","1",""
"null","","html-keyboard-response","564","634741","0.0-6.0-2.114","","<div style=""font-size:60px;"">+</div>","null","","","","","","",""
"null","","image-keyboard-response","565","636243","0.0-6.0-0.115","","img/blue.png","null","trial","32","false","0.6,0.4","3:go_c","",""
"null","","html-keyboard-response","566","637245","0.0-6.0-1.115","","<img src=""img/blue-n.png"">","null","trial","32","","0.6,0.4","3:go_c","0",""
"null","","html-keyboard-response","567","638245","0.0-6.0-2.115","","<div style=""font-size:60px;"">+</div>","null","","","","","","",""
"null","","image-keyboard-response","568","639747","0.0-6.0-0.116","","img/pink.png","null","trial","32","false","0.8,0.2","1:go_a","",""
"null","","html-keyboard-response","569","640748","0.0-6.0-1.116","","<img src=""img/pink-n.png"">","null","trial","32","","0.8,0.2","1:go_a","0",""
"null","","html-keyboard-response","570","641749","0.0-6.0-2.116","","<div style=""font-size:60px;"">+</div>","null","","","","","","",""
"null","","image-keyboard-response","571","643251","0.0-6.0-0.117","","img/blue.png","null","trial","32","false","0.6,0.4","3:go_c","",""
"null","","html-keyboard-response","572","644254","0.0-6.0-1.117","","<img src=""img/blue-n.png"">","null","trial","32","","0.6,0.4","3:go_c","0",""
"null","","html-keyboard-response","573","645255","0.0-6.0-2.117","","<div style=""font-size:60px;"">+</div>","null","","","","","","",""
"600.7550000213087","","image-keyboard-response","574","645857","0.0-6.0-0.118","","img/grey.png","32","trial","null","false","0.2,0.8","2:nogo_b","",""
"null","","html-keyboard-response","575","646860","0.0-6.0-1.118","","<img src=""img/grey-n.png"" border=""10"">","null","trial","null","","0.2,0.8","2:nogo_b","0",""
"null","","html-keyboard-response","576","647861","0.0-6.0-2.118","","<div style=""font-size:60px;"">+</div>","null","","","","","","",""
"329.7199998050928","","image-keyboard-response","577","648192","0.0-6.0-0.119","","img/red.png","32","trial","null","false","0.4,0.6","4:nogo_d","",""
"null","","html-keyboard-response","578","649194","0.0-6.0-1.119","","<img src=""img/red-r.png"" border=""10"">","null","trial","null","","0.4,0.6","4:nogo_d","1",""
"null","","html-keyboard-response","579","650196","0.0-6.0-2.119","","<div style=""font-size:60px;"">+</div>","null","","","","","","",""
"157575.62500005588","","instructions","580","807771","0.0-7.0","[{""page_index"":0,""viewing_time"":157575.20999992266}]","","","","","","","","",""
"767.6300001330674","","image-keyboard-response","581","808541","0.0-8.0-0.0","","img/pink.png","32","trial","32","true","0.8,0.2","1:go_a","",""
"null","","html-keyboard-response","582","809544","0.0-8.0-1.0","","<img src=""img/pink-r.png"" border=""10"">","null","trial","32","","0.8,0.2","1:go_a","1",""
"null","","html-keyboard-response","583","810545","0.0-8.0-2.0","","<div style=""font-size:60px;"">+</div>","null","","","","","","",""
"394.57499980926514","","image-keyboard-response","584","810941","0.0-8.0-0.1","","img/blue.png","32","trial","32","true","1,0","3:go_c","",""
"null","","html-keyboard-response","585","811943","0.0-8.0-1.1","","<img src=""img/blue-r.png"" border=""10"">","null","trial","32","","1,0","3:go_c","1",""
"null","","html-keyboard-response","586","812945","0.0-8.0-2.1","","<div style=""font-size:60px;"">+</div>","null","","","","","","",""
"301.5949996188283","","image-keyboard-response","587","813247","0.0-8.0-0.2","","img/grey.png","32","trial","null","false","0,1","4:nogo_d","",""
"null","","html-keyboard-response","588","814249","0.0-8.0-1.2","","<img src=""img/grey-n.png"" border=""10"">","null","trial","null","","0,1","4:nogo_d","0",""
"null","","html-keyboard-response","589","815251","0.0-8.0-2.2","","<div style=""font-size:60px;"">+</div>","null","","","","","","",""
"643.1249999441206","","image-keyboard-response","590","815895","0.0-8.0-0.3","","img/green.png","32","trial","null","false","0.2,0.8","2:nogo_b","",""
"null","","html-keyboard-response","591","816898","0.0-8.0-1.3","","<img src=""img/green-n.png"" border=""10"">","null","trial","null","","0.2,0.8","2:nogo_b","0",""
"null","","html-keyboard-response","592","817899","0.0-8.0-2.3","","<div style=""font-size:60px;"">+</div>","null","","","","","","",""
"580.5399999953806","","image-keyboard-response","593","818480","0.0-8.0-0.4","","img/blue.png","32","trial","32","true","1,0","3:go_c","",""
"null","","html-keyboard-response","594","819481","0.0-8.0-1.4","","<img src=""img/blue-r.png"" border=""10"">","null","trial","32","","1,0","3:go_c","1",""
"null","","html-keyboard-response","595","820483","0.0-8.0-2.4","","<div style=""font-size:60px;"">+</div>","null","","","","","","",""
"514.0749998390675","","image-keyboard-response","596","820998","0.0-8.0-0.5","","img/pink.png","32","trial","32","true","0.8,0.2","1:go_a","",""
"null","","html-keyboard-response","597","822000","0.0-8.0-1.5","","<img src=""img/pink-r.png"" border=""10"">","null","trial","32","","0.8,0.2","1:go_a","1",""
"null","","html-keyboard-response","598","823003","0.0-8.0-2.5","","<div style=""font-size:60px;"">+</div>","null","","","","","","",""
"null","","image-keyboard-response","599","824505","0.0-8.0-0.6","","img/grey.png","null","trial","null","true","0,1","4:nogo_d","",""
"null","","html-keyboard-response","600","825507","0.0-8.0-1.6","","<img src=""img/grey-r.png"">","null","trial","null","","0,1","4:nogo_d","1",""
"null","","html-keyboard-response","601","826509","0.0-8.0-2.6","","<div style=""font-size:60px;"">+</div>","null","","","","","","",""
"950.2649996429682","","image-keyboard-response","602","827460","0.0-8.0-0.7","","img/green.png","32","trial","null","false","0.2,0.8","2:nogo_b","",""
"null","","html-keyboard-response","603","828463","0.0-8.0-1.7","","<img src=""img/green-n.png"" border=""10"">","null","trial","null","","0.2,0.8","2:nogo_b","0",""
"null","","html-keyboard-response","604","829465","0.0-8.0-2.7","","<div style=""font-size:60px;"">+</div>","null","","","","","","",""
"1262.7149997279048","","image-keyboard-response","605","830728","0.0-8.0-0.8","","img/green.png","32","trial","null","false","0.2,0.8","2:nogo_b","",""
"null","","html-keyboard-response","606","831730","0.0-8.0-1.8","","<img src=""img/green-n.png"" border=""10"">","null","trial","null","","0.2,0.8","2:nogo_b","0",""
"null","","html-keyboard-response","607","832732","0.0-8.0-2.8","","<div style=""font-size:60px;"">+</div>","null","","","","","","",""
"512.0649999007583","","image-keyboard-response","608","833245","0.0-8.0-0.9","","img/blue.png","32","trial","32","true","1,0","3:go_c","",""
"null","","html-keyboard-response","609","834247","0.0-8.0-1.9","","<img src=""img/blue-r.png"" border=""10"">","null","trial","32","","1,0","3:go_c","1",""
"null","","html-keyboard-response","610","835249","0.0-8.0-2.9","","<div style=""font-size:60px;"">+</div>","null","","","","","","",""
"446.860000025481","","image-keyboard-response","611","835697","0.0-8.0-0.10","","img/grey.png","32","trial","null","false","0,1","4:nogo_d","",""
"null","","html-keyboard-response","612","836700","0.0-8.0-1.10","","<img src=""img/grey-n.png"" border=""10"">","null","trial","null","","0,1","4:nogo_d","0",""
"null","","html-keyboard-response","613","837702","0.0-8.0-2.10","","<div style=""font-size:60px;"">+</div>","null","","","","","","",""
"1136.040000244975","","image-keyboard-response","614","838839","0.0-8.0-0.11","","img/pink.png","32","trial","32","true","0.8,0.2","1:go_a","",""
"null","","html-keyboard-response","615","839841","0.0-8.0-1.11","","<img src=""img/pink-r.png"" border=""10"">","null","trial","32","","0.8,0.2","1:go_a","1",""
"null","","html-keyboard-response","616","840844","0.0-8.0-2.11","","<div style=""font-size:60px;"">+</div>","null","","","","","","",""
"702.1599998697639","","image-keyboard-response","617","841547","0.0-8.0-0.12","","img/blue.png","32","trial","32","true","1,0","3:go_c","",""
"null","","html-keyboard-response","618","842549","0.0-8.0-1.12","","<img src=""img/blue-r.png"" border=""10"">","null","trial","32","","1,0","3:go_c","1",""
"null","","html-keyboard-response","619","843550","0.0-8.0-2.12","","<div style=""font-size:60px;"">+</div>","null","","","","","","",""
"null","","image-keyboard-response","620","845053","0.0-8.0-0.13","","img/grey.png","null","trial","null","true","0,1","4:nogo_d","",""
"null","","html-keyboard-response","621","846055","0.0-8.0-1.13","","<img src=""img/grey-r.png"">","null","trial","null","","0,1","4:nogo_d","1",""
"null","","html-keyboard-response","622","847056","0.0-8.0-2.13","","<div style=""font-size:60px;"">+</div>","null","","","","","","",""
"792.81000001356","","image-keyboard-response","623","847850","0.0-8.0-0.14","","img/pink.png","32","trial","32","true","0.8,0.2","1:go_a","",""
"null","","html-keyboard-response","624","848852","0.0-8.0-1.14","","<img src=""img/pink-n.png"" border=""10"">","null","trial","32","","0.8,0.2","1:go_a","0",""
"null","","html-keyboard-response","625","849853","0.0-8.0-2.14","","<div style=""font-size:60px;"">+</div>","null","","","","","","",""
"807.5199997983873","","image-keyboard-response","626","850661","0.0-8.0-0.15","","img/green.png","32","trial","null","false","0.2,0.8","2:nogo_b","",""
"null","","html-keyboard-response","627","851664","0.0-8.0-1.15","","<img src=""img/green-r.png"" border=""10"">","null","trial","null","","0.2,0.8","2:nogo_b","1",""
"null","","html-keyboard-response","628","852666","0.0-8.0-2.15","","<div style=""font-size:60px;"">+</div>","null","","","","","","",""
"853.0850000679493","","image-keyboard-response","629","853520","0.0-8.0-0.16","","img/pink.png","32","trial","32","true","0.8,0.2","1:go_a","",""
"null","","html-keyboard-response","630","854526","0.0-8.0-1.16","","<img src=""img/pink-r.png"" border=""10"">","null","trial","32","","0.8,0.2","1:go_a","1",""
"null","","html-keyboard-response","631","855530","0.0-8.0-2.16","","<div style=""font-size:60px;"">+</div>","null","","","","","","",""
"null","","image-keyboard-response","632","857032","0.0-8.0-0.17","","img/blue.png","null","trial","32","false","1,0","3:go_c","",""
"null","","html-keyboard-response","633","858034","0.0-8.0-1.17","","<img src=""img/blue-n.png"">","null","trial","32","","1,0","3:go_c","0",""
"null","","html-keyboard-response","634","859037","0.0-8.0-2.17","","<div style=""font-size:60px;"">+</div>","null","","","","","","",""
"null","","image-keyboard-response","635","860538","0.0-8.0-0.18","","img/green.png","null","trial","null","true","0.2,0.8","2:nogo_b","",""
"null","","html-keyboard-response","636","861540","0.0-8.0-1.18","","<img src=""img/green-r.png"">","null","trial","null","","0.2,0.8","2:nogo_b","1",""
"null","","html-keyboard-response","637","862542","0.0-8.0-2.18","","<div style=""font-size:60px;"">+</div>","null","","","","","","",""
"null","","image-keyboard-response","638","864045","0.0-8.0-0.19","","img/grey.png","null","trial","null","true","0,1","4:nogo_d","",""
"null","","html-keyboard-response","639","865046","0.0-8.0-1.19","","<img src=""img/grey-r.png"">","null","trial","null","","0,1","4:nogo_d","1",""
"null","","html-keyboard-response","640","866048","0.0-8.0-2.19","","<div style=""font-size:60px;"">+</div>","null","","","","","","",""
"927.1850003860891","","image-keyboard-response","641","866975","0.0-8.0-0.20","","img/blue.png","32","trial","32","true","1,0","3:go_c","",""
"null","","html-keyboard-response","642","867979","0.0-8.0-1.20","","<img src=""img/blue-r.png"" border=""10"">","null","trial","32","","1,0","3:go_c","1",""
"null","","html-keyboard-response","643","868981","0.0-8.0-2.20","","<div style=""font-size:60px;"">+</div>","null","","","","","","",""
"629.6549998223782","","image-keyboard-response","644","869611","0.0-8.0-0.21","","img/pink.png","32","trial","32","true","0.8,0.2","1:go_a","",""
"null","","html-keyboard-response","645","870612","0.0-8.0-1.21","","<img src=""img/pink-r.png"" border=""10"">","null","trial","32","","0.8,0.2","1:go_a","1",""
"null","","html-keyboard-response","646","871614","0.0-8.0-2.21","","<div style=""font-size:60px;"">+</div>","null","","","","","","",""
"659.0250004082918","","image-keyboard-response","647","872274","0.0-8.0-0.22","","img/grey.png","32","trial","null","false","0,1","4:nogo_d","",""
"null","","html-keyboard-response","648","873276","0.0-8.0-1.22","","<img src=""img/grey-n.png"" border=""10"">","null","trial","null","","0,1","4:nogo_d","0",""
"null","","html-keyboard-response","649","874278","0.0-8.0-2.22","","<div style=""font-size:60px;"">+</div>","null","","","","","","",""
"882.1000000461936","","image-keyboard-response","650","875161","0.0-8.0-0.23","","img/green.png","32","trial","null","false","0.2,0.8","2:nogo_b","",""
"null","","html-keyboard-response","651","876163","0.0-8.0-1.23","","<img src=""img/green-n.png"" border=""10"">","null","trial","null","","0.2,0.8","2:nogo_b","0",""
"null","","html-keyboard-response","652","877164","0.0-8.0-2.23","","<div style=""font-size:60px;"">+</div>","null","","","","","","",""
"728.6300002597272","","image-keyboard-response","653","877894","0.0-8.0-0.24","","img/grey.png","32","trial","null","false","0,1","4:nogo_d","",""
"null","","html-keyboard-response","654","878895","0.0-8.0-1.24","","<img src=""img/grey-n.png"" border=""10"">","null","trial","null","","0,1","4:nogo_d","0",""
"null","","html-keyboard-response","655","879896","0.0-8.0-2.24","","<div style=""font-size:60px;"">+</div>","null","","","","","","",""
"784.3949999660254","","image-keyboard-response","656","880682","0.0-8.0-0.25","","img/blue.png","32","trial","32","true","1,0","3:go_c","",""
"null","","html-keyboard-response","657","881684","0.0-8.0-1.25","","<img src=""img/blue-r.png"" border=""10"">","null","trial","32","","1,0","3:go_c","1",""
"null","","html-keyboard-response","658","882686","0.0-8.0-2.25","","<div style=""font-size:60px;"">+</div>","null","","","","","","",""
"892.1599998138845","","image-keyboard-response","659","883579","0.0-8.0-0.26","","img/pink.png","32","trial","32","true","0.8,0.2","1:go_a","",""
"null","","html-keyboard-response","660","884582","0.0-8.0-1.26","","<img src=""img/pink-r.png"" border=""10"">","null","trial","32","","0.8,0.2","1:go_a","1",""
"null","","html-keyboard-response","661","885584","0.0-8.0-2.26","","<div style=""font-size:60px;"">+</div>","null","","","","","","",""
"null","","image-keyboard-response","662","887085","0.0-8.0-0.27","","img/green.png","null","trial","null","true","0.2,0.8","2:nogo_b","",""
"null","","html-keyboard-response","663","888086","0.0-8.0-1.27","","<img src=""img/green-r.png"">","null","trial","null","","0.2,0.8","2:nogo_b","1",""
"null","","html-keyboard-response","664","889088","0.0-8.0-2.27","","<div style=""font-size:60px;"">+</div>","null","","","","","","",""
"931.940000038594","","image-keyboard-response","665","890022","0.0-8.0-0.28","","img/blue.png","32","trial","32","true","1,0","3:go_c","",""
"null","","html-keyboard-response","666","891025","0.0-8.0-1.28","","<img src=""img/blue-r.png"" border=""10"">","null","trial","32","","1,0","3:go_c","1",""
"null","","html-keyboard-response","667","892026","0.0-8.0-2.28","","<div style=""font-size:60px;"">+</div>","null","","","","","","",""
"1171.8450002372265","","image-keyboard-response","668","893199","0.0-8.0-0.29","","img/green.png","32","trial","null","false","0.2,0.8","2:nogo_b","",""
"null","","html-keyboard-response","669","894201","0.0-8.0-1.29","","<img src=""img/green-r.png"" border=""10"">","null","trial","null","","0.2,0.8","2:nogo_b","1",""
"null","","html-keyboard-response","670","895202","0.0-8.0-2.29","","<div style=""font-size:60px;"">+</div>","null","","","","","","",""
"1002.4850000627339","","image-keyboard-response","671","896207","0.0-8.0-0.30","","img/pink.png","32","trial","32","true","0.8,0.2","1:go_a","",""
"null","","html-keyboard-response","672","897218","0.0-8.0-1.30","","<img src=""img/pink-r.png"" border=""10"">","null","trial","32","","0.8,0.2","1:go_a","1",""
"null","","html-keyboard-response","673","898221","0.0-8.0-2.30","","<div style=""font-size:60px;"">+</div>","null","","","","","","",""
"1404.045000206679","","image-keyboard-response","674","899626","0.0-8.0-0.31","","img/grey.png","32","trial","null","false","0,1","4:nogo_d","",""
"null","","html-keyboard-response","675","900628","0.0-8.0-1.31","","<img src=""img/grey-n.png"" border=""10"">","null","trial","null","","0,1","4:nogo_d","0",""
"null","","html-keyboard-response","676","901629","0.0-8.0-2.31","","<div style=""font-size:60px;"">+</div>","null","","","","","","",""
"null","","image-keyboard-response","677","903131","0.0-8.0-0.32","","img/grey.png","null","trial","null","true","0,1","4:nogo_d","",""
