"rt","url","trial_type","trial_index","time_elapsed","internal_node_id","view_history","stimulus","key_press","test_part","correct_response","correct","use_rew","which_stim","reward","responses"
"14968.705000006594","consent.html","external-html","0","15089","0.0-0.0","","","","","","","","","",""
"50965.205000014976","","instructions","1","66057","0.0-1.0","[{""page_index"":0,""viewing_time"":5305.8149999706075},{""page_index"":1,""viewing_time"":13823.335000080988},{""page_index"":2,""viewing_time"":5009.695000015199},{""page_index"":3,""viewing_time"":4705.229999963194},{""page_index"":4,""viewing_time"":12466.189999948256},{""page_index"":5,""viewing_time"":6426.085000042804},{""page_index"":6,""viewing_time"":3227.934999973513}]","","","","","","","","",""
"1062.1300000930205","","image-keyboard-response","2","67120","0.0-2.0-0.0","","img/test2.PNG","32","practice","null","false","","","",""
"null","","html-keyboard-response","3","68123","0.0-2.0-1.0","","<img src=""img/test2-neutral.PNG"" border=""10px; grey"">","null","","","","","","",""
"null","","html-keyboard-response","4","69125","0.0-2.0-2.0","","<div style=""font-size:60px;"">+</div>","null","","","","","","",""
"551.9150000764057","","image-keyboard-response","5","69678","0.0-2.0-0.1","","img/test1.PNG","32","practice","32","true","","","",""
"null","","html-keyboard-response","6","70680","0.0-2.0-1.1","","<img src=""img/test1-reward.PNG"" border=""10px; grey"">","null","","","","","","",""
"null","","html-keyboard-response","7","71681","0.0-2.0-2.1","","<div style=""font-size:60px;"">+</div>","null","","","","","","",""
"578.8549999706447","","image-keyboard-response","8","72262","0.0-2.0-0.2","","img/test3.PNG","32","practice","null","false","","","",""
"null","","html-keyboard-response","9","73265","0.0-2.0-1.2","","<img src=""img/test3-neutral.PNG"" border=""10px; grey"">","null","","","","","","",""
"null","","html-keyboard-response","10","74267","0.0-2.0-2.2","","<div style=""font-size:60px;"">+</div>","null","","","","","","",""
"511.1850000685081","","image-keyboard-response","11","74780","0.0-2.0-0.3","","img/test1.PNG","32","practice","32","true","","","",""
"null","","html-keyboard-response","12","75781","0.0-2.0-1.3","","<img src=""img/test1-reward.PNG"" border=""10px; grey"">","null","","","","","","",""
"null","","html-keyboard-response","13","76783","0.0-2.0-2.3","","<div style=""font-size:60px;"">+</div>","null","","","","","","",""
"null","","image-keyboard-response","14","78285","0.0-2.0-0.4","","img/test3.PNG","null","practice","null","true","","","",""
"null","","html-keyboard-response","15","79287","0.0-2.0-1.4","","<img src=""img/test3-reward.PNG"">","null","","","","","","",""
"null","","html-keyboard-response","16","80289","0.0-2.0-2.4","","<div style=""font-size:60px;"">+</div>","null","","","","","","",""
"null","","image-keyboard-response","17","81792","0.0-2.0-0.5","","img/test2.PNG","null","practice","null","true","","","",""
"null","","html-keyboard-response","18","82794","0.0-2.0-1.5","","<img src=""img/test2-reward.PNG"">","null","","","","","","",""
"null","","html-keyboard-response","19","83795","0.0-2.0-2.5","","<div style=""font-size:60px;"">+</div>","null","","","","","","",""
"472.9850000003353","","image-keyboard-response","20","84270","0.0-2.0-0.6","","img/test3.PNG","32","practice","null","false","","","",""
"null","","html-keyboard-response","21","85272","0.0-2.0-1.6","","<img src=""img/test3-neutral.PNG"" border=""10px; grey"">","null","","","","","","",""
"null","","html-keyboard-response","22","86273","0.0-2.0-2.6","","<div style=""font-size:60px;"">+</div>","null","","","","","","",""
"525.9300000034273","","image-keyboard-response","23","86802","0.0-2.0-0.7","","img/test1.PNG","32","practice","32","true","","","",""
"null","","html-keyboard-response","24","87804","0.0-2.0-1.7","","<img src=""img/test1-reward.PNG"" border=""10px; grey"">","null","","","","","","",""
"null","","html-keyboard-response","25","88806","0.0-2.0-2.7","","<div style=""font-size:60px;"">+</div>","null","","","","","","",""
"null","","image-keyboard-response","26","90309","0.0-2.0-0.8","","img/test2.PNG","null","practice","null","true","","","",""
"null","","html-keyboard-response","27","91312","0.0-2.0-1.8","","<img src=""img/test2-reward.PNG"">","null","","","","","","",""
"null","","html-keyboard-response","28","92313","0.0-2.0-2.8","","<div style=""font-size:60px;"">+</div>","null","","","","","","",""
"null","","image-keyboard-response","29","93817","0.0-2.0-0.9","","img/test2.PNG","null","practice","null","true","","","",""
"null","","html-keyboard-response","30","94819","0.0-2.0-1.9","","<img src=""img/test2-reward.PNG"">","null","","","","","","",""
"null","","html-keyboard-response","31","95821","0.0-2.0-2.9","","<div style=""font-size:60px;"">+</div>","null","","","","","","",""
"616.0000000381842","","image-keyboard-response","32","96438","0.0-2.0-0.10","","img/test1.PNG","32","practice","32","true","","","",""
"null","","html-keyboard-response","33","97442","0.0-2.0-1.10","","<img src=""img/test1-reward.PNG"" border=""10px; grey"">","null","","","","","","",""
"null","","html-keyboard-response","34","98444","0.0-2.0-2.10","","<div style=""font-size:60px;"">+</div>","null","","","","","","",""
"803.5600000293925","","image-keyboard-response","35","99249","0.0-2.0-0.11","","img/test3.PNG","32","practice","null","false","","","",""
"null","","html-keyboard-response","36","100252","0.0-2.0-1.11","","<img src=""img/test3-neutral.PNG"" border=""10px; grey"">","null","","","","","","",""
"null","","html-keyboard-response","37","101253","0.0-2.0-2.11","","<div style=""font-size:60px;"">+</div>","null","","","","","","",""
"2321.0099999560043","","instructions","38","103575","0.0-3.0","[{""page_index"":0,""viewing_time"":2320.869999937713}]","","","","","","","","",""
"971.6749999206513","","image-keyboard-response","39","104548","0.0-4.0-0.0","","img/red.png","32","trial","32","true","0.8,0.2","1:go_a","",""
"null","","html-keyboard-response","40","105553","0.0-4.0-1.0","","<img src=""img/red-r.png"" border=""10"">","null","trial","32","","0.8,0.2","1:go_a","1",""
"null","","html-keyboard-response","41","106555","0.0-4.0-2.0","","<div style=""font-size:60px;"">+</div>","null","","","","","","",""
"400.7550000678748","","image-keyboard-response","42","106956","0.0-4.0-0.1","","img/green.png","32","trial","null","false","0.2,0.8","2:nogo_b","",""
"null","","html-keyboard-response","43","107959","0.0-4.0-1.1","","<img src=""img/green-n.png"" border=""10"">","null","trial","null","","0.2,0.8","2:nogo_b","0",""
"null","","html-keyboard-response","44","108960","0.0-4.0-2.1","","<div style=""font-size:60px;"">+</div>","null","","","","","","",""
"null","","image-keyboard-response","45","110463","0.0-4.0-0.2","","img/green.png","null","trial","null","true","0.2,0.8","2:nogo_b","",""
"null","","html-keyboard-response","46","111465","0.0-4.0-1.2","","<img src=""img/green-r.png"">","null","trial","null","","0.2,0.8","2:nogo_b","1",""
"null","","html-keyboard-response","47","112466","0.0-4.0-2.2","","<div style=""font-size:60px;"">+</div>","null","","","","","","",""
"502.63499992433935","","image-keyboard-response","48","112970","0.0-4.0-0.3","","img/red.png","32","trial","32","true","0.8,0.2","1:go_a","",""
"null","","html-keyboard-response","49","113973","0.0-4.0-1.3","","<img src=""img/red-n.png"" border=""10"">","null","trial","32","","0.8,0.2","1:go_a","0",""
"null","","html-keyboard-response","50","114975","0.0-4.0-2.3","","<div style=""font-size:60px;"">+</div>","null","","","","","","",""
"null","","image-keyboard-response","51","116477","0.0-4.0-0.4","","img/red.png","null","trial","32","false","0.8,0.2","1:go_a","",""
"null","","html-keyboard-response","52","117480","0.0-4.0-1.4","","<img src=""img/red-n.png"">","null","trial","32","","0.8,0.2","1:go_a","0",""
"null","","html-keyboard-response","53","118481","0.0-4.0-2.4","","<div style=""font-size:60px;"">+</div>","null","","","","","","",""
"289.6000000182539","","image-keyboard-response","54","118772","0.0-4.0-0.5","","img/green.png","32","trial","null","false","0.2,0.8","2:nogo_b","",""
"null","","html-keyboard-response","55","119786","0.0-4.0-1.5","","<img src=""img/green-n.png"" border=""10"">","null","trial","null","","0.2,0.8","2:nogo_b","0",""
"null","","html-keyboard-response","56","120787","0.0-4.0-2.5","","<div style=""font-size:60px;"">+</div>","null","","","","","","",""
"677.0149999065325","","image-keyboard-response","57","121465","0.0-4.0-0.6","","img/green.png","32","trial","null","false","0.2,0.8","2:nogo_b","",""
"null","","html-keyboard-response","58","122474","0.0-4.0-1.6","","<img src=""img/green-n.png"" border=""10"">","null","trial","null","","0.2,0.8","2:nogo_b","0",""
"null","","html-keyboard-response","59","123475","0.0-4.0-2.6","","<div style=""font-size:60px;"">+</div>","null","","","","","","",""
"918.9699999988079","","image-keyboard-response","60","124395","0.0-4.0-0.7","","img/red.png","32","trial","32","true","0.8,0.2","1:go_a","",""
"null","","html-keyboard-response","61","125398","0.0-4.0-1.7","","<img src=""img/red-r.png"" border=""10"">","null","trial","32","","0.8,0.2","1:go_a","1",""
"null","","html-keyboard-response","62","126400","0.0-4.0-2.7","","<div style=""font-size:60px;"">+</div>","null","","","","","","",""
"880.2350000478327","","image-keyboard-response","63","127282","0.0-4.0-0.8","","img/red.png","32","trial","32","true","0.8,0.2","1:go_a","",""
"null","","html-keyboard-response","64","128285","0.0-4.0-1.8","","<img src=""img/red-r.png"" border=""10"">","null","trial","32","","0.8,0.2","1:go_a","1",""
"null","","html-keyboard-response","65","129287","0.0-4.0-2.8","","<div style=""font-size:60px;"">+</div>","null","","","","","","",""
"1018.9099999843165","","image-keyboard-response","66","130308","0.0-4.0-0.9","","img/green.png","32","trial","null","false","0.2,0.8","2:nogo_b","",""
"null","","html-keyboard-response","67","131310","0.0-4.0-1.9","","<img src=""img/green-n.png"" border=""10"">","null","trial","null","","0.2,0.8","2:nogo_b","0",""
"null","","html-keyboard-response","68","132312","0.0-4.0-2.9","","<div style=""font-size:60px;"">+</div>","null","","","","","","",""
"559.0399999637157","","image-keyboard-response","69","132872","0.0-4.0-0.10","","img/red.png","32","trial","32","true","0.8,0.2","1:go_a","",""
"null","","html-keyboard-response","70","133877","0.0-4.0-1.10","","<img src=""img/red-r.png"" border=""10"">","null","trial","32","","0.8,0.2","1:go_a","1",""
"null","","html-keyboard-response","71","134878","0.0-4.0-2.10","","<div style=""font-size:60px;"">+</div>","null","","","","","","",""
"null","","image-keyboard-response","72","136381","0.0-4.0-0.11","","img/green.png","null","trial","null","true","0.2,0.8","2:nogo_b","",""
"null","","html-keyboard-response","73","137384","0.0-4.0-1.11","","<img src=""img/green-r.png"">","null","trial","null","","0.2,0.8","2:nogo_b","1",""
"null","","html-keyboard-response","74","138386","0.0-4.0-2.11","","<div style=""font-size:60px;"">+</div>","null","","","","","","",""
"444.9449999956414","","image-keyboard-response","75","138833","0.0-4.0-0.12","","img/green.png","32","trial","null","false","0.2,0.8","2:nogo_b","",""
"null","","html-keyboard-response","76","139836","0.0-4.0-1.12","","<img src=""img/green-n.png"" border=""10"">","null","trial","null","","0.2,0.8","2:nogo_b","0",""
"null","","html-keyboard-response","77","140837","0.0-4.0-2.12","","<div style=""font-size:60px;"">+</div>","null","","","","","","",""
"548.1550000840798","","image-keyboard-response","78","141388","0.0-4.0-0.13","","img/red.png","32","trial","32","true","0.8,0.2","1:go_a","",""
"null","","html-keyboard-response","79","142391","0.0-4.0-1.13","","<img src=""img/red-r.png"" border=""10"">","null","trial","32","","0.8,0.2","1:go_a","1",""
"null","","html-keyboard-response","80","143392","0.0-4.0-2.13","","<div style=""font-size:60px;"">+</div>","null","","","","","","",""
"791.0249999258667","","image-keyboard-response","81","144184","0.0-4.0-0.14","","img/green.png","32","trial","null","false","0.2,0.8","2:nogo_b","",""
"null","","html-keyboard-response","82","145188","0.0-4.0-1.14","","<img src=""img/green-n.png"" border=""10"">","null","trial","null","","0.2,0.8","2:nogo_b","0",""
"null","","html-keyboard-response","83","146190","0.0-4.0-2.14","","<div style=""font-size:60px;"">+</div>","null","","","","","","",""
"null","","image-keyboard-response","84","147692","0.0-4.0-0.15","","img/red.png","null","trial","32","false","0.8,0.2","1:go_a","",""
"null","","html-keyboard-response","85","148694","0.0-4.0-1.15","","<img src=""img/red-n.png"">","null","trial","32","","0.8,0.2","1:go_a","0",""
"null","","html-keyboard-response","86","149696","0.0-4.0-2.15","","<div style=""font-size:60px;"">+</div>","null","","","","","","",""
"1003.6600000457838","","image-keyboard-response","87","150702","0.0-4.0-0.16","","img/red.png","32","trial","32","true","0.8,0.2","1:go_a","",""
"null","","html-keyboard-response","88","151705","0.0-4.0-1.16","","<img src=""img/red-r.png"" border=""10"">","null","trial","32","","0.8,0.2","1:go_a","1",""
"null","","html-keyboard-response","89","152707","0.0-4.0-2.16","","<div style=""font-size:60px;"">+</div>","null","","","","","","",""
"null","","image-keyboard-response","90","154209","0.0-4.0-0.17","","img/green.png","null","trial","null","true","0.2,0.8","2:nogo_b","",""
"null","","html-keyboard-response","91","155212","0.0-4.0-1.17","","<img src=""img/green-r.png"">","null","trial","null","","0.2,0.8","2:nogo_b","1",""
"null","","html-keyboard-response","92","156227","0.0-4.0-2.17","","<div style=""font-size:60px;"">+</div>","null","","","","","","",""
"914.2199999187142","","image-keyboard-response","93","157143","0.0-4.0-0.18","","img/red.png","32","trial","32","true","0.8,0.2","1:go_a","",""
"null","","html-keyboard-response","94","158146","0.0-4.0-1.18","","<img src=""img/red-r.png"" border=""10"">","null","trial","32","","0.8,0.2","1:go_a","1",""
"null","","html-keyboard-response","95","159148","0.0-4.0-2.18","","<div style=""font-size:60px;"">+</div>","null","","","","","","",""
"455.3950000554323","","image-keyboard-response","96","159605","0.0-4.0-0.19","","img/green.png","32","trial","null","false","0.2,0.8","2:nogo_b","",""
"null","","html-keyboard-response","97","160608","0.0-4.0-1.19","","<img src=""img/green-n.png"" border=""10"">","null","trial","null","","0.2,0.8","2:nogo_b","0",""
"null","","html-keyboard-response","98","161610","0.0-4.0-2.19","","<div style=""font-size:60px;"">+</div>","null","","","","","","",""
"null","","image-keyboard-response","99","163112","0.0-4.0-0.20","","img/red.png","null","trial","32","false","0.8,0.2","1:go_a","",""
"null","","html-keyboard-response","100","164116","0.0-4.0-1.20","","<img src=""img/red-n.png"">","null","trial","32","","0.8,0.2","1:go_a","0",""
"null","","html-keyboard-response","101","165118","0.0-4.0-2.20","","<div style=""font-size:60px;"">+</div>","null","","","","","","",""
"453.0500000109896","","image-keyboard-response","102","165572","0.0-4.0-0.21","","img/green.png","32","trial","null","false","0.2,0.8","2:nogo_b","",""
"null","","html-keyboard-response","103","166574","0.0-4.0-1.21","","<img src=""img/green-n.png"" border=""10"">","null","trial","null","","0.2,0.8","2:nogo_b","0",""
"null","","html-keyboard-response","104","167577","0.0-4.0-2.21","","<div style=""font-size:60px;"">+</div>","null","","","","","","",""
"903.8350000046194","","image-keyboard-response","105","168482","0.0-4.0-0.22","","img/green.png","32","trial","null","false","0.2,0.8","2:nogo_b","",""
"null","","html-keyboard-response","106","169484","0.0-4.0-1.22","","<img src=""img/green-n.png"" border=""10"">","null","trial","null","","0.2,0.8","2:nogo_b","0",""
"null","","html-keyboard-response","107","170487","0.0-4.0-2.22","","<div style=""font-size:60px;"">+</div>","null","","","","","","",""
"null","","image-keyboard-response","108","171989","0.0-4.0-0.23","","img/red.png","null","trial","32","false","0.8,0.2","1:go_a","",""
"null","","html-keyboard-response","109","172992","0.0-4.0-1.23","","<img src=""img/red-n.png"">","null","trial","32","","0.8,0.2","1:go_a","0",""
"null","","html-keyboard-response","110","174007","0.0-4.0-2.23","","<div style=""font-size:60px;"">+</div>","null","","","","","","",""
"533.2300000591204","","image-keyboard-response","111","174541","0.0-4.0-0.24","","img/red.png","32","trial","32","true","0.8,0.2","1:go_a","",""
"null","","html-keyboard-response","112","175544","0.0-4.0-1.24","","<img src=""img/red-n.png"" border=""10"">","null","trial","32","","0.8,0.2","1:go_a","0",""
"null","","html-keyboard-response","113","176547","0.0-4.0-2.24","","<div style=""font-size:60px;"">+</div>","null","","","","","","",""
"null","","image-keyboard-response","114","178049","0.0-4.0-0.25","","img/green.png","null","trial","null","true","0.2,0.8","2:nogo_b","",""
"null","","html-keyboard-response","115","179051","0.0-4.0-1.25","","<img src=""img/green-r.png"">","null","trial","null","","0.2,0.8","2:nogo_b","1",""
"null","","html-keyboard-response","116","180053","0.0-4.0-2.25","","<div style=""font-size:60px;"">+</div>","null","","","","","","",""
"597.8050000267103","","image-keyboard-response","117","180653","0.0-4.0-0.26","","img/red.png","32","trial","32","true","0.8,0.2","1:go_a","",""
"null","","html-keyboard-response","118","181656","0.0-4.0-1.26","","<img src=""img/red-r.png"" border=""10"">","null","trial","32","","0.8,0.2","1:go_a","1",""
"null","","html-keyboard-response","119","182658","0.0-4.0-2.26","","<div style=""font-size:60px;"">+</div>","null","","","","","","",""
"749.0700000198558","","image-keyboard-response","120","183408","0.0-4.0-0.27","","img/green.png","32","trial","null","false","0.2,0.8","2:nogo_b","",""
"null","","html-keyboard-response","121","184410","0.0-4.0-1.27","","<img src=""img/green-n.png"" border=""10"">","null","trial","null","","0.2,0.8","2:nogo_b","0",""
"null","","html-keyboard-response","122","185422","0.0-4.0-2.27","","<div style=""font-size:60px;"">+</div>","null","","","","","","",""
"969.9900000123307","","image-keyboard-response","123","186394","0.0-4.0-0.28","","img/green.png","32","trial","null","false","0.2,0.8","2:nogo_b","",""
"null","","html-keyboard-response","124","187395","0.0-4.0-1.28","","<img src=""img/green-n.png"" border=""10"">","null","trial","null","","0.2,0.8","2:nogo_b","0",""
"null","","html-keyboard-response","125","188397","0.0-4.0-2.28","","<div style=""font-size:60px;"">+</div>","null","","","","","","",""
"815.790000022389","","image-keyboard-response","126","189214","0.0-4.0-0.29","","img/red.png","32","trial","32","true","0.8,0.2","1:go_a","",""
"null","","html-keyboard-response","127","190216","0.0-4.0-1.29","","<img src=""img/red-n.png"" border=""10"">","null","trial","32","","0.8,0.2","1:go_a","0",""
"null","","html-keyboard-response","128","191218","0.0-4.0-2.29","","<div style=""font-size:60px;"">+</div>","null","","","","","","",""
"null","","image-keyboard-response","129","192720","0.0-4.0-0.30","","img/red.png","null","trial","32","false","0.8,0.2","1:go_a","",""
"null","","html-keyboard-response","130","193723","0.0-4.0-1.30","","<img src=""img/red-n.png"">","null","trial","32","","0.8,0.2","1:go_a","0",""
"null","","html-keyboard-response","131","194724","0.0-4.0-2.30","","<div style=""font-size:60px;"">+</div>","null","","","","","","",""
"784.7799999872223","","image-keyboard-response","132","195511","0.0-4.0-0.31","","img/green.png","32","trial","null","false","0.2,0.8","2:nogo_b","",""
"null","","html-keyboard-response","133","196513","0.0-4.0-1.31","","<img src=""img/green-n.png"" border=""10"">","null","trial","null","","0.2,0.8","2:nogo_b","0",""
"null","","html-keyboard-response","134","197514","0.0-4.0-2.31","","<div style=""font-size:60px;"">+</div>","null","","","","","","",""
"1209.7650000359863","","image-keyboard-response","135","198726","0.0-4.0-0.32","","img/green.png","32","trial","null","false","0.2,0.8","2:nogo_b","",""
"null","","html-keyboard-response","136","199727","0.0-4.0-1.32","","<img src=""img/green-n.png"" border=""10"">","null","trial","null","","0.2,0.8","2:nogo_b","0",""
"null","","html-keyboard-response","137","200729","0.0-4.0-2.32","","<div style=""font-size:60px;"">+</div>","null","","","","","","",""
"null","","image-keyboard-response","138","202231","0.0-4.0-0.33","","img/red.png","null","trial","32","false","0.8,0.2","1:go_a","",""
"null","","html-keyboard-response","139","203234","0.0-4.0-1.33","","<img src=""img/red-n.png"">","null","trial","32","","0.8,0.2","1:go_a","0",""
"null","","html-keyboard-response","140","204235","0.0-4.0-2.33","","<div style=""font-size:60px;"">+</div>","null","","","","","","",""
"1001.3299999991432","","image-keyboard-response","141","205238","0.0-4.0-0.34","","img/red.png","32","trial","32","true","0.8,0.2","1:go_a","",""
"null","","html-keyboard-response","142","206240","0.0-4.0-1.34","","<img src=""img/red-r.png"" border=""10"">","null","trial","32","","0.8,0.2","1:go_a","1",""
"null","","html-keyboard-response","143","207242","0.0-4.0-2.34","","<div style=""font-size:60px;"">+</div>","null","","","","","","",""
"684.4949999358505","","image-keyboard-response","144","207928","0.0-4.0-0.35","","img/green.png","32","trial","null","false","0.2,0.8","2:nogo_b","",""
"null","","html-keyboard-response","145","208931","0.0-4.0-1.35","","<img src=""img/green-n.png"" border=""10"">","null","trial","null","","0.2,0.8","2:nogo_b","0",""
"null","","html-keyboard-response","146","209933","0.0-4.0-2.35","","<div style=""font-size:60px;"">+</div>","null","","","","","","",""
"1037.0050000492483","","image-keyboard-response","147","210971","0.0-4.0-0.36","","img/green.png","32","trial","null","false","0.2,0.8","2:nogo_b","",""
"null","","html-keyboard-response","148","211974","0.0-4.0-1.36","","<img src=""img/green-n.png"" border=""10"">","null","trial","null","","0.2,0.8","2:nogo_b","0",""
"null","","html-keyboard-response","149","212975","0.0-4.0-2.36","","<div style=""font-size:60px;"">+</div>","null","","","","","","",""
"null","","image-keyboard-response","150","214478","0.0-4.0-0.37","","img/red.png","null","trial","32","false","0.8,0.2","1:go_a","",""
"null","","html-keyboard-response","151","215481","0.0-4.0-1.37","","<img src=""img/red-n.png"">","null","trial","32","","0.8,0.2","1:go_a","0",""
"null","","html-keyboard-response","152","216484","0.0-4.0-2.37","","<div style=""font-size:60px;"">+</div>","null","","","","","","",""
"null","","image-keyboard-response","153","217985","0.0-4.0-0.38","","img/red.png","null","trial","32","false","0.8,0.2","1:go_a","",""
"null","","html-keyboard-response","154","218987","0.0-4.0-1.38","","<img src=""img/red-r.png"">","null","trial","32","","0.8,0.2","1:go_a","1",""
"null","","html-keyboard-response","155","219992","0.0-4.0-2.38","","<div style=""font-size:60px;"">+</div>","null","","","","","","",""
"588.8249999843538","","image-keyboard-response","156","220582","0.0-4.0-0.39","","img/green.png","32","trial","null","false","0.2,0.8","2:nogo_b","",""
"null","","html-keyboard-response","157","221584","0.0-4.0-1.39","","<img src=""img/green-n.png"" border=""10"">","null","trial","null","","0.2,0.8","2:nogo_b","0",""
"null","","html-keyboard-response","158","222586","0.0-4.0-2.39","","<div style=""font-size:60px;"">+</div>","null","","","","","","",""
"null","","image-keyboard-response","159","224088","0.0-4.0-0.40","","img/green.png","null","trial","null","true","0.2,0.8","2:nogo_b","",""
"null","","html-keyboard-response","160","225090","0.0-4.0-1.40","","<img src=""img/green-r.png"">","null","trial","null","","0.2,0.8","2:nogo_b","1",""
"null","","html-keyboard-response","161","226091","0.0-4.0-2.40","","<div style=""font-size:60px;"">+</div>","null","","","","","","",""
"392.8699999814853","","image-keyboard-response","162","226485","0.0-4.0-0.41","","img/red.png","32","trial","32","true","0.8,0.2","1:go_a","",""
"null","","html-keyboard-response","163","227487","0.0-4.0-1.41","","<img src=""img/red-n.png"" border=""10"">","null","trial","32","","0.8,0.2","1:go_a","0",""
"null","","html-keyboard-response","164","228489","0.0-4.0-2.41","","<div style=""font-size:60px;"">+</div>","null","","","","","","",""
"507.48999998904765","","image-keyboard-response","165","228998","0.0-4.0-0.42","","img/red.png","32","trial","32","true","0.8,0.2","1:go_a","",""
"null","","html-keyboard-response","166","230002","0.0-4.0-1.42","","<img src=""img/red-r.png"" border=""10"">","null","trial","32","","0.8,0.2","1:go_a","1",""
"null","","html-keyboard-response","167","231003","0.0-4.0-2.42","","<div style=""font-size:60px;"">+</div>","null","","","","","","",""
"1040.3049999149516","","image-keyboard-response","168","232045","0.0-4.0-0.43","","img/green.png","32","trial","null","false","0.2,0.8","2:nogo_b","",""
"null","","html-keyboard-response","169","233048","0.0-4.0-1.43","","<img src=""img/green-n.png"" border=""10"">","null","trial","null","","0.2,0.8","2:nogo_b","0",""
"null","","html-keyboard-response","170","234056","0.0-4.0-2.43","","<div style=""font-size:60px;"">+</div>","null","","","","","","",""
"606.1149999732152","","image-keyboard-response","171","234664","0.0-4.0-0.44","","img/green.png","32","trial","null","false","0.2,0.8","2:nogo_b","",""
"null","","html-keyboard-response","172","235665","0.0-4.0-1.44","","<img src=""img/green-n.png"" border=""10"">","null","trial","null","","0.2,0.8","2:nogo_b","0",""
"null","","html-keyboard-response","173","236667","0.0-4.0-2.44","","<div style=""font-size:60px;"">+</div>","null","","","","","","",""
"1262.529999949038","","image-keyboard-response","174","237931","0.0-4.0-0.45","","img/red.png","32","trial","32","true","0.8,0.2","1:go_a","",""
"null","","html-keyboard-response","175","238935","0.0-4.0-1.45","","<img src=""img/red-r.png"" border=""10"">","null","trial","32","","0.8,0.2","1:go_a","1",""
"null","","html-keyboard-response","176","239936","0.0-4.0-2.45","","<div style=""font-size:60px;"">+</div>","null","","","","","","",""
"1129.634999902919","","image-keyboard-response","177","241067","0.0-4.0-0.46","","img/red.png","32","trial","32","true","0.8,0.2","1:go_a","",""
"null","","html-keyboard-response","178","242070","0.0-4.0-1.46","","<img src=""img/red-r.png"" border=""10"">","null","trial","32","","0.8,0.2","1:go_a","1",""
"null","","html-keyboard-response","179","243072","0.0-4.0-2.46","","<div style=""font-size:60px;"">+</div>","null","","","","","","",""
"null","","image-keyboard-response","180","244573","0.0-4.0-0.47","","img/green.png","null","trial","null","true","0.2,0.8","2:nogo_b","",""
"null","","html-keyboard-response","181","245575","0.0-4.0-1.47","","<img src=""img/green-r.png"">","null","trial","null","","0.2,0.8","2:nogo_b","1",""
"null","","html-keyboard-response","182","246577","0.0-4.0-2.47","","<div style=""font-size:60px;"">+</div>","null","","","","","","",""
"553.3650000579655","","image-keyboard-response","183","247132","0.0-4.0-0.48","","img/green.png","32","trial","null","false","0.2,0.8","2:nogo_b","",""
"null","","html-keyboard-response","184","248134","0.0-4.0-1.48","","<img src=""img/green-n.png"" border=""10"">","null","trial","null","","0.2,0.8","2:nogo_b","0",""
"null","","html-keyboard-response","185","249135","0.0-4.0-2.48","","<div style=""font-size:60px;"">+</div>","null","","","","","","",""
"887.4749999959022","","image-keyboard-response","186","250023","0.0-4.0-0.49","","img/red.png","32","trial","32","true","0.8,0.2","1:go_a","",""
"null","","html-keyboard-response","187","251025","0.0-4.0-1.49","","<img src=""img/red-r.png"" border=""10"">","null","trial","32","","0.8,0.2","1:go_a","1",""
"null","","html-keyboard-response","188","252026","0.0-4.0-2.49","","<div style=""font-size:60px;"">+</div>","null","","","","","","",""
"null","","image-keyboard-response","189","253528","0.0-4.0-0.50","","img/green.png","null","trial","null","true","0.2,0.8","2:nogo_b","",""
"null","","html-keyboard-response","190","254531","0.0-4.0-1.50","","<img src=""img/green-r.png"">","null","trial","null","","0.2,0.8","2:nogo_b","1",""
"null","","html-keyboard-response","191","255532","0.0-4.0-2.50","","<div style=""font-size:60px;"">+</div>","null","","","","","","",""
"566.3400000194088","","image-keyboard-response","192","256100","0.0-4.0-0.51","","img/red.png","32","trial","32","true","0.8,0.2","1:go_a","",""
"null","","html-keyboard-response","193","257116","0.0-4.0-1.51","","<img src=""img/red-r.png"" border=""10"">","null","trial","32","","0.8,0.2","1:go_a","1",""
"null","","html-keyboard-response","194","258119","0.0-4.0-2.51","","<div style=""font-size:60px;"">+</div>","null","","","","","","",""
"900.1100000459701","","image-keyboard-response","195","259020","0.0-4.0-0.52","","img/green.png","32","trial","null","false","0.2,0.8","2:nogo_b","",""
"null","","html-keyboard-response","196","260023","0.0-4.0-1.52","","<img src=""img/green-n.png"" border=""10"">","null","trial","null","","0.2,0.8","2:nogo_b","0",""
"null","","html-keyboard-response","197","261025","0.0-4.0-2.52","","<div style=""font-size:60px;"">+</div>","null","","","","","","",""
"729.0449999272823","","image-keyboard-response","198","261755","0.0-4.0-0.53","","img/red.png","32","trial","32","true","0.8,0.2","1:go_a","",""
"null","","html-keyboard-response","199","262757","0.0-4.0-1.53","","<img src=""img/red-n.png"" border=""10"">","null","trial","32","","0.8,0.2","1:go_a","0",""
"null","","html-keyboard-response","200","263758","0.0-4.0-2.53","","<div style=""font-size:60px;"">+</div>","null","","","","","","",""
"null","","image-keyboard-response","201","265260","0.0-4.0-0.54","","img/green.png","null","trial","null","true","0.2,0.8","2:nogo_b","",""
"null","","html-keyboard-response","202","266264","0.0-4.0-1.54","","<img src=""img/green-r.png"">","null","trial","null","","0.2,0.8","2:nogo_b","1",""
"null","","html-keyboard-response","203","267266","0.0-4.0-2.54","","<div style=""font-size:60px;"">+</div>","null","","","","","","",""
"null","","image-keyboard-response","204","268768","0.0-4.0-0.55","","img/red.png","null","trial","32","false","0.8,0.2","1:go_a","",""
"null","","html-keyboard-response","205","269771","0.0-4.0-1.55","","<img src=""img/red-n.png"">","null","trial","32","","0.8,0.2","1:go_a","0",""
"null","","html-keyboard-response","206","270772","0.0-4.0-2.55","","<div style=""font-size:60px;"">+</div>","null","","","","","","",""
"744.2150000715628","","image-keyboard-response","207","271518","0.0-4.0-0.56","","img/green.png","32","trial","null","false","0.2,0.8","2:nogo_b","",""
"null","","html-keyboard-response","208","272522","0.0-4.0-1.56","","<img src=""img/green-n.png"" border=""10"">","null","trial","null","","0.2,0.8","2:nogo_b","0",""
"null","","html-keyboard-response","209","273523","0.0-4.0-2.56","","<div style=""font-size:60px;"">+</div>","null","","","","","","",""
"622.220000019297","","image-keyboard-response","210","274147","0.0-4.0-0.57","","img/red.png","32","trial","32","true","0.8,0.2","1:go_a","",""
"null","","html-keyboard-response","211","275150","0.0-4.0-1.57","","<img src=""img/red-r.png"" border=""10"">","null","trial","32","","0.8,0.2","1:go_a","1",""
"null","","html-keyboard-response","212","276151","0.0-4.0-2.57","","<div style=""font-size:60px;"">+</div>","null","","","","","","",""
"null","","image-keyboard-response","213","277653","0.0-4.0-0.58","","img/green.png","null","trial","null","true","0.2,0.8","2:nogo_b","",""
"null","","html-keyboard-response","214","278655","0.0-4.0-1.58","","<img src=""img/green-r.png"">","null","trial","null","","0.2,0.8","2:nogo_b","1",""
"null","","html-keyboard-response","215","279657","0.0-4.0-2.58","","<div style=""font-size:60px;"">+</div>","null","","","","","","",""
"604.8299999674782","","image-keyboard-response","216","280263","0.0-4.0-0.59","","img/red.png","32","trial","32","true","0.8,0.2","1:go_a","",""
"null","","html-keyboard-response","217","281266","0.0-4.0-1.59","","<img src=""img/red-n.png"" border=""10"">","null","trial","32","","0.8,0.2","1:go_a","0",""
"null","","html-keyboard-response","218","282267","0.0-4.0-2.59","","<div style=""font-size:60px;"">+</div>","null","","","","","","",""
"2617.6650000270456","","instructions","219","284885","0.0-5.0","[{""page_index"":0,""viewing_time"":2617.480000015348}]","","","","","","","","",""
"909.2099999543279","","image-keyboard-response","220","285796","0.0-6.0-0.0","","img/purple.png","32","trial","null","false","0.2,0.8","4:nogo_d","",""
"null","","html-keyboard-response","221","286799","0.0-6.0-1.0","","<img src=""img/purple-n.png"" border=""10"">","null","trial","null","","0.2,0.8","4:nogo_d","0",""
"null","","html-keyboard-response","222","287802","0.0-6.0-2.0","","<div style=""font-size:60px;"">+</div>","null","","","","","","",""
"430.85500004235655","","image-keyboard-response","223","288234","0.0-6.0-0.1","","img/blue.png","32","trial","32","true","0.8,0.2","3:go_c","",""
"null","","html-keyboard-response","224","289244","0.0-6.0-1.1","","<img src=""img/blue-r.png"" border=""10"">","null","trial","32","","0.8,0.2","3:go_c","1",""
"null","","html-keyboard-response","225","290246","0.0-6.0-2.1","","<div style=""font-size:60px;"">+</div>","null","","","","","","",""
"null","","image-keyboard-response","226","291748","0.0-6.0-0.2","","img/grey.png","null","trial","null","true","0.2,0.8","2:nogo_b","",""
"null","","html-keyboard-response","227","292752","0.0-6.0-1.2","","<img src=""img/grey-r.png"">","null","trial","null","","0.2,0.8","2:nogo_b","1",""
"null","","html-keyboard-response","228","293753","0.0-6.0-2.2","","<div style=""font-size:60px;"">+</div>","null","","","","","","",""
"null","","image-keyboard-response","229","295256","0.0-6.0-0.3","","img/green.png","null","trial","32","false","0.8,0.2","1:go_a","",""
"null","","html-keyboard-response","230","296259","0.0-6.0-1.3","","<img src=""img/green-n.png"">","null","trial","32","","0.8,0.2","1:go_a","0",""
"null","","html-keyboard-response","231","297261","0.0-6.0-2.3","","<div style=""font-size:60px;"">+</div>","null","","","","","","",""
"809.2750000068918","","image-keyboard-response","232","298071","0.0-6.0-0.4","","img/green.png","32","trial","32","true","0.8,0.2","1:go_a","",""
"null","","html-keyboard-response","233","299074","0.0-6.0-1.4","","<img src=""img/green-r.png"" border=""10"">","null","trial","32","","0.8,0.2","1:go_a","1",""
"null","","html-keyboard-response","234","300076","0.0-6.0-2.4","","<div style=""font-size:60px;"">+</div>","null","","","","","","",""
"592.7499999525025","","image-keyboard-response","235","300671","0.0-6.0-0.5","","img/grey.png","32","trial","null","false","0.2,0.8","2:nogo_b","",""
"null","","html-keyboard-response","236","301674","0.0-6.0-1.5","","<img src=""img/grey-n.png"" border=""10"">","null","trial","null","","0.2,0.8","2:nogo_b","0",""
"null","","html-keyboard-response","237","302676","0.0-6.0-2.5","","<div style=""font-size:60px;"">+</div>","null","","","","","","",""
"541.1999999778345","","image-keyboard-response","238","303218","0.0-6.0-0.6","","img/purple.png","32","trial","null","false","0.2,0.8","4:nogo_d","",""
"null","","html-keyboard-response","239","304222","0.0-6.0-1.6","","<img src=""img/purple-n.png"" border=""10"">","null","trial","null","","0.2,0.8","4:nogo_d","0",""
"null","","html-keyboard-response","240","305224","0.0-6.0-2.6","","<div style=""font-size:60px;"">+</div>","null","","","","","","",""
"583.464999916032","","image-keyboard-response","241","305809","0.0-6.0-0.7","","img/blue.png","32","trial","32","true","0.8,0.2","3:go_c","",""
"null","","html-keyboard-response","242","306812","0.0-6.0-1.7","","<img src=""img/blue-r.png"" border=""10"">","null","trial","32","","0.8,0.2","3:go_c","1",""
"null","","html-keyboard-response","243","307815","0.0-6.0-2.7","","<div style=""font-size:60px;"">+</div>","null","","","","","","",""
"739.6900000749156","","image-keyboard-response","244","308556","0.0-6.0-0.8","","img/blue.png","32","trial","32","true","0.8,0.2","3:go_c","",""
"null","","html-keyboard-response","245","309559","0.0-6.0-1.8","","<img src=""img/blue-r.png"" border=""10"">","null","trial","32","","0.8,0.2","3:go_c","1",""
"null","","html-keyboard-response","246","310561","0.0-6.0-2.8","","<div style=""font-size:60px;"">+</div>","null","","","","","","",""
"null","","image-keyboard-response","247","312063","0.0-6.0-0.9","","img/green.png","null","trial","32","false","0.8,0.2","1:go_a","",""
"null","","html-keyboard-response","248","313065","0.0-6.0-1.9","","<img src=""img/green-n.png"">","null","trial","32","","0.8,0.2","1:go_a","0",""
"null","","html-keyboard-response","249","314067","0.0-6.0-2.9","","<div style=""font-size:60px;"">+</div>","null","","","","","","",""
"null","","image-keyboard-response","250","315570","0.0-6.0-0.10","","img/grey.png","null","trial","null","true","0.2,0.8","2:nogo_b","",""
"null","","html-keyboard-response","251","316572","0.0-6.0-1.10","","<img src=""img/grey-r.png"">","null","trial","null","","0.2,0.8","2:nogo_b","1",""
"null","","html-keyboard-response","252","317574","0.0-6.0-2.10","","<div style=""font-size:60px;"">+</div>","null","","","","","","",""
"445.1700000790879","","image-keyboard-response","253","318020","0.0-6.0-0.11","","img/purple.png","32","trial","null","false","0.2,0.8","4:nogo_d","",""
"null","","html-keyboard-response","254","319022","0.0-6.0-1.11","","<img src=""img/purple-n.png"" border=""10"">","null","trial","null","","0.2,0.8","4:nogo_d","0",""
"null","","html-keyboard-response","255","320024","0.0-6.0-2.11","","<div style=""font-size:60px;"">+</div>","null","","","","","","",""
"null","","image-keyboard-response","256","321527","0.0-6.0-0.12","","img/purple.png","null","trial","null","true","0.2,0.8","4:nogo_d","",""
"null","","html-keyboard-response","257","322530","0.0-6.0-1.12","","<img src=""img/purple-r.png"">","null","trial","null","","0.2,0.8","4:nogo_d","1",""
"null","","html-keyboard-response","258","323531","0.0-6.0-2.12","","<div style=""font-size:60px;"">+</div>","null","","","","","","",""
"463.38500001002103","","image-keyboard-response","259","323995","0.0-6.0-0.13","","img/blue.png","32","trial","32","true","0.8,0.2","3:go_c","",""
"null","","html-keyboard-response","260","325007","0.0-6.0-1.13","","<img src=""img/blue-r.png"" border=""10"">","null","trial","32","","0.8,0.2","3:go_c","1",""
"null","","html-keyboard-response","261","326010","0.0-6.0-2.13","","<div style=""font-size:60px;"">+</div>","null","","","","","","",""
"439.40500007010996","","image-keyboard-response","262","326451","0.0-6.0-0.14","","img/grey.png","32","trial","null","false","0.2,0.8","2:nogo_b","",""
"null","","html-keyboard-response","263","327454","0.0-6.0-1.14","","<img src=""img/grey-n.png"" border=""10"">","null","trial","null","","0.2,0.8","2:nogo_b","0",""
"null","","html-keyboard-response","264","328456","0.0-6.0-2.14","","<div style=""font-size:60px;"">+</div>","null","","","","","","",""
"894.6499999146909","","image-keyboard-response","265","329352","0.0-6.0-0.15","","img/green.png","32","trial","32","true","0.8,0.2","1:go_a","",""
"null","","html-keyboard-response","266","330354","0.0-6.0-1.15","","<img src=""img/green-r.png"" border=""10"">","null","trial","32","","0.8,0.2","1:go_a","1",""
"null","","html-keyboard-response","267","331356","0.0-6.0-2.15","","<div style=""font-size:60px;"">+</div>","null","","","","","","",""
"641.6350000072271","","image-keyboard-response","268","332000","0.0-6.0-0.16","","img/green.png","32","trial","32","true","0.8,0.2","1:go_a","",""
"null","","html-keyboard-response","269","333004","0.0-6.0-1.16","","<img src=""img/green-r.png"" border=""10"">","null","trial","32","","0.8,0.2","1:go_a","1",""
"null","","html-keyboard-response","270","334006","0.0-6.0-2.16","","<div style=""font-size:60px;"">+</div>","null","","","","","","",""
"null","","image-keyboard-response","271","335509","0.0-6.0-0.17","","img/grey.png","null","trial","null","true","0.2,0.8","2:nogo_b","",""
"null","","html-keyboard-response","272","336512","0.0-6.0-1.17","","<img src=""img/grey-r.png"">","null","trial","null","","0.2,0.8","2:nogo_b","1",""
"null","","html-keyboard-response","273","337514","0.0-6.0-2.17","","<div style=""font-size:60px;"">+</div>","null","","","","","","",""
"515.3299999656156","","image-keyboard-response","274","338030","0.0-6.0-0.18","","img/purple.png","32","trial","null","false","0.2,0.8","4:nogo_d","",""
"null","","html-keyboard-response","275","339034","0.0-6.0-1.18","","<img src=""img/purple-r.png"" border=""10"">","null","trial","null","","0.2,0.8","4:nogo_d","1",""
"null","","html-keyboard-response","276","340035","0.0-6.0-2.18","","<div style=""font-size:60px;"">+</div>","null","","","","","","",""
"569.469999987632","","image-keyboard-response","277","340606","0.0-6.0-0.19","","img/blue.png","32","trial","32","true","0.8,0.2","3:go_c","",""
"null","","html-keyboard-response","278","341609","0.0-6.0-1.19","","<img src=""img/blue-r.png"" border=""10"">","null","trial","32","","0.8,0.2","3:go_c","1",""
"null","","html-keyboard-response","279","342611","0.0-6.0-2.19","","<div style=""font-size:60px;"">+</div>","null","","","","","","",""
"838.6549999704584","","image-keyboard-response","280","343451","0.0-6.0-0.20","","img/green.png","32","trial","32","true","0.8,0.2","1:go_a","",""
"null","","html-keyboard-response","281","344453","0.0-6.0-1.20","","<img src=""img/green-n.png"" border=""10"">","null","trial","32","","0.8,0.2","1:go_a","0",""
"null","","html-keyboard-response","282","345454","0.0-6.0-2.20","","<div style=""font-size:60px;"">+</div>","null","","","","","","",""
"488.87500003911555","","image-keyboard-response","283","345945","0.0-6.0-0.21","","img/purple.png","32","trial","null","false","0.2,0.8","4:nogo_d","",""
"null","","html-keyboard-response","284","346948","0.0-6.0-1.21","","<img src=""img/purple-n.png"" border=""10"">","null","trial","null","","0.2,0.8","4:nogo_d","0",""
"null","","html-keyboard-response","285","347951","0.0-6.0-2.21","","<div style=""font-size:60px;"">+</div>","null","","","","","","",""
"466.96999995037913","","image-keyboard-response","286","348418","0.0-6.0-0.22","","img/grey.png","32","trial","null","false","0.2,0.8","2:nogo_b","",""
"null","","html-keyboard-response","287","349421","0.0-6.0-1.22","","<img src=""img/grey-n.png"" border=""10"">","null","trial","null","","0.2,0.8","2:nogo_b","0",""
"null","","html-keyboard-response","288","350424","0.0-6.0-2.22","","<div style=""font-size:60px;"">+</div>","null","","","","","","",""
"424.1100000217557","","image-keyboard-response","289","350850","0.0-6.0-0.23","","img/blue.png","32","trial","32","true","0.8,0.2","3:go_c","",""
"null","","html-keyboard-response","290","351854","0.0-6.0-1.23","","<img src=""img/blue-n.png"" border=""10"">","null","trial","32","","0.8,0.2","3:go_c","0",""
"null","","html-keyboard-response","291","352855","0.0-6.0-2.23","","<div style=""font-size:60px;"">+</div>","null","","","","","","",""
"640.1599999517202","","image-keyboard-response","292","353496","0.0-6.0-0.24","","img/purple.png","32","trial","null","false","0.2,0.8","4:nogo_d","",""
"null","","html-keyboard-response","293","354499","0.0-6.0-1.24","","<img src=""img/purple-n.png"" border=""10"">","null","trial","null","","0.2,0.8","4:nogo_d","0",""
"null","","html-keyboard-response","294","355512","0.0-6.0-2.24","","<div style=""font-size:60px;"">+</div>","null","","","","","","",""
"490.7200000016019","","image-keyboard-response","295","356004","0.0-6.0-0.25","","img/blue.png","32","trial","32","true","0.8,0.2","3:go_c","",""
"null","","html-keyboard-response","296","357008","0.0-6.0-1.25","","<img src=""img/blue-r.png"" border=""10"">","null","trial","32","","0.8,0.2","3:go_c","1",""
"null","","html-keyboard-response","297","358010","0.0-6.0-2.25","","<div style=""font-size:60px;"">+</div>","null","","","","","","",""
"793.0499999783933","","image-keyboard-response","298","358804","0.0-6.0-0.26","","img/grey.png","32","trial","null","false","0.2,0.8","2:nogo_b","",""
"null","","html-keyboard-response","299","359806","0.0-6.0-1.26","","<img src=""img/grey-n.png"" border=""10"">","null","trial","null","","0.2,0.8","2:nogo_b","0",""
"null","","html-keyboard-response","300","360808","0.0-6.0-2.26","","<div style=""font-size:60px;"">+</div>","null","","","","","","",""
"null","","image-keyboard-response","301","362311","0.0-6.0-0.27","","img/green.png","null","trial","32","false","0.8,0.2","1:go_a","",""
"null","","html-keyboard-response","302","363313","0.0-6.0-1.27","","<img src=""img/green-n.png"">","null","trial","32","","0.8,0.2","1:go_a","0",""
"null","","html-keyboard-response","303","364315","0.0-6.0-2.27","","<div style=""font-size:60px;"">+</div>","null","","","","","","",""
"null","","image-keyboard-response","304","365817","0.0-6.0-0.28","","img/grey.png","null","trial","null","true","0.2,0.8","2:nogo_b","",""
"null","","html-keyboard-response","305","366820","0.0-6.0-1.28","","<img src=""img/grey-r.png"">","null","trial","null","","0.2,0.8","2:nogo_b","1",""
"null","","html-keyboard-response","306","367822","0.0-6.0-2.28","","<div style=""font-size:60px;"">+</div>","null","","","","","","",""
"627.2399999434128","","image-keyboard-response","307","368450","0.0-6.0-0.29","","img/green.png","32","trial","32","true","0.8,0.2","1:go_a","",""
"null","","html-keyboard-response","308","369467","0.0-6.0-1.29","","<img src=""img/green-r.png"" border=""10"">","null","trial","32","","0.8,0.2","1:go_a","1",""
"null","","html-keyboard-response","309","370469","0.0-6.0-2.29","","<div style=""font-size:60px;"">+</div>","null","","","","","","",""
"721.9249999616295","","image-keyboard-response","310","371192","0.0-6.0-0.30","","img/blue.png","32","trial","32","true","0.8,0.2","3:go_c","",""
"null","","html-keyboard-response","311","372195","0.0-6.0-1.30","","<img src=""img/blue-r.png"" border=""10"">","null","trial","32","","0.8,0.2","3:go_c","1",""
"null","","html-keyboard-response","312","373196","0.0-6.0-2.30","","<div style=""font-size:60px;"">+</div>","null","","","","","","",""
"null","","image-keyboard-response","313","374699","0.0-6.0-0.31","","img/purple.png","null","trial","null","true","0.2,0.8","4:nogo_d","",""
"null","","html-keyboard-response","314","375709","0.0-6.0-1.31","","<img src=""img/purple-n.png"">","null","trial","null","","0.2,0.8","4:nogo_d","0",""
"null","","html-keyboard-response","315","376710","0.0-6.0-2.31","","<div style=""font-size:60px;"">+</div>","null","","","","","","",""
"null","","image-keyboard-response","316","378213","0.0-6.0-0.32","","img/purple.png","null","trial","null","true","0.2,0.8","4:nogo_d","",""
"null","","html-keyboard-response","317","379216","0.0-6.0-1.32","","<img src=""img/purple-r.png"">","null","trial","null","","0.2,0.8","4:nogo_d","1",""
"null","","html-keyboard-response","318","380218","0.0-6.0-2.32","","<div style=""font-size:60px;"">+</div>","null","","","","","","",""
"588.0349999060854","","image-keyboard-response","319","380807","0.0-6.0-0.33","","img/grey.png","32","trial","null","false","0.2,0.8","2:nogo_b","",""
"null","","html-keyboard-response","320","381810","0.0-6.0-1.33","","<img src=""img/grey-n.png"" border=""10"">","null","trial","null","","0.2,0.8","2:nogo_b","0",""
"null","","html-keyboard-response","321","382812","0.0-6.0-2.33","","<div style=""font-size:60px;"">+</div>","null","","","","","","",""
"571.2599999969825","","image-keyboard-response","322","383385","0.0-6.0-0.34","","img/green.png","32","trial","32","true","0.8,0.2","1:go_a","",""
"null","","html-keyboard-response","323","384389","0.0-6.0-1.34","","<img src=""img/green-n.png"" border=""10"">","null","trial","32","","0.8,0.2","1:go_a","0",""
"null","","html-keyboard-response","324","385390","0.0-6.0-2.34","","<div style=""font-size:60px;"">+</div>","null","","","","","","",""
"583.0349999014288","","image-keyboard-response","325","385975","0.0-6.0-0.35","","img/blue.png","32","trial","32","true","0.8,0.2","3:go_c","",""
"null","","html-keyboard-response","326","386978","0.0-6.0-1.35","","<img src=""img/blue-r.png"" border=""10"">","null","trial","32","","0.8,0.2","3:go_c","1",""
"null","","html-keyboard-response","327","387979","0.0-6.0-2.35","","<div style=""font-size:60px;"">+</div>","null","","","","","","",""
"625.6050000665709","","image-keyboard-response","328","388605","0.0-6.0-0.36","","img/blue.png","32","trial","32","true","0.8,0.2","3:go_c","",""
"null","","html-keyboard-response","329","389608","0.0-6.0-1.36","","<img src=""img/blue-r.png"" border=""10"">","null","trial","32","","0.8,0.2","3:go_c","1",""
"null","","html-keyboard-response","330","390611","0.0-6.0-2.36","","<div style=""font-size:60px;"">+</div>","null","","","","","","",""
"null","","image-keyboard-response","331","392114","0.0-6.0-0.37","","img/purple.png","null","trial","null","true","0.2,0.8","4:nogo_d","",""
"null","","html-keyboard-response","332","393117","0.0-6.0-1.37","","<img src=""img/purple-n.png"">","null","trial","null","","0.2,0.8","4:nogo_d","0",""
"null","","html-keyboard-response","333","394119","0.0-6.0-2.37","","<div style=""font-size:60px;"">+</div>","null","","","","","","",""
"765.8999999985099","","image-keyboard-response","334","394886","0.0-6.0-0.38","","img/grey.png","32","trial","null","false","0.2,0.8","2:nogo_b","",""
"null","","html-keyboard-response","335","395889","0.0-6.0-1.38","","<img src=""img/grey-n.png"" border=""10"">","null","trial","null","","0.2,0.8","2:nogo_b","0",""
"null","","html-keyboard-response","336","396890","0.0-6.0-2.38","","<div style=""font-size:60px;"">+</div>","null","","","","","","",""
"558.5000000428408","","image-keyboard-response","337","397450","0.0-6.0-0.39","","img/green.png","32","trial","32","true","0.8,0.2","1:go_a","",""
"null","","html-keyboard-response","338","398453","0.0-6.0-1.39","","<img src=""img/green-r.png"" border=""10"">","null","trial","32","","0.8,0.2","1:go_a","1",""
"null","","html-keyboard-response","339","399455","0.0-6.0-2.39","","<div style=""font-size:60px;"">+</div>","null","","","","","","",""
"530.3150000981987","","image-keyboard-response","340","399986","0.0-6.0-0.40","","img/purple.png","32","trial","null","false","0.2,0.8","4:nogo_d","",""
"null","","html-keyboard-response","341","400989","0.0-6.0-1.40","","<img src=""img/purple-r.png"" border=""10"">","null","trial","null","","0.2,0.8","4:nogo_d","1",""
"null","","html-keyboard-response","342","401998","0.0-6.0-2.40","","<div style=""font-size:60px;"">+</div>","null","","","","","","",""
"588.2349999155849","","image-keyboard-response","343","402588","0.0-6.0-0.41","","img/blue.png","32","trial","32","true","0.8,0.2","3:go_c","",""
"null","","html-keyboard-response","344","403591","0.0-6.0-1.41","","<img src=""img/blue-r.png"" border=""10"">","null","trial","32","","0.8,0.2","3:go_c","1",""
"null","","html-keyboard-response","345","404594","0.0-6.0-2.41","","<div style=""font-size:60px;"">+</div>","null","","","","","","",""
"1145.0750000076368","","image-keyboard-response","346","405740","0.0-6.0-0.42","","img/grey.png","32","trial","null","false","0.2,0.8","2:nogo_b","",""
"null","","html-keyboard-response","347","406744","0.0-6.0-1.42","","<img src=""img/grey-n.png"" border=""10"">","null","trial","null","","0.2,0.8","2:nogo_b","0",""
"null","","html-keyboard-response","348","407747","0.0-6.0-2.42","","<div style=""font-size:60px;"">+</div>","null","","","","","","",""
"null","","image-keyboard-response","349","409249","0.0-6.0-0.43","","img/green.png","null","trial","32","false","0.8,0.2","1:go_a","",""
"null","","html-keyboard-response","350","410252","0.0-6.0-1.43","","<img src=""img/green-n.png"">","null","trial","32","","0.8,0.2","1:go_a","0",""
"null","","html-keyboard-response","351","411262","0.0-6.0-2.43","","<div style=""font-size:60px;"">+</div>","null","","","","","","",""
"880.1799999782816","","image-keyboard-response","352","412143","0.0-6.0-0.44","","img/grey.png","32","trial","null","false","0.2,0.8","2:nogo_b","",""
"null","","html-keyboard-response","353","413146","0.0-6.0-1.44","","<img src=""img/grey-n.png"" border=""10"">","null","trial","null","","0.2,0.8","2:nogo_b","0",""
"null","","html-keyboard-response","354","414148","0.0-6.0-2.44","","<div style=""font-size:60px;"">+</div>","null","","","","","","",""
"455.8850000612438","","image-keyboard-response","355","414605","0.0-6.0-0.45","","img/blue.png","32","trial","32","true","0.8,0.2","3:go_c","",""
"null","","html-keyboard-response","356","415607","0.0-6.0-1.45","","<img src=""img/blue-r.png"" border=""10"">","null","trial","32","","0.8,0.2","3:go_c","1",""
"null","","html-keyboard-response","357","416608","0.0-6.0-2.45","","<div style=""font-size:60px;"">+</div>","null","","","","","","",""
"null","","image-keyboard-response","358","418111","0.0-6.0-0.46","","img/green.png","null","trial","32","false","0.8,0.2","1:go_a","",""
"null","","html-keyboard-response","359","419114","0.0-6.0-1.46","","<img src=""img/green-r.png"">","null","trial","32","","0.8,0.2","1:go_a","1",""
"null","","html-keyboard-response","360","420115","0.0-6.0-2.46","","<div style=""font-size:60px;"">+</div>","null","","","","","","",""
"500.6549999816343","","image-keyboard-response","361","420617","0.0-6.0-0.47","","img/purple.png","32","trial","null","false","0.2,0.8","4:nogo_d","",""
"null","","html-keyboard-response","362","421621","0.0-6.0-1.47","","<img src=""img/purple-n.png"" border=""10"">","null","trial","null","","0.2,0.8","4:nogo_d","0",""
"null","","html-keyboard-response","363","422622","0.0-6.0-2.47","","<div style=""font-size:60px;"">+</div>","null","","","","","","",""
"764.7150000557303","","image-keyboard-response","364","423388","0.0-6.0-0.48","","img/purple.png","32","trial","null","false","0.2,0.8","4:nogo_d","",""
"null","","html-keyboard-response","365","424391","0.0-6.0-1.48","","<img src=""img/purple-n.png"" border=""10"">","null","trial","null","","0.2,0.8","4:nogo_d","0",""
"null","","html-keyboard-response","366","425394","0.0-6.0-2.48","","<div style=""font-size:60px;"">+</div>","null","","","","","","",""
"null","","image-keyboard-response","367","426896","0.0-6.0-0.49","","img/green.png","null","trial","32","false","0.8,0.2","1:go_a","",""
"null","","html-keyboard-response","368","427897","0.0-6.0-1.49","","<img src=""img/green-r.png"">","null","trial","32","","0.8,0.2","1:go_a","1",""
"null","","html-keyboard-response","369","428899","0.0-6.0-2.49","","<div style=""font-size:60px;"">+</div>","null","","","","","","",""
"933.79499996081","","image-keyboard-response","370","429834","0.0-6.0-0.50","","img/grey.png","32","trial","null","false","0.2,0.8","2:nogo_b","",""
"null","","html-keyboard-response","371","430837","0.0-6.0-1.50","","<img src=""img/grey-n.png"" border=""10"">","null","trial","null","","0.2,0.8","2:nogo_b","0",""
"null","","html-keyboard-response","372","431839","0.0-6.0-2.50","","<div style=""font-size:60px;"">+</div>","null","","","","","","",""
"1013.8700000243261","","image-keyboard-response","373","432854","0.0-6.0-0.51","","img/blue.png","32","trial","32","true","0.8,0.2","3:go_c","",""
"null","","html-keyboard-response","374","433857","0.0-6.0-1.51","","<img src=""img/blue-n.png"" border=""10"">","null","trial","32","","0.8,0.2","3:go_c","0",""
"null","","html-keyboard-response","375","434859","0.0-6.0-2.51","","<div style=""font-size:60px;"">+</div>","null","","","","","","",""
"null","","image-keyboard-response","376","436361","0.0-6.0-0.52","","img/grey.png","null","trial","null","true","0.2,0.8","2:nogo_b","",""
"null","","html-keyboard-response","377","437364","0.0-6.0-1.52","","<img src=""img/grey-n.png"">","null","trial","null","","0.2,0.8","2:nogo_b","0",""
"null","","html-keyboard-response","378","438365","0.0-6.0-2.52","","<div style=""font-size:60px;"">+</div>","null","","","","","","",""
"671.4549999451265","","image-keyboard-response","379","439038","0.0-6.0-0.53","","img/purple.png","32","trial","null","false","0.2,0.8","4:nogo_d","",""
"null","","html-keyboard-response","380","440039","0.0-6.0-1.53","","<img src=""img/purple-n.png"" border=""10"">","null","trial","null","","0.2,0.8","4:nogo_d","0",""
"null","","html-keyboard-response","381","441041","0.0-6.0-2.53","","<div style=""font-size:60px;"">+</div>","null","","","","","","",""
"918.5300000244752","","image-keyboard-response","382","441960","0.0-6.0-0.54","","img/blue.png","32","trial","32","true","0.8,0.2","3:go_c","",""
"null","","html-keyboard-response","383","442964","0.0-6.0-1.54","","<img src=""img/blue-n.png"" border=""10"">","null","trial","32","","0.8,0.2","3:go_c","0",""
"null","","html-keyboard-response","384","443973","0.0-6.0-2.54","","<div style=""font-size:60px;"">+</div>","null","","","","","","",""
"771.7900000279769","","image-keyboard-response","385","444746","0.0-6.0-0.55","","img/green.png","32","trial","32","true","0.8,0.2","1:go_a","",""
"null","","html-keyboard-response","386","445749","0.0-6.0-1.55","","<img src=""img/green-r.png"" border=""10"">","null","trial","32","","0.8,0.2","1:go_a","1",""
"null","","html-keyboard-response","387","446751","0.0-6.0-2.55","","<div style=""font-size:60px;"">+</div>","null","","","","","","",""
"null","","image-keyboard-response","388","448253","0.0-6.0-0.56","","img/grey.png","null","trial","null","true","0.2,0.8","2:nogo_b","",""
"null","","html-keyboard-response","389","449257","0.0-6.0-1.56","","<img src=""img/grey-r.png"">","null","trial","null","","0.2,0.8","2:nogo_b","1",""
"null","","html-keyboard-response","390","450259","0.0-6.0-2.56","","<div style=""font-size:60px;"">+</div>","null","","","","","","",""
"421.7099999077618","","image-keyboard-response","391","450682","0.0-6.0-0.57","","img/blue.png","32","trial","32","true","0.8,0.2","3:go_c","",""
"null","","html-keyboard-response","392","451685","0.0-6.0-1.57","","<img src=""img/blue-n.png"" border=""10"">","null","trial","32","","0.8,0.2","3:go_c","0",""
"null","","html-keyboard-response","393","452690","0.0-6.0-2.57","","<div style=""font-size:60px;"">+</div>","null","","","","","","",""
"603.7749999668449","","image-keyboard-response","394","453295","0.0-6.0-0.58","","img/purple.png","32","trial","null","false","0.2,0.8","4:nogo_d","",""
"null","","html-keyboard-response","395","454298","0.0-6.0-1.58","","<img src=""img/purple-n.png"" border=""10"">","null","trial","null","","0.2,0.8","4:nogo_d","0",""
"null","","html-keyboard-response","396","455299","0.0-6.0-2.58","","<div style=""font-size:60px;"">+</div>","null","","","","","","",""
"719.73499993328","","image-keyboard-response","397","456019","0.0-6.0-0.59","","img/green.png","32","trial","32","true","0.8,0.2","1:go_a","",""
"null","","html-keyboard-response","398","457021","0.0-6.0-1.59","","<img src=""img/green-r.png"" border=""10"">","null","trial","32","","0.8,0.2","1:go_a","1",""
"null","","html-keyboard-response","399","458022","0.0-6.0-2.59","","<div style=""font-size:60px;"">+</div>","null","","","","","","",""
"null","","image-keyboard-response","400","459524","0.0-6.0-0.60","","img/purple.png","null","trial","null","true","0.2,0.8","4:nogo_d","",""
"null","","html-keyboard-response","401","460527","0.0-6.0-1.60","","<img src=""img/purple-r.png"">","null","trial","null","","0.2,0.8","4:nogo_d","1",""
"null","","html-keyboard-response","402","461529","0.0-6.0-2.60","","<div style=""font-size:60px;"">+</div>","null","","","","","","",""
"490.88500009384006","","image-keyboard-response","403","462020","0.0-6.0-0.61","","img/blue.png","32","trial","32","true","0.8,0.2","3:go_c","",""
"null","","html-keyboard-response","404","463024","0.0-6.0-1.61","","<img src=""img/blue-r.png"" border=""10"">","null","trial","32","","0.8,0.2","3:go_c","1",""
"null","","html-keyboard-response","405","464025","0.0-6.0-2.61","","<div style=""font-size:60px;"">+</div>","null","","","","","","",""
"805.6899999501184","","image-keyboard-response","406","464832","0.0-6.0-0.62","","img/green.png","32","trial","32","true","0.8,0.2","1:go_a","",""
"null","","html-keyboard-response","407","465834","0.0-6.0-1.62","","<img src=""img/green-r.png"" border=""10"">","null","trial","32","","0.8,0.2","1:go_a","1",""
"null","","html-keyboard-response","408","466836","0.0-6.0-2.62","","<div style=""font-size:60px;"">+</div>","null","","","","","","",""
"null","","image-keyboard-response","409","468339","0.0-6.0-0.63","","img/grey.png","null","trial","null","true","0.2,0.8","2:nogo_b","",""
"null","","html-keyboard-response","410","469342","0.0-6.0-1.63","","<img src=""img/grey-r.png"">","null","trial","null","","0.2,0.8","2:nogo_b","1",""
"null","","html-keyboard-response","411","470343","0.0-6.0-2.63","","<div style=""font-size:60px;"">+</div>","null","","","","","","",""
"null","","image-keyboard-response","412","471845","0.0-6.0-0.64","","img/purple.png","null","trial","null","true","0.2,0.8","4:nogo_d","",""
"null","","html-keyboard-response","413","472848","0.0-6.0-1.64","","<img src=""img/purple-r.png"">","null","trial","null","","0.2,0.8","4:nogo_d","1",""
"null","","html-keyboard-response","414","473849","0.0-6.0-2.64","","<div style=""font-size:60px;"">+</div>","null","","","","","","",""
"569.6949999546632","","image-keyboard-response","415","474420","0.0-6.0-0.65","","img/blue.png","32","trial","32","true","0.8,0.2","3:go_c","",""
"null","","html-keyboard-response","416","475422","0.0-6.0-1.65","","<img src=""img/blue-r.png"" border=""10"">","null","trial","32","","0.8,0.2","3:go_c","1",""
"null","","html-keyboard-response","417","476427","0.0-6.0-2.65","","<div style=""font-size:60px;"">+</div>","null","","","","","","",""
"null","","image-keyboard-response","418","477929","0.0-6.0-0.66","","img/green.png","null","trial","32","false","0.8,0.2","1:go_a","",""
"null","","html-keyboard-response","419","478935","0.0-6.0-1.66","","<img src=""img/green-n.png"">","null","trial","32","","0.8,0.2","1:go_a","0",""
"null","","html-keyboard-response","420","479937","0.0-6.0-2.66","","<div style=""font-size:60px;"">+</div>","null","","","","","","",""
"585.7900000410154","","image-keyboard-response","421","480524","0.0-6.0-0.67","","img/grey.png","32","trial","null","false","0.2,0.8","2:nogo_b","",""
"null","","html-keyboard-response","422","481527","0.0-6.0-1.67","","<img src=""img/grey-n.png"" border=""10"">","null","trial","null","","0.2,0.8","2:nogo_b","0",""
"null","","html-keyboard-response","423","482528","0.0-6.0-2.67","","<div style=""font-size:60px;"">+</div>","null","","","","","","",""
"null","","image-keyboard-response","424","484030","0.0-6.0-0.68","","img/grey.png","null","trial","null","true","0.2,0.8","2:nogo_b","",""
"null","","html-keyboard-response","425","485034","0.0-6.0-1.68","","<img src=""img/grey-r.png"">","null","trial","null","","0.2,0.8","2:nogo_b","1",""
"null","","html-keyboard-response","426","486037","0.0-6.0-2.68","","<div style=""font-size:60px;"">+</div>","null","","","","","","",""
"495.835000067018","","image-keyboard-response","427","486533","0.0-6.0-0.69","","img/green.png","32","trial","32","true","0.8,0.2","1:go_a","",""
"null","","html-keyboard-response","428","487535","0.0-6.0-1.69","","<img src=""img/green-r.png"" border=""10"">","null","trial","32","","0.8,0.2","1:go_a","1",""
"null","","html-keyboard-response","429","488537","0.0-6.0-2.69","","<div style=""font-size:60px;"">+</div>","null","","","","","","",""
"766.8299999786541","","image-keyboard-response","430","489305","0.0-6.0-0.70","","img/purple.png","32","trial","null","false","0.2,0.8","4:nogo_d","",""
"null","","html-keyboard-response","431","490309","0.0-6.0-1.70","","<img src=""img/purple-r.png"" border=""10"">","null","trial","null","","0.2,0.8","4:nogo_d","1",""
"null","","html-keyboard-response","432","491310","0.0-6.0-2.70","","<div style=""font-size:60px;"">+</div>","null","","","","","","",""
"975.1900000264868","","image-keyboard-response","433","492286","0.0-6.0-0.71","","img/blue.png","32","trial","32","true","0.8,0.2","3:go_c","",""
"null","","html-keyboard-response","434","493288","0.0-6.0-1.71","","<img src=""img/blue-n.png"" border=""10"">","null","trial","32","","0.8,0.2","3:go_c","0",""
"null","","html-keyboard-response","435","494290","0.0-6.0-2.71","","<div style=""font-size:60px;"">+</div>","null","","","","","","",""
"null","","image-keyboard-response","436","495793","0.0-6.0-0.72","","img/purple.png","null","trial","null","true","0.2,0.8","4:nogo_d","",""
"null","","html-keyboard-response","437","496795","0.0-6.0-1.72","","<img src=""img/purple-r.png"">","null","trial","null","","0.2,0.8","4:nogo_d","1",""
"null","","html-keyboard-response","438","497796","0.0-6.0-2.72","","<div style=""font-size:60px;"">+</div>","null","","","","","","",""
"546.2050000205636","","image-keyboard-response","439","498344","0.0-6.0-0.73","","img/grey.png","32","trial","null","false","0.2,0.8","2:nogo_b","",""
"null","","html-keyboard-response","440","499347","0.0-6.0-1.73","","<img src=""img/grey-n.png"" border=""10"">","null","trial","null","","0.2,0.8","2:nogo_b","0",""
"null","","html-keyboard-response","441","500349","0.0-6.0-2.73","","<div style=""font-size:60px;"">+</div>","null","","","","","","",""
"827.1549999481067","","image-keyboard-response","442","501177","0.0-6.0-0.74","","img/blue.png","32","trial","32","true","0.8,0.2","3:go_c","",""
"null","","html-keyboard-response","443","502179","0.0-6.0-1.74","","<img src=""img/blue-r.png"" border=""10"">","null","trial","32","","0.8,0.2","3:go_c","1",""
"null","","html-keyboard-response","444","503180","0.0-6.0-2.74","","<div style=""font-size:60px;"">+</div>","null","","","","","","",""
"null","","image-keyboard-response","445","504690","0.0-6.0-0.75","","img/green.png","null","trial","32","false","0.8,0.2","1:go_a","",""
"null","","html-keyboard-response","446","505693","0.0-6.0-1.75","","<img src=""img/green-n.png"">","null","trial","32","","0.8,0.2","1:go_a","0",""
"null","","html-keyboard-response","447","506695","0.0-6.0-2.75","","<div style=""font-size:60px;"">+</div>","null","","","","","","",""
"932.8700000187382","","image-keyboard-response","448","507629","0.0-6.0-0.76","","img/grey.png","32","trial","null","false","0.2,0.8","2:nogo_b","",""
"null","","html-keyboard-response","449","508632","0.0-6.0-1.76","","<img src=""img/grey-n.png"" border=""10"">","null","trial","null","","0.2,0.8","2:nogo_b","0",""
"null","","html-keyboard-response","450","509634","0.0-6.0-2.76","","<div style=""font-size:60px;"">+</div>","null","","","","","","",""
"824.5599999791011","","image-keyboard-response","451","510460","0.0-6.0-0.77","","img/green.png","32","trial","32","true","0.8,0.2","1:go_a","",""
"null","","html-keyboard-response","452","511464","0.0-6.0-1.77","","<img src=""img/green-n.png"" border=""10"">","null","trial","32","","0.8,0.2","1:go_a","0",""
"null","","html-keyboard-response","453","512467","0.0-6.0-2.77","","<div style=""font-size:60px;"">+</div>","null","","","","","","",""
"null","","image-keyboard-response","454","513968","0.0-6.0-0.78","","img/purple.png","null","trial","null","true","0.2,0.8","4:nogo_d","",""
"null","","html-keyboard-response","455","514971","0.0-6.0-1.78","","<img src=""img/purple-n.png"">","null","trial","null","","0.2,0.8","4:nogo_d","0",""
"null","","html-keyboard-response","456","515972","0.0-6.0-2.78","","<div style=""font-size:60px;"">+</div>","null","","","","","","",""
"487.10999998729676","","image-keyboard-response","457","516461","0.0-6.0-0.79","","img/blue.png","32","trial","32","true","0.8,0.2","3:go_c","",""
"null","","html-keyboard-response","458","517463","0.0-6.0-1.79","","<img src=""img/blue-r.png"" border=""10"">","null","trial","32","","0.8,0.2","3:go_c","1",""
"null","","html-keyboard-response","459","518464","0.0-6.0-2.79","","<div style=""font-size:60px;"">+</div>","null","","","","","","",""
"911.6950000170618","","image-keyboard-response","460","519377","0.0-6.0-0.80","","img/grey.png","32","trial","null","false","0.2,0.8","2:nogo_b","",""
"null","","html-keyboard-response","461","520379","0.0-6.0-1.80","","<img src=""img/grey-n.png"" border=""10"">","null","trial","null","","0.2,0.8","2:nogo_b","0",""
"null","","html-keyboard-response","462","521381","0.0-6.0-2.80","","<div style=""font-size:60px;"">+</div>","null","","","","","","",""
"null","","image-keyboard-response","463","522884","0.0-6.0-0.81","","img/purple.png","null","trial","null","true","0.2,0.8","4:nogo_d","",""
"null","","html-keyboard-response","464","523887","0.0-6.0-1.81","","<img src=""img/purple-r.png"">","null","trial","null","","0.2,0.8","4:nogo_d","1",""
"null","","html-keyboard-response","465","524889","0.0-6.0-2.81","","<div style=""font-size:60px;"">+</div>","null","","","","","","",""
"447.5899999961257","","image-keyboard-response","466","525337","0.0-6.0-0.82","","img/blue.png","32","trial","32","true","0.8,0.2","3:go_c","",""
"null","","html-keyboard-response","467","526340","0.0-6.0-1.82","","<img src=""img/blue-r.png"" border=""10"">","null","trial","32","","0.8,0.2","3:go_c","1",""
"null","","html-keyboard-response","468","527342","0.0-6.0-2.82","","<div style=""font-size:60px;"">+</div>","null","","","","","","",""
"null","","image-keyboard-response","469","528844","0.0-6.0-0.83","","img/green.png","null","trial","32","false","0.8,0.2","1:go_a","",""
"null","","html-keyboard-response","470","529845","0.0-6.0-1.83","","<img src=""img/green-n.png"">","null","trial","32","","0.8,0.2","1:go_a","0",""
"null","","html-keyboard-response","471","530847","0.0-6.0-2.83","","<div style=""font-size:60px;"">+</div>","null","","","","","","",""
"514.5699999993667","","image-keyboard-response","472","531363","0.0-6.0-0.84","","img/grey.png","32","trial","null","false","0.2,0.8","2:nogo_b","",""
"null","","html-keyboard-response","473","532365","0.0-6.0-1.84","","<img src=""img/grey-r.png"" border=""10"">","null","trial","null","","0.2,0.8","2:nogo_b","1",""
"null","","html-keyboard-response","474","533367","0.0-6.0-2.84","","<div style=""font-size:60px;"">+</div>","null","","","","","","",""
"517.2950000269338","","image-keyboard-response","475","533886","0.0-6.0-0.85","","img/blue.png","32","trial","32","true","0.8,0.2","3:go_c","",""
"null","","html-keyboard-response","476","534889","0.0-6.0-1.85","","<img src=""img/blue-r.png"" border=""10"">","null","trial","32","","0.8,0.2","3:go_c","1",""
"null","","html-keyboard-response","477","535890","0.0-6.0-2.85","","<div style=""font-size:60px;"">+</div>","null","","","","","","",""
"null","","image-keyboard-response","478","537392","0.0-6.0-0.86","","img/purple.png","null","trial","null","true","0.2,0.8","4:nogo_d","",""
"null","","html-keyboard-response","479","538396","0.0-6.0-1.86","","<img src=""img/purple-r.png"">","null","trial","null","","0.2,0.8","4:nogo_d","1",""
"null","","html-keyboard-response","480","539398","0.0-6.0-2.86","","<div style=""font-size:60px;"">+</div>","null","","","","","","",""
"null","","image-keyboard-response","481","540901","0.0-6.0-0.87","","img/green.png","null","trial","32","false","0.8,0.2","1:go_a","",""
"null","","html-keyboard-response","482","541911","0.0-6.0-1.87","","<img src=""img/green-n.png"">","null","trial","32","","0.8,0.2","1:go_a","0",""
"null","","html-keyboard-response","483","542912","0.0-6.0-2.87","","<div style=""font-size:60px;"">+</div>","null","","","","","","",""
"640.2049999451265","","image-keyboard-response","484","543553","0.0-6.0-0.88","","img/purple.png","32","trial","null","false","0.2,0.8","4:nogo_d","",""
"null","","html-keyboard-response","485","544557","0.0-6.0-1.88","","<img src=""img/purple-n.png"" border=""10"">","null","trial","null","","0.2,0.8","4:nogo_d","0",""
"null","","html-keyboard-response","486","545558","0.0-6.0-2.88","","<div style=""font-size:60px;"">+</div>","null","","","","","","",""
"633.3400000585243","","image-keyboard-response","487","546193","0.0-6.0-0.89","","img/grey.png","32","trial","null","false","0.2,0.8","2:nogo_b","",""
"null","","html-keyboard-response","488","547196","0.0-6.0-1.89","","<img src=""img/grey-n.png"" border=""10"">","null","trial","null","","0.2,0.8","2:nogo_b","0",""
"null","","html-keyboard-response","489","548197","0.0-6.0-2.89","","<div style=""font-size:60px;"">+</div>","null","","","","","","",""
"null","","image-keyboard-response","490","549699","0.0-6.0-0.90","","img/green.png","null","trial","32","false","0.8,0.2","1:go_a","",""
"null","","html-keyboard-response","491","550710","0.0-6.0-1.90","","<img src=""img/green-n.png"">","null","trial","32","","0.8,0.2","1:go_a","0",""
"null","","html-keyboard-response","492","551711","0.0-6.0-2.90","","<div style=""font-size:60px;"">+</div>","null","","","","","","",""
"418.2150000706315","","image-keyboard-response","493","552131","0.0-6.0-0.91","","img/blue.png","32","trial","32","true","0.8,0.2","3:go_c","",""
"null","","html-keyboard-response","494","553134","0.0-6.0-1.91","","<img src=""img/blue-r.png"" border=""10"">","null","trial","32","","0.8,0.2","3:go_c","1",""
"null","","html-keyboard-response","495","554136","0.0-6.0-2.91","","<div style=""font-size:60px;"">+</div>","null","","","","","","",""
"1286.8899999884889","","image-keyboard-response","496","555424","0.0-6.0-0.92","","img/grey.png","32","trial","null","false","0.2,0.8","2:nogo_b","",""
"null","","html-keyboard-response","497","556428","0.0-6.0-1.92","","<img src=""img/grey-r.png"" border=""10"">","null","trial","null","","0.2,0.8","2:nogo_b","1",""
"null","","html-keyboard-response","498","557430","0.0-6.0-2.92","","<div style=""font-size:60px;"">+</div>","null","","","","","","",""
"697.4900000495836","","image-keyboard-response","499","558130","0.0-6.0-0.93","","img/blue.png","32","trial","32","true","0.8,0.2","3:go_c","",""
"null","","html-keyboard-response","500","559133","0.0-6.0-1.93","","<img src=""img/blue-r.png"" border=""10"">","null","trial","32","","0.8,0.2","3:go_c","1",""
"null","","html-keyboard-response","501","560135","0.0-6.0-2.93","","<div style=""font-size:60px;"">+</div>","null","","","","","","",""
"794.9350000126287","","image-keyboard-response","502","560932","0.0-6.0-0.94","","img/purple.png","32","trial","null","false","0.2,0.8","4:nogo_d","",""
"null","","html-keyboard-response","503","561934","0.0-6.0-1.94","","<img src=""img/purple-n.png"" border=""10"">","null","trial","null","","0.2,0.8","4:nogo_d","0",""
"null","","html-keyboard-response","504","562935","0.0-6.0-2.94","","<div style=""font-size:60px;"">+</div>","null","","","","","","",""
"464.8799999849871","","image-keyboard-response","505","563402","0.0-6.0-0.95","","img/green.png","32","trial","32","true","0.8,0.2","1:go_a","",""
"null","","html-keyboard-response","506","564406","0.0-6.0-1.95","","<img src=""img/green-r.png"" border=""10"">","null","trial","32","","0.8,0.2","1:go_a","1",""
"null","","html-keyboard-response","507","565407","0.0-6.0-2.95","","<div style=""font-size:60px;"">+</div>","null","","","","","","",""
"637.9799999995157","","image-keyboard-response","508","566046","0.0-6.0-0.96","","img/green.png","32","trial","32","true","0.8,0.2","1:go_a","",""
"null","","html-keyboard-response","509","567050","0.0-6.0-1.96","","<img src=""img/green-r.png"" border=""10"">","null","trial","32","","0.8,0.2","1:go_a","1",""
"null","","html-keyboard-response","510","568053","0.0-6.0-2.96","","<div style=""font-size:60px;"">+</div>","null","","","","","","",""
"null","","image-keyboard-response","511","569556","0.0-6.0-0.97","","img/purple.png","null","trial","null","true","0.2,0.8","4:nogo_d","",""
"null","","html-keyboard-response","512","570559","0.0-6.0-1.97","","<img src=""img/purple-r.png"">","null","trial","null","","0.2,0.8","4:nogo_d","1",""
"null","","html-keyboard-response","513","571561","0.0-6.0-2.97","","<div style=""font-size:60px;"">+</div>","null","","","","","","",""
"470.05999996326864","","image-keyboard-response","514","572033","0.0-6.0-0.98","","img/grey.png","32","trial","null","false","0.2,0.8","2:nogo_b","",""
"null","","html-keyboard-response","515","573035","0.0-6.0-1.98","","<img src=""img/grey-r.png"" border=""10"">","null","trial","null","","0.2,0.8","2:nogo_b","1",""
"null","","html-keyboard-response","516","574036","0.0-6.0-2.98","","<div style=""font-size:60px;"">+</div>","null","","","","","","",""
"569.275000016205","","image-keyboard-response","517","574607","0.0-6.0-0.99","","img/blue.png","32","trial","32","true","0.8,0.2","3:go_c","",""
"null","","html-keyboard-response","518","575609","0.0-6.0-1.99","","<img src=""img/blue-n.png"" border=""10"">","null","trial","32","","0.8,0.2","3:go_c","0",""
"null","","html-keyboard-response","519","576612","0.0-6.0-2.99","","<div style=""font-size:60px;"">+</div>","null","","","","","","",""
"498.6299999291077","","image-keyboard-response","520","577112","0.0-6.0-0.100","","img/grey.png","32","trial","null","false","0.2,0.8","2:nogo_b","",""
"null","","html-keyboard-response","521","578116","0.0-6.0-1.100","","<img src=""img/grey-n.png"" border=""10"">","null","trial","null","","0.2,0.8","2:nogo_b","0",""
"null","","html-keyboard-response","522","579117","0.0-6.0-2.100","","<div style=""font-size:60px;"">+</div>","null","","","","","","",""
"440.28500001877546","","image-keyboard-response","523","579558","0.0-6.0-0.101","","img/blue.png","32","trial","32","true","0.8,0.2","3:go_c","",""
"null","","html-keyboard-response","524","580560","0.0-6.0-1.101","","<img src=""img/blue-r.png"" border=""10"">","null","trial","32","","0.8,0.2","3:go_c","1",""
"null","","html-keyboard-response","525","581562","0.0-6.0-2.101","","<div style=""font-size:60px;"">+</div>","null","","","","","","",""
"null","","image-keyboard-response","526","583064","0.0-6.0-0.102","","img/green.png","null","trial","32","false","0.8,0.2","1:go_a","",""
"null","","html-keyboard-response","527","584067","0.0-6.0-1.102","","<img src=""img/green-n.png"">","null","trial","32","","0.8,0.2","1:go_a","0",""
"null","","html-keyboard-response","528","585069","0.0-6.0-2.102","","<div style=""font-size:60px;"">+</div>","null","","","","","","",""
"null","","image-keyboard-response","529","586571","0.0-6.0-0.103","","img/purple.png","null","trial","null","true","0.2,0.8","4:nogo_d","",""
"null","","html-keyboard-response","530","587574","0.0-6.0-1.103","","<img src=""img/purple-r.png"">","null","trial","null","","0.2,0.8","4:nogo_d","1",""
"null","","html-keyboard-response","531","588576","0.0-6.0-2.103","","<div style=""font-size:60px;"">+</div>","null","","","","","","",""
"575.7649999577552","","image-keyboard-response","532","589154","0.0-6.0-0.104","","img/purple.png","32","trial","null","false","0.2,0.8","4:nogo_d","",""
"null","","html-keyboard-response","533","590157","0.0-6.0-1.104","","<img src=""img/purple-n.png"" border=""10"">","null","trial","null","","0.2,0.8","4:nogo_d","0",""
"null","","html-keyboard-response","534","591159","0.0-6.0-2.104","","<div style=""font-size:60px;"">+</div>","null","","","","","","",""
"484.9199999589473","","image-keyboard-response","535","591644","0.0-6.0-0.105","","img/blue.png","32","trial","32","true","0.8,0.2","3:go_c","",""
"null","","html-keyboard-response","536","592648","0.0-6.0-1.105","","<img src=""img/blue-r.png"" border=""10"">","null","trial","32","","0.8,0.2","3:go_c","1",""
"null","","html-keyboard-response","537","593650","0.0-6.0-2.105","","<div style=""font-size:60px;"">+</div>","null","","","","","","",""
"null","","image-keyboard-response","538","595151","0.0-6.0-0.106","","img/green.png","null","trial","32","false","0.8,0.2","1:go_a","",""
"null","","html-keyboard-response","539","596154","0.0-6.0-1.106","","<img src=""img/green-r.png"">","null","trial","32","","0.8,0.2","1:go_a","1",""
"null","","html-keyboard-response","540","597156","0.0-6.0-2.106","","<div style=""font-size:60px;"">+</div>","null","","","","","","",""
"500.9800000116229","","image-keyboard-response","541","597659","0.0-6.0-0.107","","img/grey.png","32","trial","null","false","0.2,0.8","2:nogo_b","",""
"null","","html-keyboard-response","542","598662","0.0-6.0-1.107","","<img src=""img/grey-n.png"" border=""10"">","null","trial","null","","0.2,0.8","2:nogo_b","0",""
"null","","html-keyboard-response","543","599664","0.0-6.0-2.107","","<div style=""font-size:60px;"">+</div>","null","","","","","","",""
"null","","image-keyboard-response","544","601166","0.0-6.0-0.108","","img/purple.png","null","trial","null","true","0.2,0.8","4:nogo_d","",""
"null","","html-keyboard-response","545","602169","0.0-6.0-1.108","","<img src=""img/purple-r.png"">","null","trial","null","","0.2,0.8","4:nogo_d","1",""
"null","","html-keyboard-response","546","603172","0.0-6.0-2.108","","<div style=""font-size:60px;"">+</div>","null","","","","","","",""
"847.8250000625849","","image-keyboard-response","547","604022","0.0-6.0-0.109","","img/green.png","32","trial","32","true","0.8,0.2","1:go_a","",""
"null","","html-keyboard-response","548","605024","0.0-6.0-1.109","","<img src=""img/green-n.png"" border=""10"">","null","trial","32","","0.8,0.2","1:go_a","0",""
"null","","html-keyboard-response","549","606025","0.0-6.0-2.109","","<div style=""font-size:60px;"">+</div>","null","","","","","","",""
"450.79999999143183","","image-keyboard-response","550","606477","0.0-6.0-0.110","","img/blue.png","32","trial","32","true","0.8,0.2","3:go_c","",""
"null","","html-keyboard-response","551","607479","0.0-6.0-1.110","","<img src=""img/blue-n.png"" border=""10"">","null","trial","32","","0.8,0.2","3:go_c","0",""
"null","","html-keyboard-response","552","608482","0.0-6.0-2.110","","<div style=""font-size:60px;"">+</div>","null","","","","","","",""
"757.9250000417233","","image-keyboard-response","553","609241","0.0-6.0-0.111","","img/grey.png","32","trial","null","false","0.2,0.8","2:nogo_b","",""
"null","","html-keyboard-response","554","610251","0.0-6.0-1.111","","<img src=""img/grey-r.png"" border=""10"">","null","trial","null","","0.2,0.8","2:nogo_b","1",""
"null","","html-keyboard-response","555","611253","0.0-6.0-2.111","","<div style=""font-size:60px;"">+</div>","null","","","","","","",""
"812.9399999743327","","image-keyboard-response","556","612067","0.0-6.0-0.112","","img/green.png","32","trial","32","true","0.8,0.2","1:go_a","",""
"null","","html-keyboard-response","557","613070","0.0-6.0-1.112","","<img src=""img/green-n.png"" border=""10"">","null","trial","32","","0.8,0.2","1:go_a","0",""
"null","","html-keyboard-response","558","614071","0.0-6.0-2.112","","<div style=""font-size:60px;"">+</div>","null","","","","","","",""
"605.9499999973923","","image-keyboard-response","559","614679","0.0-6.0-0.113","","img/grey.png","32","trial","null","false","0.2,0.8","2:nogo_b","",""
"null","","html-keyboard-response","560","615682","0.0-6.0-1.113","","<img src=""img/grey-n.png"" border=""10"">","null","trial","null","","0.2,0.8","2:nogo_b","0",""
"null","","html-keyboard-response","561","616685","0.0-6.0-2.113","","<div style=""font-size:60px;"">+</div>","null","","","","","","",""
"null","","image-keyboard-response","562","618187","0.0-6.0-0.114","","img/purple.png","null","trial","null","true","0.2,0.8","4:nogo_d","",""
"null","","html-keyboard-response","563","619190","0.0-6.0-1.114","","<img src=""img/purple-r.png"">","null","trial","null","","0.2,0.8","4:nogo_d","1",""
"null","","html-keyboard-response","564","620193","0.0-6.0-2.114","","<div style=""font-size:60px;"">+</div>","null","","","","","","",""
"408.1849999492988","","image-keyboard-response","565","620602","0.0-6.0-0.115","","img/blue.png","32","trial","32","true","0.8,0.2","3:go_c","",""
"null","","html-keyboard-response","566","621606","0.0-6.0-1.115","","<img src=""img/blue-r.png"" border=""10"">","null","trial","32","","0.8,0.2","3:go_c","1",""
"null","","html-keyboard-response","567","622607","0.0-6.0-2.115","","<div style=""font-size:60px;"">+</div>","null","","","","","","",""
"1365.250000031665","","image-keyboard-response","568","623974","0.0-6.0-0.116","","img/green.png","32","trial","32","true","0.8,0.2","1:go_a","",""
"null","","html-keyboard-response","569","624977","0.0-6.0-1.116","","<img src=""img/green-r.png"" border=""10"">","null","trial","32","","0.8,0.2","1:go_a","1",""
"null","","html-keyboard-response","570","625981","0.0-6.0-2.116","","<div style=""font-size:60px;"">+</div>","null","","","","","","",""
"687.7550000790507","","image-keyboard-response","571","626671","0.0-6.0-0.117","","img/grey.png","32","trial","null","false","0.2,0.8","2:nogo_b","",""
"null","","html-keyboard-response","572","627673","0.0-6.0-1.117","","<img src=""img/grey-r.png"" border=""10"">","null","trial","null","","0.2,0.8","2:nogo_b","1",""
"null","","html-keyboard-response","573","628675","0.0-6.0-2.117","","<div style=""font-size:60px;"">+</div>","null","","","","","","",""
"null","","image-keyboard-response","574","630178","0.0-6.0-0.118","","img/purple.png","null","trial","null","true","0.2,0.8","4:nogo_d","",""
"null","","html-keyboard-response","575","631181","0.0-6.0-1.118","","<img src=""img/purple-r.png"">","null","trial","null","","0.2,0.8","4:nogo_d","1",""
"null","","html-keyboard-response","576","632183","0.0-6.0-2.118","","<div style=""font-size:60px;"">+</div>","null","","","","","","",""
"419.27499999292195","","image-keyboard-response","577","632604","0.0-6.0-0.119","","img/blue.png","32","trial","32","true","0.8,0.2","3:go_c","",""
"null","","html-keyboard-response","578","633608","0.0-6.0-1.119","","<img src=""img/blue-r.png"" border=""10"">","null","trial","32","","0.8,0.2","3:go_c","1",""
"null","","html-keyboard-response","579","634610","0.0-6.0-2.119","","<div style=""font-size:60px;"">+</div>","null","","","","","","",""
"4631.900000036694","","instructions","580","639243","0.0-7.0","[{""page_index"":0,""viewing_time"":4631.6850000293925}]","","","","","","","","",""
"742.7049999823794","","image-keyboard-response","581","639987","0.0-8.0-0.0","","img/orange.png","32","trial","32","true","0.8,0.2","1:go_a","",""
"null","","html-keyboard-response","582","640989","0.0-8.0-1.0","","<img src=""img/orange-n.png"" border=""10"">","null","trial","32","","0.8,0.2","1:go_a","0",""
"null","","html-keyboard-response","583","641991","0.0-8.0-2.0","","<div style=""font-size:60px;"">+</div>","null","","","","","","",""
"662.5500000081956","","image-keyboard-response","584","642654","0.0-8.0-0.1","","img/purple.png","32","trial","null","false","0.4,0.6","4:nogo_d","",""
"null","","html-keyboard-response","585","643657","0.0-8.0-1.1","","<img src=""img/purple-n.png"" border=""10"">","null","trial","null","","0.4,0.6","4:nogo_d","0",""
"null","","html-keyboard-response","586","644659","0.0-8.0-2.1","","<div style=""font-size:60px;"">+</div>","null","","","","","","",""
"484.2300000600517","","image-keyboard-response","587","645145","0.0-8.0-0.2","","img/red.png","32","trial","32","true","0.6,0.4","3:go_c","",""
"null","","html-keyboard-response","588","646148","0.0-8.0-1.2","","<img src=""img/red-r.png"" border=""10"">","null","trial","32","","0.6,0.4","3:go_c","1",""
"null","","html-keyboard-response","589","647149","0.0-8.0-2.2","","<div style=""font-size:60px;"">+</div>","null","","","","","","",""
"494.52000006567687","","image-keyboard-response","590","647644","0.0-8.0-0.3","","img/blue.png","32","trial","null","false","0.2,0.8","2:nogo_b","",""
"null","","html-keyboard-response","591","648646","0.0-8.0-1.3","","<img src=""img/blue-n.png"" border=""10"">","null","trial","null","","0.2,0.8","2:nogo_b","0",""
"null","","html-keyboard-response","592","649648","0.0-8.0-2.3","","<div style=""font-size:60px;"">+</div>","null","","","","","","",""
"812.0450000278652","","image-keyboard-response","593","650462","0.0-8.0-0.4","","img/purple.png","32","trial","null","false","0.4,0.6","4:nogo_d","",""
"null","","html-keyboard-response","594","651465","0.0-8.0-1.4","","<img src=""img/purple-n.png"" border=""10"">","null","trial","null","","0.4,0.6","4:nogo_d","0",""
"null","","html-keyboard-response","595","652467","0.0-8.0-2.4","","<div style=""font-size:60px;"">+</div>","null","","","","","","",""
"443.3049999643117","","image-keyboard-response","596","652912","0.0-8.0-0.5","","img/red.png","32","trial","32","true","0.6,0.4","3:go_c","",""
"null","","html-keyboard-response","597","653915","0.0-8.0-1.5","","<img src=""img/red-r.png"" border=""10"">","null","trial","32","","0.6,0.4","3:go_c","1",""
"null","","html-keyboard-response","598","654917","0.0-8.0-2.5","","<div style=""font-size:60px;"">+</div>","null","","","","","","",""
"null","","image-keyboard-response","599","656420","0.0-8.0-0.6","","img/blue.png","null","trial","null","true","0.2,0.8","2:nogo_b","",""
"null","","html-keyboard-response","600","657422","0.0-8.0-1.6","","<img src=""img/blue-r.png"">","null","trial","null","","0.2,0.8","2:nogo_b","1",""
"null","","html-keyboard-response","601","658424","0.0-8.0-2.6","","<div style=""font-size:60px;"">+</div>","null","","","","","","",""
"654.7349999891594","","image-keyboard-response","602","659080","0.0-8.0-0.7","","img/orange.png","32","trial","32","true","0.8,0.2","1:go_a","",""
"null","","html-keyboard-response","603","660084","0.0-8.0-1.7","","<img src=""img/orange-n.png"" border=""10"">","null","trial","32","","0.8,0.2","1:go_a","0",""
"null","","html-keyboard-response","604","661086","0.0-8.0-2.7","","<div style=""font-size:60px;"">+</div>","null","","","","","","",""
"null","","image-keyboard-response","605","662588","0.0-8.0-0.8","","img/orange.png","null","trial","32","false","0.8,0.2","1:go_a","",""
"null","","html-keyboard-response","606","663591","0.0-8.0-1.8","","<img src=""img/orange-n.png"">","null","trial","32","","0.8,0.2","1:go_a","0",""
"null","","html-keyboard-response","607","664593","0.0-8.0-2.8","","<div style=""font-size:60px;"">+</div>","null","","","","","","",""
"null","","image-keyboard-response","608","666095","0.0-8.0-0.9","","img/purple.png","null","trial","null","true","0.4,0.6","4:nogo_d","",""
"null","","html-keyboard-response","609","667097","0.0-8.0-1.9","","<img src=""img/purple-r.png"">","null","trial","null","","0.4,0.6","4:nogo_d","1",""
"null","","html-keyboard-response","610","668099","0.0-8.0-2.9","","<div style=""font-size:60px;"">+</div>","null","","","","","","",""
"395.80499997828156","","image-keyboard-response","611","668496","0.0-8.0-0.10","","img/red.png","32","trial","32","true","0.6,0.4","3:go_c","",""
"null","","html-keyboard-response","612","669500","0.0-8.0-1.10","","<img src=""img/red-r.png"" border=""10"">","null","trial","32","","0.6,0.4","3:go_c","1",""
"null","","html-keyboard-response","613","670501","0.0-8.0-2.10","","<div style=""font-size:60px;"">+</div>","null","","","","","","",""
"1214.5900001050904","","image-keyboard-response","614","671717","0.0-8.0-0.11","","img/blue.png","32","trial","null","false","0.2,0.8","2:nogo_b","",""
"null","","html-keyboard-response","615","672720","0.0-8.0-1.11","","<img src=""img/blue-n.png"" border=""10"">","null","trial","null","","0.2,0.8","2:nogo_b","0",""
"null","","html-keyboard-response","616","673722","0.0-8.0-2.11","","<div style=""font-size:60px;"">+</div>","null","","","","","","",""
"null","","image-keyboard-response","617","675225","0.0-8.0-0.12","","img/blue.png","null","trial","null","true","0.2,0.8","2:nogo_b","",""
"null","","html-keyboard-response","618","676228","0.0-8.0-1.12","","<img src=""img/blue-r.png"">","null","trial","null","","0.2,0.8","2:nogo_b","1",""
"null","","html-keyboard-response","619","677230","0.0-8.0-2.12","","<div style=""font-size:60px;"">+</div>","null","","","","","","",""
"null","","image-keyboard-response","620","678732","0.0-8.0-0.13","","img/purple.png","null","trial","null","true","0.4,0.6","4:nogo_d","",""
"null","","html-keyboard-response","621","679734","0.0-8.0-1.13","","<img src=""img/purple-n.png"">","null","trial","null","","0.4,0.6","4:nogo_d","0",""
"null","","html-keyboard-response","622","680748","0.0-8.0-2.13","","<div style=""font-size:60px;"">+</div>","null","","","","","","",""
"null","","image-keyboard-response","623","682250","0.0-8.0-0.14","","img/orange.png","null","trial","32","false","0.8,0.2","1:go_a","",""
"null","","html-keyboard-response","624","683260","0.0-8.0-1.14","","<img src=""img/orange-n.png"">","null","trial","32","","0.8,0.2","1:go_a","0",""
"null","","html-keyboard-response","625","684262","0.0-8.0-2.14","","<div style=""font-size:60px;"">+</div>","null","","","","","","",""
"410.18999996595085","","image-keyboard-response","626","684673","0.0-8.0-0.15","","img/red.png","32","trial","32","true","0.6,0.4","3:go_c","",""
"null","","html-keyboard-response","627","685686","0.0-8.0-1.15","","<img src=""img/red-r.png"" border=""10"">","null","trial","32","","0.6,0.4","3:go_c","1",""
"null","","html-keyboard-response","628","686688","0.0-8.0-2.15","","<div style=""font-size:60px;"">+</div>","null","","","","","","",""
"null","","image-keyboard-response","629","688190","0.0-8.0-0.16","","img/blue.png","null","trial","null","true","0.2,0.8","2:nogo_b","",""
"null","","html-keyboard-response","630","689191","0.0-8.0-1.16","","<img src=""img/blue-r.png"">","null","trial","null","","0.2,0.8","2:nogo_b","1",""
"null","","html-keyboard-response","631","690193","0.0-8.0-2.16","","<div style=""font-size:60px;"">+</div>","null","","","","","","",""
"null","","image-keyboard-response","632","691695","0.0-8.0-0.17","","img/purple.png","null","trial","null","true","0.4,0.6","4:nogo_d","",""
"null","","html-keyboard-response","633","692698","0.0-8.0-1.17","","<img src=""img/purple-n.png"">","null","trial","null","","0.4,0.6","4:nogo_d","0",""
"null","","html-keyboard-response","634","693700","0.0-8.0-2.17","","<div style=""font-size:60px;"">+</div>","null","","","","","","",""
"1070.2199999941513","","image-keyboard-response","635","694772","0.0-8.0-0.18","","img/orange.png","32","trial","32","true","0.8,0.2","1:go_a","",""
"null","","html-keyboard-response","636","695776","0.0-8.0-1.18","","<img src=""img/orange-r.png"" border=""10"">","null","trial","32","","0.8,0.2","1:go_a","1",""
"null","","html-keyboard-response","637","696778","0.0-8.0-2.18","","<div style=""font-size:60px;"">+</div>","null","","","","","","",""
"969.8400000343099","","image-keyboard-response","638","697750","0.0-8.0-0.19","","img/red.png","32","trial","32","true","0.6,0.4","3:go_c","",""
"null","","html-keyboard-response","639","698753","0.0-8.0-1.19","","<img src=""img/red-r.png"" border=""10"">","null","trial","32","","0.6,0.4","3:go_c","1",""
"null","","html-keyboard-response","640","699754","0.0-8.0-2.19","","<div style=""font-size:60px;"">+</div>","null","","","","","","",""
"null","","image-keyboard-response","641","701257","0.0-8.0-0.20","","img/purple.png","null","trial","null","true","0.4,0.6","4:nogo_d","",""
"null","","html-keyboard-response","642","702260","0.0-8.0-1.20","","<img src=""img/purple-r.png"">","null","trial","null","","0.4,0.6","4:nogo_d","1",""
"null","","html-keyboard-response","643","703263","0.0-8.0-2.20","","<div style=""font-size:60px;"">+</div>","null","","","","","","",""
"1361.3250000635162","","image-keyboard-response","644","704626","0.0-8.0-0.21","","img/orange.png","32","trial","32","true","0.8,0.2","1:go_a","",""
"null","","html-keyboard-response","645","705629","0.0-8.0-1.21","","<img src=""img/orange-r.png"" border=""10"">","null","trial","32","","0.8,0.2","1:go_a","1",""
"null","","html-keyboard-response","646","706631","0.0-8.0-2.21","","<div style=""font-size:60px;"">+</div>","null","","","","","","",""
"null","","image-keyboard-response","647","708132","0.0-8.0-0.22","","img/blue.png","null","trial","null","true","0.2,0.8","2:nogo_b","",""
"null","","html-keyboard-response","648","709136","0.0-8.0-1.22","","<img src=""img/blue-r.png"">","null","trial","null","","0.2,0.8","2:nogo_b","1",""
"null","","html-keyboard-response","649","710137","0.0-8.0-2.22","","<div style=""font-size:60px;"">+</div>","null","","","","","","",""
"1017.809999990277","","image-keyboard-response","650","711157","0.0-8.0-0.23","","img/red.png","32","trial","32","true","0.6,0.4","3:go_c","",""
"null","","html-keyboard-response","651","712163","0.0-8.0-1.23","","<img src=""img/red-r.png"" border=""10"">","null","trial","32","","0.6,0.4","3:go_c","1",""
"null","","html-keyboard-response","652","713165","0.0-8.0-2.23","","<div style=""font-size:60px;"">+</div>","null","","","","","","",""
"1210.9450000571087","","image-keyboard-response","653","714378","0.0-8.0-0.24","","img/blue.png","32","trial","null","false","0.2,0.8","2:nogo_b","",""
"null","","html-keyboard-response","654","715383","0.0-8.0-1.24","","<img src=""img/blue-n.png"" border=""10"">","null","trial","null","","0.2,0.8","2:nogo_b","0",""
"null","","html-keyboard-response","655","716384","0.0-8.0-2.24","","<div style=""font-size:60px;"">+</div>","null","","","","","","",""
"null","","image-keyboard-response","656","717887","0.0-8.0-0.25","","img/purple.png","null","trial","null","true","0.4,0.6","4:nogo_d","",""
"null","","html-keyboard-response","657","718890","0.0-8.0-1.25","","<img src=""img/purple-r.png"">","null","trial","null","","0.4,0.6","4:nogo_d","1",""
"null","","html-keyboard-response","658","719891","0.0-8.0-2.25","","<div style=""font-size:60px;"">+</div>","null","","","","","","",""
"880.1550000207499","","image-keyboard-response","659","720773","0.0-8.0-0.26","","img/red.png","32","trial","32","true","0.6,0.4","3:go_c","",""
"null","","html-keyboard-response","660","721777","0.0-8.0-1.26","","<img src=""img/red-n.png"" border=""10"">","null","trial","32","","0.6,0.4","3:go_c","0",""
"null","","html-keyboard-response","661","722779","0.0-8.0-2.26","","<div style=""font-size:60px;"">+</div>","null","","","","","","",""
"811.6649999283254","","image-keyboard-response","662","723591","0.0-8.0-0.27","","img/orange.png","32","trial","32","true","0.8,0.2","1:go_a","",""
"null","","html-keyboard-response","663","724593","0.0-8.0-1.27","","<img src=""img/orange-r.png"" border=""10"">","null","trial","32","","0.8,0.2","1:go_a","1",""
"null","","html-keyboard-response","664","725594","0.0-8.0-2.27","","<div style=""font-size:60px;"">+</div>","null","","","","","","",""
"null","","image-keyboard-response","665","727097","0.0-8.0-0.28","","img/purple.png","null","trial","null","true","0.4,0.6","4:nogo_d","",""
"null","","html-keyboard-response","666","728100","0.0-8.0-1.28","","<img src=""img/purple-r.png"">","null","trial","null","","0.4,0.6","4:nogo_d","1",""
"null","","html-keyboard-response","667","729102","0.0-8.0-2.28","","<div style=""font-size:60px;"">+</div>","null","","","","","","",""
"424.14999997708946","","image-keyboard-response","668","729528","0.0-8.0-0.29","","img/red.png","32","trial","32","true","0.6,0.4","3:go_c","",""
"null","","html-keyboard-response","669","730531","0.0-8.0-1.29","","<img src=""img/red-n.png"" border=""10"">","null","trial","32","","0.6,0.4","3:go_c","0",""
"null","","html-keyboard-response","670","731539","0.0-8.0-2.29","","<div style=""font-size:60px;"">+</div>","null","","","","","","",""
"606.7499999189749","","image-keyboard-response","671","732148","0.0-8.0-0.30","","img/orange.png","32","trial","32","true","0.8,0.2","1:go_a","",""
"null","","html-keyboard-response","672","733151","0.0-8.0-1.30","","<img src=""img/orange-r.png"" border=""10"">","null","trial","32","","0.8,0.2","1:go_a","1",""
"null","","html-keyboard-response","673","734152","0.0-8.0-2.30","","<div style=""font-size:60px;"">+</div>","null","","","","","","",""
"821.7549999244511","","image-keyboard-response","674","734975","0.0-8.0-0.31","","img/blue.png","32","trial","null","false","0.2,0.8","2:nogo_b","",""
