"rt","url","trial_type","trial_index","time_elapsed","internal_node_id","view_history","stimulus","key_press","test_part","correct_response","correct","use_rew","which_stim","reward","responses"
"2315364.349999996","consent.html","external-html","0","2315448","0.0-0.0","","","","","","","","","",""
"50751.31500000134","","instructions","1","2366202","0.0-1.0","[{""page_index"":0,""viewing_time"":2803.5899999961257},{""page_index"":1,""viewing_time"":3183.5100000025705},{""page_index"":2,""viewing_time"":7053.54999999702},{""page_index"":3,""viewing_time"":6896.280000000726},{""page_index"":4,""viewing_time"":4016.2700000000186},{""page_index"":5,""viewing_time"":19057.270000004675},{""page_index"":6,""viewing_time"":7740.1199999949895}]","","","","","","","","",""
"null","","image-keyboard-response","2","2367708","0.0-2.0-0.0","","img/test1.PNG","null","practice","32","false","","","",""
"null","","html-keyboard-response","3","2368710","0.0-2.0-1.0","","<img src=""img/test1-neutral.PNG"">","null","","","","","","",""
"null","","html-keyboard-response","4","2369715","0.0-2.0-2.0","","<div style=""font-size:60px;"">+</div>","null","","","","","","",""
"588.0249999971129","","image-keyboard-response","5","2370304","0.0-2.0-0.1","","img/test2.PNG","32","practice","null","false","","","",""
"null","","html-keyboard-response","6","2371310","0.0-2.0-1.1","","<img src=""img/test2-neutral.PNG"" border=""10px; grey"">","null","","","","","","",""
"null","","html-keyboard-response","7","2372313","0.0-2.0-2.1","","<div style=""font-size:60px;"">+</div>","null","","","","","","",""
"555.0100000035018","","image-keyboard-response","8","2372869","0.0-2.0-0.2","","img/test3.PNG","32","practice","null","false","","","",""
"null","","html-keyboard-response","9","2373874","0.0-2.0-1.2","","<img src=""img/test3-neutral.PNG"" border=""10px; grey"">","null","","","","","","",""
"null","","html-keyboard-response","10","2374876","0.0-2.0-2.2","","<div style=""font-size:60px;"">+</div>","null","","","","","","",""
"815.0249999961816","","image-keyboard-response","11","2375692","0.0-2.0-0.3","","img/test1.PNG","32","practice","32","true","","","",""
"null","","html-keyboard-response","12","2376693","0.0-2.0-1.3","","<img src=""img/test1-reward.PNG"" border=""10px; grey"">","null","","","","","","",""
"null","","html-keyboard-response","13","2377698","0.0-2.0-2.3","","<div style=""font-size:60px;"">+</div>","null","","","","","","",""
"null","","image-keyboard-response","14","2379201","0.0-2.0-0.4","","img/test2.PNG","null","practice","null","true","","","",""
"null","","html-keyboard-response","15","2380205","0.0-2.0-1.4","","<img src=""img/test2-reward.PNG"">","null","","","","","","",""
"null","","html-keyboard-response","16","2381208","0.0-2.0-2.4","","<div style=""font-size:60px;"">+</div>","null","","","","","","",""
"null","","image-keyboard-response","17","2382714","0.0-2.0-0.5","","img/test3.PNG","null","practice","null","true","","","",""
"null","","html-keyboard-response","18","2383717","0.0-2.0-1.5","","<img src=""img/test3-reward.PNG"">","null","","","","","","",""
"null","","html-keyboard-response","19","2384721","0.0-2.0-2.5","","<div style=""font-size:60px;"">+</div>","null","","","","","","",""
"null","","image-keyboard-response","20","2386222","0.0-2.0-0.6","","img/test2.PNG","null","practice","null","true","","","",""
"null","","html-keyboard-response","21","2387224","0.0-2.0-1.6","","<img src=""img/test2-reward.PNG"">","null","","","","","","",""
"null","","html-keyboard-response","22","2388224","0.0-2.0-2.6","","<div style=""font-size:60px;"">+</div>","null","","","","","","",""
"495.02999999793246","","image-keyboard-response","23","2388720","0.0-2.0-0.7","","img/test1.PNG","32","practice","32","true","","","",""
"null","","html-keyboard-response","24","2389725","0.0-2.0-1.7","","<img src=""img/test1-reward.PNG"" border=""10px; grey"">","null","","","","","","",""
"null","","html-keyboard-response","25","2390727","0.0-2.0-2.7","","<div style=""font-size:60px;"">+</div>","null","","","","","","",""
"782.0199999986216","","image-keyboard-response","26","2391510","0.0-2.0-0.8","","img/test3.PNG","32","practice","null","false","","","",""
"null","","html-keyboard-response","27","2392516","0.0-2.0-1.8","","<img src=""img/test3-neutral.PNG"" border=""10px; grey"">","null","","","","","","",""
"null","","html-keyboard-response","28","2393522","0.0-2.0-2.8","","<div style=""font-size:60px;"">+</div>","null","","","","","","",""
"620.9000000017695","","image-keyboard-response","29","2394143","0.0-2.0-0.9","","img/test1.PNG","32","practice","32","true","","","",""
"null","","html-keyboard-response","30","2395145","0.0-2.0-1.9","","<img src=""img/test1-reward.PNG"" border=""10px; grey"">","null","","","","","","",""
"null","","html-keyboard-response","31","2396147","0.0-2.0-2.9","","<div style=""font-size:60px;"">+</div>","null","","","","","","",""
"987.5650000027381","","image-keyboard-response","32","2397135","0.0-2.0-0.10","","img/test2.PNG","32","practice","null","false","","","",""
"null","","html-keyboard-response","33","2398141","0.0-2.0-1.10","","<img src=""img/test2-neutral.PNG"" border=""10px; grey"">","null","","","","","","",""
"null","","html-keyboard-response","34","2399147","0.0-2.0-2.10","","<div style=""font-size:60px;"">+</div>","null","","","","","","",""
"null","","image-keyboard-response","35","2400649","0.0-2.0-0.11","","img/test3.PNG","null","practice","null","true","","","",""
"null","","html-keyboard-response","36","2401651","0.0-2.0-1.11","","<img src=""img/test3-reward.PNG"">","null","","","","","","",""
"null","","html-keyboard-response","37","2402652","0.0-2.0-2.11","","<div style=""font-size:60px;"">+</div>","null","","","","","","",""
"1833.2400000002235","","instructions","38","2404485","0.0-3.0","[{""page_index"":0,""viewing_time"":1832.9900000025518}]","","","","","","","","",""
"null","","image-keyboard-response","39","2405992","0.0-4.0-0.0","","img/yellow.png","null","trial","32","false","0.8,0.2","1:go_a","",""
"null","","html-keyboard-response","40","2406996","0.0-4.0-1.0","","<img src=""img/yellow-n.png"">","null","trial","32","","0.8,0.2","1:go_a","0",""
"null","","html-keyboard-response","41","2407999","0.0-4.0-2.0","","<div style=""font-size:60px;"">+</div>","null","","","","","","",""
"14.504999998956919","","image-keyboard-response","42","2408014","0.0-4.0-0.1","","img/blue.png","32","trial","null","false","0.2,0.8","2:nogo_b","",""
"null","","html-keyboard-response","43","2409018","0.0-4.0-1.1","","<img src=""img/blue-n.png"" border=""10"">","null","trial","null","","0.2,0.8","2:nogo_b","0",""
"null","","html-keyboard-response","44","2410021","0.0-4.0-2.1","","<div style=""font-size:60px;"">+</div>","null","","","","","","",""
"423.0249999961816","","image-keyboard-response","45","2410444","0.0-4.0-0.2","","img/yellow.png","32","trial","32","true","0.8,0.2","1:go_a","",""
"null","","html-keyboard-response","46","2411450","0.0-4.0-1.2","","<img src=""img/yellow-r.png"" border=""10"">","null","trial","32","","0.8,0.2","1:go_a","1",""
"null","","html-keyboard-response","47","2412456","0.0-4.0-2.2","","<div style=""font-size:60px;"">+</div>","null","","","","","","",""
"609.1450000023469","","image-keyboard-response","48","2413065","0.0-4.0-0.3","","img/blue.png","32","trial","null","false","0.2,0.8","2:nogo_b","",""
"null","","html-keyboard-response","49","2414067","0.0-4.0-1.3","","<img src=""img/blue-n.png"" border=""10"">","null","trial","null","","0.2,0.8","2:nogo_b","0",""
"null","","html-keyboard-response","50","2415070","0.0-4.0-2.3","","<div style=""font-size:60px;"">+</div>","null","","","","","","",""
"null","","image-keyboard-response","51","2416576","0.0-4.0-0.4","","img/blue.png","null","trial","null","true","0.2,0.8","2:nogo_b","",""
"null","","html-keyboard-response","52","2417577","0.0-4.0-1.4","","<img src=""img/blue-r.png"">","null","trial","null","","0.2,0.8","2:nogo_b","1",""
"null","","html-keyboard-response","53","2418579","0.0-4.0-2.4","","<div style=""font-size:60px;"">+</div>","null","","","","","","",""
"572.3999999975786","","image-keyboard-response","54","2419152","0.0-4.0-0.5","","img/yellow.png","32","trial","32","true","0.8,0.2","1:go_a","",""
"null","","html-keyboard-response","55","2420154","0.0-4.0-1.5","","<img src=""img/yellow-r.png"" border=""10"">","null","trial","32","","0.8,0.2","1:go_a","1",""
"null","","html-keyboard-response","56","2421157","0.0-4.0-2.5","","<div style=""font-size:60px;"">+</div>","null","","","","","","",""
"659.8250000020489","","image-keyboard-response","57","2421818","0.0-4.0-0.6","","img/yellow.png","32","trial","32","true","0.8,0.2","1:go_a","",""
"null","","html-keyboard-response","58","2422824","0.0-4.0-1.6","","<img src=""img/yellow-r.png"" border=""10"">","null","trial","32","","0.8,0.2","1:go_a","1",""
"null","","html-keyboard-response","59","2423830","0.0-4.0-2.6","","<div style=""font-size:60px;"">+</div>","null","","","","","","",""
"530.1699999980628","","image-keyboard-response","60","2424360","0.0-4.0-0.7","","img/blue.png","32","trial","null","false","0.2,0.8","2:nogo_b","",""
"null","","html-keyboard-response","61","2425363","0.0-4.0-1.7","","<img src=""img/blue-n.png"" border=""10"">","null","trial","null","","0.2,0.8","2:nogo_b","0",""
"null","","html-keyboard-response","62","2426366","0.0-4.0-2.7","","<div style=""font-size:60px;"">+</div>","null","","","","","","",""
"750.5949999978766","","image-keyboard-response","63","2427117","0.0-4.0-0.8","","img/yellow.png","32","trial","32","true","0.8,0.2","1:go_a","",""
"null","","html-keyboard-response","64","2428119","0.0-4.0-1.8","","<img src=""img/yellow-r.png"" border=""10"">","null","trial","32","","0.8,0.2","1:go_a","1",""
"null","","html-keyboard-response","65","2429123","0.0-4.0-2.8","","<div style=""font-size:60px;"">+</div>","null","","","","","","",""
"null","","image-keyboard-response","66","2430627","0.0-4.0-0.9","","img/blue.png","null","trial","null","true","0.2,0.8","2:nogo_b","",""
"null","","html-keyboard-response","67","2431631","0.0-4.0-1.9","","<img src=""img/blue-r.png"">","null","trial","null","","0.2,0.8","2:nogo_b","1",""
"null","","html-keyboard-response","68","2432634","0.0-4.0-2.9","","<div style=""font-size:60px;"">+</div>","null","","","","","","",""
"647.0299999928102","","image-keyboard-response","69","2433282","0.0-4.0-0.10","","img/yellow.png","32","trial","32","true","0.8,0.2","1:go_a","",""
"null","","html-keyboard-response","70","2434286","0.0-4.0-1.10","","<img src=""img/yellow-r.png"" border=""10"">","null","trial","32","","0.8,0.2","1:go_a","1",""
"null","","html-keyboard-response","71","2435291","0.0-4.0-2.10","","<div style=""font-size:60px;"">+</div>","null","","","","","","",""
"656.7100000032224","","image-keyboard-response","72","2435948","0.0-4.0-0.11","","img/blue.png","32","trial","null","false","0.2,0.8","2:nogo_b","",""
"null","","html-keyboard-response","73","2436950","0.0-4.0-1.11","","<img src=""img/blue-n.png"" border=""10"">","null","trial","null","","0.2,0.8","2:nogo_b","0",""
"null","","html-keyboard-response","74","2437953","0.0-4.0-2.11","","<div style=""font-size:60px;"">+</div>","null","","","","","","",""
"570.4699999988079","","image-keyboard-response","75","2438524","0.0-4.0-0.12","","img/yellow.png","32","trial","32","true","0.8,0.2","1:go_a","",""
"null","","html-keyboard-response","76","2439527","0.0-4.0-1.12","","<img src=""img/yellow-r.png"" border=""10"">","null","trial","32","","0.8,0.2","1:go_a","1",""
"null","","html-keyboard-response","77","2440528","0.0-4.0-2.12","","<div style=""font-size:60px;"">+</div>","null","","","","","","",""
"550.085000002291","","image-keyboard-response","78","2441078","0.0-4.0-0.13","","img/blue.png","32","trial","null","false","0.2,0.8","2:nogo_b","",""
"null","","html-keyboard-response","79","2442080","0.0-4.0-1.13","","<img src=""img/blue-r.png"" border=""10"">","null","trial","null","","0.2,0.8","2:nogo_b","1",""
"null","","html-keyboard-response","80","2443080","0.0-4.0-2.13","","<div style=""font-size:60px;"">+</div>","null","","","","","","",""
"843.1799999964423","","image-keyboard-response","81","2443924","0.0-4.0-0.14","","img/blue.png","32","trial","null","false","0.2,0.8","2:nogo_b","",""
"null","","html-keyboard-response","82","2444930","0.0-4.0-1.14","","<img src=""img/blue-n.png"" border=""10"">","null","trial","null","","0.2,0.8","2:nogo_b","0",""
"null","","html-keyboard-response","83","2445931","0.0-4.0-2.14","","<div style=""font-size:60px;"">+</div>","null","","","","","","",""
"816.4249999970198","","image-keyboard-response","84","2446748","0.0-4.0-0.15","","img/yellow.png","32","trial","32","true","0.8,0.2","1:go_a","",""
"null","","html-keyboard-response","85","2447750","0.0-4.0-1.15","","<img src=""img/yellow-r.png"" border=""10"">","null","trial","32","","0.8,0.2","1:go_a","1",""
"null","","html-keyboard-response","86","2448752","0.0-4.0-2.15","","<div style=""font-size:60px;"">+</div>","null","","","","","","",""
"null","","image-keyboard-response","87","2450253","0.0-4.0-0.16","","img/blue.png","null","trial","null","true","0.2,0.8","2:nogo_b","",""
"null","","html-keyboard-response","88","2451256","0.0-4.0-1.16","","<img src=""img/blue-r.png"">","null","trial","null","","0.2,0.8","2:nogo_b","1",""
"null","","html-keyboard-response","89","2452259","0.0-4.0-2.16","","<div style=""font-size:60px;"">+</div>","null","","","","","","",""
"563.7849999982864","","image-keyboard-response","90","2452823","0.0-4.0-0.17","","img/yellow.png","32","trial","32","true","0.8,0.2","1:go_a","",""
"null","","html-keyboard-response","91","2453829","0.0-4.0-1.17","","<img src=""img/yellow-r.png"" border=""10"">","null","trial","32","","0.8,0.2","1:go_a","1",""
"null","","html-keyboard-response","92","2454834","0.0-4.0-2.17","","<div style=""font-size:60px;"">+</div>","null","","","","","","",""
"700.0249999980442","","image-keyboard-response","93","2455535","0.0-4.0-0.18","","img/yellow.png","32","trial","32","true","0.8,0.2","1:go_a","",""
"null","","html-keyboard-response","94","2456541","0.0-4.0-1.18","","<img src=""img/yellow-r.png"" border=""10"">","null","trial","32","","0.8,0.2","1:go_a","1",""
"null","","html-keyboard-response","95","2457541","0.0-4.0-2.18","","<div style=""font-size:60px;"">+</div>","null","","","","","","",""
"602.8650000006892","","image-keyboard-response","96","2458144","0.0-4.0-0.19","","img/blue.png","32","trial","null","false","0.2,0.8","2:nogo_b","",""
"null","","html-keyboard-response","97","2459151","0.0-4.0-1.19","","<img src=""img/blue-n.png"" border=""10"">","null","trial","null","","0.2,0.8","2:nogo_b","0",""
"null","","html-keyboard-response","98","2460156","0.0-4.0-2.19","","<div style=""font-size:60px;"">+</div>","null","","","","","","",""
"496.47500000009313","","image-keyboard-response","99","2460653","0.0-4.0-0.20","","img/blue.png","32","trial","null","false","0.2,0.8","2:nogo_b","",""
"null","","html-keyboard-response","100","2461659","0.0-4.0-1.20","","<img src=""img/blue-n.png"" border=""10"">","null","trial","null","","0.2,0.8","2:nogo_b","0",""
"null","","html-keyboard-response","101","2462661","0.0-4.0-2.20","","<div style=""font-size:60px;"">+</div>","null","","","","","","",""
"522.9499999987893","","image-keyboard-response","102","2463185","0.0-4.0-0.21","","img/yellow.png","32","trial","32","true","0.8,0.2","1:go_a","",""
"null","","html-keyboard-response","103","2464191","0.0-4.0-1.21","","<img src=""img/yellow-n.png"" border=""10"">","null","trial","32","","0.8,0.2","1:go_a","0",""
"null","","html-keyboard-response","104","2465195","0.0-4.0-2.21","","<div style=""font-size:60px;"">+</div>","null","","","","","","",""
"666.1450000028126","","image-keyboard-response","105","2465862","0.0-4.0-0.22","","img/yellow.png","32","trial","32","true","0.8,0.2","1:go_a","",""
"null","","html-keyboard-response","106","2466864","0.0-4.0-1.22","","<img src=""img/yellow-r.png"" border=""10"">","null","trial","32","","0.8,0.2","1:go_a","1",""
"null","","html-keyboard-response","107","2467865","0.0-4.0-2.22","","<div style=""font-size:60px;"">+</div>","null","","","","","","",""
"460.36499999882653","","image-keyboard-response","108","2468326","0.0-4.0-0.23","","img/blue.png","32","trial","null","false","0.2,0.8","2:nogo_b","",""
"null","","html-keyboard-response","109","2469332","0.0-4.0-1.23","","<img src=""img/blue-n.png"" border=""10"">","null","trial","null","","0.2,0.8","2:nogo_b","0",""
"null","","html-keyboard-response","110","2470333","0.0-4.0-2.23","","<div style=""font-size:60px;"">+</div>","null","","","","","","",""
"523.9799999981187","","image-keyboard-response","111","2470857","0.0-4.0-0.24","","img/yellow.png","32","trial","32","true","0.8,0.2","1:go_a","",""
"null","","html-keyboard-response","112","2471863","0.0-4.0-1.24","","<img src=""img/yellow-r.png"" border=""10"">","null","trial","32","","0.8,0.2","1:go_a","1",""
"null","","html-keyboard-response","113","2472868","0.0-4.0-2.24","","<div style=""font-size:60px;"">+</div>","null","","","","","","",""
"497.5500000002794","","image-keyboard-response","114","2473367","0.0-4.0-0.25","","img/blue.png","32","trial","null","false","0.2,0.8","2:nogo_b","",""
"null","","html-keyboard-response","115","2474369","0.0-4.0-1.25","","<img src=""img/blue-n.png"" border=""10"">","null","trial","null","","0.2,0.8","2:nogo_b","0",""
"null","","html-keyboard-response","116","2475374","0.0-4.0-2.25","","<div style=""font-size:60px;"">+</div>","null","","","","","","",""
"713.2950000013225","","image-keyboard-response","117","2476088","0.0-4.0-0.26","","img/blue.png","32","trial","null","false","0.2,0.8","2:nogo_b","",""
"null","","html-keyboard-response","118","2477095","0.0-4.0-1.26","","<img src=""img/blue-n.png"" border=""10"">","null","trial","null","","0.2,0.8","2:nogo_b","0",""
"null","","html-keyboard-response","119","2478097","0.0-4.0-2.26","","<div style=""font-size:60px;"">+</div>","null","","","","","","",""
"443.0300000021234","","image-keyboard-response","120","2478541","0.0-4.0-0.27","","img/yellow.png","32","trial","32","true","0.8,0.2","1:go_a","",""
"null","","html-keyboard-response","121","2479547","0.0-4.0-1.27","","<img src=""img/yellow-r.png"" border=""10"">","null","trial","32","","0.8,0.2","1:go_a","1",""
"null","","html-keyboard-response","122","2480549","0.0-4.0-2.27","","<div style=""font-size:60px;"">+</div>","null","","","","","","",""
"601.5750000006519","","image-keyboard-response","123","2481151","0.0-4.0-0.28","","img/yellow.png","32","trial","32","true","0.8,0.2","1:go_a","",""
"null","","html-keyboard-response","124","2482155","0.0-4.0-1.28","","<img src=""img/yellow-r.png"" border=""10"">","null","trial","32","","0.8,0.2","1:go_a","1",""
"null","","html-keyboard-response","125","2483159","0.0-4.0-2.28","","<div style=""font-size:60px;"">+</div>","null","","","","","","",""
"null","","image-keyboard-response","126","2484664","0.0-4.0-0.29","","img/blue.png","null","trial","null","true","0.2,0.8","2:nogo_b","",""
"null","","html-keyboard-response","127","2485666","0.0-4.0-1.29","","<img src=""img/blue-r.png"">","null","trial","null","","0.2,0.8","2:nogo_b","1",""
"null","","html-keyboard-response","128","2486671","0.0-4.0-2.29","","<div style=""font-size:60px;"">+</div>","null","","","","","","",""
"622.2100000013597","","image-keyboard-response","129","2487294","0.0-4.0-0.30","","img/blue.png","32","trial","null","false","0.2,0.8","2:nogo_b","",""
"null","","html-keyboard-response","130","2488296","0.0-4.0-1.30","","<img src=""img/blue-n.png"" border=""10"">","null","trial","null","","0.2,0.8","2:nogo_b","0",""
"null","","html-keyboard-response","131","2489299","0.0-4.0-2.30","","<div style=""font-size:60px;"">+</div>","null","","","","","","",""
"604.0949999950826","","image-keyboard-response","132","2489904","0.0-4.0-0.31","","img/yellow.png","32","trial","32","true","0.8,0.2","1:go_a","",""
"null","","html-keyboard-response","133","2490910","0.0-4.0-1.31","","<img src=""img/yellow-r.png"" border=""10"">","null","trial","32","","0.8,0.2","1:go_a","1",""
"null","","html-keyboard-response","134","2491915","0.0-4.0-2.31","","<div style=""font-size:60px;"">+</div>","null","","","","","","",""
"642.8099999977276","","image-keyboard-response","135","2492559","0.0-4.0-0.32","","img/yellow.png","32","trial","32","true","0.8,0.2","1:go_a","",""
"null","","html-keyboard-response","136","2493564","0.0-4.0-1.32","","<img src=""img/yellow-r.png"" border=""10"">","null","trial","32","","0.8,0.2","1:go_a","1",""
"null","","html-keyboard-response","137","2494567","0.0-4.0-2.32","","<div style=""font-size:60px;"">+</div>","null","","","","","","",""
"null","","image-keyboard-response","138","2496072","0.0-4.0-0.33","","img/blue.png","null","trial","null","true","0.2,0.8","2:nogo_b","",""
"null","","html-keyboard-response","139","2497077","0.0-4.0-1.33","","<img src=""img/blue-r.png"">","null","trial","null","","0.2,0.8","2:nogo_b","1",""
"null","","html-keyboard-response","140","2498080","0.0-4.0-2.33","","<div style=""font-size:60px;"">+</div>","null","","","","","","",""
"486.2750000031665","","image-keyboard-response","141","2498567","0.0-4.0-0.34","","img/yellow.png","32","trial","32","true","0.8,0.2","1:go_a","",""
"null","","html-keyboard-response","142","2499570","0.0-4.0-1.34","","<img src=""img/yellow-n.png"" border=""10"">","null","trial","32","","0.8,0.2","1:go_a","0",""
"null","","html-keyboard-response","143","2500574","0.0-4.0-2.34","","<div style=""font-size:60px;"">+</div>","null","","","","","","",""
"399.1850000019185","","image-keyboard-response","144","2500974","0.0-4.0-0.35","","img/blue.png","32","trial","null","false","0.2,0.8","2:nogo_b","",""
"null","","html-keyboard-response","145","2501979","0.0-4.0-1.35","","<img src=""img/blue-n.png"" border=""10"">","null","trial","null","","0.2,0.8","2:nogo_b","0",""
"null","","html-keyboard-response","146","2502984","0.0-4.0-2.35","","<div style=""font-size:60px;"">+</div>","null","","","","","","",""
"665.715000002645","","image-keyboard-response","147","2503651","0.0-4.0-0.36","","img/yellow.png","32","trial","32","true","0.8,0.2","1:go_a","",""
"null","","html-keyboard-response","148","2504657","0.0-4.0-1.36","","<img src=""img/yellow-n.png"" border=""10"">","null","trial","32","","0.8,0.2","1:go_a","0",""
"null","","html-keyboard-response","149","2505658","0.0-4.0-2.36","","<div style=""font-size:60px;"">+</div>","null","","","","","","",""
"524.3800000022165","","image-keyboard-response","150","2506183","0.0-4.0-0.37","","img/blue.png","32","trial","null","false","0.2,0.8","2:nogo_b","",""
"null","","html-keyboard-response","151","2507187","0.0-4.0-1.37","","<img src=""img/blue-n.png"" border=""10"">","null","trial","null","","0.2,0.8","2:nogo_b","0",""
"null","","html-keyboard-response","152","2508192","0.0-4.0-2.37","","<div style=""font-size:60px;"">+</div>","null","","","","","","",""
"464.75999999558553","","image-keyboard-response","153","2508658","0.0-4.0-0.38","","img/blue.png","32","trial","null","false","0.2,0.8","2:nogo_b","",""
"null","","html-keyboard-response","154","2509661","0.0-4.0-1.38","","<img src=""img/blue-n.png"" border=""10"">","null","trial","null","","0.2,0.8","2:nogo_b","0",""
"null","","html-keyboard-response","155","2510663","0.0-4.0-2.38","","<div style=""font-size:60px;"">+</div>","null","","","","","","",""
"503.0499999993481","","image-keyboard-response","156","2511166","0.0-4.0-0.39","","img/yellow.png","32","trial","32","true","0.8,0.2","1:go_a","",""
"null","","html-keyboard-response","157","2512168","0.0-4.0-1.39","","<img src=""img/yellow-r.png"" border=""10"">","null","trial","32","","0.8,0.2","1:go_a","1",""
"null","","html-keyboard-response","158","2513174","0.0-4.0-2.39","","<div style=""font-size:60px;"">+</div>","null","","","","","","",""
"534.7499999990687","","image-keyboard-response","159","2513709","0.0-4.0-0.40","","img/yellow.png","32","trial","32","true","0.8,0.2","1:go_a","",""
"null","","html-keyboard-response","160","2514715","0.0-4.0-1.40","","<img src=""img/yellow-n.png"" border=""10"">","null","trial","32","","0.8,0.2","1:go_a","0",""
"null","","html-keyboard-response","161","2515717","0.0-4.0-2.40","","<div style=""font-size:60px;"">+</div>","null","","","","","","",""
"409.4799999948591","","image-keyboard-response","162","2516127","0.0-4.0-0.41","","img/blue.png","32","trial","null","false","0.2,0.8","2:nogo_b","",""
"null","","html-keyboard-response","163","2517132","0.0-4.0-1.41","","<img src=""img/blue-r.png"" border=""10"">","null","trial","null","","0.2,0.8","2:nogo_b","1",""
"null","","html-keyboard-response","164","2518134","0.0-4.0-2.41","","<div style=""font-size:60px;"">+</div>","null","","","","","","",""
"648.0450000017881","","image-keyboard-response","165","2518783","0.0-4.0-0.42","","img/yellow.png","32","trial","32","true","0.8,0.2","1:go_a","",""
"null","","html-keyboard-response","166","2519786","0.0-4.0-1.42","","<img src=""img/yellow-r.png"" border=""10"">","null","trial","32","","0.8,0.2","1:go_a","1",""
"null","","html-keyboard-response","167","2520787","0.0-4.0-2.42","","<div style=""font-size:60px;"">+</div>","null","","","","","","",""
"null","","image-keyboard-response","168","2522292","0.0-4.0-0.43","","img/blue.png","null","trial","null","true","0.2,0.8","2:nogo_b","",""
"null","","html-keyboard-response","169","2523298","0.0-4.0-1.43","","<img src=""img/blue-r.png"">","null","trial","null","","0.2,0.8","2:nogo_b","1",""
"null","","html-keyboard-response","170","2524301","0.0-4.0-2.43","","<div style=""font-size:60px;"">+</div>","null","","","","","","",""
"511.50500000221655","","image-keyboard-response","171","2524813","0.0-4.0-0.44","","img/yellow.png","32","trial","32","true","0.8,0.2","1:go_a","",""
"null","","html-keyboard-response","172","2525816","0.0-4.0-1.44","","<img src=""img/yellow-r.png"" border=""10"">","null","trial","32","","0.8,0.2","1:go_a","1",""
"null","","html-keyboard-response","173","2526818","0.0-4.0-2.44","","<div style=""font-size:60px;"">+</div>","null","","","","","","",""
"423.75000000186265","","image-keyboard-response","174","2527243","0.0-4.0-0.45","","img/blue.png","32","trial","null","false","0.2,0.8","2:nogo_b","",""
"null","","html-keyboard-response","175","2528249","0.0-4.0-1.45","","<img src=""img/blue-r.png"" border=""10"">","null","trial","null","","0.2,0.8","2:nogo_b","1",""
"null","","html-keyboard-response","176","2529254","0.0-4.0-2.45","","<div style=""font-size:60px;"">+</div>","null","","","","","","",""
"913.6849999995902","","image-keyboard-response","177","2530168","0.0-4.0-0.46","","img/blue.png","32","trial","null","false","0.2,0.8","2:nogo_b","",""
"null","","html-keyboard-response","178","2531173","0.0-4.0-1.46","","<img src=""img/blue-n.png"" border=""10"">","null","trial","null","","0.2,0.8","2:nogo_b","0",""
"null","","html-keyboard-response","179","2532175","0.0-4.0-2.46","","<div style=""font-size:60px;"">+</div>","null","","","","","","",""
"577.0449999980628","","image-keyboard-response","180","2532752","0.0-4.0-0.47","","img/yellow.png","32","trial","32","true","0.8,0.2","1:go_a","",""
"null","","html-keyboard-response","181","2533752","0.0-4.0-1.47","","<img src=""img/yellow-r.png"" border=""10"">","null","trial","32","","0.8,0.2","1:go_a","1",""
"null","","html-keyboard-response","182","2534757","0.0-4.0-2.47","","<div style=""font-size:60px;"">+</div>","null","","","","","","",""
"512.464999999851","","image-keyboard-response","183","2535269","0.0-4.0-0.48","","img/yellow.png","32","trial","32","true","0.8,0.2","1:go_a","",""
"null","","html-keyboard-response","184","2536271","0.0-4.0-1.48","","<img src=""img/yellow-r.png"" border=""10"">","null","trial","32","","0.8,0.2","1:go_a","1",""
"null","","html-keyboard-response","185","2537273","0.0-4.0-2.48","","<div style=""font-size:60px;"">+</div>","null","","","","","","",""
"null","","image-keyboard-response","186","2538773","0.0-4.0-0.49","","img/blue.png","null","trial","null","true","0.2,0.8","2:nogo_b","",""
"null","","html-keyboard-response","187","2539776","0.0-4.0-1.49","","<img src=""img/blue-r.png"">","null","trial","null","","0.2,0.8","2:nogo_b","1",""
"null","","html-keyboard-response","188","2540778","0.0-4.0-2.49","","<div style=""font-size:60px;"">+</div>","null","","","","","","",""
"583.6350000025705","","image-keyboard-response","189","2541362","0.0-4.0-0.50","","img/blue.png","32","trial","null","false","0.2,0.8","2:nogo_b","",""
"null","","html-keyboard-response","190","2542367","0.0-4.0-1.50","","<img src=""img/blue-n.png"" border=""10"">","null","trial","null","","0.2,0.8","2:nogo_b","0",""
"null","","html-keyboard-response","191","2543369","0.0-4.0-2.50","","<div style=""font-size:60px;"">+</div>","null","","","","","","",""
"510.3049999959767","","image-keyboard-response","192","2543880","0.0-4.0-0.51","","img/yellow.png","32","trial","32","true","0.8,0.2","1:go_a","",""
"null","","html-keyboard-response","193","2544881","0.0-4.0-1.51","","<img src=""img/yellow-r.png"" border=""10"">","null","trial","32","","0.8,0.2","1:go_a","1",""
"null","","html-keyboard-response","194","2545886","0.0-4.0-2.51","","<div style=""font-size:60px;"">+</div>","null","","","","","","",""
"376.81500000320375","","image-keyboard-response","195","2546263","0.0-4.0-0.52","","img/blue.png","32","trial","null","false","0.2,0.8","2:nogo_b","",""
"null","","html-keyboard-response","196","2547269","0.0-4.0-1.52","","<img src=""img/blue-n.png"" border=""10"">","null","trial","null","","0.2,0.8","2:nogo_b","0",""
"null","","html-keyboard-response","197","2548273","0.0-4.0-2.52","","<div style=""font-size:60px;"">+</div>","null","","","","","","",""
"924.4199999952689","","image-keyboard-response","198","2549198","0.0-4.0-0.53","","img/yellow.png","32","trial","32","true","0.8,0.2","1:go_a","",""
"null","","html-keyboard-response","199","2550204","0.0-4.0-1.53","","<img src=""img/yellow-r.png"" border=""10"">","null","trial","32","","0.8,0.2","1:go_a","1",""
"null","","html-keyboard-response","200","2551207","0.0-4.0-2.53","","<div style=""font-size:60px;"">+</div>","null","","","","","","",""
"701.9500000020489","","image-keyboard-response","201","2551909","0.0-4.0-0.54","","img/yellow.png","32","trial","32","true","0.8,0.2","1:go_a","",""
"null","","html-keyboard-response","202","2552915","0.0-4.0-1.54","","<img src=""img/yellow-r.png"" border=""10"">","null","trial","32","","0.8,0.2","1:go_a","1",""
"null","","html-keyboard-response","203","2553917","0.0-4.0-2.54","","<div style=""font-size:60px;"">+</div>","null","","","","","","",""
"791.0950000006706","","image-keyboard-response","204","2554709","0.0-4.0-0.55","","img/blue.png","32","trial","null","false","0.2,0.8","2:nogo_b","",""
"null","","html-keyboard-response","205","2555710","0.0-4.0-1.55","","<img src=""img/blue-n.png"" border=""10"">","null","trial","null","","0.2,0.8","2:nogo_b","0",""
"null","","html-keyboard-response","206","2556710","0.0-4.0-2.55","","<div style=""font-size:60px;"">+</div>","null","","","","","","",""
"472.0049999956973","","image-keyboard-response","207","2557183","0.0-4.0-0.56","","img/blue.png","32","trial","null","false","0.2,0.8","2:nogo_b","",""
"null","","html-keyboard-response","208","2558185","0.0-4.0-1.56","","<img src=""img/blue-r.png"" border=""10"">","null","trial","null","","0.2,0.8","2:nogo_b","1",""
"null","","html-keyboard-response","209","2559188","0.0-4.0-2.56","","<div style=""font-size:60px;"">+</div>","null","","","","","","",""
"502.9500000020489","","image-keyboard-response","210","2559691","0.0-4.0-0.57","","img/yellow.png","32","trial","32","true","0.8,0.2","1:go_a","",""
"null","","html-keyboard-response","211","2560694","0.0-4.0-1.57","","<img src=""img/yellow-r.png"" border=""10"">","null","trial","32","","0.8,0.2","1:go_a","1",""
"null","","html-keyboard-response","212","2561696","0.0-4.0-2.57","","<div style=""font-size:60px;"">+</div>","null","","","","","","",""
"795.3650000053458","","image-keyboard-response","213","2562492","0.0-4.0-0.58","","img/yellow.png","32","trial","32","true","0.8,0.2","1:go_a","",""
"null","","html-keyboard-response","214","2563496","0.0-4.0-1.58","","<img src=""img/yellow-r.png"" border=""10"">","null","trial","32","","0.8,0.2","1:go_a","1",""
"null","","html-keyboard-response","215","2564498","0.0-4.0-2.58","","<div style=""font-size:60px;"">+</div>","null","","","","","","",""
"null","","image-keyboard-response","216","2566004","0.0-4.0-0.59","","img/blue.png","null","trial","null","true","0.2,0.8","2:nogo_b","",""
"null","","html-keyboard-response","217","2567007","0.0-4.0-1.59","","<img src=""img/blue-r.png"">","null","trial","null","","0.2,0.8","2:nogo_b","1",""
"null","","html-keyboard-response","218","2568010","0.0-4.0-2.59","","<div style=""font-size:60px;"">+</div>","null","","","","","","",""
"3034.5300000044517","","instructions","219","2571044","0.0-5.0","[{""page_index"":0,""viewing_time"":3034.31000000285}]","","","","","","","","",""
"1210.1849999963306","","image-keyboard-response","220","2572255","0.0-6.0-0.0","","img/pink.png","32","trial","null","false","0.2,0.8","2:nogo_b","",""
"null","","html-keyboard-response","221","2573259","0.0-6.0-1.0","","<img src=""img/pink-r.png"" border=""10"">","null","trial","null","","0.2,0.8","2:nogo_b","1",""
"null","","html-keyboard-response","222","2574260","0.0-6.0-2.0","","<div style=""font-size:60px;"">+</div>","null","","","","","","",""
"492.1950000063516","","image-keyboard-response","223","2574753","0.0-6.0-0.1","","img/red.png","32","trial","null","false","0.2,0.8","4:nogo_d","",""
"null","","html-keyboard-response","224","2575759","0.0-6.0-1.1","","<img src=""img/red-n.png"" border=""10"">","null","trial","null","","0.2,0.8","4:nogo_d","0",""
"null","","html-keyboard-response","225","2576762","0.0-6.0-2.1","","<div style=""font-size:60px;"">+</div>","null","","","","","","",""
"712.7550000003539","","image-keyboard-response","226","2577475","0.0-6.0-0.2","","img/green.png","32","trial","32","true","0.8,0.2","1:go_a","",""
"null","","html-keyboard-response","227","2578481","0.0-6.0-1.2","","<img src=""img/green-r.png"" border=""10"">","null","trial","32","","0.8,0.2","1:go_a","1",""
"null","","html-keyboard-response","228","2579483","0.0-6.0-2.2","","<div style=""font-size:60px;"">+</div>","null","","","","","","",""
"null","","image-keyboard-response","229","2580988","0.0-6.0-0.3","","img/yellow.png","null","trial","32","false","0.8,0.2","3:go_c","",""
"null","","html-keyboard-response","230","2581992","0.0-6.0-1.3","","<img src=""img/yellow-n.png"">","null","trial","32","","0.8,0.2","3:go_c","0",""
"null","","html-keyboard-response","231","2582995","0.0-6.0-2.3","","<div style=""font-size:60px;"">+</div>","null","","","","","","",""
"null","","image-keyboard-response","232","2584500","0.0-6.0-0.4","","img/red.png","null","trial","null","true","0.2,0.8","4:nogo_d","",""
"null","","html-keyboard-response","233","2585503","0.0-6.0-1.4","","<img src=""img/red-r.png"">","null","trial","null","","0.2,0.8","4:nogo_d","1",""
"null","","html-keyboard-response","234","2586507","0.0-6.0-2.4","","<div style=""font-size:60px;"">+</div>","null","","","","","","",""
"754.4500000001863","","image-keyboard-response","235","2587262","0.0-6.0-0.5","","img/pink.png","32","trial","null","false","0.2,0.8","2:nogo_b","",""
"null","","html-keyboard-response","236","2588267","0.0-6.0-1.5","","<img src=""img/pink-n.png"" border=""10"">","null","trial","null","","0.2,0.8","2:nogo_b","0",""
"null","","html-keyboard-response","237","2589268","0.0-6.0-2.5","","<div style=""font-size:60px;"">+</div>","null","","","","","","",""
"558.5799999972805","","image-keyboard-response","238","2589827","0.0-6.0-0.6","","img/green.png","32","trial","32","true","0.8,0.2","1:go_a","",""
"null","","html-keyboard-response","239","2590830","0.0-6.0-1.6","","<img src=""img/green-n.png"" border=""10"">","null","trial","32","","0.8,0.2","1:go_a","0",""
"null","","html-keyboard-response","240","2591832","0.0-6.0-2.6","","<div style=""font-size:60px;"">+</div>","null","","","","","","",""
"604.72999999905","","image-keyboard-response","241","2592437","0.0-6.0-0.7","","img/yellow.png","32","trial","32","true","0.8,0.2","3:go_c","",""
"null","","html-keyboard-response","242","2593443","0.0-6.0-1.7","","<img src=""img/yellow-r.png"" border=""10"">","null","trial","32","","0.8,0.2","3:go_c","1",""
"null","","html-keyboard-response","243","2594446","0.0-6.0-2.7","","<div style=""font-size:60px;"">+</div>","null","","","","","","",""
"420.4350000000559","","image-keyboard-response","244","2594867","0.0-6.0-0.8","","img/red.png","32","trial","null","false","0.2,0.8","4:nogo_d","",""
"null","","html-keyboard-response","245","2595873","0.0-6.0-1.8","","<img src=""img/red-n.png"" border=""10"">","null","trial","null","","0.2,0.8","4:nogo_d","0",""
"null","","html-keyboard-response","246","2596876","0.0-6.0-2.8","","<div style=""font-size:60px;"">+</div>","null","","","","","","",""
"971.8649999992922","","image-keyboard-response","247","2597849","0.0-6.0-0.9","","img/pink.png","32","trial","null","false","0.2,0.8","2:nogo_b","",""
"null","","html-keyboard-response","248","2598852","0.0-6.0-1.9","","<img src=""img/pink-n.png"" border=""10"">","null","trial","null","","0.2,0.8","2:nogo_b","0",""
"null","","html-keyboard-response","249","2599853","0.0-6.0-2.9","","<div style=""font-size:60px;"">+</div>","null","","","","","","",""
"863.7900000028312","","image-keyboard-response","250","2600717","0.0-6.0-0.10","","img/green.png","32","trial","32","true","0.8,0.2","1:go_a","",""
"null","","html-keyboard-response","251","2601722","0.0-6.0-1.10","","<img src=""img/green-r.png"" border=""10"">","null","trial","32","","0.8,0.2","1:go_a","1",""
"null","","html-keyboard-response","252","2602725","0.0-6.0-2.10","","<div style=""font-size:60px;"">+</div>","null","","","","","","",""
"null","","image-keyboard-response","253","2604228","0.0-6.0-0.11","","img/yellow.png","null","trial","32","false","0.8,0.2","3:go_c","",""
"null","","html-keyboard-response","254","2605231","0.0-6.0-1.11","","<img src=""img/yellow-n.png"">","null","trial","32","","0.8,0.2","3:go_c","0",""
"null","","html-keyboard-response","255","2606232","0.0-6.0-2.11","","<div style=""font-size:60px;"">+</div>","null","","","","","","",""
"468.7849999968894","","image-keyboard-response","256","2606702","0.0-6.0-0.12","","img/red.png","32","trial","null","false","0.2,0.8","4:nogo_d","",""
"null","","html-keyboard-response","257","2607708","0.0-6.0-1.12","","<img src=""img/red-n.png"" border=""10"">","null","trial","null","","0.2,0.8","4:nogo_d","0",""
"null","","html-keyboard-response","258","2608709","0.0-6.0-2.12","","<div style=""font-size:60px;"">+</div>","null","","","","","","",""
"null","","image-keyboard-response","259","2610215","0.0-6.0-0.13","","img/pink.png","null","trial","null","true","0.2,0.8","2:nogo_b","",""
"null","","html-keyboard-response","260","2611219","0.0-6.0-1.13","","<img src=""img/pink-r.png"">","null","trial","null","","0.2,0.8","2:nogo_b","1",""
"null","","html-keyboard-response","261","2612222","0.0-6.0-2.13","","<div style=""font-size:60px;"">+</div>","null","","","","","","",""
"null","","image-keyboard-response","262","2613724","0.0-6.0-0.14","","img/yellow.png","null","trial","32","false","0.8,0.2","3:go_c","",""
"null","","html-keyboard-response","263","2614730","0.0-6.0-1.14","","<img src=""img/yellow-n.png"">","null","trial","32","","0.8,0.2","3:go_c","0",""
"null","","html-keyboard-response","264","2615730","0.0-6.0-2.14","","<div style=""font-size:60px;"">+</div>","null","","","","","","",""
"758.4700000006706","","image-keyboard-response","265","2616490","0.0-6.0-0.15","","img/green.png","32","trial","32","true","0.8,0.2","1:go_a","",""
"null","","html-keyboard-response","266","2617494","0.0-6.0-1.15","","<img src=""img/green-n.png"" border=""10"">","null","trial","32","","0.8,0.2","1:go_a","0",""
"null","","html-keyboard-response","267","2618499","0.0-6.0-2.15","","<div style=""font-size:60px;"">+</div>","null","","","","","","",""
"937.0200000051409","","image-keyboard-response","268","2619437","0.0-6.0-0.16","","img/green.png","32","trial","32","true","0.8,0.2","1:go_a","",""
"null","","html-keyboard-response","269","2620443","0.0-6.0-1.16","","<img src=""img/green-r.png"" border=""10"">","null","trial","32","","0.8,0.2","1:go_a","1",""
"null","","html-keyboard-response","270","2621445","0.0-6.0-2.16","","<div style=""font-size:60px;"">+</div>","null","","","","","","",""
"null","","image-keyboard-response","271","2622951","0.0-6.0-0.17","","img/red.png","null","trial","null","true","0.2,0.8","4:nogo_d","",""
"null","","html-keyboard-response","272","2623954","0.0-6.0-1.17","","<img src=""img/red-r.png"">","null","trial","null","","0.2,0.8","4:nogo_d","1",""
"null","","html-keyboard-response","273","2624954","0.0-6.0-2.17","","<div style=""font-size:60px;"">+</div>","null","","","","","","",""
"804.6849999953993","","image-keyboard-response","274","2625759","0.0-6.0-0.18","","img/pink.png","32","trial","null","false","0.2,0.8","2:nogo_b","",""
"null","","html-keyboard-response","275","2626765","0.0-6.0-1.18","","<img src=""img/pink-n.png"" border=""10"">","null","trial","null","","0.2,0.8","2:nogo_b","0",""
"null","","html-keyboard-response","276","2627771","0.0-6.0-2.18","","<div style=""font-size:60px;"">+</div>","null","","","","","","",""
"null","","image-keyboard-response","277","2629274","0.0-6.0-0.19","","img/yellow.png","null","trial","32","false","0.8,0.2","3:go_c","",""
"null","","html-keyboard-response","278","2630278","0.0-6.0-1.19","","<img src=""img/yellow-n.png"">","null","trial","32","","0.8,0.2","3:go_c","0",""
"null","","html-keyboard-response","279","2631282","0.0-6.0-2.19","","<div style=""font-size:60px;"">+</div>","null","","","","","","",""
"1114.0950000043958","","image-keyboard-response","280","2632397","0.0-6.0-0.20","","img/pink.png","32","trial","null","false","0.2,0.8","2:nogo_b","",""
"null","","html-keyboard-response","281","2633400","0.0-6.0-1.20","","<img src=""img/pink-n.png"" border=""10"">","null","trial","null","","0.2,0.8","2:nogo_b","0",""
"null","","html-keyboard-response","282","2634404","0.0-6.0-2.20","","<div style=""font-size:60px;"">+</div>","null","","","","","","",""
"568.14000000339","","image-keyboard-response","283","2634973","0.0-6.0-0.21","","img/red.png","32","trial","null","false","0.2,0.8","4:nogo_d","",""
"null","","html-keyboard-response","284","2635978","0.0-6.0-1.21","","<img src=""img/red-r.png"" border=""10"">","null","trial","null","","0.2,0.8","4:nogo_d","1",""
"null","","html-keyboard-response","285","2636980","0.0-6.0-2.21","","<div style=""font-size:60px;"">+</div>","null","","","","","","",""
"590.9249999970198","","image-keyboard-response","286","2637572","0.0-6.0-0.22","","img/green.png","32","trial","32","true","0.8,0.2","1:go_a","",""
"null","","html-keyboard-response","287","2638577","0.0-6.0-1.22","","<img src=""img/green-r.png"" border=""10"">","null","trial","32","","0.8,0.2","1:go_a","1",""
"null","","html-keyboard-response","288","2639581","0.0-6.0-2.22","","<div style=""font-size:60px;"">+</div>","null","","","","","","",""
"null","","image-keyboard-response","289","2641087","0.0-6.0-0.23","","img/yellow.png","null","trial","32","false","0.8,0.2","3:go_c","",""
"null","","html-keyboard-response","290","2642091","0.0-6.0-1.23","","<img src=""img/yellow-n.png"">","null","trial","32","","0.8,0.2","3:go_c","0",""
"null","","html-keyboard-response","291","2643094","0.0-6.0-2.23","","<div style=""font-size:60px;"">+</div>","null","","","","","","",""
"574.9050000011921","","image-keyboard-response","292","2643669","0.0-6.0-0.24","","img/green.png","32","trial","32","true","0.8,0.2","1:go_a","",""
"null","","html-keyboard-response","293","2644675","0.0-6.0-1.24","","<img src=""img/green-r.png"" border=""10"">","null","trial","32","","0.8,0.2","1:go_a","1",""
"null","","html-keyboard-response","294","2645681","0.0-6.0-2.24","","<div style=""font-size:60px;"">+</div>","null","","","","","","",""
"null","","image-keyboard-response","295","2647187","0.0-6.0-0.25","","img/yellow.png","null","trial","32","false","0.8,0.2","3:go_c","",""
"null","","html-keyboard-response","296","2648188","0.0-6.0-1.25","","<img src=""img/yellow-n.png"">","null","trial","32","","0.8,0.2","3:go_c","0",""
"null","","html-keyboard-response","297","2649191","0.0-6.0-2.25","","<div style=""font-size:60px;"">+</div>","null","","","","","","",""
"null","","image-keyboard-response","298","2650696","0.0-6.0-0.26","","img/pink.png","null","trial","null","true","0.2,0.8","2:nogo_b","",""
"null","","html-keyboard-response","299","2651700","0.0-6.0-1.26","","<img src=""img/pink-r.png"">","null","trial","null","","0.2,0.8","2:nogo_b","1",""
"null","","html-keyboard-response","300","2652703","0.0-6.0-2.26","","<div style=""font-size:60px;"">+</div>","null","","","","","","",""
"573.285000005737","","image-keyboard-response","301","2653277","0.0-6.0-0.27","","img/red.png","32","trial","null","false","0.2,0.8","4:nogo_d","",""
"null","","html-keyboard-response","302","2654283","0.0-6.0-1.27","","<img src=""img/red-r.png"" border=""10"">","null","trial","null","","0.2,0.8","4:nogo_d","1",""
"null","","html-keyboard-response","303","2655285","0.0-6.0-2.27","","<div style=""font-size:60px;"">+</div>","null","","","","","","",""
"null","","image-keyboard-response","304","2656790","0.0-6.0-0.28","","img/yellow.png","null","trial","32","false","0.8,0.2","3:go_c","",""
"null","","html-keyboard-response","305","2657795","0.0-6.0-1.28","","<img src=""img/yellow-r.png"">","null","trial","32","","0.8,0.2","3:go_c","1",""
"null","","html-keyboard-response","306","2658795","0.0-6.0-2.28","","<div style=""font-size:60px;"">+</div>","null","","","","","","",""
"680.3700000019744","","image-keyboard-response","307","2659476","0.0-6.0-0.29","","img/green.png","32","trial","32","true","0.8,0.2","1:go_a","",""
"null","","html-keyboard-response","308","2660479","0.0-6.0-1.29","","<img src=""img/green-n.png"" border=""10"">","null","trial","32","","0.8,0.2","1:go_a","0",""
"null","","html-keyboard-response","309","2661481","0.0-6.0-2.29","","<div style=""font-size:60px;"">+</div>","null","","","","","","",""
"649.3149999948218","","image-keyboard-response","310","2662131","0.0-6.0-0.30","","img/red.png","32","trial","null","false","0.2,0.8","4:nogo_d","",""
"null","","html-keyboard-response","311","2663137","0.0-6.0-1.30","","<img src=""img/red-r.png"" border=""10"">","null","trial","null","","0.2,0.8","4:nogo_d","1",""
"null","","html-keyboard-response","312","2664143","0.0-6.0-2.30","","<div style=""font-size:60px;"">+</div>","null","","","","","","",""
"698.5900000003166","","image-keyboard-response","313","2664842","0.0-6.0-0.31","","img/pink.png","32","trial","null","false","0.2,0.8","2:nogo_b","",""
"null","","html-keyboard-response","314","2665848","0.0-6.0-1.31","","<img src=""img/pink-n.png"" border=""10"">","null","trial","null","","0.2,0.8","2:nogo_b","0",""
"null","","html-keyboard-response","315","2666852","0.0-6.0-2.31","","<div style=""font-size:60px;"">+</div>","null","","","","","","",""
"768.4250000016764","","image-keyboard-response","316","2667621","0.0-6.0-0.32","","img/red.png","32","trial","null","false","0.2,0.8","4:nogo_d","",""
"null","","html-keyboard-response","317","2668627","0.0-6.0-1.32","","<img src=""img/red-n.png"" border=""10"">","null","trial","null","","0.2,0.8","4:nogo_d","0",""
"null","","html-keyboard-response","318","2669630","0.0-6.0-2.32","","<div style=""font-size:60px;"">+</div>","null","","","","","","",""
"null","","image-keyboard-response","319","2671131","0.0-6.0-0.33","","img/yellow.png","null","trial","32","false","0.8,0.2","3:go_c","",""
"null","","html-keyboard-response","320","2672135","0.0-6.0-1.33","","<img src=""img/yellow-r.png"">","null","trial","32","","0.8,0.2","3:go_c","1",""
"null","","html-keyboard-response","321","2673139","0.0-6.0-2.33","","<div style=""font-size:60px;"">+</div>","null","","","","","","",""
"466.33000000333413","","image-keyboard-response","322","2673606","0.0-6.0-0.34","","img/green.png","32","trial","32","true","0.8,0.2","1:go_a","",""
"null","","html-keyboard-response","323","2674607","0.0-6.0-1.34","","<img src=""img/green-r.png"" border=""10"">","null","trial","32","","0.8,0.2","1:go_a","1",""
"null","","html-keyboard-response","324","2675608","0.0-6.0-2.34","","<div style=""font-size:60px;"">+</div>","null","","","","","","",""
"null","","image-keyboard-response","325","2677111","0.0-6.0-0.35","","img/pink.png","null","trial","null","true","0.2,0.8","2:nogo_b","",""
"null","","html-keyboard-response","326","2678115","0.0-6.0-1.35","","<img src=""img/pink-r.png"">","null","trial","null","","0.2,0.8","2:nogo_b","1",""
"null","","html-keyboard-response","327","2679118","0.0-6.0-2.35","","<div style=""font-size:60px;"">+</div>","null","","","","","","",""
"708.8149999980815","","image-keyboard-response","328","2679827","0.0-6.0-0.36","","img/green.png","32","trial","32","true","0.8,0.2","1:go_a","",""
"null","","html-keyboard-response","329","2680832","0.0-6.0-1.36","","<img src=""img/green-r.png"" border=""10"">","null","trial","32","","0.8,0.2","1:go_a","1",""
"null","","html-keyboard-response","330","2681837","0.0-6.0-2.36","","<div style=""font-size:60px;"">+</div>","null","","","","","","",""
"677.6249999967404","","image-keyboard-response","331","2682516","0.0-6.0-0.37","","img/red.png","32","trial","null","false","0.2,0.8","4:nogo_d","",""
"null","","html-keyboard-response","332","2683521","0.0-6.0-1.37","","<img src=""img/red-n.png"" border=""10"">","null","trial","null","","0.2,0.8","4:nogo_d","0",""
"null","","html-keyboard-response","333","2684524","0.0-6.0-2.37","","<div style=""font-size:60px;"">+</div>","null","","","","","","",""
"938.5350000010803","","image-keyboard-response","334","2685463","0.0-6.0-0.38","","img/pink.png","32","trial","null","false","0.2,0.8","2:nogo_b","",""
"null","","html-keyboard-response","335","2686466","0.0-6.0-1.38","","<img src=""img/pink-n.png"" border=""10"">","null","trial","null","","0.2,0.8","2:nogo_b","0",""
"null","","html-keyboard-response","336","2687466","0.0-6.0-2.38","","<div style=""font-size:60px;"">+</div>","null","","","","","","",""
"1191.5000000009313","","image-keyboard-response","337","2688658","0.0-6.0-0.39","","img/yellow.png","32","trial","32","true","0.8,0.2","3:go_c","",""
"null","","html-keyboard-response","338","2689661","0.0-6.0-1.39","","<img src=""img/yellow-r.png"" border=""10"">","null","trial","32","","0.8,0.2","3:go_c","1",""
"null","","html-keyboard-response","339","2690667","0.0-6.0-2.39","","<div style=""font-size:60px;"">+</div>","null","","","","","","",""
"null","","image-keyboard-response","340","2692169","0.0-6.0-0.40","","img/pink.png","null","trial","null","true","0.2,0.8","2:nogo_b","",""
"null","","html-keyboard-response","341","2693174","0.0-6.0-1.40","","<img src=""img/pink-r.png"">","null","trial","null","","0.2,0.8","2:nogo_b","1",""
"null","","html-keyboard-response","342","2694177","0.0-6.0-2.40","","<div style=""font-size:60px;"">+</div>","null","","","","","","",""
"null","","image-keyboard-response","343","2695683","0.0-6.0-0.41","","img/red.png","null","trial","null","true","0.2,0.8","4:nogo_d","",""
"null","","html-keyboard-response","344","2696687","0.0-6.0-1.41","","<img src=""img/red-r.png"">","null","trial","null","","0.2,0.8","4:nogo_d","1",""
"null","","html-keyboard-response","345","2697690","0.0-6.0-2.41","","<div style=""font-size:60px;"">+</div>","null","","","","","","",""
"632.4049999965355","","image-keyboard-response","346","2698323","0.0-6.0-0.42","","img/green.png","32","trial","32","true","0.8,0.2","1:go_a","",""
"null","","html-keyboard-response","347","2699324","0.0-6.0-1.42","","<img src=""img/green-r.png"" border=""10"">","null","trial","32","","0.8,0.2","1:go_a","1",""
"null","","html-keyboard-response","348","2700324","0.0-6.0-2.42","","<div style=""font-size:60px;"">+</div>","null","","","","","","",""
"1158.309999998659","","image-keyboard-response","349","2701483","0.0-6.0-0.43","","img/yellow.png","32","trial","32","true","0.8,0.2","3:go_c","",""
"null","","html-keyboard-response","350","2702484","0.0-6.0-1.43","","<img src=""img/yellow-r.png"" border=""10"">","null","trial","32","","0.8,0.2","3:go_c","1",""
"null","","html-keyboard-response","351","2703487","0.0-6.0-2.43","","<div style=""font-size:60px;"">+</div>","null","","","","","","",""
"886.7099999990314","","image-keyboard-response","352","2704375","0.0-6.0-0.44","","img/pink.png","32","trial","null","false","0.2,0.8","2:nogo_b","",""
"null","","html-keyboard-response","353","2705378","0.0-6.0-1.44","","<img src=""img/pink-n.png"" border=""10"">","null","trial","null","","0.2,0.8","2:nogo_b","0",""
"null","","html-keyboard-response","354","2706381","0.0-6.0-2.44","","<div style=""font-size:60px;"">+</div>","null","","","","","","",""
"692.7849999992177","","image-keyboard-response","355","2707075","0.0-6.0-0.45","","img/yellow.png","32","trial","32","true","0.8,0.2","3:go_c","",""
"null","","html-keyboard-response","356","2708080","0.0-6.0-1.45","","<img src=""img/yellow-r.png"" border=""10"">","null","trial","32","","0.8,0.2","3:go_c","1",""
"null","","html-keyboard-response","357","2709081","0.0-6.0-2.45","","<div style=""font-size:60px;"">+</div>","null","","","","","","",""
"726.4799999976531","","image-keyboard-response","358","2709808","0.0-6.0-0.46","","img/green.png","32","trial","32","true","0.8,0.2","1:go_a","",""
"null","","html-keyboard-response","359","2710814","0.0-6.0-1.46","","<img src=""img/green-r.png"" border=""10"">","null","trial","32","","0.8,0.2","1:go_a","1",""
"null","","html-keyboard-response","360","2711817","0.0-6.0-2.46","","<div style=""font-size:60px;"">+</div>","null","","","","","","",""
"499.605000004638","","image-keyboard-response","361","2712317","0.0-6.0-0.47","","img/red.png","32","trial","null","false","0.2,0.8","4:nogo_d","",""
"null","","html-keyboard-response","362","2713323","0.0-6.0-1.47","","<img src=""img/red-n.png"" border=""10"">","null","trial","null","","0.2,0.8","4:nogo_d","0",""
"null","","html-keyboard-response","363","2714328","0.0-6.0-2.47","","<div style=""font-size:60px;"">+</div>","null","","","","","","",""
"643.0749999997206","","image-keyboard-response","364","2714972","0.0-6.0-0.48","","img/pink.png","32","trial","null","false","0.2,0.8","2:nogo_b","",""
"null","","html-keyboard-response","365","2715978","0.0-6.0-1.48","","<img src=""img/pink-n.png"" border=""10"">","null","trial","null","","0.2,0.8","2:nogo_b","0",""
"null","","html-keyboard-response","366","2716982","0.0-6.0-2.48","","<div style=""font-size:60px;"">+</div>","null","","","","","","",""
"497.79999999748543","","image-keyboard-response","367","2717481","0.0-6.0-0.49","","img/yellow.png","32","trial","32","true","0.8,0.2","3:go_c","",""
"null","","html-keyboard-response","368","2718484","0.0-6.0-1.49","","<img src=""img/yellow-r.png"" border=""10"">","null","trial","32","","0.8,0.2","3:go_c","1",""
"null","","html-keyboard-response","369","2719488","0.0-6.0-2.49","","<div style=""font-size:60px;"">+</div>","null","","","","","","",""
"null","","image-keyboard-response","370","2720990","0.0-6.0-0.50","","img/red.png","null","trial","null","true","0.2,0.8","4:nogo_d","",""
"null","","html-keyboard-response","371","2721994","0.0-6.0-1.50","","<img src=""img/red-r.png"">","null","trial","null","","0.2,0.8","4:nogo_d","1",""
"null","","html-keyboard-response","372","2722997","0.0-6.0-2.50","","<div style=""font-size:60px;"">+</div>","null","","","","","","",""
"637.0999999996275","","image-keyboard-response","373","2723635","0.0-6.0-0.51","","img/green.png","32","trial","32","true","0.8,0.2","1:go_a","",""
"null","","html-keyboard-response","374","2724641","0.0-6.0-1.51","","<img src=""img/green-n.png"" border=""10"">","null","trial","32","","0.8,0.2","1:go_a","0",""
"null","","html-keyboard-response","375","2725642","0.0-6.0-2.51","","<div style=""font-size:60px;"">+</div>","null","","","","","","",""
"null","","image-keyboard-response","376","2727144","0.0-6.0-0.52","","img/pink.png","null","trial","null","true","0.2,0.8","2:nogo_b","",""
"null","","html-keyboard-response","377","2728145","0.0-6.0-1.52","","<img src=""img/pink-r.png"">","null","trial","null","","0.2,0.8","2:nogo_b","1",""
"null","","html-keyboard-response","378","2729151","0.0-6.0-2.52","","<div style=""font-size:60px;"">+</div>","null","","","","","","",""
"524.2399999988265","","image-keyboard-response","379","2729676","0.0-6.0-0.53","","img/yellow.png","32","trial","32","true","0.8,0.2","3:go_c","",""
"null","","html-keyboard-response","380","2730679","0.0-6.0-1.53","","<img src=""img/yellow-r.png"" border=""10"">","null","trial","32","","0.8,0.2","3:go_c","1",""
"null","","html-keyboard-response","381","2731681","0.0-6.0-2.53","","<div style=""font-size:60px;"">+</div>","null","","","","","","",""
"536.7550000008196","","image-keyboard-response","382","2732218","0.0-6.0-0.54","","img/green.png","32","trial","32","true","0.8,0.2","1:go_a","",""
"null","","html-keyboard-response","383","2733225","0.0-6.0-1.54","","<img src=""img/green-r.png"" border=""10"">","null","trial","32","","0.8,0.2","1:go_a","1",""
"null","","html-keyboard-response","384","2734226","0.0-6.0-2.54","","<div style=""font-size:60px;"">+</div>","null","","","","","","",""
"512.555000001099","","image-keyboard-response","385","2734739","0.0-6.0-0.55","","img/red.png","32","trial","null","false","0.2,0.8","4:nogo_d","",""
"null","","html-keyboard-response","386","2735742","0.0-6.0-1.55","","<img src=""img/red-n.png"" border=""10"">","null","trial","null","","0.2,0.8","4:nogo_d","0",""
"null","","html-keyboard-response","387","2736748","0.0-6.0-2.55","","<div style=""font-size:60px;"">+</div>","null","","","","","","",""
"802.2700000004843","","image-keyboard-response","388","2737551","0.0-6.0-0.56","","img/red.png","32","trial","null","false","0.2,0.8","4:nogo_d","",""
"null","","html-keyboard-response","389","2738552","0.0-6.0-1.56","","<img src=""img/red-r.png"" border=""10"">","null","trial","null","","0.2,0.8","4:nogo_d","1",""
"null","","html-keyboard-response","390","2739553","0.0-6.0-2.56","","<div style=""font-size:60px;"">+</div>","null","","","","","","",""
"730.5449999985285","","image-keyboard-response","391","2740285","0.0-6.0-0.57","","img/pink.png","32","trial","null","false","0.2,0.8","2:nogo_b","",""
"null","","html-keyboard-response","392","2741288","0.0-6.0-1.57","","<img src=""img/pink-n.png"" border=""10"">","null","trial","null","","0.2,0.8","2:nogo_b","0",""
"null","","html-keyboard-response","393","2742289","0.0-6.0-2.57","","<div style=""font-size:60px;"">+</div>","null","","","","","","",""
"571.6800000006333","","image-keyboard-response","394","2742861","0.0-6.0-0.58","","img/green.png","32","trial","32","true","0.8,0.2","1:go_a","",""
"null","","html-keyboard-response","395","2743867","0.0-6.0-1.58","","<img src=""img/green-r.png"" border=""10"">","null","trial","32","","0.8,0.2","1:go_a","1",""
"null","","html-keyboard-response","396","2744870","0.0-6.0-2.58","","<div style=""font-size:60px;"">+</div>","null","","","","","","",""
"758.3200000012293","","image-keyboard-response","397","2745629","0.0-6.0-0.59","","img/yellow.png","32","trial","32","true","0.8,0.2","3:go_c","",""
"null","","html-keyboard-response","398","2746632","0.0-6.0-1.59","","<img src=""img/yellow-r.png"" border=""10"">","null","trial","32","","0.8,0.2","3:go_c","1",""
"null","","html-keyboard-response","399","2747638","0.0-6.0-2.59","","<div style=""font-size:60px;"">+</div>","null","","","","","","",""
"881.4799999962561","","image-keyboard-response","400","2748520","0.0-6.0-0.60","","img/green.png","32","trial","32","true","0.8,0.2","1:go_a","",""
"null","","html-keyboard-response","401","2749526","0.0-6.0-1.60","","<img src=""img/green-r.png"" border=""10"">","null","trial","32","","0.8,0.2","1:go_a","1",""
"null","","html-keyboard-response","402","2750527","0.0-6.0-2.60","","<div style=""font-size:60px;"">+</div>","null","","","","","","",""
"748.749999998603","","image-keyboard-response","403","2751276","0.0-6.0-0.61","","img/yellow.png","32","trial","32","true","0.8,0.2","3:go_c","",""
"null","","html-keyboard-response","404","2752279","0.0-6.0-1.61","","<img src=""img/yellow-n.png"" border=""10"">","null","trial","32","","0.8,0.2","3:go_c","0",""
"null","","html-keyboard-response","405","2753282","0.0-6.0-2.61","","<div style=""font-size:60px;"">+</div>","null","","","","","","",""
"727.3999999961816","","image-keyboard-response","406","2754010","0.0-6.0-0.62","","img/pink.png","32","trial","null","false","0.2,0.8","2:nogo_b","",""
"null","","html-keyboard-response","407","2755013","0.0-6.0-1.62","","<img src=""img/pink-n.png"" border=""10"">","null","trial","null","","0.2,0.8","2:nogo_b","0",""
"null","","html-keyboard-response","408","2756014","0.0-6.0-2.62","","<div style=""font-size:60px;"">+</div>","null","","","","","","",""
"560.6750000002794","","image-keyboard-response","409","2756575","0.0-6.0-0.63","","img/red.png","32","trial","null","false","0.2,0.8","4:nogo_d","",""
"null","","html-keyboard-response","410","2757576","0.0-6.0-1.63","","<img src=""img/red-n.png"" border=""10"">","null","trial","null","","0.2,0.8","4:nogo_d","0",""
"null","","html-keyboard-response","411","2758579","0.0-6.0-2.63","","<div style=""font-size:60px;"">+</div>","null","","","","","","",""
"447.5249999961816","","image-keyboard-response","412","2759027","0.0-6.0-0.64","","img/yellow.png","32","trial","32","true","0.8,0.2","3:go_c","",""
"null","","html-keyboard-response","413","2760032","0.0-6.0-1.64","","<img src=""img/yellow-r.png"" border=""10"">","null","trial","32","","0.8,0.2","3:go_c","1",""
"null","","html-keyboard-response","414","2761034","0.0-6.0-2.64","","<div style=""font-size:60px;"">+</div>","null","","","","","","",""
"692.7649999996647","","image-keyboard-response","415","2761727","0.0-6.0-0.65","","img/green.png","32","trial","32","true","0.8,0.2","1:go_a","",""
"null","","html-keyboard-response","416","2762729","0.0-6.0-1.65","","<img src=""img/green-r.png"" border=""10"">","null","trial","32","","0.8,0.2","1:go_a","1",""
"null","","html-keyboard-response","417","2763732","0.0-6.0-2.65","","<div style=""font-size:60px;"">+</div>","null","","","","","","",""
"458.8599999989383","","image-keyboard-response","418","2764191","0.0-6.0-0.66","","img/red.png","32","trial","null","false","0.2,0.8","4:nogo_d","",""
"null","","html-keyboard-response","419","2765196","0.0-6.0-1.66","","<img src=""img/red-n.png"" border=""10"">","null","trial","null","","0.2,0.8","4:nogo_d","0",""
"null","","html-keyboard-response","420","2766201","0.0-6.0-2.66","","<div style=""font-size:60px;"">+</div>","null","","","","","","",""
"767.8300000042655","","image-keyboard-response","421","2766970","0.0-6.0-0.67","","img/pink.png","32","trial","null","false","0.2,0.8","2:nogo_b","",""
"null","","html-keyboard-response","422","2767973","0.0-6.0-1.67","","<img src=""img/pink-n.png"" border=""10"">","null","trial","null","","0.2,0.8","2:nogo_b","0",""
"null","","html-keyboard-response","423","2768974","0.0-6.0-2.67","","<div style=""font-size:60px;"">+</div>","null","","","","","","",""
"852.2250000024214","","image-keyboard-response","424","2769827","0.0-6.0-0.68","","img/pink.png","32","trial","null","false","0.2,0.8","2:nogo_b","",""
"null","","html-keyboard-response","425","2770831","0.0-6.0-1.68","","<img src=""img/pink-n.png"" border=""10"">","null","trial","null","","0.2,0.8","2:nogo_b","0",""
"null","","html-keyboard-response","426","2771832","0.0-6.0-2.68","","<div style=""font-size:60px;"">+</div>","null","","","","","","",""
"503.0449999975972","","image-keyboard-response","427","2772336","0.0-6.0-0.69","","img/red.png","32","trial","null","false","0.2,0.8","4:nogo_d","",""
"null","","html-keyboard-response","428","2773338","0.0-6.0-1.69","","<img src=""img/red-n.png"" border=""10"">","null","trial","null","","0.2,0.8","4:nogo_d","0",""
"null","","html-keyboard-response","429","2774341","0.0-6.0-2.69","","<div style=""font-size:60px;"">+</div>","null","","","","","","",""
"436.14499999955297","","image-keyboard-response","430","2774777","0.0-6.0-0.70","","img/green.png","32","trial","32","true","0.8,0.2","1:go_a","",""
"null","","html-keyboard-response","431","2775779","0.0-6.0-1.70","","<img src=""img/green-r.png"" border=""10"">","null","trial","32","","0.8,0.2","1:go_a","1",""
"null","","html-keyboard-response","432","2776780","0.0-6.0-2.70","","<div style=""font-size:60px;"">+</div>","null","","","","","","",""
"460.5250000022352","","image-keyboard-response","433","2777241","0.0-6.0-0.71","","img/yellow.png","32","trial","32","true","0.8,0.2","3:go_c","",""
"null","","html-keyboard-response","434","2778247","0.0-6.0-1.71","","<img src=""img/yellow-r.png"" border=""10"">","null","trial","32","","0.8,0.2","3:go_c","1",""
"null","","html-keyboard-response","435","2779248","0.0-6.0-2.71","","<div style=""font-size:60px;"">+</div>","null","","","","","","",""
"681.6150000016205","","image-keyboard-response","436","2779930","0.0-6.0-0.72","","img/yellow.png","32","trial","32","true","0.8,0.2","3:go_c","",""
"null","","html-keyboard-response","437","2780931","0.0-6.0-1.72","","<img src=""img/yellow-n.png"" border=""10"">","null","trial","32","","0.8,0.2","3:go_c","0",""
"null","","html-keyboard-response","438","2781934","0.0-6.0-2.72","","<div style=""font-size:60px;"">+</div>","null","","","","","","",""
"482.36500000348315","","image-keyboard-response","439","2782417","0.0-6.0-0.73","","img/green.png","32","trial","32","true","0.8,0.2","1:go_a","",""
"null","","html-keyboard-response","440","2783420","0.0-6.0-1.73","","<img src=""img/green-r.png"" border=""10"">","null","trial","32","","0.8,0.2","1:go_a","1",""
"null","","html-keyboard-response","441","2784423","0.0-6.0-2.73","","<div style=""font-size:60px;"">+</div>","null","","","","","","",""
"467.3800000017509","","image-keyboard-response","442","2784891","0.0-6.0-0.74","","img/pink.png","32","trial","null","false","0.2,0.8","2:nogo_b","",""
"null","","html-keyboard-response","443","2785897","0.0-6.0-1.74","","<img src=""img/pink-n.png"" border=""10"">","null","trial","null","","0.2,0.8","2:nogo_b","0",""
"null","","html-keyboard-response","444","2786900","0.0-6.0-2.74","","<div style=""font-size:60px;"">+</div>","null","","","","","","",""
"746.5299999965355","","image-keyboard-response","445","2787648","0.0-6.0-0.75","","img/red.png","32","trial","null","false","0.2,0.8","4:nogo_d","",""
"null","","html-keyboard-response","446","2788654","0.0-6.0-1.75","","<img src=""img/red-n.png"" border=""10"">","null","trial","null","","0.2,0.8","4:nogo_d","0",""
"null","","html-keyboard-response","447","2789655","0.0-6.0-2.75","","<div style=""font-size:60px;"">+</div>","null","","","","","","",""
"894.4799999953248","","image-keyboard-response","448","2790550","0.0-6.0-0.76","","img/pink.png","32","trial","null","false","0.2,0.8","2:nogo_b","",""
"null","","html-keyboard-response","449","2791556","0.0-6.0-1.76","","<img src=""img/pink-r.png"" border=""10"">","null","trial","null","","0.2,0.8","2:nogo_b","1",""
"null","","html-keyboard-response","450","2792558","0.0-6.0-2.76","","<div style=""font-size:60px;"">+</div>","null","","","","","","",""
"702.5700000012293","","image-keyboard-response","451","2793261","0.0-6.0-0.77","","img/red.png","32","trial","null","false","0.2,0.8","4:nogo_d","",""
"null","","html-keyboard-response","452","2794263","0.0-6.0-1.77","","<img src=""img/red-n.png"" border=""10"">","null","trial","null","","0.2,0.8","4:nogo_d","0",""
"null","","html-keyboard-response","453","2795266","0.0-6.0-2.77","","<div style=""font-size:60px;"">+</div>","null","","","","","","",""
"660.7950000031851","","image-keyboard-response","454","2795927","0.0-6.0-0.78","","img/yellow.png","32","trial","32","true","0.8,0.2","3:go_c","",""
"null","","html-keyboard-response","455","2796933","0.0-6.0-1.78","","<img src=""img/yellow-r.png"" border=""10"">","null","trial","32","","0.8,0.2","3:go_c","1",""
"null","","html-keyboard-response","456","2797939","0.0-6.0-2.78","","<div style=""font-size:60px;"">+</div>","null","","","","","","",""
"710.4499999987893","","image-keyboard-response","457","2798650","0.0-6.0-0.79","","img/green.png","32","trial","32","true","0.8,0.2","1:go_a","",""
"null","","html-keyboard-response","458","2799656","0.0-6.0-1.79","","<img src=""img/green-r.png"" border=""10"">","null","trial","32","","0.8,0.2","1:go_a","1",""
"null","","html-keyboard-response","459","2800659","0.0-6.0-2.79","","<div style=""font-size:60px;"">+</div>","null","","","","","","",""
"null","","image-keyboard-response","460","2802165","0.0-6.0-0.80","","img/pink.png","null","trial","null","true","0.2,0.8","2:nogo_b","",""
"null","","html-keyboard-response","461","2803168","0.0-6.0-1.80","","<img src=""img/pink-n.png"">","null","trial","null","","0.2,0.8","2:nogo_b","0",""
"null","","html-keyboard-response","462","2804171","0.0-6.0-2.80","","<div style=""font-size:60px;"">+</div>","null","","","","","","",""
"620.8249999983236","","image-keyboard-response","463","2804792","0.0-6.0-0.81","","img/green.png","32","trial","32","true","0.8,0.2","1:go_a","",""
"null","","html-keyboard-response","464","2805797","0.0-6.0-1.81","","<img src=""img/green-r.png"" border=""10"">","null","trial","32","","0.8,0.2","1:go_a","1",""
"null","","html-keyboard-response","465","2806801","0.0-6.0-2.81","","<div style=""font-size:60px;"">+</div>","null","","","","","","",""
"870.7399999988265","","image-keyboard-response","466","2807673","0.0-6.0-0.82","","img/red.png","32","trial","null","false","0.2,0.8","4:nogo_d","",""
"null","","html-keyboard-response","467","2808679","0.0-6.0-1.82","","<img src=""img/red-n.png"" border=""10"">","null","trial","null","","0.2,0.8","4:nogo_d","0",""
"null","","html-keyboard-response","468","2809685","0.0-6.0-2.82","","<div style=""font-size:60px;"">+</div>","null","","","","","","",""
"428.70999999996275","","image-keyboard-response","469","2810114","0.0-6.0-0.83","","img/yellow.png","32","trial","32","true","0.8,0.2","3:go_c","",""
"null","","html-keyboard-response","470","2811116","0.0-6.0-1.83","","<img src=""img/yellow-n.png"" border=""10"">","null","trial","32","","0.8,0.2","3:go_c","0",""
"null","","html-keyboard-response","471","2812122","0.0-6.0-2.83","","<div style=""font-size:60px;"">+</div>","null","","","","","","",""
"668.7050000037998","","image-keyboard-response","472","2812791","0.0-6.0-0.84","","img/red.png","32","trial","null","false","0.2,0.8","4:nogo_d","",""
"null","","html-keyboard-response","473","2813795","0.0-6.0-1.84","","<img src=""img/red-n.png"" border=""10"">","null","trial","null","","0.2,0.8","4:nogo_d","0",""
"null","","html-keyboard-response","474","2814801","0.0-6.0-2.84","","<div style=""font-size:60px;"">+</div>","null","","","","","","",""
"554.8850000048988","","image-keyboard-response","475","2815356","0.0-6.0-0.85","","img/yellow.png","32","trial","32","true","0.8,0.2","3:go_c","",""
"null","","html-keyboard-response","476","2816360","0.0-6.0-1.85","","<img src=""img/yellow-r.png"" border=""10"">","null","trial","32","","0.8,0.2","3:go_c","1",""
"null","","html-keyboard-response","477","2817363","0.0-6.0-2.85","","<div style=""font-size:60px;"">+</div>","null","","","","","","",""
"524.1400000015274","","image-keyboard-response","478","2817887","0.0-6.0-0.86","","img/green.png","32","trial","32","true","0.8,0.2","1:go_a","",""
"null","","html-keyboard-response","479","2818893","0.0-6.0-1.86","","<img src=""img/green-r.png"" border=""10"">","null","trial","32","","0.8,0.2","1:go_a","1",""
"null","","html-keyboard-response","480","2819894","0.0-6.0-2.86","","<div style=""font-size:60px;"">+</div>","null","","","","","","",""
"null","","image-keyboard-response","481","2821395","0.0-6.0-0.87","","img/pink.png","null","trial","null","true","0.2,0.8","2:nogo_b","",""
"null","","html-keyboard-response","482","2822399","0.0-6.0-1.87","","<img src=""img/pink-n.png"">","null","trial","null","","0.2,0.8","2:nogo_b","0",""
"null","","html-keyboard-response","483","2823402","0.0-6.0-2.87","","<div style=""font-size:60px;"">+</div>","null","","","","","","",""
"548.750000001397","","image-keyboard-response","484","2823951","0.0-6.0-0.88","","img/green.png","32","trial","32","true","0.8,0.2","1:go_a","",""
"null","","html-keyboard-response","485","2824957","0.0-6.0-1.88","","<img src=""img/green-r.png"" border=""10"">","null","trial","32","","0.8,0.2","1:go_a","1",""
"null","","html-keyboard-response","486","2825963","0.0-6.0-2.88","","<div style=""font-size:60px;"">+</div>","null","","","","","","",""
"null","","image-keyboard-response","487","2827466","0.0-6.0-0.89","","img/red.png","null","trial","null","true","0.2,0.8","4:nogo_d","",""
"null","","html-keyboard-response","488","2828470","0.0-6.0-1.89","","<img src=""img/red-r.png"">","null","trial","null","","0.2,0.8","4:nogo_d","1",""
"null","","html-keyboard-response","489","2829472","0.0-6.0-2.89","","<div style=""font-size:60px;"">+</div>","null","","","","","","",""
"587.0799999977462","","image-keyboard-response","490","2830060","0.0-6.0-0.90","","img/yellow.png","32","trial","32","true","0.8,0.2","3:go_c","",""
"null","","html-keyboard-response","491","2831066","0.0-6.0-1.90","","<img src=""img/yellow-r.png"" border=""10"">","null","trial","32","","0.8,0.2","3:go_c","1",""
"null","","html-keyboard-response","492","2832069","0.0-6.0-2.90","","<div style=""font-size:60px;"">+</div>","null","","","","","","",""
"null","","image-keyboard-response","493","2833574","0.0-6.0-0.91","","img/pink.png","null","trial","null","true","0.2,0.8","2:nogo_b","",""
"null","","html-keyboard-response","494","2834578","0.0-6.0-1.91","","<img src=""img/pink-r.png"">","null","trial","null","","0.2,0.8","2:nogo_b","1",""
"null","","html-keyboard-response","495","2835581","0.0-6.0-2.91","","<div style=""font-size:60px;"">+</div>","null","","","","","","",""
"564.6650000051595","","image-keyboard-response","496","2836146","0.0-6.0-0.92","","img/pink.png","32","trial","null","false","0.2,0.8","2:nogo_b","",""
"null","","html-keyboard-response","497","2837153","0.0-6.0-1.92","","<img src=""img/pink-n.png"" border=""10"">","null","trial","null","","0.2,0.8","2:nogo_b","0",""
"null","","html-keyboard-response","498","2838157","0.0-6.0-2.92","","<div style=""font-size:60px;"">+</div>","null","","","","","","",""
"610.2900000042282","","image-keyboard-response","499","2838768","0.0-6.0-0.93","","img/red.png","32","trial","null","false","0.2,0.8","4:nogo_d","",""
"null","","html-keyboard-response","500","2839769","0.0-6.0-1.93","","<img src=""img/red-n.png"" border=""10"">","null","trial","null","","0.2,0.8","4:nogo_d","0",""
"null","","html-keyboard-response","501","2840774","0.0-6.0-2.93","","<div style=""font-size:60px;"">+</div>","null","","","","","","",""
"490.1950000054203","","image-keyboard-response","502","2841265","0.0-6.0-0.94","","img/green.png","32","trial","32","true","0.8,0.2","1:go_a","",""
"null","","html-keyboard-response","503","2842271","0.0-6.0-1.94","","<img src=""img/green-r.png"" border=""10"">","null","trial","32","","0.8,0.2","1:go_a","1",""
"null","","html-keyboard-response","504","2843273","0.0-6.0-2.94","","<div style=""font-size:60px;"">+</div>","null","","","","","","",""
"669.1499999943189","","image-keyboard-response","505","2843942","0.0-6.0-0.95","","img/yellow.png","32","trial","32","true","0.8,0.2","3:go_c","",""
"null","","html-keyboard-response","506","2844944","0.0-6.0-1.95","","<img src=""img/yellow-r.png"" border=""10"">","null","trial","32","","0.8,0.2","3:go_c","1",""
"null","","html-keyboard-response","507","2845947","0.0-6.0-2.95","","<div style=""font-size:60px;"">+</div>","null","","","","","","",""
"null","","image-keyboard-response","508","2847448","0.0-6.0-0.96","","img/pink.png","null","trial","null","true","0.2,0.8","2:nogo_b","",""
"null","","html-keyboard-response","509","2848452","0.0-6.0-1.96","","<img src=""img/pink-n.png"">","null","trial","null","","0.2,0.8","2:nogo_b","0",""
"null","","html-keyboard-response","510","2849455","0.0-6.0-2.96","","<div style=""font-size:60px;"">+</div>","null","","","","","","",""
"630.0250000054948","","image-keyboard-response","511","2850085","0.0-6.0-0.97","","img/yellow.png","32","trial","32","true","0.8,0.2","3:go_c","",""
"null","","html-keyboard-response","512","2851091","0.0-6.0-1.97","","<img src=""img/yellow-r.png"" border=""10"">","null","trial","32","","0.8,0.2","3:go_c","1",""
"null","","html-keyboard-response","513","2852094","0.0-6.0-2.97","","<div style=""font-size:60px;"">+</div>","null","","","","","","",""
"678.9850000059232","","image-keyboard-response","514","2852774","0.0-6.0-0.98","","img/green.png","32","trial","32","true","0.8,0.2","1:go_a","",""
"null","","html-keyboard-response","515","2853780","0.0-6.0-1.98","","<img src=""img/green-r.png"" border=""10"">","null","trial","32","","0.8,0.2","1:go_a","1",""
"null","","html-keyboard-response","516","2854784","0.0-6.0-2.98","","<div style=""font-size:60px;"">+</div>","null","","","","","","",""
"542.4300000015646","","image-keyboard-response","517","2855328","0.0-6.0-0.99","","img/red.png","32","trial","null","false","0.2,0.8","4:nogo_d","",""
"null","","html-keyboard-response","518","2856333","0.0-6.0-1.99","","<img src=""img/red-n.png"" border=""10"">","null","trial","null","","0.2,0.8","4:nogo_d","0",""
"null","","html-keyboard-response","519","2857337","0.0-6.0-2.99","","<div style=""font-size:60px;"">+</div>","null","","","","","","",""
"null","","image-keyboard-response","520","2858843","0.0-6.0-0.100","","img/pink.png","null","trial","null","true","0.2,0.8","2:nogo_b","",""
"null","","html-keyboard-response","521","2859847","0.0-6.0-1.100","","<img src=""img/pink-r.png"">","null","trial","null","","0.2,0.8","2:nogo_b","1",""
"null","","html-keyboard-response","522","2860848","0.0-6.0-2.100","","<div style=""font-size:60px;"">+</div>","null","","","","","","",""
"542.6500000031665","","image-keyboard-response","523","2861392","0.0-6.0-0.101","","img/green.png","32","trial","32","true","0.8,0.2","1:go_a","",""
"null","","html-keyboard-response","524","2862398","0.0-6.0-1.101","","<img src=""img/green-r.png"" border=""10"">","null","trial","32","","0.8,0.2","1:go_a","1",""
"null","","html-keyboard-response","525","2863400","0.0-6.0-2.101","","<div style=""font-size:60px;"">+</div>","null","","","","","","",""
"477.41499999398366","","image-keyboard-response","526","2863878","0.0-6.0-0.102","","img/yellow.png","32","trial","32","true","0.8,0.2","3:go_c","",""
"null","","html-keyboard-response","527","2864884","0.0-6.0-1.102","","<img src=""img/yellow-r.png"" border=""10"">","null","trial","32","","0.8,0.2","3:go_c","1",""
"null","","html-keyboard-response","528","2865889","0.0-6.0-2.102","","<div style=""font-size:60px;"">+</div>","null","","","","","","",""
"null","","image-keyboard-response","529","2867394","0.0-6.0-0.103","","img/red.png","null","trial","null","true","0.2,0.8","4:nogo_d","",""
"null","","html-keyboard-response","530","2868400","0.0-6.0-1.103","","<img src=""img/red-r.png"">","null","trial","null","","0.2,0.8","4:nogo_d","1",""
"null","","html-keyboard-response","531","2869402","0.0-6.0-2.103","","<div style=""font-size:60px;"">+</div>","null","","","","","","",""
"595.2350000003353","","image-keyboard-response","532","2869998","0.0-6.0-0.104","","img/yellow.png","32","trial","32","true","0.8,0.2","3:go_c","",""
"null","","html-keyboard-response","533","2871004","0.0-6.0-1.104","","<img src=""img/yellow-r.png"" border=""10"">","null","trial","32","","0.8,0.2","3:go_c","1",""
"null","","html-keyboard-response","534","2872009","0.0-6.0-2.104","","<div style=""font-size:60px;"">+</div>","null","","","","","","",""
"598.2050000019372","","image-keyboard-response","535","2872608","0.0-6.0-0.105","","img/green.png","32","trial","32","true","0.8,0.2","1:go_a","",""
"null","","html-keyboard-response","536","2873610","0.0-6.0-1.105","","<img src=""img/green-r.png"" border=""10"">","null","trial","32","","0.8,0.2","1:go_a","1",""
"null","","html-keyboard-response","537","2874615","0.0-6.0-2.105","","<div style=""font-size:60px;"">+</div>","null","","","","","","",""
"null","","image-keyboard-response","538","2876121","0.0-6.0-0.106","","img/red.png","null","trial","null","true","0.2,0.8","4:nogo_d","",""
"null","","html-keyboard-response","539","2877127","0.0-6.0-1.106","","<img src=""img/red-r.png"">","null","trial","null","","0.2,0.8","4:nogo_d","1",""
"null","","html-keyboard-response","540","2878130","0.0-6.0-2.106","","<div style=""font-size:60px;"">+</div>","null","","","","","","",""
"664.5149999968708","","image-keyboard-response","541","2878795","0.0-6.0-0.107","","img/pink.png","32","trial","null","false","0.2,0.8","2:nogo_b","",""
"null","","html-keyboard-response","542","2879801","0.0-6.0-1.107","","<img src=""img/pink-n.png"" border=""10"">","null","trial","null","","0.2,0.8","2:nogo_b","0",""
"null","","html-keyboard-response","543","2880803","0.0-6.0-2.107","","<div style=""font-size:60px;"">+</div>","null","","","","","","",""
"500.4899999983609","","image-keyboard-response","544","2881304","0.0-6.0-0.108","","img/yellow.png","32","trial","32","true","0.8,0.2","3:go_c","",""
"null","","html-keyboard-response","545","2882305","0.0-6.0-1.108","","<img src=""img/yellow-r.png"" border=""10"">","null","trial","32","","0.8,0.2","3:go_c","1",""
"null","","html-keyboard-response","546","2883308","0.0-6.0-2.108","","<div style=""font-size:60px;"">+</div>","null","","","","","","",""
"526.7200000016019","","image-keyboard-response","547","2883835","0.0-6.0-0.109","","img/red.png","32","trial","null","false","0.2,0.8","4:nogo_d","",""
"null","","html-keyboard-response","548","2884839","0.0-6.0-1.109","","<img src=""img/red-r.png"" border=""10"">","null","trial","null","","0.2,0.8","4:nogo_d","1",""
"null","","html-keyboard-response","549","2885840","0.0-6.0-2.109","","<div style=""font-size:60px;"">+</div>","null","","","","","","",""
"683.3849999965169","","image-keyboard-response","550","2886524","0.0-6.0-0.110","","img/green.png","32","trial","32","true","0.8,0.2","1:go_a","",""
"null","","html-keyboard-response","551","2887525","0.0-6.0-1.110","","<img src=""img/green-r.png"" border=""10"">","null","trial","32","","0.8,0.2","1:go_a","1",""
"null","","html-keyboard-response","552","2888526","0.0-6.0-2.110","","<div style=""font-size:60px;"">+</div>","null","","","","","","",""
"null","","image-keyboard-response","553","2890028","0.0-6.0-0.111","","img/pink.png","null","trial","null","true","0.2,0.8","2:nogo_b","",""
"null","","html-keyboard-response","554","2891031","0.0-6.0-1.111","","<img src=""img/pink-r.png"">","null","trial","null","","0.2,0.8","2:nogo_b","1",""
"null","","html-keyboard-response","555","2892034","0.0-6.0-2.111","","<div style=""font-size:60px;"">+</div>","null","","","","","","",""
"666.1299999980256","","image-keyboard-response","556","2892701","0.0-6.0-0.112","","img/green.png","32","trial","32","true","0.8,0.2","1:go_a","",""
"null","","html-keyboard-response","557","2893707","0.0-6.0-1.112","","<img src=""img/green-r.png"" border=""10"">","null","trial","32","","0.8,0.2","1:go_a","1",""
"null","","html-keyboard-response","558","2894710","0.0-6.0-2.112","","<div style=""font-size:60px;"">+</div>","null","","","","","","",""
"859.210000002291","","image-keyboard-response","559","2895570","0.0-6.0-0.113","","img/pink.png","32","trial","null","false","0.2,0.8","2:nogo_b","",""
"null","","html-keyboard-response","560","2896576","0.0-6.0-1.113","","<img src=""img/pink-n.png"" border=""10"">","null","trial","null","","0.2,0.8","2:nogo_b","0",""
"null","","html-keyboard-response","561","2897581","0.0-6.0-2.113","","<div style=""font-size:60px;"">+</div>","null","","","","","","",""
"755.0750000011176","","image-keyboard-response","562","2898337","0.0-6.0-0.114","","img/red.png","32","trial","null","false","0.2,0.8","4:nogo_d","",""
"null","","html-keyboard-response","563","2899343","0.0-6.0-1.114","","<img src=""img/red-n.png"" border=""10"">","null","trial","null","","0.2,0.8","4:nogo_d","0",""
"null","","html-keyboard-response","564","2900346","0.0-6.0-2.114","","<div style=""font-size:60px;"">+</div>","null","","","","","","",""
"464.19999999459833","","image-keyboard-response","565","2900812","0.0-6.0-0.115","","img/yellow.png","32","trial","32","true","0.8,0.2","3:go_c","",""
"null","","html-keyboard-response","566","2901817","0.0-6.0-1.115","","<img src=""img/yellow-r.png"" border=""10"">","null","trial","32","","0.8,0.2","3:go_c","1",""
"null","","html-keyboard-response","567","2902820","0.0-6.0-2.115","","<div style=""font-size:60px;"">+</div>","null","","","","","","",""
"443.839999999851","","image-keyboard-response","568","2903264","0.0-6.0-0.116","","img/green.png","32","trial","32","true","0.8,0.2","1:go_a","",""
"null","","html-keyboard-response","569","2904270","0.0-6.0-1.116","","<img src=""img/green-r.png"" border=""10"">","null","trial","32","","0.8,0.2","1:go_a","1",""
"null","","html-keyboard-response","570","2905272","0.0-6.0-2.116","","<div style=""font-size:60px;"">+</div>","null","","","","","","",""
"736.7900000028312","","image-keyboard-response","571","2906009","0.0-6.0-0.117","","img/yellow.png","32","trial","32","true","0.8,0.2","3:go_c","",""
"null","","html-keyboard-response","572","2907015","0.0-6.0-1.117","","<img src=""img/yellow-r.png"" border=""10"">","null","trial","32","","0.8,0.2","3:go_c","1",""
"null","","html-keyboard-response","573","2908021","0.0-6.0-2.117","","<div style=""font-size:60px;"">+</div>","null","","","","","","",""
"1024.7799999993294","","image-keyboard-response","574","2909047","0.0-6.0-0.118","","img/pink.png","32","trial","null","false","0.2,0.8","2:nogo_b","",""
"null","","html-keyboard-response","575","2910050","0.0-6.0-1.118","","<img src=""img/pink-n.png"" border=""10"">","null","trial","null","","0.2,0.8","2:nogo_b","0",""
"null","","html-keyboard-response","576","2911052","0.0-6.0-2.118","","<div style=""font-size:60px;"">+</div>","null","","","","","","",""
"502.61000000312924","","image-keyboard-response","577","2911556","0.0-6.0-0.119","","img/red.png","32","trial","null","false","0.2,0.8","4:nogo_d","",""
"null","","html-keyboard-response","578","2912558","0.0-6.0-1.119","","<img src=""img/red-r.png"" border=""10"">","null","trial","null","","0.2,0.8","4:nogo_d","1",""
"null","","html-keyboard-response","579","2913560","0.0-6.0-2.119","","<div style=""font-size:60px;"">+</div>","null","","","","","","",""
"2419.7300000013784","","instructions","580","2915980","0.0-7.0","[{""page_index"":0,""viewing_time"":2419.5550000006333}]","","","","","","","","",""
"null","","image-keyboard-response","581","2917486","0.0-8.0-0.0","","img/red.png","null","trial","32","false","0.6,0.4","1:go_a","",""
"null","","html-keyboard-response","582","2918490","0.0-8.0-1.0","","<img src=""img/red-n.png"">","null","trial","32","","0.6,0.4","1:go_a","0",""
"null","","html-keyboard-response","583","2919493","0.0-8.0-2.0","","<div style=""font-size:60px;"">+</div>","null","","","","","","",""
"791.7449999949895","","image-keyboard-response","584","2920285","0.0-8.0-0.1","","img/orange.png","32","trial","null","false","0.4,0.6","2:nogo_b","",""
"null","","html-keyboard-response","585","2921291","0.0-8.0-1.1","","<img src=""img/orange-n.png"" border=""10"">","null","trial","null","","0.4,0.6","2:nogo_b","0",""
"null","","html-keyboard-response","586","2922296","0.0-8.0-2.1","","<div style=""font-size:60px;"">+</div>","null","","","","","","",""
"463.4250000016764","","image-keyboard-response","587","2922760","0.0-8.0-0.2","","img/green.png","32","trial","null","false","0.4,0.6","4:nogo_d","",""
"null","","html-keyboard-response","588","2923766","0.0-8.0-1.2","","<img src=""img/green-n.png"" border=""10"">","null","trial","null","","0.4,0.6","4:nogo_d","0",""
"null","","html-keyboard-response","589","2924768","0.0-8.0-2.2","","<div style=""font-size:60px;"">+</div>","null","","","","","","",""
"590.5750000020489","","image-keyboard-response","590","2925359","0.0-8.0-0.3","","img/yellow.png","32","trial","32","true","0.6,0.4","3:go_c","",""
"null","","html-keyboard-response","591","2926365","0.0-8.0-1.3","","<img src=""img/yellow-n.png"" border=""10"">","null","trial","32","","0.6,0.4","3:go_c","0",""
"null","","html-keyboard-response","592","2927371","0.0-8.0-2.3","","<div style=""font-size:60px;"">+</div>","null","","","","","","",""
"632.1800000001676","","image-keyboard-response","593","2928003","0.0-8.0-0.4","","img/orange.png","32","trial","null","false","0.4,0.6","2:nogo_b","",""
"null","","html-keyboard-response","594","2929004","0.0-8.0-1.4","","<img src=""img/orange-n.png"" border=""10"">","null","trial","null","","0.4,0.6","2:nogo_b","0",""
"null","","html-keyboard-response","595","2930005","0.0-8.0-2.4","","<div style=""font-size:60px;"">+</div>","null","","","","","","",""
"562.265000000596","","image-keyboard-response","596","2930568","0.0-8.0-0.5","","img/green.png","32","trial","null","false","0.4,0.6","4:nogo_d","",""
"null","","html-keyboard-response","597","2931572","0.0-8.0-1.5","","<img src=""img/green-r.png"" border=""10"">","null","trial","null","","0.4,0.6","4:nogo_d","1",""
"null","","html-keyboard-response","598","2932577","0.0-8.0-2.5","","<div style=""font-size:60px;"">+</div>","null","","","","","","",""
"724.4900000002235","","image-keyboard-response","599","2933302","0.0-8.0-0.6","","img/yellow.png","32","trial","32","true","0.6,0.4","3:go_c","",""
"null","","html-keyboard-response","600","2934308","0.0-8.0-1.6","","<img src=""img/yellow-n.png"" border=""10"">","null","trial","32","","0.6,0.4","3:go_c","0",""
"null","","html-keyboard-response","601","2935309","0.0-8.0-2.6","","<div style=""font-size:60px;"">+</div>","null","","","","","","",""
"614.1700000008568","","image-keyboard-response","602","2935923","0.0-8.0-0.7","","img/red.png","32","trial","32","true","0.6,0.4","1:go_a","",""
"null","","html-keyboard-response","603","2936928","0.0-8.0-1.7","","<img src=""img/red-r.png"" border=""10"">","null","trial","32","","0.6,0.4","1:go_a","1",""
"null","","html-keyboard-response","604","2937930","0.0-8.0-2.7","","<div style=""font-size:60px;"">+</div>","null","","","","","","",""
"579.6499999994412","","image-keyboard-response","605","2938511","0.0-8.0-0.8","","img/red.png","32","trial","32","true","0.6,0.4","1:go_a","",""
"null","","html-keyboard-response","606","2939512","0.0-8.0-1.8","","<img src=""img/red-r.png"" border=""10"">","null","trial","32","","0.6,0.4","1:go_a","1",""
"null","","html-keyboard-response","607","2940515","0.0-8.0-2.8","","<div style=""font-size:60px;"">+</div>","null","","","","","","",""
"null","","image-keyboard-response","608","2942021","0.0-8.0-0.9","","img/yellow.png","null","trial","32","false","0.6,0.4","3:go_c","",""
"null","","html-keyboard-response","609","2943026","0.0-8.0-1.9","","<img src=""img/yellow-r.png"">","null","trial","32","","0.6,0.4","3:go_c","1",""
"null","","html-keyboard-response","610","2944029","0.0-8.0-2.9","","<div style=""font-size:60px;"">+</div>","null","","","","","","",""
"578.0400000005029","","image-keyboard-response","611","2944608","0.0-8.0-0.10","","img/green.png","32","trial","null","false","0.4,0.6","4:nogo_d","",""
"null","","html-keyboard-response","612","2945611","0.0-8.0-1.10","","<img src=""img/green-r.png"" border=""10"">","null","trial","null","","0.4,0.6","4:nogo_d","1",""
"null","","html-keyboard-response","613","2946616","0.0-8.0-2.10","","<div style=""font-size:60px;"">+</div>","null","","","","","","",""
"null","","image-keyboard-response","614","2948118","0.0-8.0-0.11","","img/orange.png","null","trial","null","true","0.4,0.6","2:nogo_b","",""
"null","","html-keyboard-response","615","2949123","0.0-8.0-1.11","","<img src=""img/orange-r.png"">","null","trial","null","","0.4,0.6","2:nogo_b","1",""
"null","","html-keyboard-response","616","2950126","0.0-8.0-2.11","","<div style=""font-size:60px;"">+</div>","null","","","","","","",""
"725.6000000052154","","image-keyboard-response","617","2950852","0.0-8.0-0.12","","img/orange.png","32","trial","null","false","0.4,0.6","2:nogo_b","",""
"null","","html-keyboard-response","618","2951855","0.0-8.0-1.12","","<img src=""img/orange-n.png"" border=""10"">","null","trial","null","","0.4,0.6","2:nogo_b","0",""
"null","","html-keyboard-response","619","2952861","0.0-8.0-2.12","","<div style=""font-size:60px;"">+</div>","null","","","","","","",""
"769.1750000012107","","image-keyboard-response","620","2953630","0.0-8.0-0.13","","img/yellow.png","32","trial","32","true","0.6,0.4","3:go_c","",""
"null","","html-keyboard-response","621","2954637","0.0-8.0-1.13","","<img src=""img/yellow-n.png"" border=""10"">","null","trial","32","","0.6,0.4","3:go_c","0",""
"null","","html-keyboard-response","622","2955640","0.0-8.0-2.13","","<div style=""font-size:60px;"">+</div>","null","","","","","","",""
"453.9199999999255","","image-keyboard-response","623","2956094","0.0-8.0-0.14","","img/red.png","32","trial","32","true","0.6,0.4","1:go_a","",""
"null","","html-keyboard-response","624","2957100","0.0-8.0-1.14","","<img src=""img/red-n.png"" border=""10"">","null","trial","32","","0.6,0.4","1:go_a","0",""
"null","","html-keyboard-response","625","2958105","0.0-8.0-2.14","","<div style=""font-size:60px;"">+</div>","null","","","","","","",""
"452.04500000551343","","image-keyboard-response","626","2958558","0.0-8.0-0.15","","img/green.png","32","trial","null","false","0.4,0.6","4:nogo_d","",""
"null","","html-keyboard-response","627","2959560","0.0-8.0-1.15","","<img src=""img/green-n.png"" border=""10"">","null","trial","null","","0.4,0.6","4:nogo_d","0",""
"null","","html-keyboard-response","628","2960566","0.0-8.0-2.15","","<div style=""font-size:60px;"">+</div>","null","","","","","","",""
"567.7400000058115","","image-keyboard-response","629","2961134","0.0-8.0-0.16","","img/yellow.png","32","trial","32","true","0.6,0.4","3:go_c","",""
"null","","html-keyboard-response","630","2962136","0.0-8.0-1.16","","<img src=""img/yellow-n.png"" border=""10"">","null","trial","32","","0.6,0.4","3:go_c","0",""
"null","","html-keyboard-response","631","2963142","0.0-8.0-2.16","","<div style=""font-size:60px;"">+</div>","null","","","","","","",""
"556.7149999989197","","image-keyboard-response","632","2963699","0.0-8.0-0.17","","img/green.png","32","trial","null","false","0.4,0.6","4:nogo_d","",""
"null","","html-keyboard-response","633","2964705","0.0-8.0-1.17","","<img src=""img/green-n.png"" border=""10"">","null","trial","null","","0.4,0.6","4:nogo_d","0",""
"null","","html-keyboard-response","634","2965711","0.0-8.0-2.17","","<div style=""font-size:60px;"">+</div>","null","","","","","","",""
"575.4450000021607","","image-keyboard-response","635","2966287","0.0-8.0-0.18","","img/orange.png","32","trial","null","false","0.4,0.6","2:nogo_b","",""
"null","","html-keyboard-response","636","2967293","0.0-8.0-1.18","","<img src=""img/orange-r.png"" border=""10"">","null","trial","null","","0.4,0.6","2:nogo_b","1",""
"null","","html-keyboard-response","637","2968296","0.0-8.0-2.18","","<div style=""font-size:60px;"">+</div>","null","","","","","","",""
"589.0699999942444","","image-keyboard-response","638","2968885","0.0-8.0-0.19","","img/red.png","32","trial","32","true","0.6,0.4","1:go_a","",""
"null","","html-keyboard-response","639","2969892","0.0-8.0-1.19","","<img src=""img/red-r.png"" border=""10"">","null","trial","32","","0.6,0.4","1:go_a","1",""
"null","","html-keyboard-response","640","2970897","0.0-8.0-2.19","","<div style=""font-size:60px;"">+</div>","null","","","","","","",""
"null","","image-keyboard-response","641","2972403","0.0-8.0-0.20","","img/yellow.png","null","trial","32","false","0.6,0.4","3:go_c","",""
"null","","html-keyboard-response","642","2973408","0.0-8.0-1.20","","<img src=""img/yellow-n.png"">","null","trial","32","","0.6,0.4","3:go_c","0",""
"null","","html-keyboard-response","643","2974410","0.0-8.0-2.20","","<div style=""font-size:60px;"">+</div>","null","","","","","","",""
"null","","image-keyboard-response","644","2975916","0.0-8.0-0.21","","img/orange.png","null","trial","null","true","0.4,0.6","2:nogo_b","",""
"null","","html-keyboard-response","645","2976922","0.0-8.0-1.21","","<img src=""img/orange-n.png"">","null","trial","null","","0.4,0.6","2:nogo_b","0",""
"null","","html-keyboard-response","646","2977923","0.0-8.0-2.21","","<div style=""font-size:60px;"">+</div>","null","","","","","","",""
"873.410000000149","","image-keyboard-response","647","2978797","0.0-8.0-0.22","","img/green.png","32","trial","null","false","0.4,0.6","4:nogo_d","",""
"null","","html-keyboard-response","648","2979800","0.0-8.0-1.22","","<img src=""img/green-n.png"" border=""10"">","null","trial","null","","0.4,0.6","4:nogo_d","0",""
"null","","html-keyboard-response","649","2980803","0.0-8.0-2.22","","<div style=""font-size:60px;"">+</div>","null","","","","","","",""
"512.7199999988079","","image-keyboard-response","650","2981317","0.0-8.0-0.23","","img/red.png","32","trial","32","true","0.6,0.4","1:go_a","",""
"null","","html-keyboard-response","651","2982320","0.0-8.0-1.23","","<img src=""img/red-n.png"" border=""10"">","null","trial","32","","0.6,0.4","1:go_a","0",""
"null","","html-keyboard-response","652","2983322","0.0-8.0-2.23","","<div style=""font-size:60px;"">+</div>","null","","","","","","",""
"447.03499999735504","","image-keyboard-response","653","2983770","0.0-8.0-0.24","","img/orange.png","32","trial","null","false","0.4,0.6","2:nogo_b","",""
"null","","html-keyboard-response","654","2984773","0.0-8.0-1.24","","<img src=""img/orange-n.png"" border=""10"">","null","trial","null","","0.4,0.6","2:nogo_b","0",""
"null","","html-keyboard-response","655","2985778","0.0-8.0-2.24","","<div style=""font-size:60px;"">+</div>","null","","","","","","",""
"882.3349999948405","","image-keyboard-response","656","2986661","0.0-8.0-0.25","","img/green.png","32","trial","null","false","0.4,0.6","4:nogo_d","",""
"null","","html-keyboard-response","657","2987664","0.0-8.0-1.25","","<img src=""img/green-n.png"" border=""10"">","null","trial","null","","0.4,0.6","4:nogo_d","0",""
"null","","html-keyboard-response","658","2988665","0.0-8.0-2.25","","<div style=""font-size:60px;"">+</div>","null","","","","","","",""
"null","","image-keyboard-response","659","2990170","0.0-8.0-0.26","","img/yellow.png","null","trial","32","false","0.6,0.4","3:go_c","",""
"null","","html-keyboard-response","660","2991174","0.0-8.0-1.26","","<img src=""img/yellow-r.png"">","null","trial","32","","0.6,0.4","3:go_c","1",""
"null","","html-keyboard-response","661","2992177","0.0-8.0-2.26","","<div style=""font-size:60px;"">+</div>","null","","","","","","",""
"411.28500000201166","","image-keyboard-response","662","2992589","0.0-8.0-0.27","","img/red.png","32","trial","32","true","0.6,0.4","1:go_a","",""
"null","","html-keyboard-response","663","2993595","0.0-8.0-1.27","","<img src=""img/red-r.png"" border=""10"">","null","trial","32","","0.6,0.4","1:go_a","1",""
"null","","html-keyboard-response","664","2994600","0.0-8.0-2.27","","<div style=""font-size:60px;"">+</div>","null","","","","","","",""
"520.5050000003539","","image-keyboard-response","665","2995121","0.0-8.0-0.28","","img/green.png","32","trial","null","false","0.4,0.6","4:nogo_d","",""
