"rt","url","trial_type","trial_index","time_elapsed","internal_node_id","view_history","stimulus","key_press","test_part","correct_response","correct","use_rew","which_stim","reward","responses"
"57613.1550000282","consent.html","external-html","0","57709","0.0-0.0","","","","","","","","","",""
"165113.87000000104","","instructions","1","222825","0.0-1.0","[{""page_index"":0,""viewing_time"":10057.750000036322},{""page_index"":1,""viewing_time"":47465.41000000434},{""page_index"":2,""viewing_time"":9383.499999996275},{""page_index"":3,""viewing_time"":76958.09999998892},{""page_index"":4,""viewing_time"":1946.0950000211596},{""page_index"":5,""viewing_time"":7374.784999992698},{""page_index"":6,""viewing_time"":11926.884999964386}]","","","","","","","","",""
"1034.2899999814108","","image-keyboard-response","2","223862","0.0-2.0-0.0","","img/test1.PNG","32","practice","32","true","","","",""
"null","","html-keyboard-response","3","224865","0.0-2.0-1.0","","<img src=""img/test1-reward.PNG"" border=""10px; grey"">","null","","","","","","",""
"null","","html-keyboard-response","4","225866","0.0-2.0-2.0","","<div style=""font-size:60px;"">+</div>","null","","","","","","",""
"null","","image-keyboard-response","5","227368","0.0-2.0-0.1","","img/test2.PNG","null","practice","null","true","","","",""
"null","","html-keyboard-response","6","228369","0.0-2.0-1.1","","<img src=""img/test2-reward.PNG"">","null","","","","","","",""
"null","","html-keyboard-response","7","229370","0.0-2.0-2.1","","<div style=""font-size:60px;"">+</div>","null","","","","","","",""
"null","","image-keyboard-response","8","230872","0.0-2.0-0.2","","img/test3.PNG","null","practice","null","true","","","",""
"null","","html-keyboard-response","9","231874","0.0-2.0-1.2","","<img src=""img/test3-reward.PNG"">","null","","","","","","",""
"null","","html-keyboard-response","10","232875","0.0-2.0-2.2","","<div style=""font-size:60px;"">+</div>","null","","","","","","",""
"null","","image-keyboard-response","11","234376","0.0-2.0-0.3","","img/test2.PNG","null","practice","null","true","","","",""
"null","","html-keyboard-response","12","235378","0.0-2.0-1.3","","<img src=""img/test2-reward.PNG"">","null","","","","","","",""
"null","","html-keyboard-response","13","236379","0.0-2.0-2.3","","<div style=""font-size:60px;"">+</div>","null","","","","","","",""
"null","","image-keyboard-response","14","237880","0.0-2.0-0.4","","img/test3.PNG","null","practice","null","true","","","",""
"null","","html-keyboard-response","15","238882","0.0-2.0-1.4","","<img src=""img/test3-reward.PNG"">","null","","","","","","",""
"null","","html-keyboard-response","16","239883","0.0-2.0-2.4","","<div style=""font-size:60px;"">+</div>","null","","","","","","",""
"368.7449999852106","","image-keyboard-response","17","240253","0.0-2.0-0.5","","img/test1.PNG","32","practice","32","true","","","",""
"null","","html-keyboard-response","18","241255","0.0-2.0-1.5","","<img src=""img/test1-reward.PNG"" border=""10px; grey"">","null","","","","","","",""
"null","","html-keyboard-response","19","242256","0.0-2.0-2.5","","<div style=""font-size:60px;"">+</div>","null","","","","","","",""
"null","","image-keyboard-response","20","243758","0.0-2.0-0.6","","img/test3.PNG","null","practice","null","true","","","",""
"null","","html-keyboard-response","21","244759","0.0-2.0-1.6","","<img src=""img/test3-reward.PNG"">","null","","","","","","",""
"null","","html-keyboard-response","22","245760","0.0-2.0-2.6","","<div style=""font-size:60px;"">+</div>","null","","","","","","",""
"null","","image-keyboard-response","23","247262","0.0-2.0-0.7","","img/test2.PNG","null","practice","null","true","","","",""
"null","","html-keyboard-response","24","248264","0.0-2.0-1.7","","<img src=""img/test2-reward.PNG"">","null","","","","","","",""
"null","","html-keyboard-response","25","249265","0.0-2.0-2.7","","<div style=""font-size:60px;"">+</div>","null","","","","","","",""
"1099.419999984093","","image-keyboard-response","26","250366","0.0-2.0-0.8","","img/test1.PNG","32","practice","32","true","","","",""
"null","","html-keyboard-response","27","251367","0.0-2.0-1.8","","<img src=""img/test1-reward.PNG"" border=""10px; grey"">","null","","","","","","",""
"null","","html-keyboard-response","28","252368","0.0-2.0-2.8","","<div style=""font-size:60px;"">+</div>","null","","","","","","",""
"null","","image-keyboard-response","29","253869","0.0-2.0-0.9","","img/test1.PNG","null","practice","32","false","","","",""
"null","","html-keyboard-response","30","254871","0.0-2.0-1.9","","<img src=""img/test1-neutral.PNG"">","null","","","","","","",""
"null","","html-keyboard-response","31","255872","0.0-2.0-2.9","","<div style=""font-size:60px;"">+</div>","null","","","","","","",""
"null","","image-keyboard-response","32","257374","0.0-2.0-0.10","","img/test3.PNG","null","practice","null","true","","","",""
"null","","html-keyboard-response","33","258375","0.0-2.0-1.10","","<img src=""img/test3-reward.PNG"">","null","","","","","","",""
"null","","html-keyboard-response","34","259377","0.0-2.0-2.10","","<div style=""font-size:60px;"">+</div>","null","","","","","","",""
"null","","image-keyboard-response","35","260879","0.0-2.0-0.11","","img/test2.PNG","null","practice","null","true","","","",""
"null","","html-keyboard-response","36","261880","0.0-2.0-1.11","","<img src=""img/test2-reward.PNG"">","null","","","","","","",""
"null","","html-keyboard-response","37","262881","0.0-2.0-2.11","","<div style=""font-size:60px;"">+</div>","null","","","","","","",""
"3527.0399999571964","","instructions","38","266409","0.0-3.0","[{""page_index"":0,""viewing_time"":3526.6499999561347}]","","","","","","","","",""
"null","","image-keyboard-response","39","267912","0.0-4.0-0.0","","img/pink.png","null","trial","null","true","0.2,0.8","2:nogo_b","",""
"null","","html-keyboard-response","40","268914","0.0-4.0-1.0","","<img src=""img/pink-r.png"">","null","trial","null","","0.2,0.8","2:nogo_b","1",""
"null","","html-keyboard-response","41","269916","0.0-4.0-2.0","","<div style=""font-size:60px;"">+</div>","null","","","","","","",""
"null","","image-keyboard-response","42","271417","0.0-4.0-0.1","","img/red.png","null","trial","32","false","0.8,0.2","1:go_a","",""
"null","","html-keyboard-response","43","272419","0.0-4.0-1.1","","<img src=""img/red-n.png"">","null","trial","32","","0.8,0.2","1:go_a","0",""
"null","","html-keyboard-response","44","273421","0.0-4.0-2.1","","<div style=""font-size:60px;"">+</div>","null","","","","","","",""
"467.6599999656901","","image-keyboard-response","45","273890","0.0-4.0-0.2","","img/pink.png","32","trial","null","false","0.2,0.8","2:nogo_b","",""
"null","","html-keyboard-response","46","274891","0.0-4.0-1.2","","<img src=""img/pink-r.png"" border=""10"">","null","trial","null","","0.2,0.8","2:nogo_b","1",""
"null","","html-keyboard-response","47","275893","0.0-4.0-2.2","","<div style=""font-size:60px;"">+</div>","null","","","","","","",""
"1459.679999970831","","image-keyboard-response","48","277353","0.0-4.0-0.3","","img/red.png","32","trial","32","true","0.8,0.2","1:go_a","",""
"null","","html-keyboard-response","49","278355","0.0-4.0-1.3","","<img src=""img/red-r.png"" border=""10"">","null","trial","32","","0.8,0.2","1:go_a","1",""
"null","","html-keyboard-response","50","279357","0.0-4.0-2.3","","<div style=""font-size:60px;"">+</div>","null","","","","","","",""
"854.9500000081025","","image-keyboard-response","51","280213","0.0-4.0-0.4","","img/pink.png","32","trial","null","false","0.2,0.8","2:nogo_b","",""
"null","","html-keyboard-response","52","281215","0.0-4.0-1.4","","<img src=""img/pink-n.png"" border=""10"">","null","trial","null","","0.2,0.8","2:nogo_b","0",""
"null","","html-keyboard-response","53","282217","0.0-4.0-2.4","","<div style=""font-size:60px;"">+</div>","null","","","","","","",""
"1183.8800000259653","","image-keyboard-response","54","283402","0.0-4.0-0.5","","img/red.png","32","trial","32","true","0.8,0.2","1:go_a","",""
"null","","html-keyboard-response","55","284404","0.0-4.0-1.5","","<img src=""img/red-r.png"" border=""10"">","null","trial","32","","0.8,0.2","1:go_a","1",""
"null","","html-keyboard-response","56","285407","0.0-4.0-2.5","","<div style=""font-size:60px;"">+</div>","null","","","","","","",""
"null","","image-keyboard-response","57","286908","0.0-4.0-0.6","","img/pink.png","null","trial","null","true","0.2,0.8","2:nogo_b","",""
"null","","html-keyboard-response","58","287910","0.0-4.0-1.6","","<img src=""img/pink-r.png"">","null","trial","null","","0.2,0.8","2:nogo_b","1",""
"null","","html-keyboard-response","59","288911","0.0-4.0-2.6","","<div style=""font-size:60px;"">+</div>","null","","","","","","",""
"657.329999958165","","image-keyboard-response","60","289570","0.0-4.0-0.7","","img/red.png","32","trial","32","true","0.8,0.2","1:go_a","",""
"null","","html-keyboard-response","61","290572","0.0-4.0-1.7","","<img src=""img/red-r.png"" border=""10"">","null","trial","32","","0.8,0.2","1:go_a","1",""
"null","","html-keyboard-response","62","291573","0.0-4.0-2.7","","<div style=""font-size:60px;"">+</div>","null","","","","","","",""
"null","","image-keyboard-response","63","293074","0.0-4.0-0.8","","img/pink.png","null","trial","null","true","0.2,0.8","2:nogo_b","",""
"null","","html-keyboard-response","64","294077","0.0-4.0-1.8","","<img src=""img/pink-r.png"">","null","trial","null","","0.2,0.8","2:nogo_b","1",""
"null","","html-keyboard-response","65","295078","0.0-4.0-2.8","","<div style=""font-size:60px;"">+</div>","null","","","","","","",""
"744.2599999485537","","image-keyboard-response","66","295824","0.0-4.0-0.9","","img/red.png","32","trial","32","true","0.8,0.2","1:go_a","",""
"null","","html-keyboard-response","67","296827","0.0-4.0-1.9","","<img src=""img/red-r.png"" border=""10"">","null","trial","32","","0.8,0.2","1:go_a","1",""
"null","","html-keyboard-response","68","297828","0.0-4.0-2.9","","<div style=""font-size:60px;"">+</div>","null","","","","","","",""
"543.0049999849871","","image-keyboard-response","69","298373","0.0-4.0-0.10","","img/red.png","32","trial","32","true","0.8,0.2","1:go_a","",""
"null","","html-keyboard-response","70","299377","0.0-4.0-1.10","","<img src=""img/red-r.png"" border=""10"">","null","trial","32","","0.8,0.2","1:go_a","1",""
"null","","html-keyboard-response","71","300379","0.0-4.0-2.10","","<div style=""font-size:60px;"">+</div>","null","","","","","","",""
"616.0150000359863","","image-keyboard-response","72","300996","0.0-4.0-0.11","","img/pink.png","32","trial","null","false","0.2,0.8","2:nogo_b","",""
"null","","html-keyboard-response","73","301998","0.0-4.0-1.11","","<img src=""img/pink-r.png"" border=""10"">","null","trial","null","","0.2,0.8","2:nogo_b","1",""
"null","","html-keyboard-response","74","302999","0.0-4.0-2.11","","<div style=""font-size:60px;"">+</div>","null","","","","","","",""
"701.5050000045449","","image-keyboard-response","75","303702","0.0-4.0-0.12","","img/red.png","32","trial","32","true","0.8,0.2","1:go_a","",""
"null","","html-keyboard-response","76","304704","0.0-4.0-1.12","","<img src=""img/red-r.png"" border=""10"">","null","trial","32","","0.8,0.2","1:go_a","1",""
"null","","html-keyboard-response","77","305706","0.0-4.0-2.12","","<div style=""font-size:60px;"">+</div>","null","","","","","","",""
"null","","image-keyboard-response","78","307207","0.0-4.0-0.13","","img/pink.png","null","trial","null","true","0.2,0.8","2:nogo_b","",""
"null","","html-keyboard-response","79","308211","0.0-4.0-1.13","","<img src=""img/pink-r.png"">","null","trial","null","","0.2,0.8","2:nogo_b","1",""
"null","","html-keyboard-response","80","309212","0.0-4.0-2.13","","<div style=""font-size:60px;"">+</div>","null","","","","","","",""
"520.6149999867193","","image-keyboard-response","81","309734","0.0-4.0-0.14","","img/red.png","32","trial","32","true","0.8,0.2","1:go_a","",""
"null","","html-keyboard-response","82","310736","0.0-4.0-1.14","","<img src=""img/red-r.png"" border=""10"">","null","trial","32","","0.8,0.2","1:go_a","1",""
"null","","html-keyboard-response","83","311737","0.0-4.0-2.14","","<div style=""font-size:60px;"">+</div>","null","","","","","","",""
"null","","image-keyboard-response","84","313238","0.0-4.0-0.15","","img/pink.png","null","trial","null","true","0.2,0.8","2:nogo_b","",""
"null","","html-keyboard-response","85","314241","0.0-4.0-1.15","","<img src=""img/pink-r.png"">","null","trial","null","","0.2,0.8","2:nogo_b","1",""
"null","","html-keyboard-response","86","315242","0.0-4.0-2.15","","<div style=""font-size:60px;"">+</div>","null","","","","","","",""
"511.43999997293577","","image-keyboard-response","87","315755","0.0-4.0-0.16","","img/pink.png","32","trial","null","false","0.2,0.8","2:nogo_b","",""
"null","","html-keyboard-response","88","316757","0.0-4.0-1.16","","<img src=""img/pink-n.png"" border=""10"">","null","trial","null","","0.2,0.8","2:nogo_b","0",""
"null","","html-keyboard-response","89","317758","0.0-4.0-2.16","","<div style=""font-size:60px;"">+</div>","null","","","","","","",""
"657.1550000226125","","image-keyboard-response","90","318416","0.0-4.0-0.17","","img/red.png","32","trial","32","true","0.8,0.2","1:go_a","",""
"null","","html-keyboard-response","91","319419","0.0-4.0-1.17","","<img src=""img/red-r.png"" border=""10"">","null","trial","32","","0.8,0.2","1:go_a","1",""
"null","","html-keyboard-response","92","320420","0.0-4.0-2.17","","<div style=""font-size:60px;"">+</div>","null","","","","","","",""
"null","","image-keyboard-response","93","321921","0.0-4.0-0.18","","img/pink.png","null","trial","null","true","0.2,0.8","2:nogo_b","",""
"null","","html-keyboard-response","94","322923","0.0-4.0-1.18","","<img src=""img/pink-n.png"">","null","trial","null","","0.2,0.8","2:nogo_b","0",""
"null","","html-keyboard-response","95","323924","0.0-4.0-2.18","","<div style=""font-size:60px;"">+</div>","null","","","","","","",""
"542.3150000278838","","image-keyboard-response","96","324468","0.0-4.0-0.19","","img/red.png","32","trial","32","true","0.8,0.2","1:go_a","",""
"null","","html-keyboard-response","97","325470","0.0-4.0-1.19","","<img src=""img/red-r.png"" border=""10"">","null","trial","32","","0.8,0.2","1:go_a","1",""
"null","","html-keyboard-response","98","326471","0.0-4.0-2.19","","<div style=""font-size:60px;"">+</div>","null","","","","","","",""
"624.6699999901466","","image-keyboard-response","99","327097","0.0-4.0-0.20","","img/red.png","32","trial","32","true","0.8,0.2","1:go_a","",""
"null","","html-keyboard-response","100","328099","0.0-4.0-1.20","","<img src=""img/red-r.png"" border=""10"">","null","trial","32","","0.8,0.2","1:go_a","1",""
"null","","html-keyboard-response","101","329100","0.0-4.0-2.20","","<div style=""font-size:60px;"">+</div>","null","","","","","","",""
"1236.144999973476","","image-keyboard-response","102","330337","0.0-4.0-0.21","","img/pink.png","32","trial","null","false","0.2,0.8","2:nogo_b","",""
"null","","html-keyboard-response","103","331339","0.0-4.0-1.21","","<img src=""img/pink-n.png"" border=""10"">","null","trial","null","","0.2,0.8","2:nogo_b","0",""
"null","","html-keyboard-response","104","332340","0.0-4.0-2.21","","<div style=""font-size:60px;"">+</div>","null","","","","","","",""
"null","","image-keyboard-response","105","333842","0.0-4.0-0.22","","img/pink.png","null","trial","null","true","0.2,0.8","2:nogo_b","",""
"null","","html-keyboard-response","106","334843","0.0-4.0-1.22","","<img src=""img/pink-r.png"">","null","trial","null","","0.2,0.8","2:nogo_b","1",""
"null","","html-keyboard-response","107","335845","0.0-4.0-2.22","","<div style=""font-size:60px;"">+</div>","null","","","","","","",""
"537.0450000045821","","image-keyboard-response","108","336383","0.0-4.0-0.23","","img/red.png","32","trial","32","true","0.8,0.2","1:go_a","",""
"null","","html-keyboard-response","109","337386","0.0-4.0-1.23","","<img src=""img/red-r.png"" border=""10"">","null","trial","32","","0.8,0.2","1:go_a","1",""
"null","","html-keyboard-response","110","338387","0.0-4.0-2.23","","<div style=""font-size:60px;"">+</div>","null","","","","","","",""
"1120.1599999913014","","image-keyboard-response","111","339509","0.0-4.0-0.24","","img/red.png","32","trial","32","true","0.8,0.2","1:go_a","",""
"null","","html-keyboard-response","112","340511","0.0-4.0-1.24","","<img src=""img/red-r.png"" border=""10"">","null","trial","32","","0.8,0.2","1:go_a","1",""
"null","","html-keyboard-response","113","341512","0.0-4.0-2.24","","<div style=""font-size:60px;"">+</div>","null","","","","","","",""
"1230.4700000095181","","image-keyboard-response","114","342743","0.0-4.0-0.25","","img/pink.png","32","trial","null","false","0.2,0.8","2:nogo_b","",""
"null","","html-keyboard-response","115","343747","0.0-4.0-1.25","","<img src=""img/pink-n.png"" border=""10"">","null","trial","null","","0.2,0.8","2:nogo_b","0",""
"null","","html-keyboard-response","116","344748","0.0-4.0-2.25","","<div style=""font-size:60px;"">+</div>","null","","","","","","",""
"null","","image-keyboard-response","117","346250","0.0-4.0-0.26","","img/pink.png","null","trial","null","true","0.2,0.8","2:nogo_b","",""
"null","","html-keyboard-response","118","347252","0.0-4.0-1.26","","<img src=""img/pink-r.png"">","null","trial","null","","0.2,0.8","2:nogo_b","1",""
"null","","html-keyboard-response","119","348252","0.0-4.0-2.26","","<div style=""font-size:60px;"">+</div>","null","","","","","","",""
"362.9949999740347","","image-keyboard-response","120","348616","0.0-4.0-0.27","","img/red.png","32","trial","32","true","0.8,0.2","1:go_a","",""
"null","","html-keyboard-response","121","349619","0.0-4.0-1.27","","<img src=""img/red-r.png"" border=""10"">","null","trial","32","","0.8,0.2","1:go_a","1",""
"null","","html-keyboard-response","122","350620","0.0-4.0-2.27","","<div style=""font-size:60px;"">+</div>","null","","","","","","",""
"704.1049999534152","","image-keyboard-response","123","351326","0.0-4.0-0.28","","img/red.png","32","trial","32","true","0.8,0.2","1:go_a","",""
"null","","html-keyboard-response","124","352328","0.0-4.0-1.28","","<img src=""img/red-r.png"" border=""10"">","null","trial","32","","0.8,0.2","1:go_a","1",""
"null","","html-keyboard-response","125","353328","0.0-4.0-2.28","","<div style=""font-size:60px;"">+</div>","null","","","","","","",""
"null","","image-keyboard-response","126","354830","0.0-4.0-0.29","","img/pink.png","null","trial","null","true","0.2,0.8","2:nogo_b","",""
"null","","html-keyboard-response","127","355832","0.0-4.0-1.29","","<img src=""img/pink-r.png"">","null","trial","null","","0.2,0.8","2:nogo_b","1",""
"null","","html-keyboard-response","128","356833","0.0-4.0-2.29","","<div style=""font-size:60px;"">+</div>","null","","","","","","",""
"null","","image-keyboard-response","129","358335","0.0-4.0-0.30","","img/pink.png","null","trial","null","true","0.2,0.8","2:nogo_b","",""
"null","","html-keyboard-response","130","359337","0.0-4.0-1.30","","<img src=""img/pink-r.png"">","null","trial","null","","0.2,0.8","2:nogo_b","1",""
"null","","html-keyboard-response","131","360338","0.0-4.0-2.30","","<div style=""font-size:60px;"">+</div>","null","","","","","","",""
"324.20000003185123","","image-keyboard-response","132","360664","0.0-4.0-0.31","","img/red.png","32","trial","32","true","0.8,0.2","1:go_a","",""
"null","","html-keyboard-response","133","361666","0.0-4.0-1.31","","<img src=""img/red-r.png"" border=""10"">","null","trial","32","","0.8,0.2","1:go_a","1",""
"null","","html-keyboard-response","134","362667","0.0-4.0-2.31","","<div style=""font-size:60px;"">+</div>","null","","","","","","",""
"1134.7299999906681","","image-keyboard-response","135","363803","0.0-4.0-0.32","","img/red.png","32","trial","32","true","0.8,0.2","1:go_a","",""
"null","","html-keyboard-response","136","364805","0.0-4.0-1.32","","<img src=""img/red-n.png"" border=""10"">","null","trial","32","","0.8,0.2","1:go_a","0",""
"null","","html-keyboard-response","137","365806","0.0-4.0-2.32","","<div style=""font-size:60px;"">+</div>","null","","","","","","",""
"null","","image-keyboard-response","138","367308","0.0-4.0-0.33","","img/pink.png","null","trial","null","true","0.2,0.8","2:nogo_b","",""
"null","","html-keyboard-response","139","368311","0.0-4.0-1.33","","<img src=""img/pink-n.png"">","null","trial","null","","0.2,0.8","2:nogo_b","0",""
"null","","html-keyboard-response","140","369312","0.0-4.0-2.33","","<div style=""font-size:60px;"">+</div>","null","","","","","","",""
"1115.1850000023842","","image-keyboard-response","141","370428","0.0-4.0-0.34","","img/pink.png","32","trial","null","false","0.2,0.8","2:nogo_b","",""
"null","","html-keyboard-response","142","371430","0.0-4.0-1.34","","<img src=""img/pink-n.png"" border=""10"">","null","trial","null","","0.2,0.8","2:nogo_b","0",""
"null","","html-keyboard-response","143","372431","0.0-4.0-2.34","","<div style=""font-size:60px;"">+</div>","null","","","","","","",""
"1066.4450000040233","","image-keyboard-response","144","373499","0.0-4.0-0.35","","img/red.png","32","trial","32","true","0.8,0.2","1:go_a","",""
"null","","html-keyboard-response","145","374501","0.0-4.0-1.35","","<img src=""img/red-r.png"" border=""10"">","null","trial","32","","0.8,0.2","1:go_a","1",""
"null","","html-keyboard-response","146","375502","0.0-4.0-2.35","","<div style=""font-size:60px;"">+</div>","null","","","","","","",""
"1282.8800000133924","","image-keyboard-response","147","376787","0.0-4.0-0.36","","img/red.png","32","trial","32","true","0.8,0.2","1:go_a","",""
"null","","html-keyboard-response","148","377790","0.0-4.0-1.36","","<img src=""img/red-n.png"" border=""10"">","null","trial","32","","0.8,0.2","1:go_a","0",""
"null","","html-keyboard-response","149","378791","0.0-4.0-2.36","","<div style=""font-size:60px;"">+</div>","null","","","","","","",""
"null","","image-keyboard-response","150","380293","0.0-4.0-0.37","","img/pink.png","null","trial","null","true","0.2,0.8","2:nogo_b","",""
"null","","html-keyboard-response","151","381294","0.0-4.0-1.37","","<img src=""img/pink-r.png"">","null","trial","null","","0.2,0.8","2:nogo_b","1",""
"null","","html-keyboard-response","152","382296","0.0-4.0-2.37","","<div style=""font-size:60px;"">+</div>","null","","","","","","",""
"null","","image-keyboard-response","153","383797","0.0-4.0-0.38","","img/pink.png","null","trial","null","true","0.2,0.8","2:nogo_b","",""
"null","","html-keyboard-response","154","384799","0.0-4.0-1.38","","<img src=""img/pink-r.png"">","null","trial","null","","0.2,0.8","2:nogo_b","1",""
"null","","html-keyboard-response","155","385802","0.0-4.0-2.38","","<div style=""font-size:60px;"">+</div>","null","","","","","","",""
"322.539999964647","","image-keyboard-response","156","386128","0.0-4.0-0.39","","img/red.png","32","trial","32","true","0.8,0.2","1:go_a","",""
"null","","html-keyboard-response","157","387130","0.0-4.0-1.39","","<img src=""img/red-n.png"" border=""10"">","null","trial","32","","0.8,0.2","1:go_a","0",""
"null","","html-keyboard-response","158","388132","0.0-4.0-2.39","","<div style=""font-size:60px;"">+</div>","null","","","","","","",""
"null","","image-keyboard-response","159","389634","0.0-4.0-0.40","","img/red.png","null","trial","32","false","0.8,0.2","1:go_a","",""
"null","","html-keyboard-response","160","390636","0.0-4.0-1.40","","<img src=""img/red-r.png"">","null","trial","32","","0.8,0.2","1:go_a","1",""
"null","","html-keyboard-response","161","391638","0.0-4.0-2.40","","<div style=""font-size:60px;"">+</div>","null","","","","","","",""
"385.17500000307336","","image-keyboard-response","162","392024","0.0-4.0-0.41","","img/pink.png","32","trial","null","false","0.2,0.8","2:nogo_b","",""
"null","","html-keyboard-response","163","393026","0.0-4.0-1.41","","<img src=""img/pink-r.png"" border=""10"">","null","trial","null","","0.2,0.8","2:nogo_b","1",""
"null","","html-keyboard-response","164","394027","0.0-4.0-2.41","","<div style=""font-size:60px;"">+</div>","null","","","","","","",""
"null","","image-keyboard-response","165","395529","0.0-4.0-0.42","","img/red.png","null","trial","32","false","0.8,0.2","1:go_a","",""
"null","","html-keyboard-response","166","396530","0.0-4.0-1.42","","<img src=""img/red-n.png"">","null","trial","32","","0.8,0.2","1:go_a","0",""
"null","","html-keyboard-response","167","397532","0.0-4.0-2.42","","<div style=""font-size:60px;"">+</div>","null","","","","","","",""
"418.82999998051673","","image-keyboard-response","168","397952","0.0-4.0-0.43","","img/pink.png","32","trial","null","false","0.2,0.8","2:nogo_b","",""
"null","","html-keyboard-response","169","398954","0.0-4.0-1.43","","<img src=""img/pink-n.png"" border=""10"">","null","trial","null","","0.2,0.8","2:nogo_b","0",""
"null","","html-keyboard-response","170","399955","0.0-4.0-2.43","","<div style=""font-size:60px;"">+</div>","null","","","","","","",""
"null","","image-keyboard-response","171","401457","0.0-4.0-0.44","","img/red.png","null","trial","32","false","0.8,0.2","1:go_a","",""
"null","","html-keyboard-response","172","402459","0.0-4.0-1.44","","<img src=""img/red-n.png"">","null","trial","32","","0.8,0.2","1:go_a","0",""
"null","","html-keyboard-response","173","403461","0.0-4.0-2.44","","<div style=""font-size:60px;"">+</div>","null","","","","","","",""
"348.9549999940209","","image-keyboard-response","174","403811","0.0-4.0-0.45","","img/pink.png","32","trial","null","false","0.2,0.8","2:nogo_b","",""
"null","","html-keyboard-response","175","404813","0.0-4.0-1.45","","<img src=""img/pink-n.png"" border=""10"">","null","trial","null","","0.2,0.8","2:nogo_b","0",""
"null","","html-keyboard-response","176","405814","0.0-4.0-2.45","","<div style=""font-size:60px;"">+</div>","null","","","","","","",""
"444.1599999554455","","image-keyboard-response","177","406259","0.0-4.0-0.46","","img/red.png","32","trial","32","true","0.8,0.2","1:go_a","",""
"null","","html-keyboard-response","178","407261","0.0-4.0-1.46","","<img src=""img/red-r.png"" border=""10"">","null","trial","32","","0.8,0.2","1:go_a","1",""
"null","","html-keyboard-response","179","408262","0.0-4.0-2.46","","<div style=""font-size:60px;"">+</div>","null","","","","","","",""
"422.0949999871664","","image-keyboard-response","180","408686","0.0-4.0-0.47","","img/pink.png","32","trial","null","false","0.2,0.8","2:nogo_b","",""
"null","","html-keyboard-response","181","409689","0.0-4.0-1.47","","<img src=""img/pink-n.png"" border=""10"">","null","trial","null","","0.2,0.8","2:nogo_b","0",""
"null","","html-keyboard-response","182","410690","0.0-4.0-2.47","","<div style=""font-size:60px;"">+</div>","null","","","","","","",""
"null","","image-keyboard-response","183","412192","0.0-4.0-0.48","","img/pink.png","null","trial","null","true","0.2,0.8","2:nogo_b","",""
"null","","html-keyboard-response","184","413194","0.0-4.0-1.48","","<img src=""img/pink-r.png"">","null","trial","null","","0.2,0.8","2:nogo_b","1",""
"null","","html-keyboard-response","185","414195","0.0-4.0-2.48","","<div style=""font-size:60px;"">+</div>","null","","","","","","",""
"470.2050000196323","","image-keyboard-response","186","414666","0.0-4.0-0.49","","img/red.png","32","trial","32","true","0.8,0.2","1:go_a","",""
"null","","html-keyboard-response","187","415669","0.0-4.0-1.49","","<img src=""img/red-n.png"" border=""10"">","null","trial","32","","0.8,0.2","1:go_a","0",""
"null","","html-keyboard-response","188","416671","0.0-4.0-2.49","","<div style=""font-size:60px;"">+</div>","null","","","","","","",""
"693.6749999877065","","image-keyboard-response","189","417366","0.0-4.0-0.50","","img/pink.png","32","trial","null","false","0.2,0.8","2:nogo_b","",""
"null","","html-keyboard-response","190","418367","0.0-4.0-1.50","","<img src=""img/pink-n.png"" border=""10"">","null","trial","null","","0.2,0.8","2:nogo_b","0",""
"null","","html-keyboard-response","191","419369","0.0-4.0-2.50","","<div style=""font-size:60px;"">+</div>","null","","","","","","",""
"311.0500000184402","","image-keyboard-response","192","419681","0.0-4.0-0.51","","img/red.png","32","trial","32","true","0.8,0.2","1:go_a","",""
"null","","html-keyboard-response","193","420683","0.0-4.0-1.51","","<img src=""img/red-r.png"" border=""10"">","null","trial","32","","0.8,0.2","1:go_a","1",""
"null","","html-keyboard-response","194","421684","0.0-4.0-2.51","","<div style=""font-size:60px;"">+</div>","null","","","","","","",""
"null","","image-keyboard-response","195","423186","0.0-4.0-0.52","","img/red.png","null","trial","32","false","0.8,0.2","1:go_a","",""
"null","","html-keyboard-response","196","424187","0.0-4.0-1.52","","<img src=""img/red-n.png"">","null","trial","32","","0.8,0.2","1:go_a","0",""
"null","","html-keyboard-response","197","425189","0.0-4.0-2.52","","<div style=""font-size:60px;"">+</div>","null","","","","","","",""
"429.88999997032806","","image-keyboard-response","198","425620","0.0-4.0-0.53","","img/pink.png","32","trial","null","false","0.2,0.8","2:nogo_b","",""
"null","","html-keyboard-response","199","426622","0.0-4.0-1.53","","<img src=""img/pink-n.png"" border=""10"">","null","trial","null","","0.2,0.8","2:nogo_b","0",""
"null","","html-keyboard-response","200","427624","0.0-4.0-2.53","","<div style=""font-size:60px;"">+</div>","null","","","","","","",""
"null","","image-keyboard-response","201","429125","0.0-4.0-0.54","","img/red.png","null","trial","32","false","0.8,0.2","1:go_a","",""
"null","","html-keyboard-response","202","430127","0.0-4.0-1.54","","<img src=""img/red-n.png"">","null","trial","32","","0.8,0.2","1:go_a","0",""
"null","","html-keyboard-response","203","431128","0.0-4.0-2.54","","<div style=""font-size:60px;"">+</div>","null","","","","","","",""
"447.0649999566376","","image-keyboard-response","204","431577","0.0-4.0-0.55","","img/pink.png","32","trial","null","false","0.2,0.8","2:nogo_b","",""
"null","","html-keyboard-response","205","432578","0.0-4.0-1.55","","<img src=""img/pink-n.png"" border=""10"">","null","trial","null","","0.2,0.8","2:nogo_b","0",""
"null","","html-keyboard-response","206","433579","0.0-4.0-2.55","","<div style=""font-size:60px;"">+</div>","null","","","","","","",""
"411.03000001749024","","image-keyboard-response","207","433991","0.0-4.0-0.56","","img/red.png","32","trial","32","true","0.8,0.2","1:go_a","",""
"null","","html-keyboard-response","208","434994","0.0-4.0-1.56","","<img src=""img/red-r.png"" border=""10"">","null","trial","32","","0.8,0.2","1:go_a","1",""
"null","","html-keyboard-response","209","435995","0.0-4.0-2.56","","<div style=""font-size:60px;"">+</div>","null","","","","","","",""
"459.00000003166497","","image-keyboard-response","210","436455","0.0-4.0-0.57","","img/pink.png","32","trial","null","false","0.2,0.8","2:nogo_b","",""
"null","","html-keyboard-response","211","437457","0.0-4.0-1.57","","<img src=""img/pink-n.png"" border=""10"">","null","trial","null","","0.2,0.8","2:nogo_b","0",""
"null","","html-keyboard-response","212","438458","0.0-4.0-2.57","","<div style=""font-size:60px;"">+</div>","null","","","","","","",""
"null","","image-keyboard-response","213","439960","0.0-4.0-0.58","","img/red.png","null","trial","32","false","0.8,0.2","1:go_a","",""
"null","","html-keyboard-response","214","440963","0.0-4.0-1.58","","<img src=""img/red-n.png"">","null","trial","32","","0.8,0.2","1:go_a","0",""
"null","","html-keyboard-response","215","441964","0.0-4.0-2.58","","<div style=""font-size:60px;"">+</div>","null","","","","","","",""
"917.734999966342","","image-keyboard-response","216","442883","0.0-4.0-0.59","","img/pink.png","32","trial","null","false","0.2,0.8","2:nogo_b","",""
"null","","html-keyboard-response","217","443886","0.0-4.0-1.59","","<img src=""img/pink-n.png"" border=""10"">","null","trial","null","","0.2,0.8","2:nogo_b","0",""
"null","","html-keyboard-response","218","444887","0.0-4.0-2.59","","<div style=""font-size:60px;"">+</div>","null","","","","","","",""
"43784.90000002785","","instructions","219","488672","0.0-5.0","[{""page_index"":0,""viewing_time"":43784.485000011045}]","","","","","","","","",""
"1130.9199999668635","","image-keyboard-response","220","489805","0.0-6.0-0.0","","img/orange.png","32","trial","32","true","0.6,0.4","3:go_c","",""
"null","","html-keyboard-response","221","490807","0.0-6.0-1.0","","<img src=""img/orange-n.png"" border=""10"">","null","trial","32","","0.6,0.4","3:go_c","0",""
"null","","html-keyboard-response","222","491809","0.0-6.0-2.0","","<div style=""font-size:60px;"">+</div>","null","","","","","","",""
"331.4299999619834","","image-keyboard-response","223","492142","0.0-6.0-0.1","","img/red.png","32","trial","null","false","0.2,0.8","2:nogo_b","",""
"null","","html-keyboard-response","224","493144","0.0-6.0-1.1","","<img src=""img/red-n.png"" border=""10"">","null","trial","null","","0.2,0.8","2:nogo_b","0",""
"null","","html-keyboard-response","225","494145","0.0-6.0-2.1","","<div style=""font-size:60px;"">+</div>","null","","","","","","",""
"459.5800000242889","","image-keyboard-response","226","494606","0.0-6.0-0.2","","img/pink.png","32","trial","null","false","0.4,0.6","4:nogo_d","",""
"null","","html-keyboard-response","227","495608","0.0-6.0-1.2","","<img src=""img/pink-n.png"" border=""10"">","null","trial","null","","0.4,0.6","4:nogo_d","0",""
"null","","html-keyboard-response","228","496609","0.0-6.0-2.2","","<div style=""font-size:60px;"">+</div>","null","","","","","","",""
"499.1149999550544","","image-keyboard-response","229","497109","0.0-6.0-0.3","","img/yellow.png","32","trial","32","true","0.8,0.2","1:go_a","",""
"null","","html-keyboard-response","230","498111","0.0-6.0-1.3","","<img src=""img/yellow-r.png"" border=""10"">","null","trial","32","","0.8,0.2","1:go_a","1",""
"null","","html-keyboard-response","231","499112","0.0-6.0-2.3","","<div style=""font-size:60px;"">+</div>","null","","","","","","",""
"298.19500003941357","","image-keyboard-response","232","499411","0.0-6.0-0.4","","img/red.png","32","trial","null","false","0.2,0.8","2:nogo_b","",""
"null","","html-keyboard-response","233","500413","0.0-6.0-1.4","","<img src=""img/red-n.png"" border=""10"">","null","trial","null","","0.2,0.8","2:nogo_b","0",""
"null","","html-keyboard-response","234","501415","0.0-6.0-2.4","","<div style=""font-size:60px;"">+</div>","null","","","","","","",""
"400.14500002143905","","image-keyboard-response","235","501816","0.0-6.0-0.5","","img/orange.png","32","trial","32","true","0.6,0.4","3:go_c","",""
"null","","html-keyboard-response","236","502819","0.0-6.0-1.5","","<img src=""img/orange-r.png"" border=""10"">","null","trial","32","","0.6,0.4","3:go_c","1",""
"null","","html-keyboard-response","237","503820","0.0-6.0-2.5","","<div style=""font-size:60px;"">+</div>","null","","","","","","",""
"760.5099999927916","","image-keyboard-response","238","504582","0.0-6.0-0.6","","img/yellow.png","32","trial","32","true","0.8,0.2","1:go_a","",""
"null","","html-keyboard-response","239","505584","0.0-6.0-1.6","","<img src=""img/yellow-r.png"" border=""10"">","null","trial","32","","0.8,0.2","1:go_a","1",""
"null","","html-keyboard-response","240","506585","0.0-6.0-2.6","","<div style=""font-size:60px;"">+</div>","null","","","","","","",""
"null","","image-keyboard-response","241","508086","0.0-6.0-0.7","","img/pink.png","null","trial","null","true","0.4,0.6","4:nogo_d","",""
"null","","html-keyboard-response","242","509088","0.0-6.0-1.7","","<img src=""img/pink-n.png"">","null","trial","null","","0.4,0.6","4:nogo_d","0",""
"null","","html-keyboard-response","243","510089","0.0-6.0-2.7","","<div style=""font-size:60px;"">+</div>","null","","","","","","",""
"465.0699999765493","","image-keyboard-response","244","510556","0.0-6.0-0.8","","img/orange.png","32","trial","32","true","0.6,0.4","3:go_c","",""
"null","","html-keyboard-response","245","511558","0.0-6.0-1.8","","<img src=""img/orange-n.png"" border=""10"">","null","trial","32","","0.6,0.4","3:go_c","0",""
"null","","html-keyboard-response","246","512559","0.0-6.0-2.8","","<div style=""font-size:60px;"">+</div>","null","","","","","","",""
"309.015000006184","","image-keyboard-response","247","512869","0.0-6.0-0.9","","img/yellow.png","32","trial","32","true","0.8,0.2","1:go_a","",""
"null","","html-keyboard-response","248","513871","0.0-6.0-1.9","","<img src=""img/yellow-r.png"" border=""10"">","null","trial","32","","0.8,0.2","1:go_a","1",""
"null","","html-keyboard-response","249","514872","0.0-6.0-2.9","","<div style=""font-size:60px;"">+</div>","null","","","","","","",""
"null","","image-keyboard-response","250","516374","0.0-6.0-0.10","","img/pink.png","null","trial","null","true","0.4,0.6","4:nogo_d","",""
"null","","html-keyboard-response","251","517376","0.0-6.0-1.10","","<img src=""img/pink-n.png"">","null","trial","null","","0.4,0.6","4:nogo_d","0",""
"null","","html-keyboard-response","252","518378","0.0-6.0-2.10","","<div style=""font-size:60px;"">+</div>","null","","","","","","",""
"1200.4450000240467","","image-keyboard-response","253","519579","0.0-6.0-0.11","","img/red.png","32","trial","null","false","0.2,0.8","2:nogo_b","",""
"null","","html-keyboard-response","254","520581","0.0-6.0-1.11","","<img src=""img/red-n.png"" border=""10"">","null","trial","null","","0.2,0.8","2:nogo_b","0",""
"null","","html-keyboard-response","255","521583","0.0-6.0-2.11","","<div style=""font-size:60px;"">+</div>","null","","","","","","",""
"null","","image-keyboard-response","256","523084","0.0-6.0-0.12","","img/red.png","null","trial","null","true","0.2,0.8","2:nogo_b","",""
"null","","html-keyboard-response","257","524086","0.0-6.0-1.12","","<img src=""img/red-r.png"">","null","trial","null","","0.2,0.8","2:nogo_b","1",""
"null","","html-keyboard-response","258","525087","0.0-6.0-2.12","","<div style=""font-size:60px;"">+</div>","null","","","","","","",""
"409.5450000022538","","image-keyboard-response","259","525498","0.0-6.0-0.13","","img/pink.png","32","trial","null","false","0.4,0.6","4:nogo_d","",""
"null","","html-keyboard-response","260","526500","0.0-6.0-1.13","","<img src=""img/pink-r.png"" border=""10"">","null","trial","null","","0.4,0.6","4:nogo_d","1",""
"null","","html-keyboard-response","261","527502","0.0-6.0-2.13","","<div style=""font-size:60px;"">+</div>","null","","","","","","",""
"613.6149999802001","","image-keyboard-response","262","528117","0.0-6.0-0.14","","img/orange.png","32","trial","32","true","0.6,0.4","3:go_c","",""
"null","","html-keyboard-response","263","529118","0.0-6.0-1.14","","<img src=""img/orange-r.png"" border=""10"">","null","trial","32","","0.6,0.4","3:go_c","1",""
"null","","html-keyboard-response","264","530119","0.0-6.0-2.14","","<div style=""font-size:60px;"">+</div>","null","","","","","","",""
"695.7350000157021","","image-keyboard-response","265","530816","0.0-6.0-0.15","","img/yellow.png","32","trial","32","true","0.8,0.2","1:go_a","",""
"null","","html-keyboard-response","266","531818","0.0-6.0-1.15","","<img src=""img/yellow-r.png"" border=""10"">","null","trial","32","","0.8,0.2","1:go_a","1",""
"null","","html-keyboard-response","267","532820","0.0-6.0-2.15","","<div style=""font-size:60px;"">+</div>","null","","","","","","",""
"null","","image-keyboard-response","268","534321","0.0-6.0-0.16","","img/red.png","null","trial","null","true","0.2,0.8","2:nogo_b","",""
"null","","html-keyboard-response","269","535324","0.0-6.0-1.16","","<img src=""img/red-r.png"">","null","trial","null","","0.2,0.8","2:nogo_b","1",""
"null","","html-keyboard-response","270","536325","0.0-6.0-2.16","","<div style=""font-size:60px;"">+</div>","null","","","","","","",""
"null","","image-keyboard-response","271","537826","0.0-6.0-0.17","","img/yellow.png","null","trial","32","false","0.8,0.2","1:go_a","",""
"null","","html-keyboard-response","272","538828","0.0-6.0-1.17","","<img src=""img/yellow-n.png"">","null","trial","32","","0.8,0.2","1:go_a","0",""
"null","","html-keyboard-response","273","539830","0.0-6.0-2.17","","<div style=""font-size:60px;"">+</div>","null","","","","","","",""
"null","","image-keyboard-response","274","541331","0.0-6.0-0.18","","img/pink.png","null","trial","null","true","0.4,0.6","4:nogo_d","",""
"null","","html-keyboard-response","275","542334","0.0-6.0-1.18","","<img src=""img/pink-r.png"">","null","trial","null","","0.4,0.6","4:nogo_d","1",""
"null","","html-keyboard-response","276","543335","0.0-6.0-2.18","","<div style=""font-size:60px;"">+</div>","null","","","","","","",""
"null","","image-keyboard-response","277","544836","0.0-6.0-0.19","","img/orange.png","null","trial","32","false","0.6,0.4","3:go_c","",""
"null","","html-keyboard-response","278","545838","0.0-6.0-1.19","","<img src=""img/orange-n.png"">","null","trial","32","","0.6,0.4","3:go_c","0",""
"null","","html-keyboard-response","279","546839","0.0-6.0-2.19","","<div style=""font-size:60px;"">+</div>","null","","","","","","",""
"514.9999999557622","","image-keyboard-response","280","547355","0.0-6.0-0.20","","img/red.png","32","trial","null","false","0.2,0.8","2:nogo_b","",""
"null","","html-keyboard-response","281","548357","0.0-6.0-1.20","","<img src=""img/red-n.png"" border=""10"">","null","trial","null","","0.2,0.8","2:nogo_b","0",""
"null","","html-keyboard-response","282","549358","0.0-6.0-2.20","","<div style=""font-size:60px;"">+</div>","null","","","","","","",""
"454.8649999778718","","image-keyboard-response","283","549814","0.0-6.0-0.21","","img/yellow.png","32","trial","32","true","0.8,0.2","1:go_a","",""
"null","","html-keyboard-response","284","550816","0.0-6.0-1.21","","<img src=""img/yellow-r.png"" border=""10"">","null","trial","32","","0.8,0.2","1:go_a","1",""
"null","","html-keyboard-response","285","551817","0.0-6.0-2.21","","<div style=""font-size:60px;"">+</div>","null","","","","","","",""
"416.3900000276044","","image-keyboard-response","286","552235","0.0-6.0-0.22","","img/orange.png","32","trial","32","true","0.6,0.4","3:go_c","",""
"null","","html-keyboard-response","287","553237","0.0-6.0-1.22","","<img src=""img/orange-r.png"" border=""10"">","null","trial","32","","0.6,0.4","3:go_c","1",""
"null","","html-keyboard-response","288","554237","0.0-6.0-2.22","","<div style=""font-size:60px;"">+</div>","null","","","","","","",""
"467.52500004367903","","image-keyboard-response","289","554706","0.0-6.0-0.23","","img/pink.png","32","trial","null","false","0.4,0.6","4:nogo_d","",""
"null","","html-keyboard-response","290","555709","0.0-6.0-1.23","","<img src=""img/pink-n.png"" border=""10"">","null","trial","null","","0.4,0.6","4:nogo_d","0",""
"null","","html-keyboard-response","291","556710","0.0-6.0-2.23","","<div style=""font-size:60px;"">+</div>","null","","","","","","",""
"811.5150000085123","","image-keyboard-response","292","557523","0.0-6.0-0.24","","img/yellow.png","32","trial","32","true","0.8,0.2","1:go_a","",""
"null","","html-keyboard-response","293","558525","0.0-6.0-1.24","","<img src=""img/yellow-r.png"" border=""10"">","null","trial","32","","0.8,0.2","1:go_a","1",""
"null","","html-keyboard-response","294","559526","0.0-6.0-2.24","","<div style=""font-size:60px;"">+</div>","null","","","","","","",""
"795.8950000465848","","image-keyboard-response","295","560324","0.0-6.0-0.25","","img/orange.png","32","trial","32","true","0.6,0.4","3:go_c","",""
"null","","html-keyboard-response","296","561326","0.0-6.0-1.25","","<img src=""img/orange-r.png"" border=""10"">","null","trial","32","","0.6,0.4","3:go_c","1",""
"null","","html-keyboard-response","297","562327","0.0-6.0-2.25","","<div style=""font-size:60px;"">+</div>","null","","","","","","",""
"null","","image-keyboard-response","298","563829","0.0-6.0-0.26","","img/red.png","null","trial","null","true","0.2,0.8","2:nogo_b","",""
"null","","html-keyboard-response","299","564830","0.0-6.0-1.26","","<img src=""img/red-r.png"">","null","trial","null","","0.2,0.8","2:nogo_b","1",""
"null","","html-keyboard-response","300","565831","0.0-6.0-2.26","","<div style=""font-size:60px;"">+</div>","null","","","","","","",""
"456.83000003919005","","image-keyboard-response","301","566290","0.0-6.0-0.27","","img/pink.png","32","trial","null","false","0.4,0.6","4:nogo_d","",""
"null","","html-keyboard-response","302","567292","0.0-6.0-1.27","","<img src=""img/pink-r.png"" border=""10"">","null","trial","null","","0.4,0.6","4:nogo_d","1",""
"null","","html-keyboard-response","303","568293","0.0-6.0-2.27","","<div style=""font-size:60px;"">+</div>","null","","","","","","",""
"null","","image-keyboard-response","304","569795","0.0-6.0-0.28","","img/pink.png","null","trial","null","true","0.4,0.6","4:nogo_d","",""
"null","","html-keyboard-response","305","570797","0.0-6.0-1.28","","<img src=""img/pink-r.png"">","null","trial","null","","0.4,0.6","4:nogo_d","1",""
"null","","html-keyboard-response","306","571798","0.0-6.0-2.28","","<div style=""font-size:60px;"">+</div>","null","","","","","","",""
"1402.3049999959767","","image-keyboard-response","307","573202","0.0-6.0-0.29","","img/red.png","32","trial","null","false","0.2,0.8","2:nogo_b","",""
"null","","html-keyboard-response","308","574204","0.0-6.0-1.29","","<img src=""img/red-n.png"" border=""10"">","null","trial","null","","0.2,0.8","2:nogo_b","0",""
"null","","html-keyboard-response","309","575206","0.0-6.0-2.29","","<div style=""font-size:60px;"">+</div>","null","","","","","","",""
"693.1549999862909","","image-keyboard-response","310","575900","0.0-6.0-0.30","","img/yellow.png","32","trial","32","true","0.8,0.2","1:go_a","",""
"null","","html-keyboard-response","311","576902","0.0-6.0-1.30","","<img src=""img/yellow-r.png"" border=""10"">","null","trial","32","","0.8,0.2","1:go_a","1",""
"null","","html-keyboard-response","312","577904","0.0-6.0-2.30","","<div style=""font-size:60px;"">+</div>","null","","","","","","",""
"774.3100000079721","","image-keyboard-response","313","578679","0.0-6.0-0.31","","img/orange.png","32","trial","32","true","0.6,0.4","3:go_c","",""
"null","","html-keyboard-response","314","579682","0.0-6.0-1.31","","<img src=""img/orange-r.png"" border=""10"">","null","trial","32","","0.6,0.4","3:go_c","1",""
"null","","html-keyboard-response","315","580683","0.0-6.0-2.31","","<div style=""font-size:60px;"">+</div>","null","","","","","","",""
"946.0749999852851","","image-keyboard-response","316","581631","0.0-6.0-0.32","","img/pink.png","32","trial","null","false","0.4,0.6","4:nogo_d","",""
"null","","html-keyboard-response","317","582633","0.0-6.0-1.32","","<img src=""img/pink-r.png"" border=""10"">","null","trial","null","","0.4,0.6","4:nogo_d","1",""
"null","","html-keyboard-response","318","583634","0.0-6.0-2.32","","<div style=""font-size:60px;"">+</div>","null","","","","","","",""
"691.6799999889918","","image-keyboard-response","319","584328","0.0-6.0-0.33","","img/yellow.png","32","trial","32","true","0.8,0.2","1:go_a","",""
"null","","html-keyboard-response","320","585329","0.0-6.0-1.33","","<img src=""img/yellow-r.png"" border=""10"">","null","trial","32","","0.8,0.2","1:go_a","1",""
"null","","html-keyboard-response","321","586331","0.0-6.0-2.33","","<div style=""font-size:60px;"">+</div>","null","","","","","","",""
"447.30999995954335","","image-keyboard-response","322","586779","0.0-6.0-0.34","","img/orange.png","32","trial","32","true","0.6,0.4","3:go_c","",""
"null","","html-keyboard-response","323","587782","0.0-6.0-1.34","","<img src=""img/orange-r.png"" border=""10"">","null","trial","32","","0.6,0.4","3:go_c","1",""
"null","","html-keyboard-response","324","588783","0.0-6.0-2.34","","<div style=""font-size:60px;"">+</div>","null","","","","","","",""
"838.5400000261143","","image-keyboard-response","325","589622","0.0-6.0-0.35","","img/red.png","32","trial","null","false","0.2,0.8","2:nogo_b","",""
"null","","html-keyboard-response","326","590626","0.0-6.0-1.35","","<img src=""img/red-r.png"" border=""10"">","null","trial","null","","0.2,0.8","2:nogo_b","1",""
"null","","html-keyboard-response","327","591626","0.0-6.0-2.35","","<div style=""font-size:60px;"">+</div>","null","","","","","","",""
"594.2599999834783","","image-keyboard-response","328","592222","0.0-6.0-0.36","","img/yellow.png","32","trial","32","true","0.8,0.2","1:go_a","",""
"null","","html-keyboard-response","329","593224","0.0-6.0-1.36","","<img src=""img/yellow-r.png"" border=""10"">","null","trial","32","","0.8,0.2","1:go_a","1",""
"null","","html-keyboard-response","330","594225","0.0-6.0-2.36","","<div style=""font-size:60px;"">+</div>","null","","","","","","",""
"858.2450000103563","","image-keyboard-response","331","595085","0.0-6.0-0.37","","img/orange.png","32","trial","32","true","0.6,0.4","3:go_c","",""
"null","","html-keyboard-response","332","596087","0.0-6.0-1.37","","<img src=""img/orange-r.png"" border=""10"">","null","trial","32","","0.6,0.4","3:go_c","1",""
"null","","html-keyboard-response","333","597089","0.0-6.0-2.37","","<div style=""font-size:60px;"">+</div>","null","","","","","","",""
"450.06000000284985","","image-keyboard-response","334","597540","0.0-6.0-0.38","","img/red.png","32","trial","null","false","0.2,0.8","2:nogo_b","",""
"null","","html-keyboard-response","335","598542","0.0-6.0-1.38","","<img src=""img/red-r.png"" border=""10"">","null","trial","null","","0.2,0.8","2:nogo_b","1",""
"null","","html-keyboard-response","336","599544","0.0-6.0-2.38","","<div style=""font-size:60px;"">+</div>","null","","","","","","",""
"814.1199999954551","","image-keyboard-response","337","600360","0.0-6.0-0.39","","img/pink.png","32","trial","null","false","0.4,0.6","4:nogo_d","",""
"null","","html-keyboard-response","338","601362","0.0-6.0-1.39","","<img src=""img/pink-n.png"" border=""10"">","null","trial","null","","0.4,0.6","4:nogo_d","0",""
"null","","html-keyboard-response","339","602364","0.0-6.0-2.39","","<div style=""font-size:60px;"">+</div>","null","","","","","","",""
"847.0600000000559","","image-keyboard-response","340","603212","0.0-6.0-0.40","","img/orange.png","32","trial","32","true","0.6,0.4","3:go_c","",""
"null","","html-keyboard-response","341","604214","0.0-6.0-1.40","","<img src=""img/orange-r.png"" border=""10"">","null","trial","32","","0.6,0.4","3:go_c","1",""
"null","","html-keyboard-response","342","605215","0.0-6.0-2.40","","<div style=""font-size:60px;"">+</div>","null","","","","","","",""
"1008.6950000259094","","image-keyboard-response","343","606225","0.0-6.0-0.41","","img/yellow.png","32","trial","32","true","0.8,0.2","1:go_a","",""
"null","","html-keyboard-response","344","607226","0.0-6.0-1.41","","<img src=""img/yellow-r.png"" border=""10"">","null","trial","32","","0.8,0.2","1:go_a","1",""
"null","","html-keyboard-response","345","608228","0.0-6.0-2.41","","<div style=""font-size:60px;"">+</div>","null","","","","","","",""
"856.339999998454","","image-keyboard-response","346","609086","0.0-6.0-0.42","","img/pink.png","32","trial","null","false","0.4,0.6","4:nogo_d","",""
"null","","html-keyboard-response","347","610088","0.0-6.0-1.42","","<img src=""img/pink-n.png"" border=""10"">","null","trial","null","","0.4,0.6","4:nogo_d","0",""
"null","","html-keyboard-response","348","611089","0.0-6.0-2.42","","<div style=""font-size:60px;"">+</div>","null","","","","","","",""
"1466.4650000049733","","image-keyboard-response","349","612556","0.0-6.0-0.43","","img/red.png","32","trial","null","false","0.2,0.8","2:nogo_b","",""
"null","","html-keyboard-response","350","613558","0.0-6.0-1.43","","<img src=""img/red-n.png"" border=""10"">","null","trial","null","","0.2,0.8","2:nogo_b","0",""
"null","","html-keyboard-response","351","614560","0.0-6.0-2.43","","<div style=""font-size:60px;"">+</div>","null","","","","","","",""
"null","","image-keyboard-response","352","616061","0.0-6.0-0.44","","img/orange.png","null","trial","32","false","0.6,0.4","3:go_c","",""
"null","","html-keyboard-response","353","617063","0.0-6.0-1.44","","<img src=""img/orange-r.png"">","null","trial","32","","0.6,0.4","3:go_c","1",""
"null","","html-keyboard-response","354","618064","0.0-6.0-2.44","","<div style=""font-size:60px;"">+</div>","null","","","","","","",""
"1395.250000001397","","image-keyboard-response","355","619460","0.0-6.0-0.45","","img/yellow.png","32","trial","32","true","0.8,0.2","1:go_a","",""
"null","","html-keyboard-response","356","620463","0.0-6.0-1.45","","<img src=""img/yellow-r.png"" border=""10"">","null","trial","32","","0.8,0.2","1:go_a","1",""
"null","","html-keyboard-response","357","621464","0.0-6.0-2.45","","<div style=""font-size:60px;"">+</div>","null","","","","","","",""
"393.8099999795668","","image-keyboard-response","358","621859","0.0-6.0-0.46","","img/red.png","32","trial","null","false","0.2,0.8","2:nogo_b","",""
"null","","html-keyboard-response","359","622861","0.0-6.0-1.46","","<img src=""img/red-r.png"" border=""10"">","null","trial","null","","0.2,0.8","2:nogo_b","1",""
"null","","html-keyboard-response","360","623863","0.0-6.0-2.46","","<div style=""font-size:60px;"">+</div>","null","","","","","","",""
"1055.965000006836","","image-keyboard-response","361","624920","0.0-6.0-0.47","","img/pink.png","32","trial","null","false","0.4,0.6","4:nogo_d","",""
"null","","html-keyboard-response","362","625923","0.0-6.0-1.47","","<img src=""img/pink-n.png"" border=""10"">","null","trial","null","","0.4,0.6","4:nogo_d","0",""
"null","","html-keyboard-response","363","626924","0.0-6.0-2.47","","<div style=""font-size:60px;"">+</div>","null","","","","","","",""
"321.10499998088926","","image-keyboard-response","364","627246","0.0-6.0-0.48","","img/yellow.png","32","trial","32","true","0.8,0.2","1:go_a","",""
"null","","html-keyboard-response","365","628249","0.0-6.0-1.48","","<img src=""img/yellow-r.png"" border=""10"">","null","trial","32","","0.8,0.2","1:go_a","1",""
"null","","html-keyboard-response","366","629250","0.0-6.0-2.48","","<div style=""font-size:60px;"">+</div>","null","","","","","","",""
"870.1299999956973","","image-keyboard-response","367","630122","0.0-6.0-0.49","","img/orange.png","32","trial","32","true","0.6,0.4","3:go_c","",""
"null","","html-keyboard-response","368","631124","0.0-6.0-1.49","","<img src=""img/orange-n.png"" border=""10"">","null","trial","32","","0.6,0.4","3:go_c","0",""
"null","","html-keyboard-response","369","632126","0.0-6.0-2.49","","<div style=""font-size:60px;"">+</div>","null","","","","","","",""
"null","","image-keyboard-response","370","633628","0.0-6.0-0.50","","img/pink.png","null","trial","null","true","0.4,0.6","4:nogo_d","",""
"null","","html-keyboard-response","371","634630","0.0-6.0-1.50","","<img src=""img/pink-r.png"">","null","trial","null","","0.4,0.6","4:nogo_d","1",""
"null","","html-keyboard-response","372","635631","0.0-6.0-2.50","","<div style=""font-size:60px;"">+</div>","null","","","","","","",""
"448.3399999444373","","image-keyboard-response","373","636081","0.0-6.0-0.51","","img/red.png","32","trial","null","false","0.2,0.8","2:nogo_b","",""
"null","","html-keyboard-response","374","637083","0.0-6.0-1.51","","<img src=""img/red-n.png"" border=""10"">","null","trial","null","","0.2,0.8","2:nogo_b","0",""
"null","","html-keyboard-response","375","638085","0.0-6.0-2.51","","<div style=""font-size:60px;"">+</div>","null","","","","","","",""
"556.284999998752","","image-keyboard-response","376","638643","0.0-6.0-0.52","","img/pink.png","32","trial","null","false","0.4,0.6","4:nogo_d","",""
"null","","html-keyboard-response","377","639646","0.0-6.0-1.52","","<img src=""img/pink-r.png"" border=""10"">","null","trial","null","","0.4,0.6","4:nogo_d","1",""
"null","","html-keyboard-response","378","640647","0.0-6.0-2.52","","<div style=""font-size:60px;"">+</div>","null","","","","","","",""
"null","","image-keyboard-response","379","642149","0.0-6.0-0.53","","img/red.png","null","trial","null","true","0.2,0.8","2:nogo_b","",""
"null","","html-keyboard-response","380","643150","0.0-6.0-1.53","","<img src=""img/red-r.png"">","null","trial","null","","0.2,0.8","2:nogo_b","1",""
"null","","html-keyboard-response","381","644152","0.0-6.0-2.53","","<div style=""font-size:60px;"">+</div>","null","","","","","","",""
"494.8699999949895","","image-keyboard-response","382","644648","0.0-6.0-0.54","","img/orange.png","32","trial","32","true","0.6,0.4","3:go_c","",""
"null","","html-keyboard-response","383","645650","0.0-6.0-1.54","","<img src=""img/orange-r.png"" border=""10"">","null","trial","32","","0.6,0.4","3:go_c","1",""
"null","","html-keyboard-response","384","646652","0.0-6.0-2.54","","<div style=""font-size:60px;"">+</div>","null","","","","","","",""
"725.2599999774247","","image-keyboard-response","385","647378","0.0-6.0-0.55","","img/yellow.png","32","trial","32","true","0.8,0.2","1:go_a","",""
"null","","html-keyboard-response","386","648380","0.0-6.0-1.55","","<img src=""img/yellow-n.png"" border=""10"">","null","trial","32","","0.8,0.2","1:go_a","0",""
"null","","html-keyboard-response","387","649381","0.0-6.0-2.55","","<div style=""font-size:60px;"">+</div>","null","","","","","","",""
"668.695000000298","","image-keyboard-response","388","650051","0.0-6.0-0.56","","img/orange.png","32","trial","32","true","0.6,0.4","3:go_c","",""
"null","","html-keyboard-response","389","651057","0.0-6.0-1.56","","<img src=""img/orange-r.png"" border=""10"">","null","trial","32","","0.6,0.4","3:go_c","1",""
"null","","html-keyboard-response","390","652058","0.0-6.0-2.56","","<div style=""font-size:60px;"">+</div>","null","","","","","","",""
"null","","image-keyboard-response","391","653560","0.0-6.0-0.57","","img/red.png","null","trial","null","true","0.2,0.8","2:nogo_b","",""
"null","","html-keyboard-response","392","654562","0.0-6.0-1.57","","<img src=""img/red-r.png"">","null","trial","null","","0.2,0.8","2:nogo_b","1",""
"null","","html-keyboard-response","393","655563","0.0-6.0-2.57","","<div style=""font-size:60px;"">+</div>","null","","","","","","",""
"657.1600000024773","","image-keyboard-response","394","656221","0.0-6.0-0.58","","img/pink.png","32","trial","null","false","0.4,0.6","4:nogo_d","",""
"null","","html-keyboard-response","395","657224","0.0-6.0-1.58","","<img src=""img/pink-n.png"" border=""10"">","null","trial","null","","0.4,0.6","4:nogo_d","0",""
"null","","html-keyboard-response","396","658226","0.0-6.0-2.58","","<div style=""font-size:60px;"">+</div>","null","","","","","","",""
"487.7950000227429","","image-keyboard-response","397","658715","0.0-6.0-0.59","","img/yellow.png","32","trial","32","true","0.8,0.2","1:go_a","",""
"null","","html-keyboard-response","398","659717","0.0-6.0-1.59","","<img src=""img/yellow-n.png"" border=""10"">","null","trial","32","","0.8,0.2","1:go_a","0",""
"null","","html-keyboard-response","399","660718","0.0-6.0-2.59","","<div style=""font-size:60px;"">+</div>","null","","","","","","",""
"575.1300000119954","","image-keyboard-response","400","661294","0.0-6.0-0.60","","img/red.png","32","trial","null","false","0.2,0.8","2:nogo_b","",""
"null","","html-keyboard-response","401","662296","0.0-6.0-1.60","","<img src=""img/red-r.png"" border=""10"">","null","trial","null","","0.2,0.8","2:nogo_b","1",""
"null","","html-keyboard-response","402","663297","0.0-6.0-2.60","","<div style=""font-size:60px;"">+</div>","null","","","","","","",""
"746.8999999691732","","image-keyboard-response","403","664045","0.0-6.0-0.61","","img/pink.png","32","trial","null","false","0.4,0.6","4:nogo_d","",""
"null","","html-keyboard-response","404","665048","0.0-6.0-1.61","","<img src=""img/pink-r.png"" border=""10"">","null","trial","null","","0.4,0.6","4:nogo_d","1",""
"null","","html-keyboard-response","405","666049","0.0-6.0-2.61","","<div style=""font-size:60px;"">+</div>","null","","","","","","",""
"987.2850000392646","","image-keyboard-response","406","667038","0.0-6.0-0.62","","img/orange.png","32","trial","32","true","0.6,0.4","3:go_c","",""
"null","","html-keyboard-response","407","668040","0.0-6.0-1.62","","<img src=""img/orange-n.png"" border=""10"">","null","trial","32","","0.6,0.4","3:go_c","0",""
"null","","html-keyboard-response","408","669042","0.0-6.0-2.62","","<div style=""font-size:60px;"">+</div>","null","","","","","","",""
"1294.0200000302866","","image-keyboard-response","409","670337","0.0-6.0-0.63","","img/yellow.png","32","trial","32","true","0.8,0.2","1:go_a","",""
"null","","html-keyboard-response","410","671339","0.0-6.0-1.63","","<img src=""img/yellow-r.png"" border=""10"">","null","trial","32","","0.8,0.2","1:go_a","1",""
"null","","html-keyboard-response","411","672340","0.0-6.0-2.63","","<div style=""font-size:60px;"">+</div>","null","","","","","","",""
"null","","image-keyboard-response","412","673841","0.0-6.0-0.64","","img/red.png","null","trial","null","true","0.2,0.8","2:nogo_b","",""
"null","","html-keyboard-response","413","674844","0.0-6.0-1.64","","<img src=""img/red-r.png"">","null","trial","null","","0.2,0.8","2:nogo_b","1",""
"null","","html-keyboard-response","414","675845","0.0-6.0-2.64","","<div style=""font-size:60px;"">+</div>","null","","","","","","",""
"526.2000000220723","","image-keyboard-response","415","676372","0.0-6.0-0.65","","img/pink.png","32","trial","null","false","0.4,0.6","4:nogo_d","",""
"null","","html-keyboard-response","416","677374","0.0-6.0-1.65","","<img src=""img/pink-n.png"" border=""10"">","null","trial","null","","0.4,0.6","4:nogo_d","0",""
"null","","html-keyboard-response","417","678376","0.0-6.0-2.65","","<div style=""font-size:60px;"">+</div>","null","","","","","","",""
"604.9849999835715","","image-keyboard-response","418","678982","0.0-6.0-0.66","","img/yellow.png","32","trial","32","true","0.8,0.2","1:go_a","",""
"null","","html-keyboard-response","419","679984","0.0-6.0-1.66","","<img src=""img/yellow-r.png"" border=""10"">","null","trial","32","","0.8,0.2","1:go_a","1",""
"null","","html-keyboard-response","420","680986","0.0-6.0-2.66","","<div style=""font-size:60px;"">+</div>","null","","","","","","",""
"888.8600000063889","","image-keyboard-response","421","681876","0.0-6.0-0.67","","img/orange.png","32","trial","32","true","0.6,0.4","3:go_c","",""
"null","","html-keyboard-response","422","682878","0.0-6.0-1.67","","<img src=""img/orange-r.png"" border=""10"">","null","trial","32","","0.6,0.4","3:go_c","1",""
"null","","html-keyboard-response","423","683880","0.0-6.0-2.67","","<div style=""font-size:60px;"">+</div>","null","","","","","","",""
"726.0949999908917","","image-keyboard-response","424","684607","0.0-6.0-0.68","","img/yellow.png","32","trial","32","true","0.8,0.2","1:go_a","",""
"null","","html-keyboard-response","425","685609","0.0-6.0-1.68","","<img src=""img/yellow-r.png"" border=""10"">","null","trial","32","","0.8,0.2","1:go_a","1",""
"null","","html-keyboard-response","426","686611","0.0-6.0-2.68","","<div style=""font-size:60px;"">+</div>","null","","","","","","",""
"674.7449999675155","","image-keyboard-response","427","687287","0.0-6.0-0.69","","img/orange.png","32","trial","32","true","0.6,0.4","3:go_c","",""
"null","","html-keyboard-response","428","688289","0.0-6.0-1.69","","<img src=""img/orange-r.png"" border=""10"">","null","trial","32","","0.6,0.4","3:go_c","1",""
"null","","html-keyboard-response","429","689290","0.0-6.0-2.69","","<div style=""font-size:60px;"">+</div>","null","","","","","","",""
"781.2750000157394","","image-keyboard-response","430","690073","0.0-6.0-0.70","","img/pink.png","32","trial","null","false","0.4,0.6","4:nogo_d","",""
"null","","html-keyboard-response","431","691075","0.0-6.0-1.70","","<img src=""img/pink-r.png"" border=""10"">","null","trial","null","","0.4,0.6","4:nogo_d","1",""
"null","","html-keyboard-response","432","692076","0.0-6.0-2.70","","<div style=""font-size:60px;"">+</div>","null","","","","","","",""
"null","","image-keyboard-response","433","693578","0.0-6.0-0.71","","img/red.png","null","trial","null","true","0.2,0.8","2:nogo_b","",""
"null","","html-keyboard-response","434","694580","0.0-6.0-1.71","","<img src=""img/red-r.png"">","null","trial","null","","0.2,0.8","2:nogo_b","1",""
"null","","html-keyboard-response","435","695582","0.0-6.0-2.71","","<div style=""font-size:60px;"">+</div>","null","","","","","","",""
"null","","image-keyboard-response","436","697083","0.0-6.0-0.72","","img/pink.png","null","trial","null","true","0.4,0.6","4:nogo_d","",""
"null","","html-keyboard-response","437","698085","0.0-6.0-1.72","","<img src=""img/pink-n.png"">","null","trial","null","","0.4,0.6","4:nogo_d","0",""
"null","","html-keyboard-response","438","699086","0.0-6.0-2.72","","<div style=""font-size:60px;"">+</div>","null","","","","","","",""
"null","","image-keyboard-response","439","700588","0.0-6.0-0.73","","img/red.png","null","trial","null","true","0.2,0.8","2:nogo_b","",""
"null","","html-keyboard-response","440","701590","0.0-6.0-1.73","","<img src=""img/red-r.png"">","null","trial","null","","0.2,0.8","2:nogo_b","1",""
"null","","html-keyboard-response","441","702591","0.0-6.0-2.73","","<div style=""font-size:60px;"">+</div>","null","","","","","","",""
"432.3799999547191","","image-keyboard-response","442","703025","0.0-6.0-0.74","","img/orange.png","32","trial","32","true","0.6,0.4","3:go_c","",""
"null","","html-keyboard-response","443","704027","0.0-6.0-1.74","","<img src=""img/orange-n.png"" border=""10"">","null","trial","32","","0.6,0.4","3:go_c","0",""
"null","","html-keyboard-response","444","705029","0.0-6.0-2.74","","<div style=""font-size:60px;"">+</div>","null","","","","","","",""
"592.8300000377931","","image-keyboard-response","445","705623","0.0-6.0-0.75","","img/yellow.png","32","trial","32","true","0.8,0.2","1:go_a","",""
"null","","html-keyboard-response","446","706625","0.0-6.0-1.75","","<img src=""img/yellow-r.png"" border=""10"">","null","trial","32","","0.8,0.2","1:go_a","1",""
"null","","html-keyboard-response","447","707626","0.0-6.0-2.75","","<div style=""font-size:60px;"">+</div>","null","","","","","","",""
"null","","image-keyboard-response","448","709127","0.0-6.0-0.76","","img/red.png","null","trial","null","true","0.2,0.8","2:nogo_b","",""
"null","","html-keyboard-response","449","710129","0.0-6.0-1.76","","<img src=""img/red-n.png"">","null","trial","null","","0.2,0.8","2:nogo_b","0",""
"null","","html-keyboard-response","450","711130","0.0-6.0-2.76","","<div style=""font-size:60px;"">+</div>","null","","","","","","",""
"728.3300000126474","","image-keyboard-response","451","711860","0.0-6.0-0.77","","img/pink.png","32","trial","null","false","0.4,0.6","4:nogo_d","",""
"null","","html-keyboard-response","452","712862","0.0-6.0-1.77","","<img src=""img/pink-r.png"" border=""10"">","null","trial","null","","0.4,0.6","4:nogo_d","1",""
"null","","html-keyboard-response","453","713863","0.0-6.0-2.77","","<div style=""font-size:60px;"">+</div>","null","","","","","","",""
"729.590000002645","","image-keyboard-response","454","714594","0.0-6.0-0.78","","img/orange.png","32","trial","32","true","0.6,0.4","3:go_c","",""
"null","","html-keyboard-response","455","715596","0.0-6.0-1.78","","<img src=""img/orange-r.png"" border=""10"">","null","trial","32","","0.6,0.4","3:go_c","1",""
"null","","html-keyboard-response","456","716597","0.0-6.0-2.78","","<div style=""font-size:60px;"">+</div>","null","","","","","","",""
"913.730000029318","","image-keyboard-response","457","717512","0.0-6.0-0.79","","img/yellow.png","32","trial","32","true","0.8,0.2","1:go_a","",""
"null","","html-keyboard-response","458","718514","0.0-6.0-1.79","","<img src=""img/yellow-r.png"" border=""10"">","null","trial","32","","0.8,0.2","1:go_a","1",""
"null","","html-keyboard-response","459","719516","0.0-6.0-2.79","","<div style=""font-size:60px;"">+</div>","null","","","","","","",""
"null","","image-keyboard-response","460","721017","0.0-6.0-0.80","","img/red.png","null","trial","null","true","0.2,0.8","2:nogo_b","",""
"null","","html-keyboard-response","461","722019","0.0-6.0-1.80","","<img src=""img/red-n.png"">","null","trial","null","","0.2,0.8","2:nogo_b","0",""
"null","","html-keyboard-response","462","723021","0.0-6.0-2.80","","<div style=""font-size:60px;"">+</div>","null","","","","","","",""
"460.3800000040792","","image-keyboard-response","463","723483","0.0-6.0-0.81","","img/orange.png","32","trial","32","true","0.6,0.4","3:go_c","",""
"null","","html-keyboard-response","464","724485","0.0-6.0-1.81","","<img src=""img/orange-n.png"" border=""10"">","null","trial","32","","0.6,0.4","3:go_c","0",""
"null","","html-keyboard-response","465","725486","0.0-6.0-2.81","","<div style=""font-size:60px;"">+</div>","null","","","","","","",""
"520.7700000028126","","image-keyboard-response","466","726008","0.0-6.0-0.82","","img/pink.png","32","trial","null","false","0.4,0.6","4:nogo_d","",""
"null","","html-keyboard-response","467","727010","0.0-6.0-1.82","","<img src=""img/pink-r.png"" border=""10"">","null","trial","null","","0.4,0.6","4:nogo_d","1",""
"null","","html-keyboard-response","468","728011","0.0-6.0-2.82","","<div style=""font-size:60px;"">+</div>","null","","","","","","",""
"530.3200000198558","","image-keyboard-response","469","728543","0.0-6.0-0.83","","img/yellow.png","32","trial","32","true","0.8,0.2","1:go_a","",""
"null","","html-keyboard-response","470","729546","0.0-6.0-1.83","","<img src=""img/yellow-r.png"" border=""10"">","null","trial","32","","0.8,0.2","1:go_a","1",""
"null","","html-keyboard-response","471","730547","0.0-6.0-2.83","","<div style=""font-size:60px;"">+</div>","null","","","","","","",""
"395.35499998601153","","image-keyboard-response","472","730944","0.0-6.0-0.84","","img/yellow.png","32","trial","32","true","0.8,0.2","1:go_a","",""
"null","","html-keyboard-response","473","731946","0.0-6.0-1.84","","<img src=""img/yellow-r.png"" border=""10"">","null","trial","32","","0.8,0.2","1:go_a","1",""
"null","","html-keyboard-response","474","732947","0.0-6.0-2.84","","<div style=""font-size:60px;"">+</div>","null","","","","","","",""
"840.5349999666214","","image-keyboard-response","475","733789","0.0-6.0-0.85","","img/red.png","32","trial","null","false","0.2,0.8","2:nogo_b","",""
"null","","html-keyboard-response","476","734791","0.0-6.0-1.85","","<img src=""img/red-r.png"" border=""10"">","null","trial","null","","0.2,0.8","2:nogo_b","1",""
"null","","html-keyboard-response","477","735793","0.0-6.0-2.85","","<div style=""font-size:60px;"">+</div>","null","","","","","","",""
"804.7049999586307","","image-keyboard-response","478","736599","0.0-6.0-0.86","","img/pink.png","32","trial","null","false","0.4,0.6","4:nogo_d","",""
"null","","html-keyboard-response","479","737601","0.0-6.0-1.86","","<img src=""img/pink-n.png"" border=""10"">","null","trial","null","","0.4,0.6","4:nogo_d","0",""
"null","","html-keyboard-response","480","738603","0.0-6.0-2.86","","<div style=""font-size:60px;"">+</div>","null","","","","","","",""
"546.2649999535643","","image-keyboard-response","481","739150","0.0-6.0-0.87","","img/orange.png","32","trial","32","true","0.6,0.4","3:go_c","",""
"null","","html-keyboard-response","482","740153","0.0-6.0-1.87","","<img src=""img/orange-r.png"" border=""10"">","null","trial","32","","0.6,0.4","3:go_c","1",""
"null","","html-keyboard-response","483","741154","0.0-6.0-2.87","","<div style=""font-size:60px;"">+</div>","null","","","","","","",""
"683.919999981299","","image-keyboard-response","484","741840","0.0-6.0-0.88","","img/pink.png","32","trial","null","false","0.4,0.6","4:nogo_d","",""
"null","","html-keyboard-response","485","742842","0.0-6.0-1.88","","<img src=""img/pink-r.png"" border=""10"">","null","trial","null","","0.4,0.6","4:nogo_d","1",""
"null","","html-keyboard-response","486","743843","0.0-6.0-2.88","","<div style=""font-size:60px;"">+</div>","null","","","","","","",""
"1306.110000004992","","image-keyboard-response","487","745151","0.0-6.0-0.89","","img/red.png","32","trial","null","false","0.2,0.8","2:nogo_b","",""
"null","","html-keyboard-response","488","746153","0.0-6.0-1.89","","<img src=""img/red-n.png"" border=""10"">","null","trial","null","","0.2,0.8","2:nogo_b","0",""
"null","","html-keyboard-response","489","747154","0.0-6.0-2.89","","<div style=""font-size:60px;"">+</div>","null","","","","","","",""
"711.6999999852851","","image-keyboard-response","490","747867","0.0-6.0-0.90","","img/orange.png","32","trial","32","true","0.6,0.4","3:go_c","",""
"null","","html-keyboard-response","491","748869","0.0-6.0-1.90","","<img src=""img/orange-n.png"" border=""10"">","null","trial","32","","0.6,0.4","3:go_c","0",""
"null","","html-keyboard-response","492","749870","0.0-6.0-2.90","","<div style=""font-size:60px;"">+</div>","null","","","","","","",""
"null","","image-keyboard-response","493","751372","0.0-6.0-0.91","","img/yellow.png","null","trial","32","false","0.8,0.2","1:go_a","",""
"null","","html-keyboard-response","494","752374","0.0-6.0-1.91","","<img src=""img/yellow-r.png"">","null","trial","32","","0.8,0.2","1:go_a","1",""
"null","","html-keyboard-response","495","753375","0.0-6.0-2.91","","<div style=""font-size:60px;"">+</div>","null","","","","","","",""
"1416.8449999997392","","image-keyboard-response","496","754793","0.0-6.0-0.92","","img/pink.png","32","trial","null","false","0.4,0.6","4:nogo_d","",""
"null","","html-keyboard-response","497","755796","0.0-6.0-1.92","","<img src=""img/pink-n.png"" border=""10"">","null","trial","null","","0.4,0.6","4:nogo_d","0",""
"null","","html-keyboard-response","498","756797","0.0-6.0-2.92","","<div style=""font-size:60px;"">+</div>","null","","","","","","",""
"389.6400000085123","","image-keyboard-response","499","757188","0.0-6.0-0.93","","img/orange.png","32","trial","32","true","0.6,0.4","3:go_c","",""
"null","","html-keyboard-response","500","758190","0.0-6.0-1.93","","<img src=""img/orange-r.png"" border=""10"">","null","trial","32","","0.6,0.4","3:go_c","1",""
"null","","html-keyboard-response","501","759192","0.0-6.0-2.93","","<div style=""font-size:60px;"">+</div>","null","","","","","","",""
"599.9500000034459","","image-keyboard-response","502","759793","0.0-6.0-0.94","","img/red.png","32","trial","null","false","0.2,0.8","2:nogo_b","",""
"null","","html-keyboard-response","503","760795","0.0-6.0-1.94","","<img src=""img/red-n.png"" border=""10"">","null","trial","null","","0.2,0.8","2:nogo_b","0",""
"null","","html-keyboard-response","504","761797","0.0-6.0-2.94","","<div style=""font-size:60px;"">+</div>","null","","","","","","",""
"646.2150000152178","","image-keyboard-response","505","762445","0.0-6.0-0.95","","img/yellow.png","32","trial","32","true","0.8,0.2","1:go_a","",""
"null","","html-keyboard-response","506","763447","0.0-6.0-1.95","","<img src=""img/yellow-r.png"" border=""10"">","null","trial","32","","0.8,0.2","1:go_a","1",""
"null","","html-keyboard-response","507","764448","0.0-6.0-2.95","","<div style=""font-size:60px;"">+</div>","null","","","","","","",""
"570.5949999974109","","image-keyboard-response","508","765019","0.0-6.0-0.96","","img/pink.png","32","trial","null","false","0.4,0.6","4:nogo_d","",""
"null","","html-keyboard-response","509","766021","0.0-6.0-1.96","","<img src=""img/pink-n.png"" border=""10"">","null","trial","null","","0.4,0.6","4:nogo_d","0",""
"null","","html-keyboard-response","510","767022","0.0-6.0-2.96","","<div style=""font-size:60px;"">+</div>","null","","","","","","",""
"null","","image-keyboard-response","511","768524","0.0-6.0-0.97","","img/orange.png","null","trial","32","false","0.6,0.4","3:go_c","",""
"null","","html-keyboard-response","512","769527","0.0-6.0-1.97","","<img src=""img/orange-r.png"">","null","trial","32","","0.6,0.4","3:go_c","1",""
"null","","html-keyboard-response","513","770528","0.0-6.0-2.97","","<div style=""font-size:60px;"">+</div>","null","","","","","","",""
"null","","image-keyboard-response","514","772030","0.0-6.0-0.98","","img/red.png","null","trial","null","true","0.2,0.8","2:nogo_b","",""
"null","","html-keyboard-response","515","773032","0.0-6.0-1.98","","<img src=""img/red-n.png"">","null","trial","null","","0.2,0.8","2:nogo_b","0",""
"null","","html-keyboard-response","516","774033","0.0-6.0-2.98","","<div style=""font-size:60px;"">+</div>","null","","","","","","",""
"683.1000000238419","","image-keyboard-response","517","774717","0.0-6.0-0.99","","img/yellow.png","32","trial","32","true","0.8,0.2","1:go_a","",""
"null","","html-keyboard-response","518","775719","0.0-6.0-1.99","","<img src=""img/yellow-r.png"" border=""10"">","null","trial","32","","0.8,0.2","1:go_a","1",""
"null","","html-keyboard-response","519","776721","0.0-6.0-2.99","","<div style=""font-size:60px;"">+</div>","null","","","","","","",""
"null","","image-keyboard-response","520","778223","0.0-6.0-0.100","","img/pink.png","null","trial","null","true","0.4,0.6","4:nogo_d","",""
"null","","html-keyboard-response","521","779225","0.0-6.0-1.100","","<img src=""img/pink-r.png"">","null","trial","null","","0.4,0.6","4:nogo_d","1",""
"null","","html-keyboard-response","522","780226","0.0-6.0-2.100","","<div style=""font-size:60px;"">+</div>","null","","","","","","",""
"504.56500001018867","","image-keyboard-response","523","780732","0.0-6.0-0.101","","img/orange.png","32","trial","32","true","0.6,0.4","3:go_c","",""
"null","","html-keyboard-response","524","781734","0.0-6.0-1.101","","<img src=""img/orange-n.png"" border=""10"">","null","trial","32","","0.6,0.4","3:go_c","0",""
"null","","html-keyboard-response","525","782735","0.0-6.0-2.101","","<div style=""font-size:60px;"">+</div>","null","","","","","","",""
"508.9350000489503","","image-keyboard-response","526","783245","0.0-6.0-0.102","","img/yellow.png","32","trial","32","true","0.8,0.2","1:go_a","",""
"null","","html-keyboard-response","527","784248","0.0-6.0-1.102","","<img src=""img/yellow-r.png"" border=""10"">","null","trial","32","","0.8,0.2","1:go_a","1",""
"null","","html-keyboard-response","528","785249","0.0-6.0-2.102","","<div style=""font-size:60px;"">+</div>","null","","","","","","",""
"null","","image-keyboard-response","529","786751","0.0-6.0-0.103","","img/red.png","null","trial","null","true","0.2,0.8","2:nogo_b","",""
"null","","html-keyboard-response","530","787753","0.0-6.0-1.103","","<img src=""img/red-r.png"">","null","trial","null","","0.2,0.8","2:nogo_b","1",""
"null","","html-keyboard-response","531","788754","0.0-6.0-2.103","","<div style=""font-size:60px;"">+</div>","null","","","","","","",""
"547.0849999692291","","image-keyboard-response","532","789302","0.0-6.0-0.104","","img/pink.png","32","trial","null","false","0.4,0.6","4:nogo_d","",""
"null","","html-keyboard-response","533","790304","0.0-6.0-1.104","","<img src=""img/pink-r.png"" border=""10"">","null","trial","null","","0.4,0.6","4:nogo_d","1",""
"null","","html-keyboard-response","534","791306","0.0-6.0-2.104","","<div style=""font-size:60px;"">+</div>","null","","","","","","",""
"629.3050000094809","","image-keyboard-response","535","791936","0.0-6.0-0.105","","img/red.png","32","trial","null","false","0.2,0.8","2:nogo_b","",""
"null","","html-keyboard-response","536","792939","0.0-6.0-1.105","","<img src=""img/red-n.png"" border=""10"">","null","trial","null","","0.2,0.8","2:nogo_b","0",""
"null","","html-keyboard-response","537","793940","0.0-6.0-2.105","","<div style=""font-size:60px;"">+</div>","null","","","","","","",""
"419.33000000426546","","image-keyboard-response","538","794361","0.0-6.0-0.106","","img/orange.png","32","trial","32","true","0.6,0.4","3:go_c","",""
"null","","html-keyboard-response","539","795363","0.0-6.0-1.106","","<img src=""img/orange-r.png"" border=""10"">","null","trial","32","","0.6,0.4","3:go_c","1",""
"null","","html-keyboard-response","540","796364","0.0-6.0-2.106","","<div style=""font-size:60px;"">+</div>","null","","","","","","",""
"null","","image-keyboard-response","541","797866","0.0-6.0-0.107","","img/yellow.png","null","trial","32","false","0.8,0.2","1:go_a","",""
"null","","html-keyboard-response","542","798868","0.0-6.0-1.107","","<img src=""img/yellow-r.png"">","null","trial","32","","0.8,0.2","1:go_a","1",""
"null","","html-keyboard-response","543","799870","0.0-6.0-2.107","","<div style=""font-size:60px;"">+</div>","null","","","","","","",""
"554.9149999860674","","image-keyboard-response","544","800426","0.0-6.0-0.108","","img/pink.png","32","trial","null","false","0.4,0.6","4:nogo_d","",""
"null","","html-keyboard-response","545","801428","0.0-6.0-1.108","","<img src=""img/pink-n.png"" border=""10"">","null","trial","null","","0.4,0.6","4:nogo_d","0",""
"null","","html-keyboard-response","546","802429","0.0-6.0-2.108","","<div style=""font-size:60px;"">+</div>","null","","","","","","",""
"501.5300000086427","","image-keyboard-response","547","802932","0.0-6.0-0.109","","img/orange.png","32","trial","32","true","0.6,0.4","3:go_c","",""
"null","","html-keyboard-response","548","803934","0.0-6.0-1.109","","<img src=""img/orange-r.png"" border=""10"">","null","trial","32","","0.6,0.4","3:go_c","1",""
"null","","html-keyboard-response","549","804936","0.0-6.0-2.109","","<div style=""font-size:60px;"">+</div>","null","","","","","","",""
"837.4349999940023","","image-keyboard-response","550","805774","0.0-6.0-0.110","","img/yellow.png","32","trial","32","true","0.8,0.2","1:go_a","",""
"null","","html-keyboard-response","551","806776","0.0-6.0-1.110","","<img src=""img/yellow-r.png"" border=""10"">","null","trial","32","","0.8,0.2","1:go_a","1",""
"null","","html-keyboard-response","552","807778","0.0-6.0-2.110","","<div style=""font-size:60px;"">+</div>","null","","","","","","",""
"null","","image-keyboard-response","553","809279","0.0-6.0-0.111","","img/red.png","null","trial","null","true","0.2,0.8","2:nogo_b","",""
"null","","html-keyboard-response","554","810282","0.0-6.0-1.111","","<img src=""img/red-n.png"">","null","trial","null","","0.2,0.8","2:nogo_b","0",""
"null","","html-keyboard-response","555","811284","0.0-6.0-2.111","","<div style=""font-size:60px;"">+</div>","null","","","","","","",""
"1060.5799999902956","","image-keyboard-response","556","812345","0.0-6.0-0.112","","img/orange.png","32","trial","32","true","0.6,0.4","3:go_c","",""
"null","","html-keyboard-response","557","813348","0.0-6.0-1.112","","<img src=""img/orange-r.png"" border=""10"">","null","trial","32","","0.6,0.4","3:go_c","1",""
"null","","html-keyboard-response","558","814349","0.0-6.0-2.112","","<div style=""font-size:60px;"">+</div>","null","","","","","","",""
"null","","image-keyboard-response","559","815851","0.0-6.0-0.113","","img/red.png","null","trial","null","true","0.2,0.8","2:nogo_b","",""
"null","","html-keyboard-response","560","816853","0.0-6.0-1.113","","<img src=""img/red-r.png"">","null","trial","null","","0.2,0.8","2:nogo_b","1",""
"null","","html-keyboard-response","561","817854","0.0-6.0-2.113","","<div style=""font-size:60px;"">+</div>","null","","","","","","",""
"null","","image-keyboard-response","562","819356","0.0-6.0-0.114","","img/pink.png","null","trial","null","true","0.4,0.6","4:nogo_d","",""
"null","","html-keyboard-response","563","820358","0.0-6.0-1.114","","<img src=""img/pink-r.png"">","null","trial","null","","0.4,0.6","4:nogo_d","1",""
"null","","html-keyboard-response","564","821359","0.0-6.0-2.114","","<div style=""font-size:60px;"">+</div>","null","","","","","","",""
"null","","image-keyboard-response","565","822861","0.0-6.0-0.115","","img/yellow.png","null","trial","32","false","0.8,0.2","1:go_a","",""
"null","","html-keyboard-response","566","823863","0.0-6.0-1.115","","<img src=""img/yellow-n.png"">","null","trial","32","","0.8,0.2","1:go_a","0",""
"null","","html-keyboard-response","567","824864","0.0-6.0-2.115","","<div style=""font-size:60px;"">+</div>","null","","","","","","",""
"1305.060000042431","","image-keyboard-response","568","826170","0.0-6.0-0.116","","img/yellow.png","32","trial","32","true","0.8,0.2","1:go_a","",""
"null","","html-keyboard-response","569","827173","0.0-6.0-1.116","","<img src=""img/yellow-r.png"" border=""10"">","null","trial","32","","0.8,0.2","1:go_a","1",""
"null","","html-keyboard-response","570","828174","0.0-6.0-2.116","","<div style=""font-size:60px;"">+</div>","null","","","","","","",""
"null","","image-keyboard-response","571","829676","0.0-6.0-0.117","","img/red.png","null","trial","null","true","0.2,0.8","2:nogo_b","",""
"null","","html-keyboard-response","572","830678","0.0-6.0-1.117","","<img src=""img/red-r.png"">","null","trial","null","","0.2,0.8","2:nogo_b","1",""
"null","","html-keyboard-response","573","831679","0.0-6.0-2.117","","<div style=""font-size:60px;"">+</div>","null","","","","","","",""
"720.4400000046007","","image-keyboard-response","574","832401","0.0-6.0-0.118","","img/orange.png","32","trial","32","true","0.6,0.4","3:go_c","",""
"null","","html-keyboard-response","575","833404","0.0-6.0-1.118","","<img src=""img/orange-r.png"" border=""10"">","null","trial","32","","0.6,0.4","3:go_c","1",""
"null","","html-keyboard-response","576","834405","0.0-6.0-2.118","","<div style=""font-size:60px;"">+</div>","null","","","","","","",""
"1337.085000006482","","image-keyboard-response","577","835743","0.0-6.0-0.119","","img/pink.png","32","trial","null","false","0.4,0.6","4:nogo_d","",""
"null","","html-keyboard-response","578","836745","0.0-6.0-1.119","","<img src=""img/pink-n.png"" border=""10"">","null","trial","null","","0.4,0.6","4:nogo_d","0",""
"null","","html-keyboard-response","579","837747","0.0-6.0-2.119","","<div style=""font-size:60px;"">+</div>","null","","","","","","",""
"303472.3600000143","","instructions","580","1141220","0.0-7.0","[{""page_index"":0,""viewing_time"":303471.9500000356}]","","","","","","","","",""
"null","","image-keyboard-response","581","1142723","0.0-8.0-0.0","","img/purple.png","null","trial","32","false","1,0","3:go_c","",""
"null","","html-keyboard-response","582","1143725","0.0-8.0-1.0","","<img src=""img/purple-n.png"">","null","trial","32","","1,0","3:go_c","0",""
"null","","html-keyboard-response","583","1144726","0.0-8.0-2.0","","<div style=""font-size:60px;"">+</div>","null","","","","","","",""
"301.90000002039596","","image-keyboard-response","584","1145029","0.0-8.0-0.1","","img/orange.png","32","trial","null","false","0,1","4:nogo_d","",""
"null","","html-keyboard-response","585","1146031","0.0-8.0-1.1","","<img src=""img/orange-n.png"" border=""10"">","null","trial","null","","0,1","4:nogo_d","0",""
"null","","html-keyboard-response","586","1147033","0.0-8.0-2.1","","<div style=""font-size:60px;"">+</div>","null","","","","","","",""
"null","","image-keyboard-response","587","1148535","0.0-8.0-0.2","","img/green.png","null","trial","32","false","0.8,0.2","1:go_a","",""
"null","","html-keyboard-response","588","1149537","0.0-8.0-1.2","","<img src=""img/green-n.png"">","null","trial","32","","0.8,0.2","1:go_a","0",""
"null","","html-keyboard-response","589","1150538","0.0-8.0-2.2","","<div style=""font-size:60px;"">+</div>","null","","","","","","",""
"null","","image-keyboard-response","590","1152040","0.0-8.0-0.3","","img/red.png","null","trial","null","true","0.2,0.8","2:nogo_b","",""
"null","","html-keyboard-response","591","1153042","0.0-8.0-1.3","","<img src=""img/red-r.png"">","null","trial","null","","0.2,0.8","2:nogo_b","1",""
"null","","html-keyboard-response","592","1154044","0.0-8.0-2.3","","<div style=""font-size:60px;"">+</div>","null","","","","","","",""
"456.7450000322424","","image-keyboard-response","593","1154502","0.0-8.0-0.4","","img/purple.png","32","trial","32","true","1,0","3:go_c","",""
"null","","html-keyboard-response","594","1155504","0.0-8.0-1.4","","<img src=""img/purple-r.png"" border=""10"">","null","trial","32","","1,0","3:go_c","1",""
"null","","html-keyboard-response","595","1156506","0.0-8.0-2.4","","<div style=""font-size:60px;"">+</div>","null","","","","","","",""
"502.87000002572313","","image-keyboard-response","596","1157010","0.0-8.0-0.5","","img/orange.png","32","trial","null","false","0,1","4:nogo_d","",""
"null","","html-keyboard-response","597","1158012","0.0-8.0-1.5","","<img src=""img/orange-n.png"" border=""10"">","null","trial","null","","0,1","4:nogo_d","0",""
"null","","html-keyboard-response","598","1159013","0.0-8.0-2.5","","<div style=""font-size:60px;"">+</div>","null","","","","","","",""
"514.4299999810755","","image-keyboard-response","599","1159529","0.0-8.0-0.6","","img/green.png","32","trial","32","true","0.8,0.2","1:go_a","",""
"null","","html-keyboard-response","600","1160531","0.0-8.0-1.6","","<img src=""img/green-r.png"" border=""10"">","null","trial","32","","0.8,0.2","1:go_a","1",""
"null","","html-keyboard-response","601","1161532","0.0-8.0-2.6","","<div style=""font-size:60px;"">+</div>","null","","","","","","",""
"656.1799999908544","","image-keyboard-response","602","1162190","0.0-8.0-0.7","","img/red.png","32","trial","null","false","0.2,0.8","2:nogo_b","",""
"null","","html-keyboard-response","603","1163192","0.0-8.0-1.7","","<img src=""img/red-n.png"" border=""10"">","null","trial","null","","0.2,0.8","2:nogo_b","0",""
"null","","html-keyboard-response","604","1164193","0.0-8.0-2.7","","<div style=""font-size:60px;"">+</div>","null","","","","","","",""
"641.7849999852479","","image-keyboard-response","605","1164836","0.0-8.0-0.8","","img/purple.png","32","trial","32","true","1,0","3:go_c","",""
"null","","html-keyboard-response","606","1165838","0.0-8.0-1.8","","<img src=""img/purple-r.png"" border=""10"">","null","trial","32","","1,0","3:go_c","1",""
"null","","html-keyboard-response","607","1166840","0.0-8.0-2.8","","<div style=""font-size:60px;"">+</div>","null","","","","","","",""
"null","","image-keyboard-response","608","1168341","0.0-8.0-0.9","","img/orange.png","null","trial","null","true","0,1","4:nogo_d","",""
"null","","html-keyboard-response","609","1169344","0.0-8.0-1.9","","<img src=""img/orange-r.png"">","null","trial","null","","0,1","4:nogo_d","1",""
"null","","html-keyboard-response","610","1170345","0.0-8.0-2.9","","<div style=""font-size:60px;"">+</div>","null","","","","","","",""
"910.5149999959394","","image-keyboard-response","611","1171257","0.0-8.0-0.10","","img/red.png","32","trial","null","false","0.2,0.8","2:nogo_b","",""
"null","","html-keyboard-response","612","1172259","0.0-8.0-1.10","","<img src=""img/red-n.png"" border=""10"">","null","trial","null","","0.2,0.8","2:nogo_b","0",""
"null","","html-keyboard-response","613","1173261","0.0-8.0-2.10","","<div style=""font-size:60px;"">+</div>","null","","","","","","",""
"567.4500000313856","","image-keyboard-response","614","1173829","0.0-8.0-0.11","","img/green.png","32","trial","32","true","0.8,0.2","1:go_a","",""
"null","","html-keyboard-response","615","1174831","0.0-8.0-1.11","","<img src=""img/green-r.png"" border=""10"">","null","trial","32","","0.8,0.2","1:go_a","1",""
"null","","html-keyboard-response","616","1175833","0.0-8.0-2.11","","<div style=""font-size:60px;"">+</div>","null","","","","","","",""
"656.7999999970198","","image-keyboard-response","617","1176491","0.0-8.0-0.12","","img/green.png","32","trial","32","true","0.8,0.2","1:go_a","",""
"null","","html-keyboard-response","618","1177493","0.0-8.0-1.12","","<img src=""img/green-n.png"" border=""10"">","null","trial","32","","0.8,0.2","1:go_a","0",""
"null","","html-keyboard-response","619","1178494","0.0-8.0-2.12","","<div style=""font-size:60px;"">+</div>","null","","","","","","",""
"516.364999988582","","image-keyboard-response","620","1179011","0.0-8.0-0.13","","img/purple.png","32","trial","32","true","1,0","3:go_c","",""
"null","","html-keyboard-response","621","1180013","0.0-8.0-1.13","","<img src=""img/purple-r.png"" border=""10"">","null","trial","32","","1,0","3:go_c","1",""
"null","","html-keyboard-response","622","1181014","0.0-8.0-2.13","","<div style=""font-size:60px;"">+</div>","null","","","","","","",""
"997.3199999658391","","image-keyboard-response","623","1182013","0.0-8.0-0.14","","img/orange.png","32","trial","null","false","0,1","4:nogo_d","",""
"null","","html-keyboard-response","624","1183016","0.0-8.0-1.14","","<img src=""img/orange-n.png"" border=""10"">","null","trial","null","","0,1","4:nogo_d","0",""
"null","","html-keyboard-response","625","1184017","0.0-8.0-2.14","","<div style=""font-size:60px;"">+</div>","null","","","","","","",""
"815.7200000132434","","image-keyboard-response","626","1184833","0.0-8.0-0.15","","img/red.png","32","trial","null","false","0.2,0.8","2:nogo_b","",""
"null","","html-keyboard-response","627","1185835","0.0-8.0-1.15","","<img src=""img/red-n.png"" border=""10"">","null","trial","null","","0.2,0.8","2:nogo_b","0",""
"null","","html-keyboard-response","628","1186837","0.0-8.0-2.15","","<div style=""font-size:60px;"">+</div>","null","","","","","","",""
"null","","image-keyboard-response","629","1188339","0.0-8.0-0.16","","img/green.png","null","trial","32","false","0.8,0.2","1:go_a","",""
"null","","html-keyboard-response","630","1189341","0.0-8.0-1.16","","<img src=""img/green-n.png"">","null","trial","32","","0.8,0.2","1:go_a","0",""
"null","","html-keyboard-response","631","1190342","0.0-8.0-2.16","","<div style=""font-size:60px;"">+</div>","null","","","","","","",""
"684.5700000412762","","image-keyboard-response","632","1191028","0.0-8.0-0.17","","img/orange.png","32","trial","null","false","0,1","4:nogo_d","",""
"null","","html-keyboard-response","633","1192030","0.0-8.0-1.17","","<img src=""img/orange-n.png"" border=""10"">","null","trial","null","","0,1","4:nogo_d","0",""
"null","","html-keyboard-response","634","1193032","0.0-8.0-2.17","","<div style=""font-size:60px;"">+</div>","null","","","","","","",""
"null","","image-keyboard-response","635","1194534","0.0-8.0-0.18","","img/purple.png","null","trial","32","false","1,0","3:go_c","",""
"null","","html-keyboard-response","636","1195536","0.0-8.0-1.18","","<img src=""img/purple-n.png"">","null","trial","32","","1,0","3:go_c","0",""
"null","","html-keyboard-response","637","1196537","0.0-8.0-2.18","","<div style=""font-size:60px;"">+</div>","null","","","","","","",""
"538.509999983944","","image-keyboard-response","638","1197078","0.0-8.0-0.19","","img/red.png","32","trial","null","false","0.2,0.8","2:nogo_b","",""
"null","","html-keyboard-response","639","1198080","0.0-8.0-1.19","","<img src=""img/red-r.png"" border=""10"">","null","trial","null","","0.2,0.8","2:nogo_b","1",""
"null","","html-keyboard-response","640","1199081","0.0-8.0-2.19","","<div style=""font-size:60px;"">+</div>","null","","","","","","",""
"null","","image-keyboard-response","641","1200582","0.0-8.0-0.20","","img/red.png","null","trial","null","true","0.2,0.8","2:nogo_b","",""
"null","","html-keyboard-response","642","1201584","0.0-8.0-1.20","","<img src=""img/red-r.png"">","null","trial","null","","0.2,0.8","2:nogo_b","1",""
"null","","html-keyboard-response","643","1202585","0.0-8.0-2.20","","<div style=""font-size:60px;"">+</div>","null","","","","","","",""
"553.3549999818206","","image-keyboard-response","644","1203139","0.0-8.0-0.21","","img/orange.png","32","trial","null","false","0,1","4:nogo_d","",""
"null","","html-keyboard-response","645","1204142","0.0-8.0-1.21","","<img src=""img/orange-n.png"" border=""10"">","null","trial","null","","0,1","4:nogo_d","0",""
"null","","html-keyboard-response","646","1205143","0.0-8.0-2.21","","<div style=""font-size:60px;"">+</div>","null","","","","","","",""
"800.6049999967217","","image-keyboard-response","647","1205945","0.0-8.0-0.22","","img/purple.png","32","trial","32","true","1,0","3:go_c","",""
"null","","html-keyboard-response","648","1206947","0.0-8.0-1.22","","<img src=""img/purple-r.png"" border=""10"">","null","trial","32","","1,0","3:go_c","1",""
"null","","html-keyboard-response","649","1207948","0.0-8.0-2.22","","<div style=""font-size:60px;"">+</div>","null","","","","","","",""
"null","","image-keyboard-response","650","1209450","0.0-8.0-0.23","","img/green.png","null","trial","32","false","0.8,0.2","1:go_a","",""
"null","","html-keyboard-response","651","1210453","0.0-8.0-1.23","","<img src=""img/green-n.png"">","null","trial","32","","0.8,0.2","1:go_a","0",""
"null","","html-keyboard-response","652","1211454","0.0-8.0-2.23","","<div style=""font-size:60px;"">+</div>","null","","","","","","",""
"712.9299999796785","","image-keyboard-response","653","1212169","0.0-8.0-0.24","","img/purple.png","32","trial","32","true","1,0","3:go_c","",""
"null","","html-keyboard-response","654","1213172","0.0-8.0-1.24","","<img src=""img/purple-r.png"" border=""10"">","null","trial","32","","1,0","3:go_c","1",""
"null","","html-keyboard-response","655","1214173","0.0-8.0-2.24","","<div style=""font-size:60px;"">+</div>","null","","","","","","",""
"null","","image-keyboard-response","656","1215674","0.0-8.0-0.25","","img/green.png","null","trial","32","false","0.8,0.2","1:go_a","",""
"null","","html-keyboard-response","657","1216676","0.0-8.0-1.25","","<img src=""img/green-n.png"">","null","trial","32","","0.8,0.2","1:go_a","0",""
"null","","html-keyboard-response","658","1217677","0.0-8.0-2.25","","<div style=""font-size:60px;"">+</div>","null","","","","","","",""
"612.569999997504","","image-keyboard-response","659","1218291","0.0-8.0-0.26","","img/red.png","32","trial","null","false","0.2,0.8","2:nogo_b","",""
"null","","html-keyboard-response","660","1219293","0.0-8.0-1.26","","<img src=""img/red-n.png"" border=""10"">","null","trial","null","","0.2,0.8","2:nogo_b","0",""
"null","","html-keyboard-response","661","1220295","0.0-8.0-2.26","","<div style=""font-size:60px;"">+</div>","null","","","","","","",""
"493.7050000298768","","image-keyboard-response","662","1220790","0.0-8.0-0.27","","img/orange.png","32","trial","null","false","0,1","4:nogo_d","",""
"null","","html-keyboard-response","663","1221791","0.0-8.0-1.27","","<img src=""img/orange-n.png"" border=""10"">","null","trial","null","","0,1","4:nogo_d","0",""
"null","","html-keyboard-response","664","1222793","0.0-8.0-2.27","","<div style=""font-size:60px;"">+</div>","null","","","","","","",""
"448.1899999664165","","image-keyboard-response","665","1223242","0.0-8.0-0.28","","img/purple.png","32","trial","32","true","1,0","3:go_c","",""
"null","","html-keyboard-response","666","1224245","0.0-8.0-1.28","","<img src=""img/purple-r.png"" border=""10"">","null","trial","32","","1,0","3:go_c","1",""
"null","","html-keyboard-response","667","1225246","0.0-8.0-2.28","","<div style=""font-size:60px;"">+</div>","null","","","","","","",""
"null","","image-keyboard-response","668","1226747","0.0-8.0-0.29","","img/orange.png","null","trial","null","true","0,1","4:nogo_d","",""
"null","","html-keyboard-response","669","1227750","0.0-8.0-1.29","","<img src=""img/orange-r.png"">","null","trial","null","","0,1","4:nogo_d","1",""
"null","","html-keyboard-response","670","1228751","0.0-8.0-2.29","","<div style=""font-size:60px;"">+</div>","null","","","","","","",""
"null","","image-keyboard-response","671","1230253","0.0-8.0-0.30","","img/green.png","null","trial","32","false","0.8,0.2","1:go_a","",""
"null","","html-keyboard-response","672","1231254","0.0-8.0-1.30","","<img src=""img/green-r.png"">","null","trial","32","","0.8,0.2","1:go_a","1",""
"null","","html-keyboard-response","673","1232256","0.0-8.0-2.30","","<div style=""font-size:60px;"">+</div>","null","","","","","","",""
"631.0550000052899","","image-keyboard-response","674","1232888","0.0-8.0-0.31","","img/red.png","32","trial","null","false","0.2,0.8","2:nogo_b","",""
"null","","html-keyboard-response","675","1233890","0.0-8.0-1.31","","<img src=""img/red-n.png"" border=""10"">","null","trial","null","","0.2,0.8","2:nogo_b","0",""
