"rt","url","trial_type","trial_index","time_elapsed","internal_node_id","view_history","stimulus","key_press","test_part","correct_response","correct","use_rew","which_stim","reward","responses"
"5962.6499998848885","consent.html","external-html","0","6077","0.0-0.0","","","","","","","","","",""
"213684.3649998773","","instructions","1","219762","0.0-1.0","[{""page_index"":0,""viewing_time"":3977.530000032857},{""page_index"":1,""viewing_time"":19242.450000019744},{""page_index"":2,""viewing_time"":5351.58499982208},{""page_index"":3,""viewing_time"":157730.47000006773},{""page_index"":4,""viewing_time"":11181.27500009723},{""page_index"":5,""viewing_time"":5983.514999970794},{""page_index"":6,""viewing_time"":10216.805000090972}]","","","","","","","","",""
"null","","image-keyboard-response","2","221264","0.0-2.0-0.0","","img/test2.PNG","null","practice","null","true","","","",""
"null","","html-keyboard-response","3","222267","0.0-2.0-1.0","","<img src=""img/test2-reward.PNG"">","null","","","","","","",""
"null","","html-keyboard-response","4","223268","0.0-2.0-2.0","","<div style=""font-size:60px;"">+</div>","null","","","","","","",""
"368.17999999038875","","image-keyboard-response","5","223638","0.0-2.0-0.1","","img/test1.PNG","32","practice","32","true","","","",""
"null","","html-keyboard-response","6","224640","0.0-2.0-1.1","","<img src=""img/test1-reward.PNG"" border=""10px; grey"">","null","","","","","","",""
"null","","html-keyboard-response","7","225641","0.0-2.0-2.1","","<div style=""font-size:60px;"">+</div>","null","","","","","","",""
"null","","image-keyboard-response","8","227143","0.0-2.0-0.2","","img/test3.PNG","null","practice","null","true","","","",""
"null","","html-keyboard-response","9","228145","0.0-2.0-1.2","","<img src=""img/test3-reward.PNG"">","null","","","","","","",""
"null","","html-keyboard-response","10","229147","0.0-2.0-2.2","","<div style=""font-size:60px;"">+</div>","null","","","","","","",""
"583.3850000053644","","image-keyboard-response","11","229732","0.0-2.0-0.3","","img/test1.PNG","32","practice","32","true","","","",""
"null","","html-keyboard-response","12","230734","0.0-2.0-1.3","","<img src=""img/test1-reward.PNG"" border=""10px; grey"">","null","","","","","","",""
"null","","html-keyboard-response","13","231740","0.0-2.0-2.3","","<div style=""font-size:60px;"">+</div>","null","","","","","","",""
"null","","image-keyboard-response","14","233242","0.0-2.0-0.4","","img/test2.PNG","null","practice","null","true","","","",""
"null","","html-keyboard-response","15","234243","0.0-2.0-1.4","","<img src=""img/test2-reward.PNG"">","null","","","","","","",""
"null","","html-keyboard-response","16","235245","0.0-2.0-2.4","","<div style=""font-size:60px;"">+</div>","null","","","","","","",""
"null","","image-keyboard-response","17","236747","0.0-2.0-0.5","","img/test3.PNG","null","practice","null","true","","","",""
"null","","html-keyboard-response","18","237763","0.0-2.0-1.5","","<img src=""img/test3-reward.PNG"">","null","","","","","","",""
"null","","html-keyboard-response","19","238764","0.0-2.0-2.5","","<div style=""font-size:60px;"">+</div>","null","","","","","","",""
"464.30500014685094","","image-keyboard-response","20","239229","0.0-2.0-0.6","","img/test1.PNG","32","practice","32","true","","","",""
"null","","html-keyboard-response","21","240231","0.0-2.0-1.6","","<img src=""img/test1-reward.PNG"" border=""10px; grey"">","null","","","","","","",""
"null","","html-keyboard-response","22","241232","0.0-2.0-2.6","","<div style=""font-size:60px;"">+</div>","null","","","","","","",""
"null","","image-keyboard-response","23","242734","0.0-2.0-0.7","","img/test3.PNG","null","practice","null","true","","","",""
"null","","html-keyboard-response","24","243736","0.0-2.0-1.7","","<img src=""img/test3-reward.PNG"">","null","","","","","","",""
"null","","html-keyboard-response","25","244737","0.0-2.0-2.7","","<div style=""font-size:60px;"">+</div>","null","","","","","","",""
"null","","image-keyboard-response","26","246240","0.0-2.0-0.8","","img/test2.PNG","null","practice","null","true","","","",""
"null","","html-keyboard-response","27","247241","0.0-2.0-1.8","","<img src=""img/test2-reward.PNG"">","null","","","","","","",""
"null","","html-keyboard-response","28","248243","0.0-2.0-2.8","","<div style=""font-size:60px;"">+</div>","null","","","","","","",""
"null","","image-keyboard-response","29","249744","0.0-2.0-0.9","","img/test3.PNG","null","practice","null","true","","","",""
"null","","html-keyboard-response","30","250746","0.0-2.0-1.9","","<img src=""img/test3-reward.PNG"">","null","","","","","","",""
"null","","html-keyboard-response","31","251747","0.0-2.0-2.9","","<div style=""font-size:60px;"">+</div>","null","","","","","","",""
"null","","image-keyboard-response","32","253248","0.0-2.0-0.10","","img/test2.PNG","null","practice","null","true","","","",""
"null","","html-keyboard-response","33","254249","0.0-2.0-1.10","","<img src=""img/test2-reward.PNG"">","null","","","","","","",""
"null","","html-keyboard-response","34","255250","0.0-2.0-2.10","","<div style=""font-size:60px;"">+</div>","null","","","","","","",""
"345.9850000217557","","image-keyboard-response","35","255598","0.0-2.0-0.11","","img/test1.PNG","32","practice","32","true","","","",""
"null","","html-keyboard-response","36","256600","0.0-2.0-1.11","","<img src=""img/test1-reward.PNG"" border=""10px; grey"">","null","","","","","","",""
"null","","html-keyboard-response","37","257601","0.0-2.0-2.11","","<div style=""font-size:60px;"">+</div>","null","","","","","","",""
"3533.9099999982864","","instructions","38","261136","0.0-3.0","[{""page_index"":0,""viewing_time"":3533.724999986589}]","","","","","","","","",""
"1244.1950000356883","","image-keyboard-response","39","262381","0.0-4.0-0.0","","img/purple.png","32","trial","32","true","0.8,0.2","1:go_a","",""
"null","","html-keyboard-response","40","263387","0.0-4.0-1.0","","<img src=""img/purple-r.png"" border=""10"">","null","trial","32","","0.8,0.2","1:go_a","1",""
"null","","html-keyboard-response","41","264403","0.0-4.0-2.0","","<div style=""font-size:60px;"">+</div>","null","","","","","","",""
"936.4750001113862","","image-keyboard-response","42","265341","0.0-4.0-0.1","","img/orange.png","32","trial","null","false","0.2,0.8","2:nogo_b","",""
"null","","html-keyboard-response","43","266343","0.0-4.0-1.1","","<img src=""img/orange-n.png"" border=""10"">","null","trial","null","","0.2,0.8","2:nogo_b","0",""
"null","","html-keyboard-response","44","267344","0.0-4.0-2.1","","<div style=""font-size:60px;"">+</div>","null","","","","","","",""
"null","","image-keyboard-response","45","268846","0.0-4.0-0.2","","img/orange.png","null","trial","null","true","0.2,0.8","2:nogo_b","",""
"null","","html-keyboard-response","46","269848","0.0-4.0-1.2","","<img src=""img/orange-r.png"">","null","trial","null","","0.2,0.8","2:nogo_b","1",""
"null","","html-keyboard-response","47","270849","0.0-4.0-2.2","","<div style=""font-size:60px;"">+</div>","null","","","","","","",""
"654.7799999825656","","image-keyboard-response","48","271505","0.0-4.0-0.3","","img/purple.png","32","trial","32","true","0.8,0.2","1:go_a","",""
"null","","html-keyboard-response","49","272506","0.0-4.0-1.3","","<img src=""img/purple-r.png"" border=""10"">","null","trial","32","","0.8,0.2","1:go_a","1",""
"null","","html-keyboard-response","50","273508","0.0-4.0-2.3","","<div style=""font-size:60px;"">+</div>","null","","","","","","",""
"null","","image-keyboard-response","51","275009","0.0-4.0-0.4","","img/orange.png","null","trial","null","true","0.2,0.8","2:nogo_b","",""
"null","","html-keyboard-response","52","276011","0.0-4.0-1.4","","<img src=""img/orange-n.png"">","null","trial","null","","0.2,0.8","2:nogo_b","0",""
"null","","html-keyboard-response","53","277012","0.0-4.0-2.4","","<div style=""font-size:60px;"">+</div>","null","","","","","","",""
"413.3099999744445","","image-keyboard-response","54","277427","0.0-4.0-0.5","","img/purple.png","32","trial","32","true","0.8,0.2","1:go_a","",""
"null","","html-keyboard-response","55","278428","0.0-4.0-1.5","","<img src=""img/purple-r.png"" border=""10"">","null","trial","32","","0.8,0.2","1:go_a","1",""
"null","","html-keyboard-response","56","279429","0.0-4.0-2.5","","<div style=""font-size:60px;"">+</div>","null","","","","","","",""
"562.9799999296665","","image-keyboard-response","57","279993","0.0-4.0-0.6","","img/purple.png","32","trial","32","true","0.8,0.2","1:go_a","",""
"null","","html-keyboard-response","58","280995","0.0-4.0-1.6","","<img src=""img/purple-r.png"" border=""10"">","null","trial","32","","0.8,0.2","1:go_a","1",""
"null","","html-keyboard-response","59","281997","0.0-4.0-2.6","","<div style=""font-size:60px;"">+</div>","null","","","","","","",""
"null","","image-keyboard-response","60","283498","0.0-4.0-0.7","","img/orange.png","null","trial","null","true","0.2,0.8","2:nogo_b","",""
"null","","html-keyboard-response","61","284500","0.0-4.0-1.7","","<img src=""img/orange-r.png"">","null","trial","null","","0.2,0.8","2:nogo_b","1",""
"null","","html-keyboard-response","62","285501","0.0-4.0-2.7","","<div style=""font-size:60px;"">+</div>","null","","","","","","",""
"405.8300000615418","","image-keyboard-response","63","285908","0.0-4.0-0.8","","img/orange.png","32","trial","null","false","0.2,0.8","2:nogo_b","",""
"null","","html-keyboard-response","64","286911","0.0-4.0-1.8","","<img src=""img/orange-n.png"" border=""10"">","null","trial","null","","0.2,0.8","2:nogo_b","0",""
"null","","html-keyboard-response","65","287912","0.0-4.0-2.8","","<div style=""font-size:60px;"">+</div>","null","","","","","","",""
"296.0399999283254","","image-keyboard-response","66","288209","0.0-4.0-0.9","","img/purple.png","32","trial","32","true","0.8,0.2","1:go_a","",""
"null","","html-keyboard-response","67","289210","0.0-4.0-1.9","","<img src=""img/purple-n.png"" border=""10"">","null","trial","32","","0.8,0.2","1:go_a","0",""
"null","","html-keyboard-response","68","290212","0.0-4.0-2.9","","<div style=""font-size:60px;"">+</div>","null","","","","","","",""
"339.01500003412366","","image-keyboard-response","69","290552","0.0-4.0-0.10","","img/orange.png","32","trial","null","false","0.2,0.8","2:nogo_b","",""
"null","","html-keyboard-response","70","291556","0.0-4.0-1.10","","<img src=""img/orange-n.png"" border=""10"">","null","trial","null","","0.2,0.8","2:nogo_b","0",""
"null","","html-keyboard-response","71","292558","0.0-4.0-2.10","","<div style=""font-size:60px;"">+</div>","null","","","","","","",""
"null","","image-keyboard-response","72","294060","0.0-4.0-0.11","","img/purple.png","null","trial","32","false","0.8,0.2","1:go_a","",""
"null","","html-keyboard-response","73","295062","0.0-4.0-1.11","","<img src=""img/purple-n.png"">","null","trial","32","","0.8,0.2","1:go_a","0",""
"null","","html-keyboard-response","74","296063","0.0-4.0-2.11","","<div style=""font-size:60px;"">+</div>","null","","","","","","",""
"null","","image-keyboard-response","75","297565","0.0-4.0-0.12","","img/purple.png","null","trial","32","false","0.8,0.2","1:go_a","",""
"null","","html-keyboard-response","76","298568","0.0-4.0-1.12","","<img src=""img/purple-r.png"">","null","trial","32","","0.8,0.2","1:go_a","1",""
"null","","html-keyboard-response","77","299569","0.0-4.0-2.12","","<div style=""font-size:60px;"">+</div>","null","","","","","","",""
"479.7549999784678","","image-keyboard-response","78","300050","0.0-4.0-0.13","","img/orange.png","32","trial","null","false","0.2,0.8","2:nogo_b","",""
"null","","html-keyboard-response","79","301053","0.0-4.0-1.13","","<img src=""img/orange-n.png"" border=""10"">","null","trial","null","","0.2,0.8","2:nogo_b","0",""
"null","","html-keyboard-response","80","302055","0.0-4.0-2.13","","<div style=""font-size:60px;"">+</div>","null","","","","","","",""
"328.28000001609325","","image-keyboard-response","81","302384","0.0-4.0-0.14","","img/purple.png","32","trial","32","true","0.8,0.2","1:go_a","",""
"null","","html-keyboard-response","82","303385","0.0-4.0-1.14","","<img src=""img/purple-r.png"" border=""10"">","null","trial","32","","0.8,0.2","1:go_a","1",""
"null","","html-keyboard-response","83","304387","0.0-4.0-2.14","","<div style=""font-size:60px;"">+</div>","null","","","","","","",""
"null","","image-keyboard-response","84","305888","0.0-4.0-0.15","","img/orange.png","null","trial","null","true","0.2,0.8","2:nogo_b","",""
"null","","html-keyboard-response","85","306891","0.0-4.0-1.15","","<img src=""img/orange-n.png"">","null","trial","null","","0.2,0.8","2:nogo_b","0",""
"null","","html-keyboard-response","86","307893","0.0-4.0-2.15","","<div style=""font-size:60px;"">+</div>","null","","","","","","",""
"null","","image-keyboard-response","87","309395","0.0-4.0-0.16","","img/orange.png","null","trial","null","true","0.2,0.8","2:nogo_b","",""
"null","","html-keyboard-response","88","310397","0.0-4.0-1.16","","<img src=""img/orange-r.png"">","null","trial","null","","0.2,0.8","2:nogo_b","1",""
"null","","html-keyboard-response","89","311398","0.0-4.0-2.16","","<div style=""font-size:60px;"">+</div>","null","","","","","","",""
"384.80999995954335","","image-keyboard-response","90","311784","0.0-4.0-0.17","","img/purple.png","32","trial","32","true","0.8,0.2","1:go_a","",""
"null","","html-keyboard-response","91","312785","0.0-4.0-1.17","","<img src=""img/purple-r.png"" border=""10"">","null","trial","32","","0.8,0.2","1:go_a","1",""
"null","","html-keyboard-response","92","313787","0.0-4.0-2.17","","<div style=""font-size:60px;"">+</div>","null","","","","","","",""
"397.255000192672","","image-keyboard-response","93","314185","0.0-4.0-0.18","","img/purple.png","32","trial","32","true","0.8,0.2","1:go_a","",""
"null","","html-keyboard-response","94","315187","0.0-4.0-1.18","","<img src=""img/purple-r.png"" border=""10"">","null","trial","32","","0.8,0.2","1:go_a","1",""
"null","","html-keyboard-response","95","316187","0.0-4.0-2.18","","<div style=""font-size:60px;"">+</div>","null","","","","","","",""
"null","","image-keyboard-response","96","317690","0.0-4.0-0.19","","img/orange.png","null","trial","null","true","0.2,0.8","2:nogo_b","",""
"null","","html-keyboard-response","97","318692","0.0-4.0-1.19","","<img src=""img/orange-r.png"">","null","trial","null","","0.2,0.8","2:nogo_b","1",""
"null","","html-keyboard-response","98","319693","0.0-4.0-2.19","","<div style=""font-size:60px;"">+</div>","null","","","","","","",""
"361.7350000422448","","image-keyboard-response","99","320056","0.0-4.0-0.20","","img/purple.png","32","trial","32","true","0.8,0.2","1:go_a","",""
"null","","html-keyboard-response","100","321058","0.0-4.0-1.20","","<img src=""img/purple-r.png"" border=""10"">","null","trial","32","","0.8,0.2","1:go_a","1",""
"null","","html-keyboard-response","101","322060","0.0-4.0-2.20","","<div style=""font-size:60px;"">+</div>","null","","","","","","",""
"null","","image-keyboard-response","102","323561","0.0-4.0-0.21","","img/orange.png","null","trial","null","true","0.2,0.8","2:nogo_b","",""
"null","","html-keyboard-response","103","324563","0.0-4.0-1.21","","<img src=""img/orange-n.png"">","null","trial","null","","0.2,0.8","2:nogo_b","0",""
"null","","html-keyboard-response","104","325576","0.0-4.0-2.21","","<div style=""font-size:60px;"">+</div>","null","","","","","","",""
"355.4850001819432","","image-keyboard-response","105","325932","0.0-4.0-0.22","","img/purple.png","32","trial","32","true","0.8,0.2","1:go_a","",""
"null","","html-keyboard-response","106","326935","0.0-4.0-1.22","","<img src=""img/purple-r.png"" border=""10"">","null","trial","32","","0.8,0.2","1:go_a","1",""
"null","","html-keyboard-response","107","327936","0.0-4.0-2.22","","<div style=""font-size:60px;"">+</div>","null","","","","","","",""
"null","","image-keyboard-response","108","329448","0.0-4.0-0.23","","img/orange.png","null","trial","null","true","0.2,0.8","2:nogo_b","",""
"null","","html-keyboard-response","109","330453","0.0-4.0-1.23","","<img src=""img/orange-r.png"">","null","trial","null","","0.2,0.8","2:nogo_b","1",""
"null","","html-keyboard-response","110","331454","0.0-4.0-2.23","","<div style=""font-size:60px;"">+</div>","null","","","","","","",""
"null","","image-keyboard-response","111","332956","0.0-4.0-0.24","","img/orange.png","null","trial","null","true","0.2,0.8","2:nogo_b","",""
"null","","html-keyboard-response","112","333958","0.0-4.0-1.24","","<img src=""img/orange-n.png"">","null","trial","null","","0.2,0.8","2:nogo_b","0",""
"null","","html-keyboard-response","113","334960","0.0-4.0-2.24","","<div style=""font-size:60px;"">+</div>","null","","","","","","",""
"348.9749999716878","","image-keyboard-response","114","335310","0.0-4.0-0.25","","img/purple.png","32","trial","32","true","0.8,0.2","1:go_a","",""
"null","","html-keyboard-response","115","336313","0.0-4.0-1.25","","<img src=""img/purple-n.png"" border=""10"">","null","trial","32","","0.8,0.2","1:go_a","0",""
"null","","html-keyboard-response","116","337315","0.0-4.0-2.25","","<div style=""font-size:60px;"">+</div>","null","","","","","","",""
"433.9050000999123","","image-keyboard-response","117","337750","0.0-4.0-0.26","","img/purple.png","32","trial","32","true","0.8,0.2","1:go_a","",""
"null","","html-keyboard-response","118","338752","0.0-4.0-1.26","","<img src=""img/purple-n.png"" border=""10"">","null","trial","32","","0.8,0.2","1:go_a","0",""
"null","","html-keyboard-response","119","339753","0.0-4.0-2.26","","<div style=""font-size:60px;"">+</div>","null","","","","","","",""
"694.2399998661131","","image-keyboard-response","120","340448","0.0-4.0-0.27","","img/orange.png","32","trial","null","false","0.2,0.8","2:nogo_b","",""
"null","","html-keyboard-response","121","341450","0.0-4.0-1.27","","<img src=""img/orange-n.png"" border=""10"">","null","trial","null","","0.2,0.8","2:nogo_b","0",""
"null","","html-keyboard-response","122","342452","0.0-4.0-2.27","","<div style=""font-size:60px;"">+</div>","null","","","","","","",""
"578.6249998491257","","image-keyboard-response","123","343031","0.0-4.0-0.28","","img/purple.png","32","trial","32","true","0.8,0.2","1:go_a","",""
"null","","html-keyboard-response","124","344034","0.0-4.0-1.28","","<img src=""img/purple-n.png"" border=""10"">","null","trial","32","","0.8,0.2","1:go_a","0",""
"null","","html-keyboard-response","125","345035","0.0-4.0-2.28","","<div style=""font-size:60px;"">+</div>","null","","","","","","",""
"null","","image-keyboard-response","126","346537","0.0-4.0-0.29","","img/orange.png","null","trial","null","true","0.2,0.8","2:nogo_b","",""
"null","","html-keyboard-response","127","347539","0.0-4.0-1.29","","<img src=""img/orange-r.png"">","null","trial","null","","0.2,0.8","2:nogo_b","1",""
"null","","html-keyboard-response","128","348541","0.0-4.0-2.29","","<div style=""font-size:60px;"">+</div>","null","","","","","","",""
"null","","image-keyboard-response","129","350042","0.0-4.0-0.30","","img/purple.png","null","trial","32","false","0.8,0.2","1:go_a","",""
"null","","html-keyboard-response","130","351043","0.0-4.0-1.30","","<img src=""img/purple-r.png"">","null","trial","32","","0.8,0.2","1:go_a","1",""
"null","","html-keyboard-response","131","352045","0.0-4.0-2.30","","<div style=""font-size:60px;"">+</div>","null","","","","","","",""
"null","","image-keyboard-response","132","353547","0.0-4.0-0.31","","img/orange.png","null","trial","null","true","0.2,0.8","2:nogo_b","",""
"null","","html-keyboard-response","133","354549","0.0-4.0-1.31","","<img src=""img/orange-r.png"">","null","trial","null","","0.2,0.8","2:nogo_b","1",""
"null","","html-keyboard-response","134","355550","0.0-4.0-2.31","","<div style=""font-size:60px;"">+</div>","null","","","","","","",""
"709.1250000521541","","image-keyboard-response","135","356260","0.0-4.0-0.32","","img/orange.png","32","trial","null","false","0.2,0.8","2:nogo_b","",""
"null","","html-keyboard-response","136","357262","0.0-4.0-1.32","","<img src=""img/orange-n.png"" border=""10"">","null","trial","null","","0.2,0.8","2:nogo_b","0",""
"null","","html-keyboard-response","137","358263","0.0-4.0-2.32","","<div style=""font-size:60px;"">+</div>","null","","","","","","",""
"281.1499999370426","","image-keyboard-response","138","358545","0.0-4.0-0.33","","img/purple.png","32","trial","32","true","0.8,0.2","1:go_a","",""
"null","","html-keyboard-response","139","359546","0.0-4.0-1.33","","<img src=""img/purple-r.png"" border=""10"">","null","trial","32","","0.8,0.2","1:go_a","1",""
"null","","html-keyboard-response","140","360547","0.0-4.0-2.33","","<div style=""font-size:60px;"">+</div>","null","","","","","","",""
"450.209999922663","","image-keyboard-response","141","360999","0.0-4.0-0.34","","img/purple.png","32","trial","32","true","0.8,0.2","1:go_a","",""
"null","","html-keyboard-response","142","362000","0.0-4.0-1.34","","<img src=""img/purple-n.png"" border=""10"">","null","trial","32","","0.8,0.2","1:go_a","0",""
"null","","html-keyboard-response","143","363003","0.0-4.0-2.34","","<div style=""font-size:60px;"">+</div>","null","","","","","","",""
"null","","image-keyboard-response","144","364505","0.0-4.0-0.35","","img/orange.png","null","trial","null","true","0.2,0.8","2:nogo_b","",""
"null","","html-keyboard-response","145","365506","0.0-4.0-1.35","","<img src=""img/orange-r.png"">","null","trial","null","","0.2,0.8","2:nogo_b","1",""
"null","","html-keyboard-response","146","366508","0.0-4.0-2.35","","<div style=""font-size:60px;"">+</div>","null","","","","","","",""
"552.6000000536442","","image-keyboard-response","147","367061","0.0-4.0-0.36","","img/purple.png","32","trial","32","true","0.8,0.2","1:go_a","",""
"null","","html-keyboard-response","148","368063","0.0-4.0-1.36","","<img src=""img/purple-r.png"" border=""10"">","null","trial","32","","0.8,0.2","1:go_a","1",""
"null","","html-keyboard-response","149","369065","0.0-4.0-2.36","","<div style=""font-size:60px;"">+</div>","null","","","","","","",""
"null","","image-keyboard-response","150","370566","0.0-4.0-0.37","","img/orange.png","null","trial","null","true","0.2,0.8","2:nogo_b","",""
"null","","html-keyboard-response","151","371567","0.0-4.0-1.37","","<img src=""img/orange-r.png"">","null","trial","null","","0.2,0.8","2:nogo_b","1",""
"null","","html-keyboard-response","152","372569","0.0-4.0-2.37","","<div style=""font-size:60px;"">+</div>","null","","","","","","",""
"380.5700000375509","","image-keyboard-response","153","372951","0.0-4.0-0.38","","img/orange.png","32","trial","null","false","0.2,0.8","2:nogo_b","",""
"null","","html-keyboard-response","154","373953","0.0-4.0-1.38","","<img src=""img/orange-r.png"" border=""10"">","null","trial","null","","0.2,0.8","2:nogo_b","1",""
"null","","html-keyboard-response","155","374956","0.0-4.0-2.38","","<div style=""font-size:60px;"">+</div>","null","","","","","","",""
"650.3800000064075","","image-keyboard-response","156","375607","0.0-4.0-0.39","","img/purple.png","32","trial","32","true","0.8,0.2","1:go_a","",""
"null","","html-keyboard-response","157","376609","0.0-4.0-1.39","","<img src=""img/purple-r.png"" border=""10"">","null","trial","32","","0.8,0.2","1:go_a","1",""
"null","","html-keyboard-response","158","377610","0.0-4.0-2.39","","<div style=""font-size:60px;"">+</div>","null","","","","","","",""
"414.22499995678663","","image-keyboard-response","159","378025","0.0-4.0-0.40","","img/purple.png","32","trial","32","true","0.8,0.2","1:go_a","",""
"null","","html-keyboard-response","160","379027","0.0-4.0-1.40","","<img src=""img/purple-n.png"" border=""10"">","null","trial","32","","0.8,0.2","1:go_a","0",""
"null","","html-keyboard-response","161","380028","0.0-4.0-2.40","","<div style=""font-size:60px;"">+</div>","null","","","","","","",""
"335.2349998895079","","image-keyboard-response","162","380365","0.0-4.0-0.41","","img/orange.png","32","trial","null","false","0.2,0.8","2:nogo_b","",""
"null","","html-keyboard-response","163","381366","0.0-4.0-1.41","","<img src=""img/orange-n.png"" border=""10"">","null","trial","null","","0.2,0.8","2:nogo_b","0",""
"null","","html-keyboard-response","164","382368","0.0-4.0-2.41","","<div style=""font-size:60px;"">+</div>","null","","","","","","",""
"null","","image-keyboard-response","165","383870","0.0-4.0-0.42","","img/orange.png","null","trial","null","true","0.2,0.8","2:nogo_b","",""
"null","","html-keyboard-response","166","384872","0.0-4.0-1.42","","<img src=""img/orange-n.png"">","null","trial","null","","0.2,0.8","2:nogo_b","0",""
"null","","html-keyboard-response","167","385874","0.0-4.0-2.42","","<div style=""font-size:60px;"">+</div>","null","","","","","","",""
"null","","image-keyboard-response","168","387376","0.0-4.0-0.43","","img/purple.png","null","trial","32","false","0.8,0.2","1:go_a","",""
"null","","html-keyboard-response","169","388377","0.0-4.0-1.43","","<img src=""img/purple-n.png"">","null","trial","32","","0.8,0.2","1:go_a","0",""
"null","","html-keyboard-response","170","389378","0.0-4.0-2.43","","<div style=""font-size:60px;"">+</div>","null","","","","","","",""
"500.57499995455146","","image-keyboard-response","171","389879","0.0-4.0-0.44","","img/purple.png","32","trial","32","true","0.8,0.2","1:go_a","",""
"null","","html-keyboard-response","172","390882","0.0-4.0-1.44","","<img src=""img/purple-r.png"" border=""10"">","null","trial","32","","0.8,0.2","1:go_a","1",""
"null","","html-keyboard-response","173","391884","0.0-4.0-2.44","","<div style=""font-size:60px;"">+</div>","null","","","","","","",""
"null","","image-keyboard-response","174","393386","0.0-4.0-0.45","","img/orange.png","null","trial","null","true","0.2,0.8","2:nogo_b","",""
"null","","html-keyboard-response","175","394388","0.0-4.0-1.45","","<img src=""img/orange-r.png"">","null","trial","null","","0.2,0.8","2:nogo_b","1",""
"null","","html-keyboard-response","176","395390","0.0-4.0-2.45","","<div style=""font-size:60px;"">+</div>","null","","","","","","",""
"558.0099998041987","","image-keyboard-response","177","395948","0.0-4.0-0.46","","img/purple.png","32","trial","32","true","0.8,0.2","1:go_a","",""
"null","","html-keyboard-response","178","396951","0.0-4.0-1.46","","<img src=""img/purple-r.png"" border=""10"">","null","trial","32","","0.8,0.2","1:go_a","1",""
"null","","html-keyboard-response","179","397952","0.0-4.0-2.46","","<div style=""font-size:60px;"">+</div>","null","","","","","","",""
"591.2900001276284","","image-keyboard-response","180","398544","0.0-4.0-0.47","","img/orange.png","32","trial","null","false","0.2,0.8","2:nogo_b","",""
"null","","html-keyboard-response","181","399546","0.0-4.0-1.47","","<img src=""img/orange-r.png"" border=""10"">","null","trial","null","","0.2,0.8","2:nogo_b","1",""
"null","","html-keyboard-response","182","400547","0.0-4.0-2.47","","<div style=""font-size:60px;"">+</div>","null","","","","","","",""
"302.4100000038743","","image-keyboard-response","183","400851","0.0-4.0-0.48","","img/purple.png","32","trial","32","true","0.8,0.2","1:go_a","",""
"null","","html-keyboard-response","184","401853","0.0-4.0-1.48","","<img src=""img/purple-r.png"" border=""10"">","null","trial","32","","0.8,0.2","1:go_a","1",""
"null","","html-keyboard-response","185","402854","0.0-4.0-2.48","","<div style=""font-size:60px;"">+</div>","null","","","","","","",""
"466.9149999972433","","image-keyboard-response","186","403321","0.0-4.0-0.49","","img/orange.png","32","trial","null","false","0.2,0.8","2:nogo_b","",""
"null","","html-keyboard-response","187","404324","0.0-4.0-1.49","","<img src=""img/orange-n.png"" border=""10"">","null","trial","null","","0.2,0.8","2:nogo_b","0",""
"null","","html-keyboard-response","188","405325","0.0-4.0-2.49","","<div style=""font-size:60px;"">+</div>","null","","","","","","",""
"null","","image-keyboard-response","189","406827","0.0-4.0-0.50","","img/orange.png","null","trial","null","true","0.2,0.8","2:nogo_b","",""
"null","","html-keyboard-response","190","407829","0.0-4.0-1.50","","<img src=""img/orange-r.png"">","null","trial","null","","0.2,0.8","2:nogo_b","1",""
"null","","html-keyboard-response","191","408831","0.0-4.0-2.50","","<div style=""font-size:60px;"">+</div>","null","","","","","","",""
"350.5349999759346","","image-keyboard-response","192","409182","0.0-4.0-0.51","","img/purple.png","32","trial","32","true","0.8,0.2","1:go_a","",""
"null","","html-keyboard-response","193","410185","0.0-4.0-1.51","","<img src=""img/purple-n.png"" border=""10"">","null","trial","32","","0.8,0.2","1:go_a","0",""
"null","","html-keyboard-response","194","411187","0.0-4.0-2.51","","<div style=""font-size:60px;"">+</div>","null","","","","","","",""
"398.1449999846518","","image-keyboard-response","195","411586","0.0-4.0-0.52","","img/purple.png","32","trial","32","true","0.8,0.2","1:go_a","",""
"null","","html-keyboard-response","196","412588","0.0-4.0-1.52","","<img src=""img/purple-r.png"" border=""10"">","null","trial","32","","0.8,0.2","1:go_a","1",""
"null","","html-keyboard-response","197","413590","0.0-4.0-2.52","","<div style=""font-size:60px;"">+</div>","null","","","","","","",""
"null","","image-keyboard-response","198","415091","0.0-4.0-0.53","","img/orange.png","null","trial","null","true","0.2,0.8","2:nogo_b","",""
"null","","html-keyboard-response","199","416094","0.0-4.0-1.53","","<img src=""img/orange-n.png"">","null","trial","null","","0.2,0.8","2:nogo_b","0",""
"null","","html-keyboard-response","200","417104","0.0-4.0-2.53","","<div style=""font-size:60px;"">+</div>","null","","","","","","",""
"null","","image-keyboard-response","201","418606","0.0-4.0-0.54","","img/orange.png","null","trial","null","true","0.2,0.8","2:nogo_b","",""
"null","","html-keyboard-response","202","419620","0.0-4.0-1.54","","<img src=""img/orange-r.png"">","null","trial","null","","0.2,0.8","2:nogo_b","1",""
"null","","html-keyboard-response","203","420621","0.0-4.0-2.54","","<div style=""font-size:60px;"">+</div>","null","","","","","","",""
"339.91000009700656","","image-keyboard-response","204","420962","0.0-4.0-0.55","","img/purple.png","32","trial","32","true","0.8,0.2","1:go_a","",""
"null","","html-keyboard-response","205","421964","0.0-4.0-1.55","","<img src=""img/purple-r.png"" border=""10"">","null","trial","32","","0.8,0.2","1:go_a","1",""
"null","","html-keyboard-response","206","422966","0.0-4.0-2.55","","<div style=""font-size:60px;"">+</div>","null","","","","","","",""
"null","","image-keyboard-response","207","424467","0.0-4.0-0.56","","img/orange.png","null","trial","null","true","0.2,0.8","2:nogo_b","",""
"null","","html-keyboard-response","208","425469","0.0-4.0-1.56","","<img src=""img/orange-n.png"">","null","trial","null","","0.2,0.8","2:nogo_b","0",""
"null","","html-keyboard-response","209","426471","0.0-4.0-2.56","","<div style=""font-size:60px;"">+</div>","null","","","","","","",""
"516.6299999691546","","image-keyboard-response","210","426988","0.0-4.0-0.57","","img/purple.png","32","trial","32","true","0.8,0.2","1:go_a","",""
"null","","html-keyboard-response","211","427990","0.0-4.0-1.57","","<img src=""img/purple-r.png"" border=""10"">","null","trial","32","","0.8,0.2","1:go_a","1",""
"null","","html-keyboard-response","212","428991","0.0-4.0-2.57","","<div style=""font-size:60px;"">+</div>","null","","","","","","",""
"711.4750000182539","","image-keyboard-response","213","429703","0.0-4.0-0.58","","img/purple.png","32","trial","32","true","0.8,0.2","1:go_a","",""
"null","","html-keyboard-response","214","430706","0.0-4.0-1.58","","<img src=""img/purple-r.png"" border=""10"">","null","trial","32","","0.8,0.2","1:go_a","1",""
"null","","html-keyboard-response","215","431707","0.0-4.0-2.58","","<div style=""font-size:60px;"">+</div>","null","","","","","","",""
"null","","image-keyboard-response","216","433209","0.0-4.0-0.59","","img/orange.png","null","trial","null","true","0.2,0.8","2:nogo_b","",""
"null","","html-keyboard-response","217","434211","0.0-4.0-1.59","","<img src=""img/orange-n.png"">","null","trial","null","","0.2,0.8","2:nogo_b","0",""
"null","","html-keyboard-response","218","435213","0.0-4.0-2.59","","<div style=""font-size:60px;"">+</div>","null","","","","","","",""
"7064536.169999978","","instructions","219","7499749","0.0-5.0","[{""page_index"":0,""viewing_time"":7064535.880000098}]","","","","","","","","",""
"862.1650000568479","","image-keyboard-response","220","7500613","0.0-6.0-0.0","","img/purple.png","32","trial","null","false","0.4,0.6","2:nogo_b","",""
"null","","html-keyboard-response","221","7501617","0.0-6.0-1.0","","<img src=""img/purple-n.png"" border=""10"">","null","trial","null","","0.4,0.6","2:nogo_b","0",""
"null","","html-keyboard-response","222","7502618","0.0-6.0-2.0","","<div style=""font-size:60px;"">+</div>","null","","","","","","",""
"584.3400000594556","","image-keyboard-response","223","7503204","0.0-6.0-0.1","","img/blue.png","32","trial","null","false","0.4,0.6","4:nogo_d","",""
"null","","html-keyboard-response","224","7504206","0.0-6.0-1.1","","<img src=""img/blue-n.png"" border=""10"">","null","trial","null","","0.4,0.6","4:nogo_d","0",""
"null","","html-keyboard-response","225","7505208","0.0-6.0-2.1","","<div style=""font-size:60px;"">+</div>","null","","","","","","",""
"568.36499995552","","image-keyboard-response","226","7505778","0.0-6.0-0.2","","img/red.png","32","trial","32","true","0.6,0.4","1:go_a","",""
"null","","html-keyboard-response","227","7506780","0.0-6.0-1.2","","<img src=""img/red-r.png"" border=""10"">","null","trial","32","","0.6,0.4","1:go_a","1",""
"null","","html-keyboard-response","228","7507782","0.0-6.0-2.2","","<div style=""font-size:60px;"">+</div>","null","","","","","","",""
"904.209999833256","","image-keyboard-response","229","7508687","0.0-6.0-0.3","","img/pink.png","32","trial","32","true","0.6,0.4","3:go_c","",""
"null","","html-keyboard-response","230","7509690","0.0-6.0-1.3","","<img src=""img/pink-n.png"" border=""10"">","null","trial","32","","0.6,0.4","3:go_c","0",""
"null","","html-keyboard-response","231","7510704","0.0-6.0-2.3","","<div style=""font-size:60px;"">+</div>","null","","","","","","",""
"null","","image-keyboard-response","232","7512205","0.0-6.0-0.4","","img/blue.png","null","trial","null","true","0.4,0.6","4:nogo_d","",""
"null","","html-keyboard-response","233","7513207","0.0-6.0-1.4","","<img src=""img/blue-r.png"">","null","trial","null","","0.4,0.6","4:nogo_d","1",""
"null","","html-keyboard-response","234","7514220","0.0-6.0-2.4","","<div style=""font-size:60px;"">+</div>","null","","","","","","",""
"null","","image-keyboard-response","235","7515722","0.0-6.0-0.5","","img/purple.png","null","trial","null","true","0.4,0.6","2:nogo_b","",""
"null","","html-keyboard-response","236","7516723","0.0-6.0-1.5","","<img src=""img/purple-r.png"">","null","trial","null","","0.4,0.6","2:nogo_b","1",""
"null","","html-keyboard-response","237","7517725","0.0-6.0-2.5","","<div style=""font-size:60px;"">+</div>","null","","","","","","",""
"522.7500000037253","","image-keyboard-response","238","7518249","0.0-6.0-0.6","","img/pink.png","32","trial","32","true","0.6,0.4","3:go_c","",""
"null","","html-keyboard-response","239","7519251","0.0-6.0-1.6","","<img src=""img/pink-r.png"" border=""10"">","null","trial","32","","0.6,0.4","3:go_c","1",""
"null","","html-keyboard-response","240","7520253","0.0-6.0-2.6","","<div style=""font-size:60px;"">+</div>","null","","","","","","",""
"639.2250000499189","","image-keyboard-response","241","7520893","0.0-6.0-0.7","","img/red.png","32","trial","32","true","0.6,0.4","1:go_a","",""
"null","","html-keyboard-response","242","7521896","0.0-6.0-1.7","","<img src=""img/red-n.png"" border=""10"">","null","trial","32","","0.6,0.4","1:go_a","0",""
"null","","html-keyboard-response","243","7522897","0.0-6.0-2.7","","<div style=""font-size:60px;"">+</div>","null","","","","","","",""
"390.7000001054257","","image-keyboard-response","244","7523288","0.0-6.0-0.8","","img/purple.png","32","trial","null","false","0.4,0.6","2:nogo_b","",""
"null","","html-keyboard-response","245","7524290","0.0-6.0-1.8","","<img src=""img/purple-n.png"" border=""10"">","null","trial","null","","0.4,0.6","2:nogo_b","0",""
"null","","html-keyboard-response","246","7525291","0.0-6.0-2.8","","<div style=""font-size:60px;"">+</div>","null","","","","","","",""
"431.9050000049174","","image-keyboard-response","247","7525724","0.0-6.0-0.9","","img/red.png","32","trial","32","true","0.6,0.4","1:go_a","",""
"null","","html-keyboard-response","248","7526727","0.0-6.0-1.9","","<img src=""img/red-r.png"" border=""10"">","null","trial","32","","0.6,0.4","1:go_a","1",""
"null","","html-keyboard-response","249","7527728","0.0-6.0-2.9","","<div style=""font-size:60px;"">+</div>","null","","","","","","",""
"423.6749999690801","","image-keyboard-response","250","7528153","0.0-6.0-0.10","","img/blue.png","32","trial","null","false","0.4,0.6","4:nogo_d","",""
"null","","html-keyboard-response","251","7529155","0.0-6.0-1.10","","<img src=""img/blue-r.png"" border=""10"">","null","trial","null","","0.4,0.6","4:nogo_d","1",""
"null","","html-keyboard-response","252","7530156","0.0-6.0-2.10","","<div style=""font-size:60px;"">+</div>","null","","","","","","",""
"659.4050000421703","","image-keyboard-response","253","7530816","0.0-6.0-0.11","","img/pink.png","32","trial","32","true","0.6,0.4","3:go_c","",""
"null","","html-keyboard-response","254","7531818","0.0-6.0-1.11","","<img src=""img/pink-n.png"" border=""10"">","null","trial","32","","0.6,0.4","3:go_c","0",""
"null","","html-keyboard-response","255","7532820","0.0-6.0-2.11","","<div style=""font-size:60px;"">+</div>","null","","","","","","",""
"435.91499980539083","","image-keyboard-response","256","7533257","0.0-6.0-0.12","","img/pink.png","32","trial","32","true","0.6,0.4","3:go_c","",""
"null","","html-keyboard-response","257","7534260","0.0-6.0-1.12","","<img src=""img/pink-n.png"" border=""10"">","null","trial","32","","0.6,0.4","3:go_c","0",""
"null","","html-keyboard-response","258","7535262","0.0-6.0-2.12","","<div style=""font-size:60px;"">+</div>","null","","","","","","",""
"546.1049999576062","","image-keyboard-response","259","7535809","0.0-6.0-0.13","","img/purple.png","32","trial","null","false","0.4,0.6","2:nogo_b","",""
"null","","html-keyboard-response","260","7536812","0.0-6.0-1.13","","<img src=""img/purple-r.png"" border=""10"">","null","trial","null","","0.4,0.6","2:nogo_b","1",""
"null","","html-keyboard-response","261","7537813","0.0-6.0-2.13","","<div style=""font-size:60px;"">+</div>","null","","","","","","",""
"564.394999993965","","image-keyboard-response","262","7538378","0.0-6.0-0.14","","img/red.png","32","trial","32","true","0.6,0.4","1:go_a","",""
"null","","html-keyboard-response","263","7539380","0.0-6.0-1.14","","<img src=""img/red-r.png"" border=""10"">","null","trial","32","","0.6,0.4","1:go_a","1",""
"null","","html-keyboard-response","264","7540382","0.0-6.0-2.14","","<div style=""font-size:60px;"">+</div>","null","","","","","","",""
"526.2050000019372","","image-keyboard-response","265","7540909","0.0-6.0-0.15","","img/blue.png","32","trial","null","false","0.4,0.6","4:nogo_d","",""
"null","","html-keyboard-response","266","7541911","0.0-6.0-1.15","","<img src=""img/blue-n.png"" border=""10"">","null","trial","null","","0.4,0.6","4:nogo_d","0",""
"null","","html-keyboard-response","267","7542923","0.0-6.0-2.15","","<div style=""font-size:60px;"">+</div>","null","","","","","","",""
"null","","image-keyboard-response","268","7544425","0.0-6.0-0.16","","img/purple.png","null","trial","null","true","0.4,0.6","2:nogo_b","",""
"null","","html-keyboard-response","269","7545427","0.0-6.0-1.16","","<img src=""img/purple-r.png"">","null","trial","null","","0.4,0.6","2:nogo_b","1",""
"null","","html-keyboard-response","270","7546428","0.0-6.0-2.16","","<div style=""font-size:60px;"">+</div>","null","","","","","","",""
"487.4400000553578","","image-keyboard-response","271","7546916","0.0-6.0-0.17","","img/red.png","32","trial","32","true","0.6,0.4","1:go_a","",""
"null","","html-keyboard-response","272","7547919","0.0-6.0-1.17","","<img src=""img/red-r.png"" border=""10"">","null","trial","32","","0.6,0.4","1:go_a","1",""
"null","","html-keyboard-response","273","7548921","0.0-6.0-2.17","","<div style=""font-size:60px;"">+</div>","null","","","","","","",""
"null","","image-keyboard-response","274","7550423","0.0-6.0-0.18","","img/pink.png","null","trial","32","false","0.6,0.4","3:go_c","",""
"null","","html-keyboard-response","275","7551425","0.0-6.0-1.18","","<img src=""img/pink-n.png"">","null","trial","32","","0.6,0.4","3:go_c","0",""
"null","","html-keyboard-response","276","7552426","0.0-6.0-2.18","","<div style=""font-size:60px;"">+</div>","null","","","","","","",""
"444.78000001981854","","image-keyboard-response","277","7552872","0.0-6.0-0.19","","img/blue.png","32","trial","null","false","0.4,0.6","4:nogo_d","",""
"null","","html-keyboard-response","278","7553888","0.0-6.0-1.19","","<img src=""img/blue-n.png"" border=""10"">","null","trial","null","","0.4,0.6","4:nogo_d","0",""
"null","","html-keyboard-response","279","7554889","0.0-6.0-2.19","","<div style=""font-size:60px;"">+</div>","null","","","","","","",""
"597.8300001006573","","image-keyboard-response","280","7555488","0.0-6.0-0.20","","img/red.png","32","trial","32","true","0.6,0.4","1:go_a","",""
"null","","html-keyboard-response","281","7556490","0.0-6.0-1.20","","<img src=""img/red-n.png"" border=""10"">","null","trial","32","","0.6,0.4","1:go_a","0",""
"null","","html-keyboard-response","282","7557491","0.0-6.0-2.20","","<div style=""font-size:60px;"">+</div>","null","","","","","","",""
"609.1450001113117","","image-keyboard-response","283","7558101","0.0-6.0-0.21","","img/purple.png","32","trial","null","false","0.4,0.6","2:nogo_b","",""
"null","","html-keyboard-response","284","7559103","0.0-6.0-1.21","","<img src=""img/purple-r.png"" border=""10"">","null","trial","null","","0.4,0.6","2:nogo_b","1",""
"null","","html-keyboard-response","285","7560105","0.0-6.0-2.21","","<div style=""font-size:60px;"">+</div>","null","","","","","","",""
"397.4550000857562","","image-keyboard-response","286","7560503","0.0-6.0-0.22","","img/blue.png","32","trial","null","false","0.4,0.6","4:nogo_d","",""
"null","","html-keyboard-response","287","7561506","0.0-6.0-1.22","","<img src=""img/blue-r.png"" border=""10"">","null","trial","null","","0.4,0.6","4:nogo_d","1",""
"null","","html-keyboard-response","288","7562508","0.0-6.0-2.22","","<div style=""font-size:60px;"">+</div>","null","","","","","","",""
"null","","image-keyboard-response","289","7564016","0.0-6.0-0.23","","img/pink.png","null","trial","32","false","0.6,0.4","3:go_c","",""
"null","","html-keyboard-response","290","7565018","0.0-6.0-1.23","","<img src=""img/pink-n.png"">","null","trial","32","","0.6,0.4","3:go_c","0",""
"null","","html-keyboard-response","291","7566020","0.0-6.0-2.23","","<div style=""font-size:60px;"">+</div>","null","","","","","","",""
"null","","image-keyboard-response","292","7567521","0.0-6.0-0.24","","img/red.png","null","trial","32","false","0.6,0.4","1:go_a","",""
"null","","html-keyboard-response","293","7568524","0.0-6.0-1.24","","<img src=""img/red-n.png"">","null","trial","32","","0.6,0.4","1:go_a","0",""
"null","","html-keyboard-response","294","7569525","0.0-6.0-2.24","","<div style=""font-size:60px;"">+</div>","null","","","","","","",""
"791.2349998950958","","image-keyboard-response","295","7570317","0.0-6.0-0.25","","img/blue.png","32","trial","null","false","0.4,0.6","4:nogo_d","",""
"null","","html-keyboard-response","296","7571319","0.0-6.0-1.25","","<img src=""img/blue-n.png"" border=""10"">","null","trial","null","","0.4,0.6","4:nogo_d","0",""
"null","","html-keyboard-response","297","7572321","0.0-6.0-2.25","","<div style=""font-size:60px;"">+</div>","null","","","","","","",""
"469.5449999999255","","image-keyboard-response","298","7572791","0.0-6.0-0.26","","img/purple.png","32","trial","null","false","0.4,0.6","2:nogo_b","",""
"null","","html-keyboard-response","299","7573792","0.0-6.0-1.26","","<img src=""img/purple-n.png"" border=""10"">","null","trial","null","","0.4,0.6","2:nogo_b","0",""
"null","","html-keyboard-response","300","7574794","0.0-6.0-2.26","","<div style=""font-size:60px;"">+</div>","null","","","","","","",""
"null","","image-keyboard-response","301","7576296","0.0-6.0-0.27","","img/pink.png","null","trial","32","false","0.6,0.4","3:go_c","",""
"null","","html-keyboard-response","302","7577299","0.0-6.0-1.27","","<img src=""img/pink-n.png"">","null","trial","32","","0.6,0.4","3:go_c","0",""
"null","","html-keyboard-response","303","7578300","0.0-6.0-2.27","","<div style=""font-size:60px;"">+</div>","null","","","","","","",""
"null","","image-keyboard-response","304","7579803","0.0-6.0-0.28","","img/blue.png","null","trial","null","true","0.4,0.6","4:nogo_d","",""
"null","","html-keyboard-response","305","7580815","0.0-6.0-1.28","","<img src=""img/blue-r.png"">","null","trial","null","","0.4,0.6","4:nogo_d","1",""
"null","","html-keyboard-response","306","7581816","0.0-6.0-2.28","","<div style=""font-size:60px;"">+</div>","null","","","","","","",""
"533.7399998679757","","image-keyboard-response","307","7582351","0.0-6.0-0.29","","img/red.png","32","trial","32","true","0.6,0.4","1:go_a","",""
"null","","html-keyboard-response","308","7583356","0.0-6.0-1.29","","<img src=""img/red-r.png"" border=""10"">","null","trial","32","","0.6,0.4","1:go_a","1",""
"null","","html-keyboard-response","309","7584358","0.0-6.0-2.29","","<div style=""font-size:60px;"">+</div>","null","","","","","","",""
"548.8350000232458","","image-keyboard-response","310","7584907","0.0-6.0-0.30","","img/purple.png","32","trial","null","false","0.4,0.6","2:nogo_b","",""
"null","","html-keyboard-response","311","7585910","0.0-6.0-1.30","","<img src=""img/purple-n.png"" border=""10"">","null","trial","null","","0.4,0.6","2:nogo_b","0",""
"null","","html-keyboard-response","312","7586911","0.0-6.0-2.30","","<div style=""font-size:60px;"">+</div>","null","","","","","","",""
"null","","image-keyboard-response","313","7588413","0.0-6.0-0.31","","img/pink.png","null","trial","32","false","0.6,0.4","3:go_c","",""
"null","","html-keyboard-response","314","7589427","0.0-6.0-1.31","","<img src=""img/pink-r.png"">","null","trial","32","","0.6,0.4","3:go_c","1",""
"null","","html-keyboard-response","315","7590428","0.0-6.0-2.31","","<div style=""font-size:60px;"">+</div>","null","","","","","","",""
"618.1100001558661","","image-keyboard-response","316","7591047","0.0-6.0-0.32","","img/purple.png","32","trial","null","false","0.4,0.6","2:nogo_b","",""
"null","","html-keyboard-response","317","7592049","0.0-6.0-1.32","","<img src=""img/purple-r.png"" border=""10"">","null","trial","null","","0.4,0.6","2:nogo_b","1",""
"null","","html-keyboard-response","318","7593051","0.0-6.0-2.32","","<div style=""font-size:60px;"">+</div>","null","","","","","","",""
"539.0349999070168","","image-keyboard-response","319","7593591","0.0-6.0-0.33","","img/blue.png","32","trial","null","false","0.4,0.6","4:nogo_d","",""
"null","","html-keyboard-response","320","7594594","0.0-6.0-1.33","","<img src=""img/blue-n.png"" border=""10"">","null","trial","null","","0.4,0.6","4:nogo_d","0",""
"null","","html-keyboard-response","321","7595595","0.0-6.0-2.33","","<div style=""font-size:60px;"">+</div>","null","","","","","","",""
"null","","image-keyboard-response","322","7597097","0.0-6.0-0.34","","img/pink.png","null","trial","32","false","0.6,0.4","3:go_c","",""
"null","","html-keyboard-response","323","7598113","0.0-6.0-1.34","","<img src=""img/pink-r.png"">","null","trial","32","","0.6,0.4","3:go_c","1",""
"null","","html-keyboard-response","324","7599115","0.0-6.0-2.34","","<div style=""font-size:60px;"">+</div>","null","","","","","","",""
"541.1350000649691","","image-keyboard-response","325","7599657","0.0-6.0-0.35","","img/red.png","32","trial","32","true","0.6,0.4","1:go_a","",""
"null","","html-keyboard-response","326","7600659","0.0-6.0-1.35","","<img src=""img/red-r.png"" border=""10"">","null","trial","32","","0.6,0.4","1:go_a","1",""
"null","","html-keyboard-response","327","7601661","0.0-6.0-2.35","","<div style=""font-size:60px;"">+</div>","null","","","","","","",""
"605.0650000106543","","image-keyboard-response","328","7602267","0.0-6.0-0.36","","img/blue.png","32","trial","null","false","0.4,0.6","4:nogo_d","",""
"null","","html-keyboard-response","329","7603269","0.0-6.0-1.36","","<img src=""img/blue-r.png"" border=""10"">","null","trial","null","","0.4,0.6","4:nogo_d","1",""
"null","","html-keyboard-response","330","7604271","0.0-6.0-2.36","","<div style=""font-size:60px;"">+</div>","null","","","","","","",""
"1249.5799998287112","","image-keyboard-response","331","7605521","0.0-6.0-0.37","","img/purple.png","32","trial","null","false","0.4,0.6","2:nogo_b","",""
"null","","html-keyboard-response","332","7606523","0.0-6.0-1.37","","<img src=""img/purple-n.png"" border=""10"">","null","trial","null","","0.4,0.6","2:nogo_b","0",""
"null","","html-keyboard-response","333","7607525","0.0-6.0-2.37","","<div style=""font-size:60px;"">+</div>","null","","","","","","",""
"null","","image-keyboard-response","334","7609026","0.0-6.0-0.38","","img/pink.png","null","trial","32","false","0.6,0.4","3:go_c","",""
"null","","html-keyboard-response","335","7610028","0.0-6.0-1.38","","<img src=""img/pink-n.png"">","null","trial","32","","0.6,0.4","3:go_c","0",""
"null","","html-keyboard-response","336","7611029","0.0-6.0-2.38","","<div style=""font-size:60px;"">+</div>","null","","","","","","",""
"370.8149997983128","","image-keyboard-response","337","7611401","0.0-6.0-0.39","","img/red.png","32","trial","32","true","0.6,0.4","1:go_a","",""
"null","","html-keyboard-response","338","7612416","0.0-6.0-1.39","","<img src=""img/red-r.png"" border=""10"">","null","trial","32","","0.6,0.4","1:go_a","1",""
"null","","html-keyboard-response","339","7613418","0.0-6.0-2.39","","<div style=""font-size:60px;"">+</div>","null","","","","","","",""
"380.2699998486787","","image-keyboard-response","340","7613799","0.0-6.0-0.40","","img/purple.png","32","trial","null","false","0.4,0.6","2:nogo_b","",""
"null","","html-keyboard-response","341","7614802","0.0-6.0-1.40","","<img src=""img/purple-r.png"" border=""10"">","null","trial","null","","0.4,0.6","2:nogo_b","1",""
"null","","html-keyboard-response","342","7615803","0.0-6.0-2.40","","<div style=""font-size:60px;"">+</div>","null","","","","","","",""
"null","","image-keyboard-response","343","7617306","0.0-6.0-0.41","","img/pink.png","null","trial","32","false","0.6,0.4","3:go_c","",""
"null","","html-keyboard-response","344","7618307","0.0-6.0-1.41","","<img src=""img/pink-n.png"">","null","trial","32","","0.6,0.4","3:go_c","0",""
"null","","html-keyboard-response","345","7619309","0.0-6.0-2.41","","<div style=""font-size:60px;"">+</div>","null","","","","","","",""
"555.4500001017004","","image-keyboard-response","346","7619866","0.0-6.0-0.42","","img/red.png","32","trial","32","true","0.6,0.4","1:go_a","",""
"null","","html-keyboard-response","347","7620869","0.0-6.0-1.42","","<img src=""img/red-r.png"" border=""10"">","null","trial","32","","0.6,0.4","1:go_a","1",""
"null","","html-keyboard-response","348","7621870","0.0-6.0-2.42","","<div style=""font-size:60px;"">+</div>","null","","","","","","",""
"649.3800000753254","","image-keyboard-response","349","7622520","0.0-6.0-0.43","","img/blue.png","32","trial","null","false","0.4,0.6","4:nogo_d","",""
"null","","html-keyboard-response","350","7623522","0.0-6.0-1.43","","<img src=""img/blue-n.png"" border=""10"">","null","trial","null","","0.4,0.6","4:nogo_d","0",""
"null","","html-keyboard-response","351","7624523","0.0-6.0-2.43","","<div style=""font-size:60px;"">+</div>","null","","","","","","",""
"null","","image-keyboard-response","352","7626025","0.0-6.0-0.44","","img/purple.png","null","trial","null","true","0.4,0.6","2:nogo_b","",""
"null","","html-keyboard-response","353","7627027","0.0-6.0-1.44","","<img src=""img/purple-r.png"">","null","trial","null","","0.4,0.6","2:nogo_b","1",""
"null","","html-keyboard-response","354","7628030","0.0-6.0-2.44","","<div style=""font-size:60px;"">+</div>","null","","","","","","",""
"null","","image-keyboard-response","355","7629532","0.0-6.0-0.45","","img/pink.png","null","trial","32","false","0.6,0.4","3:go_c","",""
"null","","html-keyboard-response","356","7630534","0.0-6.0-1.45","","<img src=""img/pink-n.png"">","null","trial","32","","0.6,0.4","3:go_c","0",""
"null","","html-keyboard-response","357","7631536","0.0-6.0-2.45","","<div style=""font-size:60px;"">+</div>","null","","","","","","",""
"308.56999987736344","","image-keyboard-response","358","7631845","0.0-6.0-0.46","","img/blue.png","32","trial","null","false","0.4,0.6","4:nogo_d","",""
"null","","html-keyboard-response","359","7632847","0.0-6.0-1.46","","<img src=""img/blue-n.png"" border=""10"">","null","trial","null","","0.4,0.6","4:nogo_d","0",""
"null","","html-keyboard-response","360","7633848","0.0-6.0-2.46","","<div style=""font-size:60px;"">+</div>","null","","","","","","",""
"455.58000006712973","","image-keyboard-response","361","7634305","0.0-6.0-0.47","","img/red.png","32","trial","32","true","0.6,0.4","1:go_a","",""
"null","","html-keyboard-response","362","7635307","0.0-6.0-1.47","","<img src=""img/red-r.png"" border=""10"">","null","trial","32","","0.6,0.4","1:go_a","1",""
"null","","html-keyboard-response","363","7636308","0.0-6.0-2.47","","<div style=""font-size:60px;"">+</div>","null","","","","","","",""
"null","","image-keyboard-response","364","7637811","0.0-6.0-0.48","","img/pink.png","null","trial","32","false","0.6,0.4","3:go_c","",""
"null","","html-keyboard-response","365","7638813","0.0-6.0-1.48","","<img src=""img/pink-r.png"">","null","trial","32","","0.6,0.4","3:go_c","1",""
"null","","html-keyboard-response","366","7639814","0.0-6.0-2.48","","<div style=""font-size:60px;"">+</div>","null","","","","","","",""
"584.7000000067055","","image-keyboard-response","367","7640400","0.0-6.0-0.49","","img/red.png","32","trial","32","true","0.6,0.4","1:go_a","",""
"null","","html-keyboard-response","368","7641403","0.0-6.0-1.49","","<img src=""img/red-n.png"" border=""10"">","null","trial","32","","0.6,0.4","1:go_a","0",""
"null","","html-keyboard-response","369","7642404","0.0-6.0-2.49","","<div style=""font-size:60px;"">+</div>","null","","","","","","",""
"408.90999999828637","","image-keyboard-response","370","7642814","0.0-6.0-0.50","","img/purple.png","32","trial","null","false","0.4,0.6","2:nogo_b","",""
"null","","html-keyboard-response","371","7643817","0.0-6.0-1.50","","<img src=""img/purple-n.png"" border=""10"">","null","trial","null","","0.4,0.6","2:nogo_b","0",""
"null","","html-keyboard-response","372","7644818","0.0-6.0-2.50","","<div style=""font-size:60px;"">+</div>","null","","","","","","",""
"334.6299999393523","","image-keyboard-response","373","7645154","0.0-6.0-0.51","","img/blue.png","32","trial","null","false","0.4,0.6","4:nogo_d","",""
"null","","html-keyboard-response","374","7646156","0.0-6.0-1.51","","<img src=""img/blue-n.png"" border=""10"">","null","trial","null","","0.4,0.6","4:nogo_d","0",""
"null","","html-keyboard-response","375","7647158","0.0-6.0-2.51","","<div style=""font-size:60px;"">+</div>","null","","","","","","",""
"682.9450000077486","","image-keyboard-response","376","7647842","0.0-6.0-0.52","","img/blue.png","32","trial","null","false","0.4,0.6","4:nogo_d","",""
"null","","html-keyboard-response","377","7648844","0.0-6.0-1.52","","<img src=""img/blue-n.png"" border=""10"">","null","trial","null","","0.4,0.6","4:nogo_d","0",""
"null","","html-keyboard-response","378","7649845","0.0-6.0-2.52","","<div style=""font-size:60px;"">+</div>","null","","","","","","",""
"null","","image-keyboard-response","379","7651346","0.0-6.0-0.53","","img/pink.png","null","trial","32","false","0.6,0.4","3:go_c","",""
"null","","html-keyboard-response","380","7652348","0.0-6.0-1.53","","<img src=""img/pink-n.png"">","null","trial","32","","0.6,0.4","3:go_c","0",""
"null","","html-keyboard-response","381","7653350","0.0-6.0-2.53","","<div style=""font-size:60px;"">+</div>","null","","","","","","",""
"510.10000007227063","","image-keyboard-response","382","7653861","0.0-6.0-0.54","","img/red.png","32","trial","32","true","0.6,0.4","1:go_a","",""
"null","","html-keyboard-response","383","7654863","0.0-6.0-1.54","","<img src=""img/red-r.png"" border=""10"">","null","trial","32","","0.6,0.4","1:go_a","1",""
"null","","html-keyboard-response","384","7655864","0.0-6.0-2.54","","<div style=""font-size:60px;"">+</div>","null","","","","","","",""
"690.8899999689311","","image-keyboard-response","385","7656557","0.0-6.0-0.55","","img/purple.png","32","trial","null","false","0.4,0.6","2:nogo_b","",""
"null","","html-keyboard-response","386","7657559","0.0-6.0-1.55","","<img src=""img/purple-n.png"" border=""10"">","null","trial","null","","0.4,0.6","2:nogo_b","0",""
"null","","html-keyboard-response","387","7658561","0.0-6.0-2.55","","<div style=""font-size:60px;"">+</div>","null","","","","","","",""
"594.9850000906736","","image-keyboard-response","388","7659157","0.0-6.0-0.56","","img/blue.png","32","trial","null","false","0.4,0.6","4:nogo_d","",""
"null","","html-keyboard-response","389","7660160","0.0-6.0-1.56","","<img src=""img/blue-r.png"" border=""10"">","null","trial","null","","0.4,0.6","4:nogo_d","1",""
"null","","html-keyboard-response","390","7661161","0.0-6.0-2.56","","<div style=""font-size:60px;"">+</div>","null","","","","","","",""
"null","","image-keyboard-response","391","7662663","0.0-6.0-0.57","","img/pink.png","null","trial","32","false","0.6,0.4","3:go_c","",""
"null","","html-keyboard-response","392","7663665","0.0-6.0-1.57","","<img src=""img/pink-n.png"">","null","trial","32","","0.6,0.4","3:go_c","0",""
"null","","html-keyboard-response","393","7664667","0.0-6.0-2.57","","<div style=""font-size:60px;"">+</div>","null","","","","","","",""
"966.2799998186529","","image-keyboard-response","394","7665634","0.0-6.0-0.58","","img/red.png","32","trial","32","true","0.6,0.4","1:go_a","",""
"null","","html-keyboard-response","395","7666636","0.0-6.0-1.58","","<img src=""img/red-r.png"" border=""10"">","null","trial","32","","0.6,0.4","1:go_a","1",""
"null","","html-keyboard-response","396","7667637","0.0-6.0-2.58","","<div style=""font-size:60px;"">+</div>","null","","","","","","",""
"665.7600000035018","","image-keyboard-response","397","7668304","0.0-6.0-0.59","","img/purple.png","32","trial","null","false","0.4,0.6","2:nogo_b","",""
"null","","html-keyboard-response","398","7669305","0.0-6.0-1.59","","<img src=""img/purple-n.png"" border=""10"">","null","trial","null","","0.4,0.6","2:nogo_b","0",""
"null","","html-keyboard-response","399","7670307","0.0-6.0-2.59","","<div style=""font-size:60px;"">+</div>","null","","","","","","",""
"369.524999987334","","image-keyboard-response","400","7670678","0.0-6.0-0.60","","img/blue.png","32","trial","null","false","0.4,0.6","4:nogo_d","",""
"null","","html-keyboard-response","401","7671680","0.0-6.0-1.60","","<img src=""img/blue-n.png"" border=""10"">","null","trial","null","","0.4,0.6","4:nogo_d","0",""
"null","","html-keyboard-response","402","7672681","0.0-6.0-2.60","","<div style=""font-size:60px;"">+</div>","null","","","","","","",""
"784.0949997771531","","image-keyboard-response","403","7673466","0.0-6.0-0.61","","img/red.png","32","trial","32","true","0.6,0.4","1:go_a","",""
"null","","html-keyboard-response","404","7674469","0.0-6.0-1.61","","<img src=""img/red-r.png"" border=""10"">","null","trial","32","","0.6,0.4","1:go_a","1",""
"null","","html-keyboard-response","405","7675471","0.0-6.0-2.61","","<div style=""font-size:60px;"">+</div>","null","","","","","","",""
"762.2449998743832","","image-keyboard-response","406","7676234","0.0-6.0-0.62","","img/purple.png","32","trial","null","false","0.4,0.6","2:nogo_b","",""
"null","","html-keyboard-response","407","7677236","0.0-6.0-1.62","","<img src=""img/purple-n.png"" border=""10"">","null","trial","null","","0.4,0.6","2:nogo_b","0",""
"null","","html-keyboard-response","408","7678237","0.0-6.0-2.62","","<div style=""font-size:60px;"">+</div>","null","","","","","","",""
"null","","image-keyboard-response","409","7679740","0.0-6.0-0.63","","img/pink.png","null","trial","32","false","0.6,0.4","3:go_c","",""
"null","","html-keyboard-response","410","7680742","0.0-6.0-1.63","","<img src=""img/pink-r.png"">","null","trial","32","","0.6,0.4","3:go_c","1",""
"null","","html-keyboard-response","411","7681743","0.0-6.0-2.63","","<div style=""font-size:60px;"">+</div>","null","","","","","","",""
"null","","image-keyboard-response","412","7683245","0.0-6.0-0.64","","img/pink.png","null","trial","32","false","0.6,0.4","3:go_c","",""
"null","","html-keyboard-response","413","7684247","0.0-6.0-1.64","","<img src=""img/pink-n.png"">","null","trial","32","","0.6,0.4","3:go_c","0",""
"null","","html-keyboard-response","414","7685248","0.0-6.0-2.64","","<div style=""font-size:60px;"">+</div>","null","","","","","","",""
"532.7349998988211","","image-keyboard-response","415","7685781","0.0-6.0-0.65","","img/purple.png","32","trial","null","false","0.4,0.6","2:nogo_b","",""
"null","","html-keyboard-response","416","7686782","0.0-6.0-1.65","","<img src=""img/purple-n.png"" border=""10"">","null","trial","null","","0.4,0.6","2:nogo_b","0",""
"null","","html-keyboard-response","417","7687784","0.0-6.0-2.65","","<div style=""font-size:60px;"">+</div>","null","","","","","","",""
"null","","image-keyboard-response","418","7689286","0.0-6.0-0.66","","img/blue.png","null","trial","null","true","0.4,0.6","4:nogo_d","",""
"null","","html-keyboard-response","419","7690287","0.0-6.0-1.66","","<img src=""img/blue-n.png"">","null","trial","null","","0.4,0.6","4:nogo_d","0",""
"null","","html-keyboard-response","420","7691289","0.0-6.0-2.66","","<div style=""font-size:60px;"">+</div>","null","","","","","","",""
"521.8700000550598","","image-keyboard-response","421","7691812","0.0-6.0-0.67","","img/red.png","32","trial","32","true","0.6,0.4","1:go_a","",""
"null","","html-keyboard-response","422","7692814","0.0-6.0-1.67","","<img src=""img/red-r.png"" border=""10"">","null","trial","32","","0.6,0.4","1:go_a","1",""
"null","","html-keyboard-response","423","7693816","0.0-6.0-2.67","","<div style=""font-size:60px;"">+</div>","null","","","","","","",""
"null","","image-keyboard-response","424","7695318","0.0-6.0-0.68","","img/pink.png","null","trial","32","false","0.6,0.4","3:go_c","",""
"null","","html-keyboard-response","425","7696320","0.0-6.0-1.68","","<img src=""img/pink-r.png"">","null","trial","32","","0.6,0.4","3:go_c","1",""
"null","","html-keyboard-response","426","7697321","0.0-6.0-2.68","","<div style=""font-size:60px;"">+</div>","null","","","","","","",""
"730.3649999666959","","image-keyboard-response","427","7698053","0.0-6.0-0.69","","img/red.png","32","trial","32","true","0.6,0.4","1:go_a","",""
"null","","html-keyboard-response","428","7699054","0.0-6.0-1.69","","<img src=""img/red-r.png"" border=""10"">","null","trial","32","","0.6,0.4","1:go_a","1",""
"null","","html-keyboard-response","429","7700055","0.0-6.0-2.69","","<div style=""font-size:60px;"">+</div>","null","","","","","","",""
"null","","image-keyboard-response","430","7701557","0.0-6.0-0.70","","img/purple.png","null","trial","null","true","0.4,0.6","2:nogo_b","",""
"null","","html-keyboard-response","431","7702560","0.0-6.0-1.70","","<img src=""img/purple-r.png"">","null","trial","null","","0.4,0.6","2:nogo_b","1",""
"null","","html-keyboard-response","432","7703561","0.0-6.0-2.70","","<div style=""font-size:60px;"">+</div>","null","","","","","","",""
"666.3800000678748","","image-keyboard-response","433","7704228","0.0-6.0-0.71","","img/blue.png","32","trial","null","false","0.4,0.6","4:nogo_d","",""
"null","","html-keyboard-response","434","7705243","0.0-6.0-1.71","","<img src=""img/blue-n.png"" border=""10"">","null","trial","null","","0.4,0.6","4:nogo_d","0",""
"null","","html-keyboard-response","435","7706244","0.0-6.0-2.71","","<div style=""font-size:60px;"">+</div>","null","","","","","","",""
"null","","image-keyboard-response","436","7707746","0.0-6.0-0.72","","img/pink.png","null","trial","32","false","0.6,0.4","3:go_c","",""
"null","","html-keyboard-response","437","7708748","0.0-6.0-1.72","","<img src=""img/pink-r.png"">","null","trial","32","","0.6,0.4","3:go_c","1",""
"null","","html-keyboard-response","438","7709749","0.0-6.0-2.72","","<div style=""font-size:60px;"">+</div>","null","","","","","","",""
"434.2100000940263","","image-keyboard-response","439","7710185","0.0-6.0-0.73","","img/purple.png","32","trial","null","false","0.4,0.6","2:nogo_b","",""
"null","","html-keyboard-response","440","7711187","0.0-6.0-1.73","","<img src=""img/purple-n.png"" border=""10"">","null","trial","null","","0.4,0.6","2:nogo_b","0",""
"null","","html-keyboard-response","441","7712188","0.0-6.0-2.73","","<div style=""font-size:60px;"">+</div>","null","","","","","","",""
"526.8849998246878","","image-keyboard-response","442","7712716","0.0-6.0-0.74","","img/red.png","32","trial","32","true","0.6,0.4","1:go_a","",""
"null","","html-keyboard-response","443","7713719","0.0-6.0-1.74","","<img src=""img/red-r.png"" border=""10"">","null","trial","32","","0.6,0.4","1:go_a","1",""
"null","","html-keyboard-response","444","7714720","0.0-6.0-2.74","","<div style=""font-size:60px;"">+</div>","null","","","","","","",""
"null","","image-keyboard-response","445","7716222","0.0-6.0-0.75","","img/blue.png","null","trial","null","true","0.4,0.6","4:nogo_d","",""
"null","","html-keyboard-response","446","7717224","0.0-6.0-1.75","","<img src=""img/blue-r.png"">","null","trial","null","","0.4,0.6","4:nogo_d","1",""
"null","","html-keyboard-response","447","7718226","0.0-6.0-2.75","","<div style=""font-size:60px;"">+</div>","null","","","","","","",""
"657.4199998285621","","image-keyboard-response","448","7718885","0.0-6.0-0.76","","img/purple.png","32","trial","null","false","0.4,0.6","2:nogo_b","",""
"null","","html-keyboard-response","449","7719888","0.0-6.0-1.76","","<img src=""img/purple-n.png"" border=""10"">","null","trial","null","","0.4,0.6","2:nogo_b","0",""
"null","","html-keyboard-response","450","7720890","0.0-6.0-2.76","","<div style=""font-size:60px;"">+</div>","null","","","","","","",""
"null","","image-keyboard-response","451","7722391","0.0-6.0-0.77","","img/blue.png","null","trial","null","true","0.4,0.6","4:nogo_d","",""
"null","","html-keyboard-response","452","7723393","0.0-6.0-1.77","","<img src=""img/blue-r.png"">","null","trial","null","","0.4,0.6","4:nogo_d","1",""
"null","","html-keyboard-response","453","7724395","0.0-6.0-2.77","","<div style=""font-size:60px;"">+</div>","null","","","","","","",""
"null","","image-keyboard-response","454","7725896","0.0-6.0-0.78","","img/pink.png","null","trial","32","false","0.6,0.4","3:go_c","",""
"null","","html-keyboard-response","455","7726898","0.0-6.0-1.78","","<img src=""img/pink-n.png"">","null","trial","32","","0.6,0.4","3:go_c","0",""
"null","","html-keyboard-response","456","7727900","0.0-6.0-2.78","","<div style=""font-size:60px;"">+</div>","null","","","","","","",""
"599.9099998734891","","image-keyboard-response","457","7728501","0.0-6.0-0.79","","img/red.png","32","trial","32","true","0.6,0.4","1:go_a","",""
"null","","html-keyboard-response","458","7729503","0.0-6.0-1.79","","<img src=""img/red-n.png"" border=""10"">","null","trial","32","","0.6,0.4","1:go_a","0",""
"null","","html-keyboard-response","459","7730504","0.0-6.0-2.79","","<div style=""font-size:60px;"">+</div>","null","","","","","","",""
"538.1050000432879","","image-keyboard-response","460","7731043","0.0-6.0-0.80","","img/red.png","32","trial","32","true","0.6,0.4","1:go_a","",""
"null","","html-keyboard-response","461","7732044","0.0-6.0-1.80","","<img src=""img/red-r.png"" border=""10"">","null","trial","32","","0.6,0.4","1:go_a","1",""
"null","","html-keyboard-response","462","7733046","0.0-6.0-2.80","","<div style=""font-size:60px;"">+</div>","null","","","","","","",""
"null","","image-keyboard-response","463","7734547","0.0-6.0-0.81","","img/purple.png","null","trial","null","true","0.4,0.6","2:nogo_b","",""
"null","","html-keyboard-response","464","7735549","0.0-6.0-1.81","","<img src=""img/purple-n.png"">","null","trial","null","","0.4,0.6","2:nogo_b","0",""
"null","","html-keyboard-response","465","7736551","0.0-6.0-2.81","","<div style=""font-size:60px;"">+</div>","null","","","","","","",""
"590.4200000222772","","image-keyboard-response","466","7737142","0.0-6.0-0.82","","img/blue.png","32","trial","null","false","0.4,0.6","4:nogo_d","",""
"null","","html-keyboard-response","467","7738144","0.0-6.0-1.82","","<img src=""img/blue-r.png"" border=""10"">","null","trial","null","","0.4,0.6","4:nogo_d","1",""
"null","","html-keyboard-response","468","7739156","0.0-6.0-2.82","","<div style=""font-size:60px;"">+</div>","null","","","","","","",""
"null","","image-keyboard-response","469","7740658","0.0-6.0-0.83","","img/pink.png","null","trial","32","false","0.6,0.4","3:go_c","",""
"null","","html-keyboard-response","470","7741660","0.0-6.0-1.83","","<img src=""img/pink-n.png"">","null","trial","32","","0.6,0.4","3:go_c","0",""
"null","","html-keyboard-response","471","7742661","0.0-6.0-2.83","","<div style=""font-size:60px;"">+</div>","null","","","","","","",""
"760.3300001937896","","image-keyboard-response","472","7743423","0.0-6.0-0.84","","img/red.png","32","trial","32","true","0.6,0.4","1:go_a","",""
"null","","html-keyboard-response","473","7744425","0.0-6.0-1.84","","<img src=""img/red-n.png"" border=""10"">","null","trial","32","","0.6,0.4","1:go_a","0",""
"null","","html-keyboard-response","474","7745426","0.0-6.0-2.84","","<div style=""font-size:60px;"">+</div>","null","","","","","","",""
"433.05999995209277","","image-keyboard-response","475","7745861","0.0-6.0-0.85","","img/purple.png","32","trial","null","false","0.4,0.6","2:nogo_b","",""
"null","","html-keyboard-response","476","7746863","0.0-6.0-1.85","","<img src=""img/purple-r.png"" border=""10"">","null","trial","null","","0.4,0.6","2:nogo_b","1",""
"null","","html-keyboard-response","477","7747864","0.0-6.0-2.85","","<div style=""font-size:60px;"">+</div>","null","","","","","","",""
"null","","image-keyboard-response","478","7749366","0.0-6.0-0.86","","img/pink.png","null","trial","32","false","0.6,0.4","3:go_c","",""
"null","","html-keyboard-response","479","7750369","0.0-6.0-1.86","","<img src=""img/pink-n.png"">","null","trial","32","","0.6,0.4","3:go_c","0",""
"null","","html-keyboard-response","480","7751371","0.0-6.0-2.86","","<div style=""font-size:60px;"">+</div>","null","","","","","","",""
"971.9799999147654","","image-keyboard-response","481","7752344","0.0-6.0-0.87","","img/blue.png","32","trial","null","false","0.4,0.6","4:nogo_d","",""
"null","","html-keyboard-response","482","7753347","0.0-6.0-1.87","","<img src=""img/blue-n.png"" border=""10"">","null","trial","null","","0.4,0.6","4:nogo_d","0",""
"null","","html-keyboard-response","483","7754348","0.0-6.0-2.87","","<div style=""font-size:60px;"">+</div>","null","","","","","","",""
"584.6399997826666","","image-keyboard-response","484","7754934","0.0-6.0-0.88","","img/purple.png","32","trial","null","false","0.4,0.6","2:nogo_b","",""
"null","","html-keyboard-response","485","7755937","0.0-6.0-1.88","","<img src=""img/purple-r.png"" border=""10"">","null","trial","null","","0.4,0.6","2:nogo_b","1",""
"null","","html-keyboard-response","486","7756939","0.0-6.0-2.88","","<div style=""font-size:60px;"">+</div>","null","","","","","","",""
"null","","image-keyboard-response","487","7758439","0.0-6.0-0.89","","img/blue.png","null","trial","null","true","0.4,0.6","4:nogo_d","",""
"null","","html-keyboard-response","488","7759441","0.0-6.0-1.89","","<img src=""img/blue-n.png"">","null","trial","null","","0.4,0.6","4:nogo_d","0",""
"null","","html-keyboard-response","489","7760443","0.0-6.0-2.89","","<div style=""font-size:60px;"">+</div>","null","","","","","","",""
"1429.0199999231845","","image-keyboard-response","490","7761872","0.0-6.0-0.90","","img/red.png","32","trial","32","true","0.6,0.4","1:go_a","",""
"null","","html-keyboard-response","491","7762875","0.0-6.0-1.90","","<img src=""img/red-r.png"" border=""10"">","null","trial","32","","0.6,0.4","1:go_a","1",""
"null","","html-keyboard-response","492","7763877","0.0-6.0-2.90","","<div style=""font-size:60px;"">+</div>","null","","","","","","",""
"null","","image-keyboard-response","493","7765379","0.0-6.0-0.91","","img/pink.png","null","trial","32","false","0.6,0.4","3:go_c","",""
"null","","html-keyboard-response","494","7766381","0.0-6.0-1.91","","<img src=""img/pink-n.png"">","null","trial","32","","0.6,0.4","3:go_c","0",""
"null","","html-keyboard-response","495","7767382","0.0-6.0-2.91","","<div style=""font-size:60px;"">+</div>","null","","","","","","",""
"714.4199998583645","","image-keyboard-response","496","7768098","0.0-6.0-0.92","","img/purple.png","32","trial","null","false","0.4,0.6","2:nogo_b","",""
"null","","html-keyboard-response","497","7769100","0.0-6.0-1.92","","<img src=""img/purple-n.png"" border=""10"">","null","trial","null","","0.4,0.6","2:nogo_b","0",""
"null","","html-keyboard-response","498","7770102","0.0-6.0-2.92","","<div style=""font-size:60px;"">+</div>","null","","","","","","",""
"null","","image-keyboard-response","499","7771603","0.0-6.0-0.93","","img/pink.png","null","trial","32","false","0.6,0.4","3:go_c","",""
"null","","html-keyboard-response","500","7772606","0.0-6.0-1.93","","<img src=""img/pink-r.png"">","null","trial","32","","0.6,0.4","3:go_c","1",""
"null","","html-keyboard-response","501","7773607","0.0-6.0-2.93","","<div style=""font-size:60px;"">+</div>","null","","","","","","",""
"616.4200000930578","","image-keyboard-response","502","7774224","0.0-6.0-0.94","","img/red.png","32","trial","32","true","0.6,0.4","1:go_a","",""
"null","","html-keyboard-response","503","7775226","0.0-6.0-1.94","","<img src=""img/red-n.png"" border=""10"">","null","trial","32","","0.6,0.4","1:go_a","0",""
"null","","html-keyboard-response","504","7776227","0.0-6.0-2.94","","<div style=""font-size:60px;"">+</div>","null","","","","","","",""
"null","","image-keyboard-response","505","7777728","0.0-6.0-0.95","","img/blue.png","null","trial","null","true","0.4,0.6","4:nogo_d","",""
"null","","html-keyboard-response","506","7778730","0.0-6.0-1.95","","<img src=""img/blue-r.png"">","null","trial","null","","0.4,0.6","4:nogo_d","1",""
"null","","html-keyboard-response","507","7779731","0.0-6.0-2.95","","<div style=""font-size:60px;"">+</div>","null","","","","","","",""
"652.7350000105798","","image-keyboard-response","508","7780385","0.0-6.0-0.96","","img/red.png","32","trial","32","true","0.6,0.4","1:go_a","",""
"null","","html-keyboard-response","509","7781387","0.0-6.0-1.96","","<img src=""img/red-n.png"" border=""10"">","null","trial","32","","0.6,0.4","1:go_a","0",""
"null","","html-keyboard-response","510","7782388","0.0-6.0-2.96","","<div style=""font-size:60px;"">+</div>","null","","","","","","",""
"494.0499998629093","","image-keyboard-response","511","7782883","0.0-6.0-0.97","","img/purple.png","32","trial","null","false","0.4,0.6","2:nogo_b","",""
"null","","html-keyboard-response","512","7783886","0.0-6.0-1.97","","<img src=""img/purple-n.png"" border=""10"">","null","trial","null","","0.4,0.6","2:nogo_b","0",""
"null","","html-keyboard-response","513","7784887","0.0-6.0-2.97","","<div style=""font-size:60px;"">+</div>","null","","","","","","",""
"737.2450002003461","","image-keyboard-response","514","7785625","0.0-6.0-0.98","","img/pink.png","32","trial","32","true","0.6,0.4","3:go_c","",""
"null","","html-keyboard-response","515","7786627","0.0-6.0-1.98","","<img src=""img/pink-r.png"" border=""10"">","null","trial","32","","0.6,0.4","3:go_c","1",""
"null","","html-keyboard-response","516","7787628","0.0-6.0-2.98","","<div style=""font-size:60px;"">+</div>","null","","","","","","",""
"640.8949999604374","","image-keyboard-response","517","7788270","0.0-6.0-0.99","","img/blue.png","32","trial","null","false","0.4,0.6","4:nogo_d","",""
"null","","html-keyboard-response","518","7789273","0.0-6.0-1.99","","<img src=""img/blue-n.png"" border=""10"">","null","trial","null","","0.4,0.6","4:nogo_d","0",""
"null","","html-keyboard-response","519","7790274","0.0-6.0-2.99","","<div style=""font-size:60px;"">+</div>","null","","","","","","",""
"316.4500000420958","","image-keyboard-response","520","7790591","0.0-6.0-0.100","","img/blue.png","32","trial","null","false","0.4,0.6","4:nogo_d","",""
"null","","html-keyboard-response","521","7791594","0.0-6.0-1.100","","<img src=""img/blue-r.png"" border=""10"">","null","trial","null","","0.4,0.6","4:nogo_d","1",""
"null","","html-keyboard-response","522","7792596","0.0-6.0-2.100","","<div style=""font-size:60px;"">+</div>","null","","","","","","",""
"null","","image-keyboard-response","523","7794097","0.0-6.0-0.101","","img/pink.png","null","trial","32","false","0.6,0.4","3:go_c","",""
"null","","html-keyboard-response","524","7795098","0.0-6.0-1.101","","<img src=""img/pink-n.png"">","null","trial","32","","0.6,0.4","3:go_c","0",""
"null","","html-keyboard-response","525","7796101","0.0-6.0-2.101","","<div style=""font-size:60px;"">+</div>","null","","","","","","",""
"832.1650000289083","","image-keyboard-response","526","7796933","0.0-6.0-0.102","","img/purple.png","32","trial","null","false","0.4,0.6","2:nogo_b","",""
"null","","html-keyboard-response","527","7797936","0.0-6.0-1.102","","<img src=""img/purple-r.png"" border=""10"">","null","trial","null","","0.4,0.6","2:nogo_b","1",""
"null","","html-keyboard-response","528","7798938","0.0-6.0-2.102","","<div style=""font-size:60px;"">+</div>","null","","","","","","",""
"715.0649998802692","","image-keyboard-response","529","7799654","0.0-6.0-0.103","","img/red.png","32","trial","32","true","0.6,0.4","1:go_a","",""
"null","","html-keyboard-response","530","7800656","0.0-6.0-1.103","","<img src=""img/red-n.png"" border=""10"">","null","trial","32","","0.6,0.4","1:go_a","0",""
"null","","html-keyboard-response","531","7801657","0.0-6.0-2.103","","<div style=""font-size:60px;"">+</div>","null","","","","","","",""
"413.79500017501414","","image-keyboard-response","532","7802072","0.0-6.0-0.104","","img/pink.png","32","trial","32","true","0.6,0.4","3:go_c","",""
"null","","html-keyboard-response","533","7803074","0.0-6.0-1.104","","<img src=""img/pink-n.png"" border=""10"">","null","trial","32","","0.6,0.4","3:go_c","0",""
"null","","html-keyboard-response","534","7804075","0.0-6.0-2.104","","<div style=""font-size:60px;"">+</div>","null","","","","","","",""
"558.7199998553842","","image-keyboard-response","535","7804634","0.0-6.0-0.105","","img/purple.png","32","trial","null","false","0.4,0.6","2:nogo_b","",""
"null","","html-keyboard-response","536","7805636","0.0-6.0-1.105","","<img src=""img/purple-n.png"" border=""10"">","null","trial","null","","0.4,0.6","2:nogo_b","0",""
"null","","html-keyboard-response","537","7806638","0.0-6.0-2.105","","<div style=""font-size:60px;"">+</div>","null","","","","","","",""
"579.0049999486655","","image-keyboard-response","538","7807218","0.0-6.0-0.106","","img/blue.png","32","trial","null","false","0.4,0.6","4:nogo_d","",""
"null","","html-keyboard-response","539","7808220","0.0-6.0-1.106","","<img src=""img/blue-n.png"" border=""10"">","null","trial","null","","0.4,0.6","4:nogo_d","0",""
"null","","html-keyboard-response","540","7809222","0.0-6.0-2.106","","<div style=""font-size:60px;"">+</div>","null","","","","","","",""
"null","","image-keyboard-response","541","7810724","0.0-6.0-0.107","","img/red.png","null","trial","32","false","0.6,0.4","1:go_a","",""
"null","","html-keyboard-response","542","7811739","0.0-6.0-1.107","","<img src=""img/red-r.png"">","null","trial","32","","0.6,0.4","1:go_a","1",""
"null","","html-keyboard-response","543","7812740","0.0-6.0-2.107","","<div style=""font-size:60px;"">+</div>","null","","","","","","",""
"null","","image-keyboard-response","544","7814242","0.0-6.0-0.108","","img/pink.png","null","trial","32","false","0.6,0.4","3:go_c","",""
"null","","html-keyboard-response","545","7815244","0.0-6.0-1.108","","<img src=""img/pink-n.png"">","null","trial","32","","0.6,0.4","3:go_c","0",""
"null","","html-keyboard-response","546","7816246","0.0-6.0-2.108","","<div style=""font-size:60px;"">+</div>","null","","","","","","",""
"535.4949999600649","","image-keyboard-response","547","7816782","0.0-6.0-0.109","","img/purple.png","32","trial","null","false","0.4,0.6","2:nogo_b","",""
"null","","html-keyboard-response","548","7817785","0.0-6.0-1.109","","<img src=""img/purple-r.png"" border=""10"">","null","trial","null","","0.4,0.6","2:nogo_b","1",""
"null","","html-keyboard-response","549","7818787","0.0-6.0-2.109","","<div style=""font-size:60px;"">+</div>","null","","","","","","",""
"null","","image-keyboard-response","550","7820288","0.0-6.0-0.110","","img/blue.png","null","trial","null","true","0.4,0.6","4:nogo_d","",""
"null","","html-keyboard-response","551","7821290","0.0-6.0-1.110","","<img src=""img/blue-n.png"">","null","trial","null","","0.4,0.6","4:nogo_d","0",""
"null","","html-keyboard-response","552","7822292","0.0-6.0-2.110","","<div style=""font-size:60px;"">+</div>","null","","","","","","",""
"602.8549999464303","","image-keyboard-response","553","7822896","0.0-6.0-0.111","","img/red.png","32","trial","32","true","0.6,0.4","1:go_a","",""
"null","","html-keyboard-response","554","7823897","0.0-6.0-1.111","","<img src=""img/red-r.png"" border=""10"">","null","trial","32","","0.6,0.4","1:go_a","1",""
"null","","html-keyboard-response","555","7824899","0.0-6.0-2.111","","<div style=""font-size:60px;"">+</div>","null","","","","","","",""
"779.755000025034","","image-keyboard-response","556","7825680","0.0-6.0-0.112","","img/purple.png","32","trial","null","false","0.4,0.6","2:nogo_b","",""
"null","","html-keyboard-response","557","7826682","0.0-6.0-1.112","","<img src=""img/purple-r.png"" border=""10"">","null","trial","null","","0.4,0.6","2:nogo_b","1",""
"null","","html-keyboard-response","558","7827684","0.0-6.0-2.112","","<div style=""font-size:60px;"">+</div>","null","","","","","","",""
"null","","image-keyboard-response","559","7829185","0.0-6.0-0.113","","img/blue.png","null","trial","null","true","0.4,0.6","4:nogo_d","",""
"null","","html-keyboard-response","560","7830188","0.0-6.0-1.113","","<img src=""img/blue-n.png"">","null","trial","null","","0.4,0.6","4:nogo_d","0",""
"null","","html-keyboard-response","561","7831189","0.0-6.0-2.113","","<div style=""font-size:60px;"">+</div>","null","","","","","","",""
"787.4699998646975","","image-keyboard-response","562","7831978","0.0-6.0-0.114","","img/pink.png","32","trial","32","true","0.6,0.4","3:go_c","",""
"null","","html-keyboard-response","563","7832979","0.0-6.0-1.114","","<img src=""img/pink-r.png"" border=""10"">","null","trial","32","","0.6,0.4","3:go_c","1",""
"null","","html-keyboard-response","564","7833981","0.0-6.0-2.114","","<div style=""font-size:60px;"">+</div>","null","","","","","","",""
"688.7099999003112","","image-keyboard-response","565","7834670","0.0-6.0-0.115","","img/red.png","32","trial","32","true","0.6,0.4","1:go_a","",""
"null","","html-keyboard-response","566","7835672","0.0-6.0-1.115","","<img src=""img/red-r.png"" border=""10"">","null","trial","32","","0.6,0.4","1:go_a","1",""
"null","","html-keyboard-response","567","7836679","0.0-6.0-2.115","","<div style=""font-size:60px;"">+</div>","null","","","","","","",""
"448.93499999307096","","image-keyboard-response","568","7837128","0.0-6.0-0.116","","img/purple.png","32","trial","null","false","0.4,0.6","2:nogo_b","",""
"null","","html-keyboard-response","569","7838131","0.0-6.0-1.116","","<img src=""img/purple-r.png"" border=""10"">","null","trial","null","","0.4,0.6","2:nogo_b","1",""
"null","","html-keyboard-response","570","7839133","0.0-6.0-2.116","","<div style=""font-size:60px;"">+</div>","null","","","","","","",""
"null","","image-keyboard-response","571","7840635","0.0-6.0-0.117","","img/blue.png","null","trial","null","true","0.4,0.6","4:nogo_d","",""
"null","","html-keyboard-response","572","7841637","0.0-6.0-1.117","","<img src=""img/blue-n.png"">","null","trial","null","","0.4,0.6","4:nogo_d","0",""
"null","","html-keyboard-response","573","7842638","0.0-6.0-2.117","","<div style=""font-size:60px;"">+</div>","null","","","","","","",""
"564.9200000334531","","image-keyboard-response","574","7843204","0.0-6.0-0.118","","img/red.png","32","trial","32","true","0.6,0.4","1:go_a","",""
"null","","html-keyboard-response","575","7844206","0.0-6.0-1.118","","<img src=""img/red-n.png"" border=""10"">","null","trial","32","","0.6,0.4","1:go_a","0",""
"null","","html-keyboard-response","576","7845207","0.0-6.0-2.118","","<div style=""font-size:60px;"">+</div>","null","","","","","","",""
"null","","image-keyboard-response","577","7846709","0.0-6.0-0.119","","img/pink.png","null","trial","32","false","0.6,0.4","3:go_c","",""
"null","","html-keyboard-response","578","7847711","0.0-6.0-1.119","","<img src=""img/pink-r.png"">","null","trial","32","","0.6,0.4","3:go_c","1",""
"null","","html-keyboard-response","579","7848712","0.0-6.0-2.119","","<div style=""font-size:60px;"">+</div>","null","","","","","","",""
"2202805.0300001632","","instructions","580","10051518","0.0-7.0","[{""page_index"":0,""viewing_time"":2202804.32500015}]","","","","","","","","",""
"1352.3899998981506","","image-keyboard-response","581","10052873","0.0-8.0-0.0","","img/blue.png","32","trial","null","false","0.2,0.8","4:nogo_d","",""
"null","","html-keyboard-response","582","10053875","0.0-8.0-1.0","","<img src=""img/blue-n.png"" border=""10"">","null","trial","null","","0.2,0.8","4:nogo_d","0",""
"null","","html-keyboard-response","583","10054877","0.0-8.0-2.0","","<div style=""font-size:60px;"">+</div>","null","","","","","","",""
"991.9049998279661","","image-keyboard-response","584","10055870","0.0-8.0-0.1","","img/orange.png","32","trial","32","true","0.8,0.2","3:go_c","",""
"null","","html-keyboard-response","585","10056872","0.0-8.0-1.1","","<img src=""img/orange-r.png"" border=""10"">","null","trial","32","","0.8,0.2","3:go_c","1",""
"null","","html-keyboard-response","586","10057873","0.0-8.0-2.1","","<div style=""font-size:60px;"">+</div>","null","","","","","","",""
"818.4400000609457","","image-keyboard-response","587","10058693","0.0-8.0-0.2","","img/grey.png","32","trial","null","false","0.2,0.8","2:nogo_b","",""
"null","","html-keyboard-response","588","10059699","0.0-8.0-1.2","","<img src=""img/grey-n.png"" border=""10"">","null","trial","null","","0.2,0.8","2:nogo_b","0",""
"null","","html-keyboard-response","589","10060701","0.0-8.0-2.2","","<div style=""font-size:60px;"">+</div>","null","","","","","","",""
"751.4750000555068","","image-keyboard-response","590","10061454","0.0-8.0-0.3","","img/yellow.png","32","trial","32","true","0.8,0.2","1:go_a","",""
"null","","html-keyboard-response","591","10062457","0.0-8.0-1.3","","<img src=""img/yellow-r.png"" border=""10"">","null","trial","32","","0.8,0.2","1:go_a","1",""
"null","","html-keyboard-response","592","10063458","0.0-8.0-2.3","","<div style=""font-size:60px;"">+</div>","null","","","","","","",""
"null","","image-keyboard-response","593","10064959","0.0-8.0-0.4","","img/blue.png","null","trial","null","true","0.2,0.8","4:nogo_d","",""
"null","","html-keyboard-response","594","10065961","0.0-8.0-1.4","","<img src=""img/blue-r.png"">","null","trial","null","","0.2,0.8","4:nogo_d","1",""
"null","","html-keyboard-response","595","10066963","0.0-8.0-2.4","","<div style=""font-size:60px;"">+</div>","null","","","","","","",""
"1313.910000026226","","image-keyboard-response","596","10068278","0.0-8.0-0.5","","img/orange.png","32","trial","32","true","0.8,0.2","3:go_c","",""
"null","","html-keyboard-response","597","10069281","0.0-8.0-1.5","","<img src=""img/orange-r.png"" border=""10"">","null","trial","32","","0.8,0.2","3:go_c","1",""
"null","","html-keyboard-response","598","10070283","0.0-8.0-2.5","","<div style=""font-size:60px;"">+</div>","null","","","","","","",""
"null","","image-keyboard-response","599","10071784","0.0-8.0-0.6","","img/grey.png","null","trial","null","true","0.2,0.8","2:nogo_b","",""
"null","","html-keyboard-response","600","10072786","0.0-8.0-1.6","","<img src=""img/grey-r.png"">","null","trial","null","","0.2,0.8","2:nogo_b","1",""
"null","","html-keyboard-response","601","10073787","0.0-8.0-2.6","","<div style=""font-size:60px;"">+</div>","null","","","","","","",""
"548.4249999281019","","image-keyboard-response","602","10074337","0.0-8.0-0.7","","img/yellow.png","32","trial","32","true","0.8,0.2","1:go_a","",""
"null","","html-keyboard-response","603","10075339","0.0-8.0-1.7","","<img src=""img/yellow-r.png"" border=""10"">","null","trial","32","","0.8,0.2","1:go_a","1",""
"null","","html-keyboard-response","604","10076341","0.0-8.0-2.7","","<div style=""font-size:60px;"">+</div>","null","","","","","","",""
"363.69000002741814","","image-keyboard-response","605","10076706","0.0-8.0-0.8","","img/yellow.png","32","trial","32","true","0.8,0.2","1:go_a","",""
"null","","html-keyboard-response","606","10077708","0.0-8.0-1.8","","<img src=""img/yellow-r.png"" border=""10"">","null","trial","32","","0.8,0.2","1:go_a","1",""
"null","","html-keyboard-response","607","10078709","0.0-8.0-2.8","","<div style=""font-size:60px;"">+</div>","null","","","","","","",""
"648.6349999904633","","image-keyboard-response","608","10079359","0.0-8.0-0.9","","img/blue.png","32","trial","null","false","0.2,0.8","4:nogo_d","",""
"null","","html-keyboard-response","609","10080361","0.0-8.0-1.9","","<img src=""img/blue-n.png"" border=""10"">","null","trial","null","","0.2,0.8","4:nogo_d","0",""
"null","","html-keyboard-response","610","10081362","0.0-8.0-2.9","","<div style=""font-size:60px;"">+</div>","null","","","","","","",""
"554.0350000374019","","image-keyboard-response","611","10081916","0.0-8.0-0.10","","img/orange.png","32","trial","32","true","0.8,0.2","3:go_c","",""
"null","","html-keyboard-response","612","10082919","0.0-8.0-1.10","","<img src=""img/orange-n.png"" border=""10"">","null","trial","32","","0.8,0.2","3:go_c","0",""
"null","","html-keyboard-response","613","10083921","0.0-8.0-2.10","","<div style=""font-size:60px;"">+</div>","null","","","","","","",""
"null","","image-keyboard-response","614","10085422","0.0-8.0-0.11","","img/grey.png","null","trial","null","true","0.2,0.8","2:nogo_b","",""
"null","","html-keyboard-response","615","10086425","0.0-8.0-1.11","","<img src=""img/grey-r.png"">","null","trial","null","","0.2,0.8","2:nogo_b","1",""
"null","","html-keyboard-response","616","10087426","0.0-8.0-2.11","","<div style=""font-size:60px;"">+</div>","null","","","","","","",""
"null","","image-keyboard-response","617","10088927","0.0-8.0-0.12","","img/blue.png","null","trial","null","true","0.2,0.8","4:nogo_d","",""
"null","","html-keyboard-response","618","10089939","0.0-8.0-1.12","","<img src=""img/blue-n.png"">","null","trial","null","","0.2,0.8","4:nogo_d","0",""
"null","","html-keyboard-response","619","10090941","0.0-8.0-2.12","","<div style=""font-size:60px;"">+</div>","null","","","","","","",""
"1092.1799999196082","","image-keyboard-response","620","10092034","0.0-8.0-0.13","","img/yellow.png","32","trial","32","true","0.8,0.2","1:go_a","",""
"null","","html-keyboard-response","621","10093036","0.0-8.0-1.13","","<img src=""img/yellow-r.png"" border=""10"">","null","trial","32","","0.8,0.2","1:go_a","1",""
"null","","html-keyboard-response","622","10094038","0.0-8.0-2.13","","<div style=""font-size:60px;"">+</div>","null","","","","","","",""
"null","","image-keyboard-response","623","10095539","0.0-8.0-0.14","","img/grey.png","null","trial","null","true","0.2,0.8","2:nogo_b","",""
"null","","html-keyboard-response","624","10096541","0.0-8.0-1.14","","<img src=""img/grey-r.png"">","null","trial","null","","0.2,0.8","2:nogo_b","1",""
"null","","html-keyboard-response","625","10097542","0.0-8.0-2.14","","<div style=""font-size:60px;"">+</div>","null","","","","","","",""
"334.4200002029538","","image-keyboard-response","626","10097878","0.0-8.0-0.15","","img/orange.png","32","trial","32","true","0.8,0.2","3:go_c","",""
"null","","html-keyboard-response","627","10098879","0.0-8.0-1.15","","<img src=""img/orange-r.png"" border=""10"">","null","trial","32","","0.8,0.2","3:go_c","1",""
"null","","html-keyboard-response","628","10099880","0.0-8.0-2.15","","<div style=""font-size:60px;"">+</div>","null","","","","","","",""
"null","","image-keyboard-response","629","10101381","0.0-8.0-0.16","","img/blue.png","null","trial","null","true","0.2,0.8","4:nogo_d","",""
"null","","html-keyboard-response","630","10102384","0.0-8.0-1.16","","<img src=""img/blue-r.png"">","null","trial","null","","0.2,0.8","4:nogo_d","1",""
"null","","html-keyboard-response","631","10103387","0.0-8.0-2.16","","<div style=""font-size:60px;"">+</div>","null","","","","","","",""
"574.1650001145899","","image-keyboard-response","632","10103963","0.0-8.0-0.17","","img/yellow.png","32","trial","32","true","0.8,0.2","1:go_a","",""
"null","","html-keyboard-response","633","10104966","0.0-8.0-1.17","","<img src=""img/yellow-r.png"" border=""10"">","null","trial","32","","0.8,0.2","1:go_a","1",""
"null","","html-keyboard-response","634","10105969","0.0-8.0-2.17","","<div style=""font-size:60px;"">+</div>","null","","","","","","",""
"null","","image-keyboard-response","635","10107472","0.0-8.0-0.18","","img/grey.png","null","trial","null","true","0.2,0.8","2:nogo_b","",""
"null","","html-keyboard-response","636","10108481","0.0-8.0-1.18","","<img src=""img/grey-r.png"">","null","trial","null","","0.2,0.8","2:nogo_b","1",""
"null","","html-keyboard-response","637","10109482","0.0-8.0-2.18","","<div style=""font-size:60px;"">+</div>","null","","","","","","",""
"326.5400000382215","","image-keyboard-response","638","10109810","0.0-8.0-0.19","","img/orange.png","32","trial","32","true","0.8,0.2","3:go_c","",""
"null","","html-keyboard-response","639","10110812","0.0-8.0-1.19","","<img src=""img/orange-r.png"" border=""10"">","null","trial","32","","0.8,0.2","3:go_c","1",""
"null","","html-keyboard-response","640","10111813","0.0-8.0-2.19","","<div style=""font-size:60px;"">+</div>","null","","","","","","",""
"517.3399997875094","","image-keyboard-response","641","10112332","0.0-8.0-0.20","","img/yellow.png","32","trial","32","true","0.8,0.2","1:go_a","",""
"null","","html-keyboard-response","642","10113334","0.0-8.0-1.20","","<img src=""img/yellow-r.png"" border=""10"">","null","trial","32","","0.8,0.2","1:go_a","1",""
"null","","html-keyboard-response","643","10114341","0.0-8.0-2.20","","<div style=""font-size:60px;"">+</div>","null","","","","","","",""
"null","","image-keyboard-response","644","10115844","0.0-8.0-0.21","","img/grey.png","null","trial","null","true","0.2,0.8","2:nogo_b","",""
"null","","html-keyboard-response","645","10116846","0.0-8.0-1.21","","<img src=""img/grey-r.png"">","null","trial","null","","0.2,0.8","2:nogo_b","1",""
"null","","html-keyboard-response","646","10117858","0.0-8.0-2.21","","<div style=""font-size:60px;"">+</div>","null","","","","","","",""
"783.8300000876188","","image-keyboard-response","647","10118643","0.0-8.0-0.22","","img/blue.png","32","trial","null","false","0.2,0.8","4:nogo_d","",""
"null","","html-keyboard-response","648","10119646","0.0-8.0-1.22","","<img src=""img/blue-n.png"" border=""10"">","null","trial","null","","0.2,0.8","4:nogo_d","0",""
"null","","html-keyboard-response","649","10120647","0.0-8.0-2.22","","<div style=""font-size:60px;"">+</div>","null","","","","","","",""
"618.2299999054521","","image-keyboard-response","650","10121267","0.0-8.0-0.23","","img/orange.png","32","trial","32","true","0.8,0.2","3:go_c","",""
"null","","html-keyboard-response","651","10122269","0.0-8.0-1.23","","<img src=""img/orange-r.png"" border=""10"">","null","trial","32","","0.8,0.2","3:go_c","1",""
"null","","html-keyboard-response","652","10123271","0.0-8.0-2.23","","<div style=""font-size:60px;"">+</div>","null","","","","","","",""
"null","","image-keyboard-response","653","10124772","0.0-8.0-0.24","","img/grey.png","null","trial","null","true","0.2,0.8","2:nogo_b","",""
"null","","html-keyboard-response","654","10125774","0.0-8.0-1.24","","<img src=""img/grey-r.png"">","null","trial","null","","0.2,0.8","2:nogo_b","1",""
"null","","html-keyboard-response","655","10126777","0.0-8.0-2.24","","<div style=""font-size:60px;"">+</div>","null","","","","","","",""
"588.285000063479","","image-keyboard-response","656","10127366","0.0-8.0-0.25","","img/yellow.png","32","trial","32","true","0.8,0.2","1:go_a","",""
"null","","html-keyboard-response","657","10128369","0.0-8.0-1.25","","<img src=""img/yellow-r.png"" border=""10"">","null","trial","32","","0.8,0.2","1:go_a","1",""
"null","","html-keyboard-response","658","10129371","0.0-8.0-2.25","","<div style=""font-size:60px;"">+</div>","null","","","","","","",""
"719.9500000569969","","image-keyboard-response","659","10130092","0.0-8.0-0.26","","img/orange.png","32","trial","32","true","0.8,0.2","3:go_c","",""
"null","","html-keyboard-response","660","10131094","0.0-8.0-1.26","","<img src=""img/orange-r.png"" border=""10"">","null","trial","32","","0.8,0.2","3:go_c","1",""
"null","","html-keyboard-response","661","10132095","0.0-8.0-2.26","","<div style=""font-size:60px;"">+</div>","null","","","","","","",""
"null","","image-keyboard-response","662","10133597","0.0-8.0-0.27","","img/blue.png","null","trial","null","true","0.2,0.8","4:nogo_d","",""
"null","","html-keyboard-response","663","10134599","0.0-8.0-1.27","","<img src=""img/blue-r.png"">","null","trial","null","","0.2,0.8","4:nogo_d","1",""
"null","","html-keyboard-response","664","10135601","0.0-8.0-2.27","","<div style=""font-size:60px;"">+</div>","null","","","","","","",""
"384.6299999859184","","image-keyboard-response","665","10135986","0.0-8.0-0.28","","img/blue.png","32","trial","null","false","0.2,0.8","4:nogo_d","",""
"null","","html-keyboard-response","666","10136989","0.0-8.0-1.28","","<img src=""img/blue-r.png"" border=""10"">","null","trial","null","","0.2,0.8","4:nogo_d","1",""
"null","","html-keyboard-response","667","10137990","0.0-8.0-2.28","","<div style=""font-size:60px;"">+</div>","null","","","","","","",""
"608.7950000073761","","image-keyboard-response","668","10138600","0.0-8.0-0.29","","img/yellow.png","32","trial","32","true","0.8,0.2","1:go_a","",""
"null","","html-keyboard-response","669","10139602","0.0-8.0-1.29","","<img src=""img/yellow-r.png"" border=""10"">","null","trial","32","","0.8,0.2","1:go_a","1",""
"null","","html-keyboard-response","670","10140603","0.0-8.0-2.29","","<div style=""font-size:60px;"">+</div>","null","","","","","","",""
"null","","image-keyboard-response","671","10142104","0.0-8.0-0.30","","img/grey.png","null","trial","null","true","0.2,0.8","2:nogo_b","",""
"null","","html-keyboard-response","672","10143106","0.0-8.0-1.30","","<img src=""img/grey-r.png"">","null","trial","null","","0.2,0.8","2:nogo_b","1",""
