"rt","url","trial_type","trial_index","time_elapsed","internal_node_id","view_history","stimulus","key_press","test_part","correct_response","correct","use_rew","which_stim","reward","responses"
"5740.285000007134","consent.html","external-html","0","6341","0.0-0.0","","","","","","","","","",""
"34366.780000011204","","instructions","1","40709","0.0-1.0","[{""page_index"":0,""viewing_time"":5830.135000025621},{""page_index"":1,""viewing_time"":16952.009999979055},{""page_index"":2,""viewing_time"":2976.0800000221934},{""page_index"":3,""viewing_time"":2312.0099999941885},{""page_index"":4,""viewing_time"":2647.9699999908917},{""page_index"":5,""viewing_time"":1223.889999993844},{""page_index"":6,""viewing_time"":2424.1900000197347}]","","","","","","","","",""
"null","","image-keyboard-response","2","42211","0.0-2.0-0.0","","img/test2.PNG","null","practice","null","true","","","",""
"null","","html-keyboard-response","3","43213","0.0-2.0-1.0","","<img src=""img/test2-reward.PNG"">","null","","","","","","",""
"null","","html-keyboard-response","4","44214","0.0-2.0-2.0","","<div style=""font-size:60px;"">+</div>","null","","","","","","",""
"null","","image-keyboard-response","5","45716","0.0-2.0-0.1","","img/test3.PNG","null","practice","null","true","","","",""
"null","","html-keyboard-response","6","46717","0.0-2.0-1.1","","<img src=""img/test3-reward.PNG"">","null","","","","","","",""
"null","","html-keyboard-response","7","47718","0.0-2.0-2.1","","<div style=""font-size:60px;"">+</div>","null","","","","","","",""
"333.0150000110734","","image-keyboard-response","8","48052","0.0-2.0-0.2","","img/test1.PNG","32","practice","32","true","","","",""
"null","","html-keyboard-response","9","49054","0.0-2.0-1.2","","<img src=""img/test1-reward.PNG"" border=""10px; grey"">","null","","","","","","",""
"null","","html-keyboard-response","10","50055","0.0-2.0-2.2","","<div style=""font-size:60px;"">+</div>","null","","","","","","",""
"null","","image-keyboard-response","11","51557","0.0-2.0-0.3","","img/test2.PNG","null","practice","null","true","","","",""
"null","","html-keyboard-response","12","52559","0.0-2.0-1.3","","<img src=""img/test2-reward.PNG"">","null","","","","","","",""
"null","","html-keyboard-response","13","53560","0.0-2.0-2.3","","<div style=""font-size:60px;"">+</div>","null","","","","","","",""
"423.54499999783","","image-keyboard-response","14","53984","0.0-2.0-0.4","","img/test3.PNG","32","practice","null","false","","","",""
"null","","html-keyboard-response","15","54986","0.0-2.0-1.4","","<img src=""img/test3-neutral.PNG"" border=""10px; grey"">","null","","","","","","",""
"null","","html-keyboard-response","16","55988","0.0-2.0-2.4","","<div style=""font-size:60px;"">+</div>","null","","","","","","",""
"431.654999993043","","image-keyboard-response","17","56420","0.0-2.0-0.5","","img/test1.PNG","32","practice","32","true","","","",""
"null","","html-keyboard-response","18","57422","0.0-2.0-1.5","","<img src=""img/test1-reward.PNG"" border=""10px; grey"">","null","","","","","","",""
"null","","html-keyboard-response","19","58424","0.0-2.0-2.5","","<div style=""font-size:60px;"">+</div>","null","","","","","","",""
"961.9200000015553","","image-keyboard-response","20","59386","0.0-2.0-0.6","","img/test3.PNG","32","practice","null","false","","","",""
"null","","html-keyboard-response","21","60387","0.0-2.0-1.6","","<img src=""img/test3-neutral.PNG"" border=""10px; grey"">","null","","","","","","",""
"null","","html-keyboard-response","22","61388","0.0-2.0-2.6","","<div style=""font-size:60px;"">+</div>","null","","","","","","",""
"null","","image-keyboard-response","23","62890","0.0-2.0-0.7","","img/test2.PNG","null","practice","null","true","","","",""
"null","","html-keyboard-response","24","63891","0.0-2.0-1.7","","<img src=""img/test2-reward.PNG"">","null","","","","","","",""
"null","","html-keyboard-response","25","64892","0.0-2.0-2.7","","<div style=""font-size:60px;"">+</div>","null","","","","","","",""
"null","","image-keyboard-response","26","66394","0.0-2.0-0.8","","img/test1.PNG","null","practice","32","false","","","",""
"null","","html-keyboard-response","27","67396","0.0-2.0-1.8","","<img src=""img/test1-neutral.PNG"">","null","","","","","","",""
"null","","html-keyboard-response","28","68397","0.0-2.0-2.8","","<div style=""font-size:60px;"">+</div>","null","","","","","","",""
"582.6499999966472","","image-keyboard-response","29","68980","0.0-2.0-0.9","","img/test2.PNG","32","practice","null","false","","","",""
"null","","html-keyboard-response","30","69982","0.0-2.0-1.9","","<img src=""img/test2-neutral.PNG"" border=""10px; grey"">","null","","","","","","",""
"null","","html-keyboard-response","31","70983","0.0-2.0-2.9","","<div style=""font-size:60px;"">+</div>","null","","","","","","",""
"752.2949999838602","","image-keyboard-response","32","71736","0.0-2.0-0.10","","img/test3.PNG","32","practice","null","false","","","",""
"null","","html-keyboard-response","33","72738","0.0-2.0-1.10","","<img src=""img/test3-neutral.PNG"" border=""10px; grey"">","null","","","","","","",""
"null","","html-keyboard-response","34","73740","0.0-2.0-2.10","","<div style=""font-size:60px;"">+</div>","null","","","","","","",""
"980.7499999878928","","image-keyboard-response","35","74721","0.0-2.0-0.11","","img/test1.PNG","32","practice","32","true","","","",""
"null","","html-keyboard-response","36","75722","0.0-2.0-1.11","","<img src=""img/test1-reward.PNG"" border=""10px; grey"">","null","","","","","","",""
"null","","html-keyboard-response","37","76724","0.0-2.0-2.11","","<div style=""font-size:60px;"">+</div>","null","","","","","","",""
"2408.999999985099","","instructions","38","79133","0.0-3.0","[{""page_index"":0,""viewing_time"":2408.850000007078}]","","","","","","","","",""
"868.5950000071898","","image-keyboard-response","39","80002","0.0-4.0-0.0","","img/yellow.png","32","trial","32","true","0.8,0.2","1:go_a","",""
"null","","html-keyboard-response","40","81004","0.0-4.0-1.0","","<img src=""img/yellow-r.png"" border=""10"">","null","trial","32","","0.8,0.2","1:go_a","1",""
"null","","html-keyboard-response","41","82006","0.0-4.0-2.0","","<div style=""font-size:60px;"">+</div>","null","","","","","","",""
"425.90499998186715","","image-keyboard-response","42","82432","0.0-4.0-0.1","","img/red.png","32","trial","null","false","0.2,0.8","2:nogo_b","",""
"null","","html-keyboard-response","43","83434","0.0-4.0-1.1","","<img src=""img/red-r.png"" border=""10"">","null","trial","null","","0.2,0.8","2:nogo_b","1",""
"null","","html-keyboard-response","44","84435","0.0-4.0-2.1","","<div style=""font-size:60px;"">+</div>","null","","","","","","",""
"null","","image-keyboard-response","45","85937","0.0-4.0-0.2","","img/yellow.png","null","trial","32","false","0.8,0.2","1:go_a","",""
"null","","html-keyboard-response","46","86938","0.0-4.0-1.2","","<img src=""img/yellow-r.png"">","null","trial","32","","0.8,0.2","1:go_a","1",""
"null","","html-keyboard-response","47","87940","0.0-4.0-2.2","","<div style=""font-size:60px;"">+</div>","null","","","","","","",""
"317.98999998136424","","image-keyboard-response","48","88258","0.0-4.0-0.3","","img/red.png","32","trial","null","false","0.2,0.8","2:nogo_b","",""
"null","","html-keyboard-response","49","89260","0.0-4.0-1.3","","<img src=""img/red-n.png"" border=""10"">","null","trial","null","","0.2,0.8","2:nogo_b","0",""
"null","","html-keyboard-response","50","90262","0.0-4.0-2.3","","<div style=""font-size:60px;"">+</div>","null","","","","","","",""
"674.8200000147335","","image-keyboard-response","51","90937","0.0-4.0-0.4","","img/red.png","32","trial","null","false","0.2,0.8","2:nogo_b","",""
"null","","html-keyboard-response","52","91939","0.0-4.0-1.4","","<img src=""img/red-n.png"" border=""10"">","null","trial","null","","0.2,0.8","2:nogo_b","0",""
"null","","html-keyboard-response","53","92940","0.0-4.0-2.4","","<div style=""font-size:60px;"">+</div>","null","","","","","","",""
"1140.0900000007823","","image-keyboard-response","54","94081","0.0-4.0-0.5","","img/yellow.png","32","trial","32","true","0.8,0.2","1:go_a","",""
"null","","html-keyboard-response","55","95083","0.0-4.0-1.5","","<img src=""img/yellow-r.png"" border=""10"">","null","trial","32","","0.8,0.2","1:go_a","1",""
"null","","html-keyboard-response","56","96083","0.0-4.0-2.5","","<div style=""font-size:60px;"">+</div>","null","","","","","","",""
"680.240000016056","","image-keyboard-response","57","96764","0.0-4.0-0.6","","img/yellow.png","32","trial","32","true","0.8,0.2","1:go_a","",""
"null","","html-keyboard-response","58","97766","0.0-4.0-1.6","","<img src=""img/yellow-r.png"" border=""10"">","null","trial","32","","0.8,0.2","1:go_a","1",""
"null","","html-keyboard-response","59","98767","0.0-4.0-2.6","","<div style=""font-size:60px;"">+</div>","null","","","","","","",""
"522.6850000035483","","image-keyboard-response","60","99290","0.0-4.0-0.7","","img/red.png","32","trial","null","false","0.2,0.8","2:nogo_b","",""
"null","","html-keyboard-response","61","100292","0.0-4.0-1.7","","<img src=""img/red-n.png"" border=""10"">","null","trial","null","","0.2,0.8","2:nogo_b","0",""
"null","","html-keyboard-response","62","101293","0.0-4.0-2.7","","<div style=""font-size:60px;"">+</div>","null","","","","","","",""
"402.26000000257045","","image-keyboard-response","63","101696","0.0-4.0-0.8","","img/yellow.png","32","trial","32","true","0.8,0.2","1:go_a","",""
"null","","html-keyboard-response","64","102698","0.0-4.0-1.8","","<img src=""img/yellow-n.png"" border=""10"">","null","trial","32","","0.8,0.2","1:go_a","0",""
"null","","html-keyboard-response","65","103700","0.0-4.0-2.8","","<div style=""font-size:60px;"">+</div>","null","","","","","","",""
"597.9050000023562","","image-keyboard-response","66","104298","0.0-4.0-0.9","","img/red.png","32","trial","null","false","0.2,0.8","2:nogo_b","",""
"null","","html-keyboard-response","67","105300","0.0-4.0-1.9","","<img src=""img/red-n.png"" border=""10"">","null","trial","null","","0.2,0.8","2:nogo_b","0",""
"null","","html-keyboard-response","68","106302","0.0-4.0-2.9","","<div style=""font-size:60px;"">+</div>","null","","","","","","",""
"null","","image-keyboard-response","69","107804","0.0-4.0-0.10","","img/red.png","null","trial","null","true","0.2,0.8","2:nogo_b","",""
"null","","html-keyboard-response","70","108806","0.0-4.0-1.10","","<img src=""img/red-n.png"">","null","trial","null","","0.2,0.8","2:nogo_b","0",""
"null","","html-keyboard-response","71","109807","0.0-4.0-2.10","","<div style=""font-size:60px;"">+</div>","null","","","","","","",""
"408.2199999829754","","image-keyboard-response","72","110216","0.0-4.0-0.11","","img/yellow.png","32","trial","32","true","0.8,0.2","1:go_a","",""
"null","","html-keyboard-response","73","111217","0.0-4.0-1.11","","<img src=""img/yellow-r.png"" border=""10"">","null","trial","32","","0.8,0.2","1:go_a","1",""
"null","","html-keyboard-response","74","112219","0.0-4.0-2.11","","<div style=""font-size:60px;"">+</div>","null","","","","","","",""
"null","","image-keyboard-response","75","113721","0.0-4.0-0.12","","img/yellow.png","null","trial","32","false","0.8,0.2","1:go_a","",""
"null","","html-keyboard-response","76","114723","0.0-4.0-1.12","","<img src=""img/yellow-n.png"">","null","trial","32","","0.8,0.2","1:go_a","0",""
"null","","html-keyboard-response","77","115724","0.0-4.0-2.12","","<div style=""font-size:60px;"">+</div>","null","","","","","","",""
"260.7999999891035","","image-keyboard-response","78","115986","0.0-4.0-0.13","","img/red.png","32","trial","null","false","0.2,0.8","2:nogo_b","",""
"null","","html-keyboard-response","79","116987","0.0-4.0-1.13","","<img src=""img/red-r.png"" border=""10"">","null","trial","null","","0.2,0.8","2:nogo_b","1",""
"null","","html-keyboard-response","80","117988","0.0-4.0-2.13","","<div style=""font-size:60px;"">+</div>","null","","","","","","",""
"null","","image-keyboard-response","81","119490","0.0-4.0-0.14","","img/red.png","null","trial","null","true","0.2,0.8","2:nogo_b","",""
"null","","html-keyboard-response","82","120492","0.0-4.0-1.14","","<img src=""img/red-r.png"">","null","trial","null","","0.2,0.8","2:nogo_b","1",""
"null","","html-keyboard-response","83","121493","0.0-4.0-2.14","","<div style=""font-size:60px;"">+</div>","null","","","","","","",""
"1040.3250000090338","","image-keyboard-response","84","122534","0.0-4.0-0.15","","img/yellow.png","32","trial","32","true","0.8,0.2","1:go_a","",""
"null","","html-keyboard-response","85","123536","0.0-4.0-1.15","","<img src=""img/yellow-r.png"" border=""10"">","null","trial","32","","0.8,0.2","1:go_a","1",""
"null","","html-keyboard-response","86","124537","0.0-4.0-2.15","","<div style=""font-size:60px;"">+</div>","null","","","","","","",""
"null","","image-keyboard-response","87","126038","0.0-4.0-0.16","","img/red.png","null","trial","null","true","0.2,0.8","2:nogo_b","",""
"null","","html-keyboard-response","88","127039","0.0-4.0-1.16","","<img src=""img/red-r.png"">","null","trial","null","","0.2,0.8","2:nogo_b","1",""
"null","","html-keyboard-response","89","128041","0.0-4.0-2.16","","<div style=""font-size:60px;"">+</div>","null","","","","","","",""
"null","","image-keyboard-response","90","129544","0.0-4.0-0.17","","img/yellow.png","null","trial","32","false","0.8,0.2","1:go_a","",""
"null","","html-keyboard-response","91","130545","0.0-4.0-1.17","","<img src=""img/yellow-n.png"">","null","trial","32","","0.8,0.2","1:go_a","0",""
"null","","html-keyboard-response","92","131546","0.0-4.0-2.17","","<div style=""font-size:60px;"">+</div>","null","","","","","","",""
"405.6200000050012","","image-keyboard-response","93","131952","0.0-4.0-0.18","","img/yellow.png","32","trial","32","true","0.8,0.2","1:go_a","",""
"null","","html-keyboard-response","94","132954","0.0-4.0-1.18","","<img src=""img/yellow-r.png"" border=""10"">","null","trial","32","","0.8,0.2","1:go_a","1",""
"null","","html-keyboard-response","95","133956","0.0-4.0-2.18","","<div style=""font-size:60px;"">+</div>","null","","","","","","",""
"null","","image-keyboard-response","96","135458","0.0-4.0-0.19","","img/red.png","null","trial","null","true","0.2,0.8","2:nogo_b","",""
"null","","html-keyboard-response","97","136460","0.0-4.0-1.19","","<img src=""img/red-r.png"">","null","trial","null","","0.2,0.8","2:nogo_b","1",""
"null","","html-keyboard-response","98","137461","0.0-4.0-2.19","","<div style=""font-size:60px;"">+</div>","null","","","","","","",""
"null","","image-keyboard-response","99","138963","0.0-4.0-0.20","","img/yellow.png","null","trial","32","false","0.8,0.2","1:go_a","",""
"null","","html-keyboard-response","100","139965","0.0-4.0-1.20","","<img src=""img/yellow-r.png"">","null","trial","32","","0.8,0.2","1:go_a","1",""
"null","","html-keyboard-response","101","140966","0.0-4.0-2.20","","<div style=""font-size:60px;"">+</div>","null","","","","","","",""
"null","","image-keyboard-response","102","142468","0.0-4.0-0.21","","img/red.png","null","trial","null","true","0.2,0.8","2:nogo_b","",""
"null","","html-keyboard-response","103","143470","0.0-4.0-1.21","","<img src=""img/red-r.png"">","null","trial","null","","0.2,0.8","2:nogo_b","1",""
"null","","html-keyboard-response","104","144472","0.0-4.0-2.21","","<div style=""font-size:60px;"">+</div>","null","","","","","","",""
"null","","image-keyboard-response","105","145973","0.0-4.0-0.22","","img/red.png","null","trial","null","true","0.2,0.8","2:nogo_b","",""
"null","","html-keyboard-response","106","146974","0.0-4.0-1.22","","<img src=""img/red-r.png"">","null","trial","null","","0.2,0.8","2:nogo_b","1",""
"null","","html-keyboard-response","107","147975","0.0-4.0-2.22","","<div style=""font-size:60px;"">+</div>","null","","","","","","",""
"1495.7850000064354","","image-keyboard-response","108","149472","0.0-4.0-0.23","","img/yellow.png","32","trial","32","true","0.8,0.2","1:go_a","",""
"null","","html-keyboard-response","109","150473","0.0-4.0-1.23","","<img src=""img/yellow-r.png"" border=""10"">","null","trial","32","","0.8,0.2","1:go_a","1",""
"null","","html-keyboard-response","110","151474","0.0-4.0-2.23","","<div style=""font-size:60px;"">+</div>","null","","","","","","",""
"629.7349999949802","","image-keyboard-response","111","152104","0.0-4.0-0.24","","img/red.png","32","trial","null","false","0.2,0.8","2:nogo_b","",""
"null","","html-keyboard-response","112","153106","0.0-4.0-1.24","","<img src=""img/red-n.png"" border=""10"">","null","trial","null","","0.2,0.8","2:nogo_b","0",""
"null","","html-keyboard-response","113","154106","0.0-4.0-2.24","","<div style=""font-size:60px;"">+</div>","null","","","","","","",""
"null","","image-keyboard-response","114","155608","0.0-4.0-0.25","","img/yellow.png","null","trial","32","false","0.8,0.2","1:go_a","",""
"null","","html-keyboard-response","115","156609","0.0-4.0-1.25","","<img src=""img/yellow-n.png"">","null","trial","32","","0.8,0.2","1:go_a","0",""
"null","","html-keyboard-response","116","157611","0.0-4.0-2.25","","<div style=""font-size:60px;"">+</div>","null","","","","","","",""
"730.9299999906216","","image-keyboard-response","117","158342","0.0-4.0-0.26","","img/red.png","32","trial","null","false","0.2,0.8","2:nogo_b","",""
"null","","html-keyboard-response","118","159344","0.0-4.0-1.26","","<img src=""img/red-r.png"" border=""10"">","null","trial","null","","0.2,0.8","2:nogo_b","1",""
"null","","html-keyboard-response","119","160345","0.0-4.0-2.26","","<div style=""font-size:60px;"">+</div>","null","","","","","","",""
"null","","image-keyboard-response","120","161847","0.0-4.0-0.27","","img/yellow.png","null","trial","32","false","0.8,0.2","1:go_a","",""
"null","","html-keyboard-response","121","162850","0.0-4.0-1.27","","<img src=""img/yellow-n.png"">","null","trial","32","","0.8,0.2","1:go_a","0",""
"null","","html-keyboard-response","122","163851","0.0-4.0-2.27","","<div style=""font-size:60px;"">+</div>","null","","","","","","",""
"523.6849999928381","","image-keyboard-response","123","164375","0.0-4.0-0.28","","img/yellow.png","32","trial","32","true","0.8,0.2","1:go_a","",""
"null","","html-keyboard-response","124","165377","0.0-4.0-1.28","","<img src=""img/yellow-r.png"" border=""10"">","null","trial","32","","0.8,0.2","1:go_a","1",""
"null","","html-keyboard-response","125","166378","0.0-4.0-2.28","","<div style=""font-size:60px;"">+</div>","null","","","","","","",""
"605.7300000102259","","image-keyboard-response","126","166984","0.0-4.0-0.29","","img/red.png","32","trial","null","false","0.2,0.8","2:nogo_b","",""
"null","","html-keyboard-response","127","167986","0.0-4.0-1.29","","<img src=""img/red-r.png"" border=""10"">","null","trial","null","","0.2,0.8","2:nogo_b","1",""
"null","","html-keyboard-response","128","168987","0.0-4.0-2.29","","<div style=""font-size:60px;"">+</div>","null","","","","","","",""
"506.50499999755993","","image-keyboard-response","129","169494","0.0-4.0-0.30","","img/red.png","32","trial","null","false","0.2,0.8","2:nogo_b","",""
"null","","html-keyboard-response","130","170496","0.0-4.0-1.30","","<img src=""img/red-n.png"" border=""10"">","null","trial","null","","0.2,0.8","2:nogo_b","0",""
"null","","html-keyboard-response","131","171498","0.0-4.0-2.30","","<div style=""font-size:60px;"">+</div>","null","","","","","","",""
"null","","image-keyboard-response","132","172999","0.0-4.0-0.31","","img/yellow.png","null","trial","32","false","0.8,0.2","1:go_a","",""
"null","","html-keyboard-response","133","174001","0.0-4.0-1.31","","<img src=""img/yellow-r.png"">","null","trial","32","","0.8,0.2","1:go_a","1",""
"null","","html-keyboard-response","134","175002","0.0-4.0-2.31","","<div style=""font-size:60px;"">+</div>","null","","","","","","",""
"667.730000015581","","image-keyboard-response","135","175670","0.0-4.0-0.32","","img/red.png","32","trial","null","false","0.2,0.8","2:nogo_b","",""
"null","","html-keyboard-response","136","176673","0.0-4.0-1.32","","<img src=""img/red-n.png"" border=""10"">","null","trial","null","","0.2,0.8","2:nogo_b","0",""
"null","","html-keyboard-response","137","177674","0.0-4.0-2.32","","<div style=""font-size:60px;"">+</div>","null","","","","","","",""
"829.2099999962375","","image-keyboard-response","138","178504","0.0-4.0-0.33","","img/yellow.png","32","trial","32","true","0.8,0.2","1:go_a","",""
"null","","html-keyboard-response","139","179505","0.0-4.0-1.33","","<img src=""img/yellow-r.png"" border=""10"">","null","trial","32","","0.8,0.2","1:go_a","1",""
"null","","html-keyboard-response","140","180507","0.0-4.0-2.33","","<div style=""font-size:60px;"">+</div>","null","","","","","","",""
"668.9699999988079","","image-keyboard-response","141","181176","0.0-4.0-0.34","","img/yellow.png","32","trial","32","true","0.8,0.2","1:go_a","",""
"null","","html-keyboard-response","142","182177","0.0-4.0-1.34","","<img src=""img/yellow-r.png"" border=""10"">","null","trial","32","","0.8,0.2","1:go_a","1",""
"null","","html-keyboard-response","143","183178","0.0-4.0-2.34","","<div style=""font-size:60px;"">+</div>","null","","","","","","",""
"950.2250000077765","","image-keyboard-response","144","184129","0.0-4.0-0.35","","img/red.png","32","trial","null","false","0.2,0.8","2:nogo_b","",""
"null","","html-keyboard-response","145","185131","0.0-4.0-1.35","","<img src=""img/red-n.png"" border=""10"">","null","trial","null","","0.2,0.8","2:nogo_b","0",""
"null","","html-keyboard-response","146","186133","0.0-4.0-2.35","","<div style=""font-size:60px;"">+</div>","null","","","","","","",""
"null","","image-keyboard-response","147","187634","0.0-4.0-0.36","","img/yellow.png","null","trial","32","false","0.8,0.2","1:go_a","",""
"null","","html-keyboard-response","148","188635","0.0-4.0-1.36","","<img src=""img/yellow-n.png"">","null","trial","32","","0.8,0.2","1:go_a","0",""
"null","","html-keyboard-response","149","189636","0.0-4.0-2.36","","<div style=""font-size:60px;"">+</div>","null","","","","","","",""
"452.67500000773","","image-keyboard-response","150","190089","0.0-4.0-0.37","","img/red.png","32","trial","null","false","0.2,0.8","2:nogo_b","",""
"null","","html-keyboard-response","151","191091","0.0-4.0-1.37","","<img src=""img/red-n.png"" border=""10"">","null","trial","null","","0.2,0.8","2:nogo_b","0",""
"null","","html-keyboard-response","152","192093","0.0-4.0-2.37","","<div style=""font-size:60px;"">+</div>","null","","","","","","",""
"null","","image-keyboard-response","153","193595","0.0-4.0-0.38","","img/yellow.png","null","trial","32","false","0.8,0.2","1:go_a","",""
"null","","html-keyboard-response","154","194596","0.0-4.0-1.38","","<img src=""img/yellow-n.png"">","null","trial","32","","0.8,0.2","1:go_a","0",""
"null","","html-keyboard-response","155","195598","0.0-4.0-2.38","","<div style=""font-size:60px;"">+</div>","null","","","","","","",""
"504.4399999896996","","image-keyboard-response","156","196103","0.0-4.0-0.39","","img/red.png","32","trial","null","false","0.2,0.8","2:nogo_b","",""
"null","","html-keyboard-response","157","197105","0.0-4.0-1.39","","<img src=""img/red-n.png"" border=""10"">","null","trial","null","","0.2,0.8","2:nogo_b","0",""
"null","","html-keyboard-response","158","198107","0.0-4.0-2.39","","<div style=""font-size:60px;"">+</div>","null","","","","","","",""
"null","","image-keyboard-response","159","199609","0.0-4.0-0.40","","img/yellow.png","null","trial","32","false","0.8,0.2","1:go_a","",""
"null","","html-keyboard-response","160","200610","0.0-4.0-1.40","","<img src=""img/yellow-n.png"">","null","trial","32","","0.8,0.2","1:go_a","0",""
"null","","html-keyboard-response","161","201611","0.0-4.0-2.40","","<div style=""font-size:60px;"">+</div>","null","","","","","","",""
"null","","image-keyboard-response","162","203113","0.0-4.0-0.41","","img/red.png","null","trial","null","true","0.2,0.8","2:nogo_b","",""
"null","","html-keyboard-response","163","204115","0.0-4.0-1.41","","<img src=""img/red-r.png"">","null","trial","null","","0.2,0.8","2:nogo_b","1",""
"null","","html-keyboard-response","164","205116","0.0-4.0-2.41","","<div style=""font-size:60px;"">+</div>","null","","","","","","",""
"1021.9799999904353","","image-keyboard-response","165","206138","0.0-4.0-0.42","","img/red.png","32","trial","null","false","0.2,0.8","2:nogo_b","",""
"null","","html-keyboard-response","166","207139","0.0-4.0-1.42","","<img src=""img/red-n.png"" border=""10"">","null","trial","null","","0.2,0.8","2:nogo_b","0",""
"null","","html-keyboard-response","167","208141","0.0-4.0-2.42","","<div style=""font-size:60px;"">+</div>","null","","","","","","",""
"null","","image-keyboard-response","168","209642","0.0-4.0-0.43","","img/yellow.png","null","trial","32","false","0.8,0.2","1:go_a","",""
"null","","html-keyboard-response","169","210643","0.0-4.0-1.43","","<img src=""img/yellow-n.png"">","null","trial","32","","0.8,0.2","1:go_a","0",""
"null","","html-keyboard-response","170","211644","0.0-4.0-2.43","","<div style=""font-size:60px;"">+</div>","null","","","","","","",""
"529.4850000063889","","image-keyboard-response","171","212174","0.0-4.0-0.44","","img/yellow.png","32","trial","32","true","0.8,0.2","1:go_a","",""
"null","","html-keyboard-response","172","213176","0.0-4.0-1.44","","<img src=""img/yellow-r.png"" border=""10"">","null","trial","32","","0.8,0.2","1:go_a","1",""
"null","","html-keyboard-response","173","214178","0.0-4.0-2.44","","<div style=""font-size:60px;"">+</div>","null","","","","","","",""
"null","","image-keyboard-response","174","215680","0.0-4.0-0.45","","img/red.png","null","trial","null","true","0.2,0.8","2:nogo_b","",""
"null","","html-keyboard-response","175","216682","0.0-4.0-1.45","","<img src=""img/red-r.png"">","null","trial","null","","0.2,0.8","2:nogo_b","1",""
"null","","html-keyboard-response","176","217683","0.0-4.0-2.45","","<div style=""font-size:60px;"">+</div>","null","","","","","","",""
"null","","image-keyboard-response","177","219185","0.0-4.0-0.46","","img/yellow.png","null","trial","32","false","0.8,0.2","1:go_a","",""
"null","","html-keyboard-response","178","220187","0.0-4.0-1.46","","<img src=""img/yellow-n.png"">","null","trial","32","","0.8,0.2","1:go_a","0",""
"null","","html-keyboard-response","179","221188","0.0-4.0-2.46","","<div style=""font-size:60px;"">+</div>","null","","","","","","",""
"null","","image-keyboard-response","180","222690","0.0-4.0-0.47","","img/red.png","null","trial","null","true","0.2,0.8","2:nogo_b","",""
"null","","html-keyboard-response","181","223692","0.0-4.0-1.47","","<img src=""img/red-r.png"">","null","trial","null","","0.2,0.8","2:nogo_b","1",""
"null","","html-keyboard-response","182","224694","0.0-4.0-2.47","","<div style=""font-size:60px;"">+</div>","null","","","","","","",""
"810.4150000144728","","image-keyboard-response","183","225504","0.0-4.0-0.48","","img/yellow.png","32","trial","32","true","0.8,0.2","1:go_a","",""
"null","","html-keyboard-response","184","226507","0.0-4.0-1.48","","<img src=""img/yellow-r.png"" border=""10"">","null","trial","32","","0.8,0.2","1:go_a","1",""
"null","","html-keyboard-response","185","227508","0.0-4.0-2.48","","<div style=""font-size:60px;"">+</div>","null","","","","","","",""
"null","","image-keyboard-response","186","229010","0.0-4.0-0.49","","img/red.png","null","trial","null","true","0.2,0.8","2:nogo_b","",""
"null","","html-keyboard-response","187","230012","0.0-4.0-1.49","","<img src=""img/red-r.png"">","null","trial","null","","0.2,0.8","2:nogo_b","1",""
"null","","html-keyboard-response","188","231014","0.0-4.0-2.49","","<div style=""font-size:60px;"">+</div>","null","","","","","","",""
"null","","image-keyboard-response","189","232516","0.0-4.0-0.50","","img/yellow.png","null","trial","32","false","0.8,0.2","1:go_a","",""
"null","","html-keyboard-response","190","233517","0.0-4.0-1.50","","<img src=""img/yellow-r.png"">","null","trial","32","","0.8,0.2","1:go_a","1",""
"null","","html-keyboard-response","191","234518","0.0-4.0-2.50","","<div style=""font-size:60px;"">+</div>","null","","","","","","",""
"null","","image-keyboard-response","192","236020","0.0-4.0-0.51","","img/red.png","null","trial","null","true","0.2,0.8","2:nogo_b","",""
"null","","html-keyboard-response","193","237022","0.0-4.0-1.51","","<img src=""img/red-r.png"">","null","trial","null","","0.2,0.8","2:nogo_b","1",""
"null","","html-keyboard-response","194","238023","0.0-4.0-2.51","","<div style=""font-size:60px;"">+</div>","null","","","","","","",""
"831.2199999927543","","image-keyboard-response","195","238855","0.0-4.0-0.52","","img/yellow.png","32","trial","32","true","0.8,0.2","1:go_a","",""
"null","","html-keyboard-response","196","239857","0.0-4.0-1.52","","<img src=""img/yellow-n.png"" border=""10"">","null","trial","32","","0.8,0.2","1:go_a","0",""
"null","","html-keyboard-response","197","240858","0.0-4.0-2.52","","<div style=""font-size:60px;"">+</div>","null","","","","","","",""
"null","","image-keyboard-response","198","242360","0.0-4.0-0.53","","img/red.png","null","trial","null","true","0.2,0.8","2:nogo_b","",""
"null","","html-keyboard-response","199","243363","0.0-4.0-1.53","","<img src=""img/red-n.png"">","null","trial","null","","0.2,0.8","2:nogo_b","0",""
"null","","html-keyboard-response","200","244364","0.0-4.0-2.53","","<div style=""font-size:60px;"">+</div>","null","","","","","","",""
"1302.0150000229478","","image-keyboard-response","201","245667","0.0-4.0-0.54","","img/red.png","32","trial","null","false","0.2,0.8","2:nogo_b","",""
"null","","html-keyboard-response","202","246668","0.0-4.0-1.54","","<img src=""img/red-n.png"" border=""10"">","null","trial","null","","0.2,0.8","2:nogo_b","0",""
"null","","html-keyboard-response","203","247669","0.0-4.0-2.54","","<div style=""font-size:60px;"">+</div>","null","","","","","","",""
"null","","image-keyboard-response","204","249171","0.0-4.0-0.55","","img/yellow.png","null","trial","32","false","0.8,0.2","1:go_a","",""
"null","","html-keyboard-response","205","250172","0.0-4.0-1.55","","<img src=""img/yellow-r.png"">","null","trial","32","","0.8,0.2","1:go_a","1",""
"null","","html-keyboard-response","206","251174","0.0-4.0-2.55","","<div style=""font-size:60px;"">+</div>","null","","","","","","",""
"null","","image-keyboard-response","207","252676","0.0-4.0-0.56","","img/yellow.png","null","trial","32","false","0.8,0.2","1:go_a","",""
"null","","html-keyboard-response","208","253678","0.0-4.0-1.56","","<img src=""img/yellow-n.png"">","null","trial","32","","0.8,0.2","1:go_a","0",""
"null","","html-keyboard-response","209","254679","0.0-4.0-2.56","","<div style=""font-size:60px;"">+</div>","null","","","","","","",""
"778.7099999841303","","image-keyboard-response","210","255458","0.0-4.0-0.57","","img/red.png","32","trial","null","false","0.2,0.8","2:nogo_b","",""
"null","","html-keyboard-response","211","256461","0.0-4.0-1.57","","<img src=""img/red-n.png"" border=""10"">","null","trial","null","","0.2,0.8","2:nogo_b","0",""
"null","","html-keyboard-response","212","257462","0.0-4.0-2.57","","<div style=""font-size:60px;"">+</div>","null","","","","","","",""
"461.57499999389984","","image-keyboard-response","213","257924","0.0-4.0-0.58","","img/red.png","32","trial","null","false","0.2,0.8","2:nogo_b","",""
"null","","html-keyboard-response","214","258926","0.0-4.0-1.58","","<img src=""img/red-n.png"" border=""10"">","null","trial","null","","0.2,0.8","2:nogo_b","0",""
"null","","html-keyboard-response","215","259927","0.0-4.0-2.58","","<div style=""font-size:60px;"">+</div>","null","","","","","","",""
"670.990000013262","","image-keyboard-response","216","260599","0.0-4.0-0.59","","img/yellow.png","32","trial","32","true","0.8,0.2","1:go_a","",""
"null","","html-keyboard-response","217","261601","0.0-4.0-1.59","","<img src=""img/yellow-r.png"" border=""10"">","null","trial","32","","0.8,0.2","1:go_a","1",""
"null","","html-keyboard-response","218","262602","0.0-4.0-2.59","","<div style=""font-size:60px;"">+</div>","null","","","","","","",""
"3810.989999998128","","instructions","219","266413","0.0-5.0","[{""page_index"":0,""viewing_time"":3810.844999999972}]","","","","","","","","",""
"1429.7899999946821","","image-keyboard-response","220","267844","0.0-6.0-0.0","","img/blue.png","32","trial","null","false","0.2,0.8","4:nogo_d","",""
"null","","html-keyboard-response","221","268846","0.0-6.0-1.0","","<img src=""img/blue-n.png"" border=""10"">","null","trial","null","","0.2,0.8","4:nogo_d","0",""
"null","","html-keyboard-response","222","269847","0.0-6.0-2.0","","<div style=""font-size:60px;"">+</div>","null","","","","","","",""
"600.3049999999348","","image-keyboard-response","223","270448","0.0-6.0-0.1","","img/yellow.png","32","trial","null","false","0.2,0.8","2:nogo_b","",""
"null","","html-keyboard-response","224","271450","0.0-6.0-1.1","","<img src=""img/yellow-n.png"" border=""10"">","null","trial","null","","0.2,0.8","2:nogo_b","0",""
"null","","html-keyboard-response","225","272451","0.0-6.0-2.1","","<div style=""font-size:60px;"">+</div>","null","","","","","","",""
"592.1000000089407","","image-keyboard-response","226","273043","0.0-6.0-0.2","","img/orange.png","32","trial","32","true","0.8,0.2","1:go_a","",""
"null","","html-keyboard-response","227","274046","0.0-6.0-1.2","","<img src=""img/orange-n.png"" border=""10"">","null","trial","32","","0.8,0.2","1:go_a","0",""
"null","","html-keyboard-response","228","275047","0.0-6.0-2.2","","<div style=""font-size:60px;"">+</div>","null","","","","","","",""
"null","","image-keyboard-response","229","276549","0.0-6.0-0.3","","img/purple.png","null","trial","32","false","0.8,0.2","3:go_c","",""
"null","","html-keyboard-response","230","277550","0.0-6.0-1.3","","<img src=""img/purple-n.png"">","null","trial","32","","0.8,0.2","3:go_c","0",""
"null","","html-keyboard-response","231","278552","0.0-6.0-2.3","","<div style=""font-size:60px;"">+</div>","null","","","","","","",""
"463.63000001292676","","image-keyboard-response","232","279016","0.0-6.0-0.4","","img/blue.png","32","trial","null","false","0.2,0.8","4:nogo_d","",""
"null","","html-keyboard-response","233","280018","0.0-6.0-1.4","","<img src=""img/blue-n.png"" border=""10"">","null","trial","null","","0.2,0.8","4:nogo_d","0",""
"null","","html-keyboard-response","234","281019","0.0-6.0-2.4","","<div style=""font-size:60px;"">+</div>","null","","","","","","",""
"null","","image-keyboard-response","235","282521","0.0-6.0-0.5","","img/yellow.png","null","trial","null","true","0.2,0.8","2:nogo_b","",""
"null","","html-keyboard-response","236","283522","0.0-6.0-1.5","","<img src=""img/yellow-r.png"">","null","trial","null","","0.2,0.8","2:nogo_b","1",""
"null","","html-keyboard-response","237","284524","0.0-6.0-2.5","","<div style=""font-size:60px;"">+</div>","null","","","","","","",""
"null","","image-keyboard-response","238","286026","0.0-6.0-0.6","","img/orange.png","null","trial","32","false","0.8,0.2","1:go_a","",""
"null","","html-keyboard-response","239","287027","0.0-6.0-1.6","","<img src=""img/orange-n.png"">","null","trial","32","","0.8,0.2","1:go_a","0",""
"null","","html-keyboard-response","240","288028","0.0-6.0-2.6","","<div style=""font-size:60px;"">+</div>","null","","","","","","",""
"null","","image-keyboard-response","241","289530","0.0-6.0-0.7","","img/purple.png","null","trial","32","false","0.8,0.2","3:go_c","",""
"null","","html-keyboard-response","242","290532","0.0-6.0-1.7","","<img src=""img/purple-n.png"">","null","trial","32","","0.8,0.2","3:go_c","0",""
"null","","html-keyboard-response","243","291533","0.0-6.0-2.7","","<div style=""font-size:60px;"">+</div>","null","","","","","","",""
"null","","image-keyboard-response","244","293034","0.0-6.0-0.8","","img/blue.png","null","trial","null","true","0.2,0.8","4:nogo_d","",""
"null","","html-keyboard-response","245","294035","0.0-6.0-1.8","","<img src=""img/blue-r.png"">","null","trial","null","","0.2,0.8","4:nogo_d","1",""
"null","","html-keyboard-response","246","295037","0.0-6.0-2.8","","<div style=""font-size:60px;"">+</div>","null","","","","","","",""
"523.6799999838695","","image-keyboard-response","247","295561","0.0-6.0-0.9","","img/purple.png","32","trial","32","true","0.8,0.2","3:go_c","",""
"null","","html-keyboard-response","248","296562","0.0-6.0-1.9","","<img src=""img/purple-r.png"" border=""10"">","null","trial","32","","0.8,0.2","3:go_c","1",""
"null","","html-keyboard-response","249","297564","0.0-6.0-2.9","","<div style=""font-size:60px;"">+</div>","null","","","","","","",""
"1500.7199999818113","","image-keyboard-response","250","299065","0.0-6.0-0.10","","img/yellow.png","32","trial","null","false","0.2,0.8","2:nogo_b","",""
"null","","html-keyboard-response","251","300066","0.0-6.0-1.10","","<img src=""img/yellow-n.png"" border=""10"">","null","trial","null","","0.2,0.8","2:nogo_b","0",""
"null","","html-keyboard-response","252","301067","0.0-6.0-2.10","","<div style=""font-size:60px;"">+</div>","null","","","","","","",""
"null","","image-keyboard-response","253","302569","0.0-6.0-0.11","","img/orange.png","null","trial","32","false","0.8,0.2","1:go_a","",""
"null","","html-keyboard-response","254","303570","0.0-6.0-1.11","","<img src=""img/orange-r.png"">","null","trial","32","","0.8,0.2","1:go_a","1",""
"null","","html-keyboard-response","255","304572","0.0-6.0-2.11","","<div style=""font-size:60px;"">+</div>","null","","","","","","",""
"551.2300000118557","","image-keyboard-response","256","305123","0.0-6.0-0.12","","img/orange.png","32","trial","32","true","0.8,0.2","1:go_a","",""
"null","","html-keyboard-response","257","306126","0.0-6.0-1.12","","<img src=""img/orange-r.png"" border=""10"">","null","trial","32","","0.8,0.2","1:go_a","1",""
"null","","html-keyboard-response","258","307127","0.0-6.0-2.12","","<div style=""font-size:60px;"">+</div>","null","","","","","","",""
"null","","image-keyboard-response","259","308629","0.0-6.0-0.13","","img/blue.png","null","trial","null","true","0.2,0.8","4:nogo_d","",""
"null","","html-keyboard-response","260","309630","0.0-6.0-1.13","","<img src=""img/blue-r.png"">","null","trial","null","","0.2,0.8","4:nogo_d","1",""
"null","","html-keyboard-response","261","310632","0.0-6.0-2.13","","<div style=""font-size:60px;"">+</div>","null","","","","","","",""
"null","","image-keyboard-response","262","312134","0.0-6.0-0.14","","img/yellow.png","null","trial","null","true","0.2,0.8","2:nogo_b","",""
"null","","html-keyboard-response","263","313135","0.0-6.0-1.14","","<img src=""img/yellow-r.png"">","null","trial","null","","0.2,0.8","2:nogo_b","1",""
"null","","html-keyboard-response","264","314136","0.0-6.0-2.14","","<div style=""font-size:60px;"">+</div>","null","","","","","","",""
"null","","image-keyboard-response","265","315637","0.0-6.0-0.15","","img/purple.png","null","trial","32","false","0.8,0.2","3:go_c","",""
"null","","html-keyboard-response","266","316639","0.0-6.0-1.15","","<img src=""img/purple-n.png"">","null","trial","32","","0.8,0.2","3:go_c","0",""
"null","","html-keyboard-response","267","317640","0.0-6.0-2.15","","<div style=""font-size:60px;"">+</div>","null","","","","","","",""
"546.0750000202097","","image-keyboard-response","268","318186","0.0-6.0-0.16","","img/yellow.png","32","trial","null","false","0.2,0.8","2:nogo_b","",""
"null","","html-keyboard-response","269","319189","0.0-6.0-1.16","","<img src=""img/yellow-n.png"" border=""10"">","null","trial","null","","0.2,0.8","2:nogo_b","0",""
"null","","html-keyboard-response","270","320190","0.0-6.0-2.16","","<div style=""font-size:60px;"">+</div>","null","","","","","","",""
"1234.7850000078324","","image-keyboard-response","271","321425","0.0-6.0-0.17","","img/blue.png","32","trial","null","false","0.2,0.8","4:nogo_d","",""
"null","","html-keyboard-response","272","322426","0.0-6.0-1.17","","<img src=""img/blue-n.png"" border=""10"">","null","trial","null","","0.2,0.8","4:nogo_d","0",""
"null","","html-keyboard-response","273","323428","0.0-6.0-2.17","","<div style=""font-size:60px;"">+</div>","null","","","","","","",""
"null","","image-keyboard-response","274","324929","0.0-6.0-0.18","","img/purple.png","null","trial","32","false","0.8,0.2","3:go_c","",""
"null","","html-keyboard-response","275","325931","0.0-6.0-1.18","","<img src=""img/purple-n.png"">","null","trial","32","","0.8,0.2","3:go_c","0",""
"null","","html-keyboard-response","276","326932","0.0-6.0-2.18","","<div style=""font-size:60px;"">+</div>","null","","","","","","",""
"393.8250000064727","","image-keyboard-response","277","327326","0.0-6.0-0.19","","img/orange.png","32","trial","32","true","0.8,0.2","1:go_a","",""
"null","","html-keyboard-response","278","328328","0.0-6.0-1.19","","<img src=""img/orange-r.png"" border=""10"">","null","trial","32","","0.8,0.2","1:go_a","1",""
"null","","html-keyboard-response","279","329330","0.0-6.0-2.19","","<div style=""font-size:60px;"">+</div>","null","","","","","","",""
"790.355000004638","","image-keyboard-response","280","330120","0.0-6.0-0.20","","img/orange.png","32","trial","32","true","0.8,0.2","1:go_a","",""
"null","","html-keyboard-response","281","331122","0.0-6.0-1.20","","<img src=""img/orange-n.png"" border=""10"">","null","trial","32","","0.8,0.2","1:go_a","0",""
"null","","html-keyboard-response","282","332123","0.0-6.0-2.20","","<div style=""font-size:60px;"">+</div>","null","","","","","","",""
"null","","image-keyboard-response","283","333625","0.0-6.0-0.21","","img/purple.png","null","trial","32","false","0.8,0.2","3:go_c","",""
"null","","html-keyboard-response","284","334626","0.0-6.0-1.21","","<img src=""img/purple-n.png"">","null","trial","32","","0.8,0.2","3:go_c","0",""
"null","","html-keyboard-response","285","335628","0.0-6.0-2.21","","<div style=""font-size:60px;"">+</div>","null","","","","","","",""
"null","","image-keyboard-response","286","337130","0.0-6.0-0.22","","img/blue.png","null","trial","null","true","0.2,0.8","4:nogo_d","",""
"null","","html-keyboard-response","287","338131","0.0-6.0-1.22","","<img src=""img/blue-r.png"">","null","trial","null","","0.2,0.8","4:nogo_d","1",""
"null","","html-keyboard-response","288","339133","0.0-6.0-2.22","","<div style=""font-size:60px;"">+</div>","null","","","","","","",""
"663.1950000009965","","image-keyboard-response","289","339796","0.0-6.0-0.23","","img/yellow.png","32","trial","null","false","0.2,0.8","2:nogo_b","",""
"null","","html-keyboard-response","290","340798","0.0-6.0-1.23","","<img src=""img/yellow-n.png"" border=""10"">","null","trial","null","","0.2,0.8","2:nogo_b","0",""
"null","","html-keyboard-response","291","341800","0.0-6.0-2.23","","<div style=""font-size:60px;"">+</div>","null","","","","","","",""
"null","","image-keyboard-response","292","343301","0.0-6.0-0.24","","img/orange.png","null","trial","32","false","0.8,0.2","1:go_a","",""
"null","","html-keyboard-response","293","344304","0.0-6.0-1.24","","<img src=""img/orange-r.png"">","null","trial","32","","0.8,0.2","1:go_a","1",""
"null","","html-keyboard-response","294","345305","0.0-6.0-2.24","","<div style=""font-size:60px;"">+</div>","null","","","","","","",""
"831.4850000024308","","image-keyboard-response","295","346137","0.0-6.0-0.25","","img/blue.png","32","trial","null","false","0.2,0.8","4:nogo_d","",""
"null","","html-keyboard-response","296","347139","0.0-6.0-1.25","","<img src=""img/blue-n.png"" border=""10"">","null","trial","null","","0.2,0.8","4:nogo_d","0",""
"null","","html-keyboard-response","297","348141","0.0-6.0-2.25","","<div style=""font-size:60px;"">+</div>","null","","","","","","",""
"826.3150000129826","","image-keyboard-response","298","348967","0.0-6.0-0.26","","img/purple.png","32","trial","32","true","0.8,0.2","3:go_c","",""
"null","","html-keyboard-response","299","349969","0.0-6.0-1.26","","<img src=""img/purple-n.png"" border=""10"">","null","trial","32","","0.8,0.2","3:go_c","0",""
"null","","html-keyboard-response","300","350970","0.0-6.0-2.26","","<div style=""font-size:60px;"">+</div>","null","","","","","","",""
"558.7999999988824","","image-keyboard-response","301","351529","0.0-6.0-0.27","","img/yellow.png","32","trial","null","false","0.2,0.8","2:nogo_b","",""
"null","","html-keyboard-response","302","352531","0.0-6.0-1.27","","<img src=""img/yellow-n.png"" border=""10"">","null","trial","null","","0.2,0.8","2:nogo_b","0",""
"null","","html-keyboard-response","303","353532","0.0-6.0-2.27","","<div style=""font-size:60px;"">+</div>","null","","","","","","",""
"921.9350000203121","","image-keyboard-response","304","354454","0.0-6.0-0.28","","img/purple.png","32","trial","32","true","0.8,0.2","3:go_c","",""
"null","","html-keyboard-response","305","355457","0.0-6.0-1.28","","<img src=""img/purple-n.png"" border=""10"">","null","trial","32","","0.8,0.2","3:go_c","0",""
"null","","html-keyboard-response","306","356458","0.0-6.0-2.28","","<div style=""font-size:60px;"">+</div>","null","","","","","","",""
"1092.834999988554","","image-keyboard-response","307","357551","0.0-6.0-0.29","","img/blue.png","32","trial","null","false","0.2,0.8","4:nogo_d","",""
"null","","html-keyboard-response","308","358553","0.0-6.0-1.29","","<img src=""img/blue-n.png"" border=""10"">","null","trial","null","","0.2,0.8","4:nogo_d","0",""
"null","","html-keyboard-response","309","359554","0.0-6.0-2.29","","<div style=""font-size:60px;"">+</div>","null","","","","","","",""
"null","","image-keyboard-response","310","361056","0.0-6.0-0.30","","img/orange.png","null","trial","32","false","0.8,0.2","1:go_a","",""
"null","","html-keyboard-response","311","362058","0.0-6.0-1.30","","<img src=""img/orange-n.png"">","null","trial","32","","0.8,0.2","1:go_a","0",""
"null","","html-keyboard-response","312","363060","0.0-6.0-2.30","","<div style=""font-size:60px;"">+</div>","null","","","","","","",""
"null","","image-keyboard-response","313","364562","0.0-6.0-0.31","","img/yellow.png","null","trial","null","true","0.2,0.8","2:nogo_b","",""
"null","","html-keyboard-response","314","365564","0.0-6.0-1.31","","<img src=""img/yellow-r.png"">","null","trial","null","","0.2,0.8","2:nogo_b","1",""
"null","","html-keyboard-response","315","366565","0.0-6.0-2.31","","<div style=""font-size:60px;"">+</div>","null","","","","","","",""
"null","","image-keyboard-response","316","368067","0.0-6.0-0.32","","img/orange.png","null","trial","32","false","0.8,0.2","1:go_a","",""
"null","","html-keyboard-response","317","369069","0.0-6.0-1.32","","<img src=""img/orange-r.png"">","null","trial","32","","0.8,0.2","1:go_a","1",""
"null","","html-keyboard-response","318","370070","0.0-6.0-2.32","","<div style=""font-size:60px;"">+</div>","null","","","","","","",""
"780.6949999940116","","image-keyboard-response","319","370851","0.0-6.0-0.33","","img/yellow.png","32","trial","null","false","0.2,0.8","2:nogo_b","",""
"null","","html-keyboard-response","320","371852","0.0-6.0-1.33","","<img src=""img/yellow-n.png"" border=""10"">","null","trial","null","","0.2,0.8","2:nogo_b","0",""
"null","","html-keyboard-response","321","372853","0.0-6.0-2.33","","<div style=""font-size:60px;"">+</div>","null","","","","","","",""
"null","","image-keyboard-response","322","374355","0.0-6.0-0.34","","img/purple.png","null","trial","32","false","0.8,0.2","3:go_c","",""
"null","","html-keyboard-response","323","375357","0.0-6.0-1.34","","<img src=""img/purple-n.png"">","null","trial","32","","0.8,0.2","3:go_c","0",""
"null","","html-keyboard-response","324","376358","0.0-6.0-2.34","","<div style=""font-size:60px;"">+</div>","null","","","","","","",""
"null","","image-keyboard-response","325","377860","0.0-6.0-0.35","","img/blue.png","null","trial","null","true","0.2,0.8","4:nogo_d","",""
"null","","html-keyboard-response","326","378863","0.0-6.0-1.35","","<img src=""img/blue-n.png"">","null","trial","null","","0.2,0.8","4:nogo_d","0",""
"null","","html-keyboard-response","327","379863","0.0-6.0-2.35","","<div style=""font-size:60px;"">+</div>","null","","","","","","",""
"514.6999999997206","","image-keyboard-response","328","380378","0.0-6.0-0.36","","img/yellow.png","32","trial","null","false","0.2,0.8","2:nogo_b","",""
"null","","html-keyboard-response","329","381380","0.0-6.0-1.36","","<img src=""img/yellow-n.png"" border=""10"">","null","trial","null","","0.2,0.8","2:nogo_b","0",""
"null","","html-keyboard-response","330","382381","0.0-6.0-2.36","","<div style=""font-size:60px;"">+</div>","null","","","","","","",""
"862.8899999894202","","image-keyboard-response","331","383244","0.0-6.0-0.37","","img/orange.png","32","trial","32","true","0.8,0.2","1:go_a","",""
"null","","html-keyboard-response","332","384246","0.0-6.0-1.37","","<img src=""img/orange-r.png"" border=""10"">","null","trial","32","","0.8,0.2","1:go_a","1",""
"null","","html-keyboard-response","333","385248","0.0-6.0-2.37","","<div style=""font-size:60px;"">+</div>","null","","","","","","",""
"null","","image-keyboard-response","334","386749","0.0-6.0-0.38","","img/purple.png","null","trial","32","false","0.8,0.2","3:go_c","",""
"null","","html-keyboard-response","335","387751","0.0-6.0-1.38","","<img src=""img/purple-n.png"">","null","trial","32","","0.8,0.2","3:go_c","0",""
"null","","html-keyboard-response","336","388752","0.0-6.0-2.38","","<div style=""font-size:60px;"">+</div>","null","","","","","","",""
"null","","image-keyboard-response","337","390254","0.0-6.0-0.39","","img/blue.png","null","trial","null","true","0.2,0.8","4:nogo_d","",""
"null","","html-keyboard-response","338","391256","0.0-6.0-1.39","","<img src=""img/blue-r.png"">","null","trial","null","","0.2,0.8","4:nogo_d","1",""
"null","","html-keyboard-response","339","392258","0.0-6.0-2.39","","<div style=""font-size:60px;"">+</div>","null","","","","","","",""
"null","","image-keyboard-response","340","393759","0.0-6.0-0.40","","img/orange.png","null","trial","32","false","0.8,0.2","1:go_a","",""
"null","","html-keyboard-response","341","394760","0.0-6.0-1.40","","<img src=""img/orange-n.png"">","null","trial","32","","0.8,0.2","1:go_a","0",""
"null","","html-keyboard-response","342","395761","0.0-6.0-2.40","","<div style=""font-size:60px;"">+</div>","null","","","","","","",""
"null","","image-keyboard-response","343","397263","0.0-6.0-0.41","","img/yellow.png","null","trial","null","true","0.2,0.8","2:nogo_b","",""
"null","","html-keyboard-response","344","398266","0.0-6.0-1.41","","<img src=""img/yellow-r.png"">","null","trial","null","","0.2,0.8","2:nogo_b","1",""
"null","","html-keyboard-response","345","399267","0.0-6.0-2.41","","<div style=""font-size:60px;"">+</div>","null","","","","","","",""
"null","","image-keyboard-response","346","400768","0.0-6.0-0.42","","img/blue.png","null","trial","null","true","0.2,0.8","4:nogo_d","",""
"null","","html-keyboard-response","347","401769","0.0-6.0-1.42","","<img src=""img/blue-r.png"">","null","trial","null","","0.2,0.8","4:nogo_d","1",""
"null","","html-keyboard-response","348","402771","0.0-6.0-2.42","","<div style=""font-size:60px;"">+</div>","null","","","","","","",""
"569.5949999790173","","image-keyboard-response","349","403341","0.0-6.0-0.43","","img/purple.png","32","trial","32","true","0.8,0.2","3:go_c","",""
"null","","html-keyboard-response","350","404342","0.0-6.0-1.43","","<img src=""img/purple-r.png"" border=""10"">","null","trial","32","","0.8,0.2","3:go_c","1",""
"null","","html-keyboard-response","351","405344","0.0-6.0-2.43","","<div style=""font-size:60px;"">+</div>","null","","","","","","",""
"null","","image-keyboard-response","352","406846","0.0-6.0-0.44","","img/yellow.png","null","trial","null","true","0.2,0.8","2:nogo_b","",""
"null","","html-keyboard-response","353","407848","0.0-6.0-1.44","","<img src=""img/yellow-r.png"">","null","trial","null","","0.2,0.8","2:nogo_b","1",""
"null","","html-keyboard-response","354","408849","0.0-6.0-2.44","","<div style=""font-size:60px;"">+</div>","null","","","","","","",""
"625.5099999834783","","image-keyboard-response","355","409475","0.0-6.0-0.45","","img/blue.png","32","trial","null","false","0.2,0.8","4:nogo_d","",""
"null","","html-keyboard-response","356","410476","0.0-6.0-1.45","","<img src=""img/blue-n.png"" border=""10"">","null","trial","null","","0.2,0.8","4:nogo_d","0",""
"null","","html-keyboard-response","357","411478","0.0-6.0-2.45","","<div style=""font-size:60px;"">+</div>","null","","","","","","",""
"828.6300000036135","","image-keyboard-response","358","412307","0.0-6.0-0.46","","img/orange.png","32","trial","32","true","0.8,0.2","1:go_a","",""
"null","","html-keyboard-response","359","413309","0.0-6.0-1.46","","<img src=""img/orange-r.png"" border=""10"">","null","trial","32","","0.8,0.2","1:go_a","1",""
"null","","html-keyboard-response","360","414310","0.0-6.0-2.46","","<div style=""font-size:60px;"">+</div>","null","","","","","","",""
"571.1749999900348","","image-keyboard-response","361","414882","0.0-6.0-0.47","","img/purple.png","32","trial","32","true","0.8,0.2","3:go_c","",""
"null","","html-keyboard-response","362","415884","0.0-6.0-1.47","","<img src=""img/purple-n.png"" border=""10"">","null","trial","32","","0.8,0.2","3:go_c","0",""
"null","","html-keyboard-response","363","416885","0.0-6.0-2.47","","<div style=""font-size:60px;"">+</div>","null","","","","","","",""
"null","","image-keyboard-response","364","418387","0.0-6.0-0.48","","img/purple.png","null","trial","32","false","0.8,0.2","3:go_c","",""
"null","","html-keyboard-response","365","419388","0.0-6.0-1.48","","<img src=""img/purple-n.png"">","null","trial","32","","0.8,0.2","3:go_c","0",""
"null","","html-keyboard-response","366","420390","0.0-6.0-2.48","","<div style=""font-size:60px;"">+</div>","null","","","","","","",""
"492.23499998333864","","image-keyboard-response","367","420882","0.0-6.0-0.49","","img/orange.png","32","trial","32","true","0.8,0.2","1:go_a","",""
"null","","html-keyboard-response","368","421885","0.0-6.0-1.49","","<img src=""img/orange-r.png"" border=""10"">","null","trial","32","","0.8,0.2","1:go_a","1",""
"null","","html-keyboard-response","369","422886","0.0-6.0-2.49","","<div style=""font-size:60px;"">+</div>","null","","","","","","",""
"null","","image-keyboard-response","370","424388","0.0-6.0-0.50","","img/blue.png","null","trial","null","true","0.2,0.8","4:nogo_d","",""
"null","","html-keyboard-response","371","425389","0.0-6.0-1.50","","<img src=""img/blue-r.png"">","null","trial","null","","0.2,0.8","4:nogo_d","1",""
"null","","html-keyboard-response","372","426391","0.0-6.0-2.50","","<div style=""font-size:60px;"">+</div>","null","","","","","","",""
"null","","image-keyboard-response","373","427892","0.0-6.0-0.51","","img/yellow.png","null","trial","null","true","0.2,0.8","2:nogo_b","",""
"null","","html-keyboard-response","374","428894","0.0-6.0-1.51","","<img src=""img/yellow-r.png"">","null","trial","null","","0.2,0.8","2:nogo_b","1",""
"null","","html-keyboard-response","375","429895","0.0-6.0-2.51","","<div style=""font-size:60px;"">+</div>","null","","","","","","",""
"null","","image-keyboard-response","376","431397","0.0-6.0-0.52","","img/yellow.png","null","trial","null","true","0.2,0.8","2:nogo_b","",""
"null","","html-keyboard-response","377","432398","0.0-6.0-1.52","","<img src=""img/yellow-n.png"">","null","trial","null","","0.2,0.8","2:nogo_b","0",""
"null","","html-keyboard-response","378","433400","0.0-6.0-2.52","","<div style=""font-size:60px;"">+</div>","null","","","","","","",""
"null","","image-keyboard-response","379","434902","0.0-6.0-0.53","","img/purple.png","null","trial","32","false","0.8,0.2","3:go_c","",""
"null","","html-keyboard-response","380","435903","0.0-6.0-1.53","","<img src=""img/purple-n.png"">","null","trial","32","","0.8,0.2","3:go_c","0",""
"null","","html-keyboard-response","381","436904","0.0-6.0-2.53","","<div style=""font-size:60px;"">+</div>","null","","","","","","",""
"542.6149999839254","","image-keyboard-response","382","437447","0.0-6.0-0.54","","img/blue.png","32","trial","null","false","0.2,0.8","4:nogo_d","",""
"null","","html-keyboard-response","383","438449","0.0-6.0-1.54","","<img src=""img/blue-r.png"" border=""10"">","null","trial","null","","0.2,0.8","4:nogo_d","1",""
"null","","html-keyboard-response","384","439451","0.0-6.0-2.54","","<div style=""font-size:60px;"">+</div>","null","","","","","","",""
"null","","image-keyboard-response","385","440952","0.0-6.0-0.55","","img/orange.png","null","trial","32","false","0.8,0.2","1:go_a","",""
"null","","html-keyboard-response","386","441954","0.0-6.0-1.55","","<img src=""img/orange-n.png"">","null","trial","32","","0.8,0.2","1:go_a","0",""
"null","","html-keyboard-response","387","442955","0.0-6.0-2.55","","<div style=""font-size:60px;"">+</div>","null","","","","","","",""
"null","","image-keyboard-response","388","444457","0.0-6.0-0.56","","img/blue.png","null","trial","null","true","0.2,0.8","4:nogo_d","",""
"null","","html-keyboard-response","389","445460","0.0-6.0-1.56","","<img src=""img/blue-n.png"">","null","trial","null","","0.2,0.8","4:nogo_d","0",""
"null","","html-keyboard-response","390","446461","0.0-6.0-2.56","","<div style=""font-size:60px;"">+</div>","null","","","","","","",""
"null","","image-keyboard-response","391","447962","0.0-6.0-0.57","","img/yellow.png","null","trial","null","true","0.2,0.8","2:nogo_b","",""
"null","","html-keyboard-response","392","448964","0.0-6.0-1.57","","<img src=""img/yellow-n.png"">","null","trial","null","","0.2,0.8","2:nogo_b","0",""
"null","","html-keyboard-response","393","449966","0.0-6.0-2.57","","<div style=""font-size:60px;"">+</div>","null","","","","","","",""
"null","","image-keyboard-response","394","451468","0.0-6.0-0.58","","img/orange.png","null","trial","32","false","0.8,0.2","1:go_a","",""
"null","","html-keyboard-response","395","452470","0.0-6.0-1.58","","<img src=""img/orange-n.png"">","null","trial","32","","0.8,0.2","1:go_a","0",""
"null","","html-keyboard-response","396","453471","0.0-6.0-2.58","","<div style=""font-size:60px;"">+</div>","null","","","","","","",""
"null","","image-keyboard-response","397","454972","0.0-6.0-0.59","","img/purple.png","null","trial","32","false","0.8,0.2","3:go_c","",""
"null","","html-keyboard-response","398","455973","0.0-6.0-1.59","","<img src=""img/purple-r.png"">","null","trial","32","","0.8,0.2","3:go_c","1",""
"null","","html-keyboard-response","399","456975","0.0-6.0-2.59","","<div style=""font-size:60px;"">+</div>","null","","","","","","",""
"null","","image-keyboard-response","400","458477","0.0-6.0-0.60","","img/orange.png","null","trial","32","false","0.8,0.2","1:go_a","",""
"null","","html-keyboard-response","401","459479","0.0-6.0-1.60","","<img src=""img/orange-n.png"">","null","trial","32","","0.8,0.2","1:go_a","0",""
"null","","html-keyboard-response","402","460480","0.0-6.0-2.60","","<div style=""font-size:60px;"">+</div>","null","","","","","","",""
"null","","image-keyboard-response","403","461982","0.0-6.0-0.61","","img/purple.png","null","trial","32","false","0.8,0.2","3:go_c","",""
"null","","html-keyboard-response","404","462985","0.0-6.0-1.61","","<img src=""img/purple-n.png"">","null","trial","32","","0.8,0.2","3:go_c","0",""
"null","","html-keyboard-response","405","463986","0.0-6.0-2.61","","<div style=""font-size:60px;"">+</div>","null","","","","","","",""
"null","","image-keyboard-response","406","465488","0.0-6.0-0.62","","img/blue.png","null","trial","null","true","0.2,0.8","4:nogo_d","",""
"null","","html-keyboard-response","407","466490","0.0-6.0-1.62","","<img src=""img/blue-r.png"">","null","trial","null","","0.2,0.8","4:nogo_d","1",""
"null","","html-keyboard-response","408","467491","0.0-6.0-2.62","","<div style=""font-size:60px;"">+</div>","null","","","","","","",""
"null","","image-keyboard-response","409","468993","0.0-6.0-0.63","","img/yellow.png","null","trial","null","true","0.2,0.8","2:nogo_b","",""
"null","","html-keyboard-response","410","469994","0.0-6.0-1.63","","<img src=""img/yellow-r.png"">","null","trial","null","","0.2,0.8","2:nogo_b","1",""
"null","","html-keyboard-response","411","470996","0.0-6.0-2.63","","<div style=""font-size:60px;"">+</div>","null","","","","","","",""
"null","","image-keyboard-response","412","472498","0.0-6.0-0.64","","img/purple.png","null","trial","32","false","0.8,0.2","3:go_c","",""
"null","","html-keyboard-response","413","473499","0.0-6.0-1.64","","<img src=""img/purple-n.png"">","null","trial","32","","0.8,0.2","3:go_c","0",""
"null","","html-keyboard-response","414","474500","0.0-6.0-2.64","","<div style=""font-size:60px;"">+</div>","null","","","","","","",""
"1209.644999995362","","image-keyboard-response","415","475710","0.0-6.0-0.65","","img/orange.png","32","trial","32","true","0.8,0.2","1:go_a","",""
"null","","html-keyboard-response","416","476712","0.0-6.0-1.65","","<img src=""img/orange-r.png"" border=""10"">","null","trial","32","","0.8,0.2","1:go_a","1",""
"null","","html-keyboard-response","417","477713","0.0-6.0-2.65","","<div style=""font-size:60px;"">+</div>","null","","","","","","",""
"null","","image-keyboard-response","418","479214","0.0-6.0-0.66","","img/yellow.png","null","trial","null","true","0.2,0.8","2:nogo_b","",""
"null","","html-keyboard-response","419","480215","0.0-6.0-1.66","","<img src=""img/yellow-r.png"">","null","trial","null","","0.2,0.8","2:nogo_b","1",""
"null","","html-keyboard-response","420","481216","0.0-6.0-2.66","","<div style=""font-size:60px;"">+</div>","null","","","","","","",""
"null","","image-keyboard-response","421","482718","0.0-6.0-0.67","","img/blue.png","null","trial","null","true","0.2,0.8","4:nogo_d","",""
"null","","html-keyboard-response","422","483720","0.0-6.0-1.67","","<img src=""img/blue-r.png"">","null","trial","null","","0.2,0.8","4:nogo_d","1",""
"null","","html-keyboard-response","423","484721","0.0-6.0-2.67","","<div style=""font-size:60px;"">+</div>","null","","","","","","",""
"null","","image-keyboard-response","424","486223","0.0-6.0-0.68","","img/yellow.png","null","trial","null","true","0.2,0.8","2:nogo_b","",""
"null","","html-keyboard-response","425","487224","0.0-6.0-1.68","","<img src=""img/yellow-r.png"">","null","trial","null","","0.2,0.8","2:nogo_b","1",""
"null","","html-keyboard-response","426","488226","0.0-6.0-2.68","","<div style=""font-size:60px;"">+</div>","null","","","","","","",""
"null","","image-keyboard-response","427","489729","0.0-6.0-0.69","","img/orange.png","null","trial","32","false","0.8,0.2","1:go_a","",""
"null","","html-keyboard-response","428","490730","0.0-6.0-1.69","","<img src=""img/orange-n.png"">","null","trial","32","","0.8,0.2","1:go_a","0",""
"null","","html-keyboard-response","429","491732","0.0-6.0-2.69","","<div style=""font-size:60px;"">+</div>","null","","","","","","",""
"390.7599999802187","","image-keyboard-response","430","492123","0.0-6.0-0.70","","img/blue.png","32","trial","null","false","0.2,0.8","4:nogo_d","",""
"null","","html-keyboard-response","431","493126","0.0-6.0-1.70","","<img src=""img/blue-r.png"" border=""10"">","null","trial","null","","0.2,0.8","4:nogo_d","1",""
"null","","html-keyboard-response","432","494127","0.0-6.0-2.70","","<div style=""font-size:60px;"">+</div>","null","","","","","","",""
"null","","image-keyboard-response","433","495628","0.0-6.0-0.71","","img/purple.png","null","trial","32","false","0.8,0.2","3:go_c","",""
"null","","html-keyboard-response","434","496629","0.0-6.0-1.71","","<img src=""img/purple-n.png"">","null","trial","32","","0.8,0.2","3:go_c","0",""
"null","","html-keyboard-response","435","497630","0.0-6.0-2.71","","<div style=""font-size:60px;"">+</div>","null","","","","","","",""
"null","","image-keyboard-response","436","499132","0.0-6.0-0.72","","img/yellow.png","null","trial","null","true","0.2,0.8","2:nogo_b","",""
"null","","html-keyboard-response","437","500133","0.0-6.0-1.72","","<img src=""img/yellow-r.png"">","null","trial","null","","0.2,0.8","2:nogo_b","1",""
"null","","html-keyboard-response","438","501134","0.0-6.0-2.72","","<div style=""font-size:60px;"">+</div>","null","","","","","","",""
"null","","image-keyboard-response","439","502635","0.0-6.0-0.73","","img/blue.png","null","trial","null","true","0.2,0.8","4:nogo_d","",""
"null","","html-keyboard-response","440","503637","0.0-6.0-1.73","","<img src=""img/blue-r.png"">","null","trial","null","","0.2,0.8","4:nogo_d","1",""
"null","","html-keyboard-response","441","504638","0.0-6.0-2.73","","<div style=""font-size:60px;"">+</div>","null","","","","","","",""
"null","","image-keyboard-response","442","506140","0.0-6.0-0.74","","img/orange.png","null","trial","32","false","0.8,0.2","1:go_a","",""
"null","","html-keyboard-response","443","507141","0.0-6.0-1.74","","<img src=""img/orange-n.png"">","null","trial","32","","0.8,0.2","1:go_a","0",""
"null","","html-keyboard-response","444","508143","0.0-6.0-2.74","","<div style=""font-size:60px;"">+</div>","null","","","","","","",""
"null","","image-keyboard-response","445","509644","0.0-6.0-0.75","","img/purple.png","null","trial","32","false","0.8,0.2","3:go_c","",""
"null","","html-keyboard-response","446","510645","0.0-6.0-1.75","","<img src=""img/purple-n.png"">","null","trial","32","","0.8,0.2","3:go_c","0",""
"null","","html-keyboard-response","447","511646","0.0-6.0-2.75","","<div style=""font-size:60px;"">+</div>","null","","","","","","",""
"648.9949999959208","","image-keyboard-response","448","512296","0.0-6.0-0.76","","img/purple.png","32","trial","32","true","0.8,0.2","3:go_c","",""
"null","","html-keyboard-response","449","513298","0.0-6.0-1.76","","<img src=""img/purple-r.png"" border=""10"">","null","trial","32","","0.8,0.2","3:go_c","1",""
"null","","html-keyboard-response","450","514299","0.0-6.0-2.76","","<div style=""font-size:60px;"">+</div>","null","","","","","","",""
"null","","image-keyboard-response","451","515801","0.0-6.0-0.77","","img/blue.png","null","trial","null","true","0.2,0.8","4:nogo_d","",""
"null","","html-keyboard-response","452","516804","0.0-6.0-1.77","","<img src=""img/blue-r.png"">","null","trial","null","","0.2,0.8","4:nogo_d","1",""
"null","","html-keyboard-response","453","517805","0.0-6.0-2.77","","<div style=""font-size:60px;"">+</div>","null","","","","","","",""
"null","","image-keyboard-response","454","519307","0.0-6.0-0.78","","img/orange.png","null","trial","32","false","0.8,0.2","1:go_a","",""
"null","","html-keyboard-response","455","520309","0.0-6.0-1.78","","<img src=""img/orange-r.png"">","null","trial","32","","0.8,0.2","1:go_a","1",""
"null","","html-keyboard-response","456","521311","0.0-6.0-2.78","","<div style=""font-size:60px;"">+</div>","null","","","","","","",""
"null","","image-keyboard-response","457","522812","0.0-6.0-0.79","","img/yellow.png","null","trial","null","true","0.2,0.8","2:nogo_b","",""
"null","","html-keyboard-response","458","523813","0.0-6.0-1.79","","<img src=""img/yellow-r.png"">","null","trial","null","","0.2,0.8","2:nogo_b","1",""
"null","","html-keyboard-response","459","524815","0.0-6.0-2.79","","<div style=""font-size:60px;"">+</div>","null","","","","","","",""
"null","","image-keyboard-response","460","526317","0.0-6.0-0.80","","img/yellow.png","null","trial","null","true","0.2,0.8","2:nogo_b","",""
"null","","html-keyboard-response","461","527318","0.0-6.0-1.80","","<img src=""img/yellow-r.png"">","null","trial","null","","0.2,0.8","2:nogo_b","1",""
"null","","html-keyboard-response","462","528320","0.0-6.0-2.80","","<div style=""font-size:60px;"">+</div>","null","","","","","","",""
"null","","image-keyboard-response","463","529822","0.0-6.0-0.81","","img/blue.png","null","trial","null","true","0.2,0.8","4:nogo_d","",""
"null","","html-keyboard-response","464","530823","0.0-6.0-1.81","","<img src=""img/blue-n.png"">","null","trial","null","","0.2,0.8","4:nogo_d","0",""
"null","","html-keyboard-response","465","531824","0.0-6.0-2.81","","<div style=""font-size:60px;"">+</div>","null","","","","","","",""
"785.5250000138767","","image-keyboard-response","466","532610","0.0-6.0-0.82","","img/purple.png","32","trial","32","true","0.8,0.2","3:go_c","",""
"null","","html-keyboard-response","467","533612","0.0-6.0-1.82","","<img src=""img/purple-r.png"" border=""10"">","null","trial","32","","0.8,0.2","3:go_c","1",""
"null","","html-keyboard-response","468","534613","0.0-6.0-2.82","","<div style=""font-size:60px;"">+</div>","null","","","","","","",""
"null","","image-keyboard-response","469","536115","0.0-6.0-0.83","","img/orange.png","null","trial","32","false","0.8,0.2","1:go_a","",""
"null","","html-keyboard-response","470","537116","0.0-6.0-1.83","","<img src=""img/orange-n.png"">","null","trial","32","","0.8,0.2","1:go_a","0",""
"null","","html-keyboard-response","471","538118","0.0-6.0-2.83","","<div style=""font-size:60px;"">+</div>","null","","","","","","",""
"null","","image-keyboard-response","472","539620","0.0-6.0-0.84","","img/yellow.png","null","trial","null","true","0.2,0.8","2:nogo_b","",""
"null","","html-keyboard-response","473","540621","0.0-6.0-1.84","","<img src=""img/yellow-r.png"">","null","trial","null","","0.2,0.8","2:nogo_b","1",""
"null","","html-keyboard-response","474","541622","0.0-6.0-2.84","","<div style=""font-size:60px;"">+</div>","null","","","","","","",""
"null","","image-keyboard-response","475","543124","0.0-6.0-0.85","","img/purple.png","null","trial","32","false","0.8,0.2","3:go_c","",""
"null","","html-keyboard-response","476","544126","0.0-6.0-1.85","","<img src=""img/purple-n.png"">","null","trial","32","","0.8,0.2","3:go_c","0",""
"null","","html-keyboard-response","477","545127","0.0-6.0-2.85","","<div style=""font-size:60px;"">+</div>","null","","","","","","",""
"null","","image-keyboard-response","478","546629","0.0-6.0-0.86","","img/blue.png","null","trial","null","true","0.2,0.8","4:nogo_d","",""
"null","","html-keyboard-response","479","547630","0.0-6.0-1.86","","<img src=""img/blue-r.png"">","null","trial","null","","0.2,0.8","4:nogo_d","1",""
"null","","html-keyboard-response","480","548631","0.0-6.0-2.86","","<div style=""font-size:60px;"">+</div>","null","","","","","","",""
"1232.6049999974202","","image-keyboard-response","481","549864","0.0-6.0-0.87","","img/orange.png","32","trial","32","true","0.8,0.2","1:go_a","",""
"null","","html-keyboard-response","482","550865","0.0-6.0-1.87","","<img src=""img/orange-r.png"" border=""10"">","null","trial","32","","0.8,0.2","1:go_a","1",""
"null","","html-keyboard-response","483","551867","0.0-6.0-2.87","","<div style=""font-size:60px;"">+</div>","null","","","","","","",""
"null","","image-keyboard-response","484","553369","0.0-6.0-0.88","","img/orange.png","null","trial","32","false","0.8,0.2","1:go_a","",""
"null","","html-keyboard-response","485","554371","0.0-6.0-1.88","","<img src=""img/orange-n.png"">","null","trial","32","","0.8,0.2","1:go_a","0",""
"null","","html-keyboard-response","486","555372","0.0-6.0-2.88","","<div style=""font-size:60px;"">+</div>","null","","","","","","",""
"null","","image-keyboard-response","487","556874","0.0-6.0-0.89","","img/blue.png","null","trial","null","true","0.2,0.8","4:nogo_d","",""
"null","","html-keyboard-response","488","557877","0.0-6.0-1.89","","<img src=""img/blue-n.png"">","null","trial","null","","0.2,0.8","4:nogo_d","0",""
"null","","html-keyboard-response","489","558878","0.0-6.0-2.89","","<div style=""font-size:60px;"">+</div>","null","","","","","","",""
"null","","image-keyboard-response","490","560379","0.0-6.0-0.90","","img/purple.png","null","trial","32","false","0.8,0.2","3:go_c","",""
"null","","html-keyboard-response","491","561381","0.0-6.0-1.90","","<img src=""img/purple-n.png"">","null","trial","32","","0.8,0.2","3:go_c","0",""
"null","","html-keyboard-response","492","562383","0.0-6.0-2.90","","<div style=""font-size:60px;"">+</div>","null","","","","","","",""
"null","","image-keyboard-response","493","563885","0.0-6.0-0.91","","img/yellow.png","null","trial","null","true","0.2,0.8","2:nogo_b","",""
"null","","html-keyboard-response","494","564887","0.0-6.0-1.91","","<img src=""img/yellow-n.png"">","null","trial","null","","0.2,0.8","2:nogo_b","0",""
"null","","html-keyboard-response","495","565888","0.0-6.0-2.91","","<div style=""font-size:60px;"">+</div>","null","","","","","","",""
"591.8050000036601","","image-keyboard-response","496","566481","0.0-6.0-0.92","","img/yellow.png","32","trial","null","false","0.2,0.8","2:nogo_b","",""
"null","","html-keyboard-response","497","567483","0.0-6.0-1.92","","<img src=""img/yellow-n.png"" border=""10"">","null","trial","null","","0.2,0.8","2:nogo_b","0",""
"null","","html-keyboard-response","498","568484","0.0-6.0-2.92","","<div style=""font-size:60px;"">+</div>","null","","","","","","",""
"null","","image-keyboard-response","499","569986","0.0-6.0-0.93","","img/orange.png","null","trial","32","false","0.8,0.2","1:go_a","",""
"null","","html-keyboard-response","500","570988","0.0-6.0-1.93","","<img src=""img/orange-n.png"">","null","trial","32","","0.8,0.2","1:go_a","0",""
"null","","html-keyboard-response","501","571989","0.0-6.0-2.93","","<div style=""font-size:60px;"">+</div>","null","","","","","","",""
"null","","image-keyboard-response","502","573491","0.0-6.0-0.94","","img/purple.png","null","trial","32","false","0.8,0.2","3:go_c","",""
"null","","html-keyboard-response","503","574493","0.0-6.0-1.94","","<img src=""img/purple-n.png"">","null","trial","32","","0.8,0.2","3:go_c","0",""
"null","","html-keyboard-response","504","575495","0.0-6.0-2.94","","<div style=""font-size:60px;"">+</div>","null","","","","","","",""
"null","","image-keyboard-response","505","576997","0.0-6.0-0.95","","img/blue.png","null","trial","null","true","0.2,0.8","4:nogo_d","",""
"null","","html-keyboard-response","506","577998","0.0-6.0-1.95","","<img src=""img/blue-r.png"">","null","trial","null","","0.2,0.8","4:nogo_d","1",""
"null","","html-keyboard-response","507","578999","0.0-6.0-2.95","","<div style=""font-size:60px;"">+</div>","null","","","","","","",""
"null","","image-keyboard-response","508","580500","0.0-6.0-0.96","","img/yellow.png","null","trial","null","true","0.2,0.8","2:nogo_b","",""
"null","","html-keyboard-response","509","581503","0.0-6.0-1.96","","<img src=""img/yellow-r.png"">","null","trial","null","","0.2,0.8","2:nogo_b","1",""
"null","","html-keyboard-response","510","582504","0.0-6.0-2.96","","<div style=""font-size:60px;"">+</div>","null","","","","","","",""
"null","","image-keyboard-response","511","584006","0.0-6.0-0.97","","img/orange.png","null","trial","32","false","0.8,0.2","1:go_a","",""
"null","","html-keyboard-response","512","585007","0.0-6.0-1.97","","<img src=""img/orange-n.png"">","null","trial","32","","0.8,0.2","1:go_a","0",""
"null","","html-keyboard-response","513","586009","0.0-6.0-2.97","","<div style=""font-size:60px;"">+</div>","null","","","","","","",""
"null","","image-keyboard-response","514","587511","0.0-6.0-0.98","","img/blue.png","null","trial","null","true","0.2,0.8","4:nogo_d","",""
"null","","html-keyboard-response","515","588513","0.0-6.0-1.98","","<img src=""img/blue-r.png"">","null","trial","null","","0.2,0.8","4:nogo_d","1",""
"null","","html-keyboard-response","516","589514","0.0-6.0-2.98","","<div style=""font-size:60px;"">+</div>","null","","","","","","",""
"null","","image-keyboard-response","517","591016","0.0-6.0-0.99","","img/purple.png","null","trial","32","false","0.8,0.2","3:go_c","",""
"null","","html-keyboard-response","518","592017","0.0-6.0-1.99","","<img src=""img/purple-n.png"">","null","trial","32","","0.8,0.2","3:go_c","0",""
"null","","html-keyboard-response","519","593019","0.0-6.0-2.99","","<div style=""font-size:60px;"">+</div>","null","","","","","","",""
"null","","image-keyboard-response","520","594521","0.0-6.0-0.100","","img/orange.png","null","trial","32","false","0.8,0.2","1:go_a","",""
"null","","html-keyboard-response","521","595522","0.0-6.0-1.100","","<img src=""img/orange-n.png"">","null","trial","32","","0.8,0.2","1:go_a","0",""
"null","","html-keyboard-response","522","596523","0.0-6.0-2.100","","<div style=""font-size:60px;"">+</div>","null","","","","","","",""
"1303.955000010319","","image-keyboard-response","523","597828","0.0-6.0-0.101","","img/yellow.png","32","trial","null","false","0.2,0.8","2:nogo_b","",""
"null","","html-keyboard-response","524","598829","0.0-6.0-1.101","","<img src=""img/yellow-r.png"" border=""10"">","null","trial","null","","0.2,0.8","2:nogo_b","1",""
"null","","html-keyboard-response","525","599831","0.0-6.0-2.101","","<div style=""font-size:60px;"">+</div>","null","","","","","","",""
"null","","image-keyboard-response","526","601333","0.0-6.0-0.102","","img/purple.png","null","trial","32","false","0.8,0.2","3:go_c","",""
"null","","html-keyboard-response","527","602334","0.0-6.0-1.102","","<img src=""img/purple-n.png"">","null","trial","32","","0.8,0.2","3:go_c","0",""
"null","","html-keyboard-response","528","603335","0.0-6.0-2.102","","<div style=""font-size:60px;"">+</div>","null","","","","","","",""
"541.6949999926146","","image-keyboard-response","529","603877","0.0-6.0-0.103","","img/blue.png","32","trial","null","false","0.2,0.8","4:nogo_d","",""
"null","","html-keyboard-response","530","604879","0.0-6.0-1.103","","<img src=""img/blue-n.png"" border=""10"">","null","trial","null","","0.2,0.8","4:nogo_d","0",""
"null","","html-keyboard-response","531","605880","0.0-6.0-2.103","","<div style=""font-size:60px;"">+</div>","null","","","","","","",""
"null","","image-keyboard-response","532","607382","0.0-6.0-0.104","","img/blue.png","null","trial","null","true","0.2,0.8","4:nogo_d","",""
"null","","html-keyboard-response","533","608384","0.0-6.0-1.104","","<img src=""img/blue-r.png"">","null","trial","null","","0.2,0.8","4:nogo_d","1",""
"null","","html-keyboard-response","534","609385","0.0-6.0-2.104","","<div style=""font-size:60px;"">+</div>","null","","","","","","",""
"null","","image-keyboard-response","535","610887","0.0-6.0-0.105","","img/orange.png","null","trial","32","false","0.8,0.2","1:go_a","",""
"null","","html-keyboard-response","536","611889","0.0-6.0-1.105","","<img src=""img/orange-n.png"">","null","trial","32","","0.8,0.2","1:go_a","0",""
"null","","html-keyboard-response","537","612891","0.0-6.0-2.105","","<div style=""font-size:60px;"">+</div>","null","","","","","","",""
"null","","image-keyboard-response","538","614393","0.0-6.0-0.106","","img/yellow.png","null","trial","null","true","0.2,0.8","2:nogo_b","",""
"null","","html-keyboard-response","539","615395","0.0-6.0-1.106","","<img src=""img/yellow-r.png"">","null","trial","null","","0.2,0.8","2:nogo_b","1",""
"null","","html-keyboard-response","540","616396","0.0-6.0-2.106","","<div style=""font-size:60px;"">+</div>","null","","","","","","",""
"null","","image-keyboard-response","541","617897","0.0-6.0-0.107","","img/purple.png","null","trial","32","false","0.8,0.2","3:go_c","",""
"null","","html-keyboard-response","542","618900","0.0-6.0-1.107","","<img src=""img/purple-n.png"">","null","trial","32","","0.8,0.2","3:go_c","0",""
"null","","html-keyboard-response","543","619901","0.0-6.0-2.107","","<div style=""font-size:60px;"">+</div>","null","","","","","","",""
"null","","image-keyboard-response","544","621403","0.0-6.0-0.108","","img/orange.png","null","trial","32","false","0.8,0.2","1:go_a","",""
"null","","html-keyboard-response","545","622404","0.0-6.0-1.108","","<img src=""img/orange-n.png"">","null","trial","32","","0.8,0.2","1:go_a","0",""
"null","","html-keyboard-response","546","623406","0.0-6.0-2.108","","<div style=""font-size:60px;"">+</div>","null","","","","","","",""
"null","","image-keyboard-response","547","624908","0.0-6.0-0.109","","img/blue.png","null","trial","null","true","0.2,0.8","4:nogo_d","",""
"null","","html-keyboard-response","548","625909","0.0-6.0-1.109","","<img src=""img/blue-n.png"">","null","trial","null","","0.2,0.8","4:nogo_d","0",""
"null","","html-keyboard-response","549","626910","0.0-6.0-2.109","","<div style=""font-size:60px;"">+</div>","null","","","","","","",""
"null","","image-keyboard-response","550","628412","0.0-6.0-0.110","","img/yellow.png","null","trial","null","true","0.2,0.8","2:nogo_b","",""
"null","","html-keyboard-response","551","629415","0.0-6.0-1.110","","<img src=""img/yellow-n.png"">","null","trial","null","","0.2,0.8","2:nogo_b","0",""
"null","","html-keyboard-response","552","630416","0.0-6.0-2.110","","<div style=""font-size:60px;"">+</div>","null","","","","","","",""
"null","","image-keyboard-response","553","631917","0.0-6.0-0.111","","img/purple.png","null","trial","32","false","0.8,0.2","3:go_c","",""
"null","","html-keyboard-response","554","632919","0.0-6.0-1.111","","<img src=""img/purple-n.png"">","null","trial","32","","0.8,0.2","3:go_c","0",""
"null","","html-keyboard-response","555","633921","0.0-6.0-2.111","","<div style=""font-size:60px;"">+</div>","null","","","","","","",""
"null","","image-keyboard-response","556","635422","0.0-6.0-0.112","","img/blue.png","null","trial","null","true","0.2,0.8","4:nogo_d","",""
"null","","html-keyboard-response","557","636424","0.0-6.0-1.112","","<img src=""img/blue-r.png"">","null","trial","null","","0.2,0.8","4:nogo_d","1",""
"null","","html-keyboard-response","558","637426","0.0-6.0-2.112","","<div style=""font-size:60px;"">+</div>","null","","","","","","",""
"null","","image-keyboard-response","559","638928","0.0-6.0-0.113","","img/yellow.png","null","trial","null","true","0.2,0.8","2:nogo_b","",""
"null","","html-keyboard-response","560","639929","0.0-6.0-1.113","","<img src=""img/yellow-r.png"">","null","trial","null","","0.2,0.8","2:nogo_b","1",""
"null","","html-keyboard-response","561","640931","0.0-6.0-2.113","","<div style=""font-size:60px;"">+</div>","null","","","","","","",""
"null","","image-keyboard-response","562","642433","0.0-6.0-0.114","","img/orange.png","null","trial","32","false","0.8,0.2","1:go_a","",""
"null","","html-keyboard-response","563","643434","0.0-6.0-1.114","","<img src=""img/orange-n.png"">","null","trial","32","","0.8,0.2","1:go_a","0",""
"null","","html-keyboard-response","564","644435","0.0-6.0-2.114","","<div style=""font-size:60px;"">+</div>","null","","","","","","",""
"null","","image-keyboard-response","565","645937","0.0-6.0-0.115","","img/purple.png","null","trial","32","false","0.8,0.2","3:go_c","",""
"null","","html-keyboard-response","566","646939","0.0-6.0-1.115","","<img src=""img/purple-n.png"">","null","trial","32","","0.8,0.2","3:go_c","0",""
"null","","html-keyboard-response","567","647940","0.0-6.0-2.115","","<div style=""font-size:60px;"">+</div>","null","","","","","","",""
"null","","image-keyboard-response","568","649442","0.0-6.0-0.116","","img/purple.png","null","trial","32","false","0.8,0.2","3:go_c","",""
"null","","html-keyboard-response","569","650444","0.0-6.0-1.116","","<img src=""img/purple-r.png"">","null","trial","32","","0.8,0.2","3:go_c","1",""
"null","","html-keyboard-response","570","651446","0.0-6.0-2.116","","<div style=""font-size:60px;"">+</div>","null","","","","","","",""
"null","","image-keyboard-response","571","652947","0.0-6.0-0.117","","img/yellow.png","null","trial","null","true","0.2,0.8","2:nogo_b","",""
"null","","html-keyboard-response","572","653948","0.0-6.0-1.117","","<img src=""img/yellow-r.png"">","null","trial","null","","0.2,0.8","2:nogo_b","1",""
"null","","html-keyboard-response","573","654949","0.0-6.0-2.117","","<div style=""font-size:60px;"">+</div>","null","","","","","","",""
"null","","image-keyboard-response","574","656451","0.0-6.0-0.118","","img/blue.png","null","trial","null","true","0.2,0.8","4:nogo_d","",""
"null","","html-keyboard-response","575","657454","0.0-6.0-1.118","","<img src=""img/blue-n.png"">","null","trial","null","","0.2,0.8","4:nogo_d","0",""
"null","","html-keyboard-response","576","658456","0.0-6.0-2.118","","<div style=""font-size:60px;"">+</div>","null","","","","","","",""
"null","","image-keyboard-response","577","659958","0.0-6.0-0.119","","img/orange.png","null","trial","32","false","0.8,0.2","1:go_a","",""
"null","","html-keyboard-response","578","660959","0.0-6.0-1.119","","<img src=""img/orange-n.png"">","null","trial","32","","0.8,0.2","1:go_a","0",""
"null","","html-keyboard-response","579","661960","0.0-6.0-2.119","","<div style=""font-size:60px;"">+</div>","null","","","","","","",""
"5628.954999992857","","instructions","580","667590","0.0-7.0","[{""page_index"":0,""viewing_time"":5628.7999999767635}]","","","","","","","","",""
"null","","image-keyboard-response","581","669093","0.0-8.0-0.0","","img/yellow.png","null","trial","32","false","0.6,0.4","3:go_c","",""
"null","","html-keyboard-response","582","670095","0.0-8.0-1.0","","<img src=""img/yellow-r.png"">","null","trial","32","","0.6,0.4","3:go_c","1",""
"null","","html-keyboard-response","583","671096","0.0-8.0-2.0","","<div style=""font-size:60px;"">+</div>","null","","","","","","",""
"1259.39500000095","","image-keyboard-response","584","672356","0.0-8.0-0.1","","img/orange.png","32","trial","32","true","0.8,0.2","1:go_a","",""
"null","","html-keyboard-response","585","673357","0.0-8.0-1.1","","<img src=""img/orange-r.png"" border=""10"">","null","trial","32","","0.8,0.2","1:go_a","1",""
"null","","html-keyboard-response","586","674359","0.0-8.0-2.1","","<div style=""font-size:60px;"">+</div>","null","","","","","","",""
"null","","image-keyboard-response","587","675861","0.0-8.0-0.2","","img/purple.png","null","trial","null","true","0.4,0.6","4:nogo_d","",""
"null","","html-keyboard-response","588","676863","0.0-8.0-1.2","","<img src=""img/purple-r.png"">","null","trial","null","","0.4,0.6","4:nogo_d","1",""
"null","","html-keyboard-response","589","677864","0.0-8.0-2.2","","<div style=""font-size:60px;"">+</div>","null","","","","","","",""
"379.3450000230223","","image-keyboard-response","590","678244","0.0-8.0-0.3","","img/red.png","32","trial","null","false","0.2,0.8","2:nogo_b","",""
"null","","html-keyboard-response","591","679245","0.0-8.0-1.3","","<img src=""img/red-r.png"" border=""10"">","null","trial","null","","0.2,0.8","2:nogo_b","1",""
"null","","html-keyboard-response","592","680247","0.0-8.0-2.3","","<div style=""font-size:60px;"">+</div>","null","","","","","","",""
"444.67000002623536","","image-keyboard-response","593","680692","0.0-8.0-0.4","","img/purple.png","32","trial","null","false","0.4,0.6","4:nogo_d","",""
"null","","html-keyboard-response","594","681694","0.0-8.0-1.4","","<img src=""img/purple-n.png"" border=""10"">","null","trial","null","","0.4,0.6","4:nogo_d","0",""
"null","","html-keyboard-response","595","682696","0.0-8.0-2.4","","<div style=""font-size:60px;"">+</div>","null","","","","","","",""
"574.2500000051223","","image-keyboard-response","596","683271","0.0-8.0-0.5","","img/orange.png","32","trial","32","true","0.8,0.2","1:go_a","",""
"null","","html-keyboard-response","597","684273","0.0-8.0-1.5","","<img src=""img/orange-n.png"" border=""10"">","null","trial","32","","0.8,0.2","1:go_a","0",""
"null","","html-keyboard-response","598","685274","0.0-8.0-2.5","","<div style=""font-size:60px;"">+</div>","null","","","","","","",""
"null","","image-keyboard-response","599","686776","0.0-8.0-0.6","","img/yellow.png","null","trial","32","false","0.6,0.4","3:go_c","",""
"null","","html-keyboard-response","600","687778","0.0-8.0-1.6","","<img src=""img/yellow-n.png"">","null","trial","32","","0.6,0.4","3:go_c","0",""
"null","","html-keyboard-response","601","688779","0.0-8.0-2.6","","<div style=""font-size:60px;"">+</div>","null","","","","","","",""
"720.5200000025798","","image-keyboard-response","602","689500","0.0-8.0-0.7","","img/red.png","32","trial","null","false","0.2,0.8","2:nogo_b","",""
"null","","html-keyboard-response","603","690503","0.0-8.0-1.7","","<img src=""img/red-n.png"" border=""10"">","null","trial","null","","0.2,0.8","2:nogo_b","0",""
"null","","html-keyboard-response","604","691504","0.0-8.0-2.7","","<div style=""font-size:60px;"">+</div>","null","","","","","","",""
"905.8350000123028","","image-keyboard-response","605","692410","0.0-8.0-0.8","","img/yellow.png","32","trial","32","true","0.6,0.4","3:go_c","",""
"null","","html-keyboard-response","606","693412","0.0-8.0-1.8","","<img src=""img/yellow-r.png"" border=""10"">","null","trial","32","","0.6,0.4","3:go_c","1",""
"null","","html-keyboard-response","607","694413","0.0-8.0-2.8","","<div style=""font-size:60px;"">+</div>","null","","","","","","",""
"null","","image-keyboard-response","608","695915","0.0-8.0-0.9","","img/orange.png","null","trial","32","false","0.8,0.2","1:go_a","",""
"null","","html-keyboard-response","609","696917","0.0-8.0-1.9","","<img src=""img/orange-n.png"">","null","trial","32","","0.8,0.2","1:go_a","0",""
"null","","html-keyboard-response","610","697919","0.0-8.0-2.9","","<div style=""font-size:60px;"">+</div>","null","","","","","","",""
"334.9900000030175","","image-keyboard-response","611","698254","0.0-8.0-0.10","","img/red.png","32","trial","null","false","0.2,0.8","2:nogo_b","",""
"null","","html-keyboard-response","612","699256","0.0-8.0-1.10","","<img src=""img/red-n.png"" border=""10"">","null","trial","null","","0.2,0.8","2:nogo_b","0",""
"null","","html-keyboard-response","613","700257","0.0-8.0-2.10","","<div style=""font-size:60px;"">+</div>","null","","","","","","",""
"null","","image-keyboard-response","614","701759","0.0-8.0-0.11","","img/purple.png","null","trial","null","true","0.4,0.6","4:nogo_d","",""
"null","","html-keyboard-response","615","702761","0.0-8.0-1.11","","<img src=""img/purple-n.png"">","null","trial","null","","0.4,0.6","4:nogo_d","0",""
"null","","html-keyboard-response","616","703762","0.0-8.0-2.11","","<div style=""font-size:60px;"">+</div>","null","","","","","","",""
"null","","image-keyboard-response","617","705263","0.0-8.0-0.12","","img/purple.png","null","trial","null","true","0.4,0.6","4:nogo_d","",""
"null","","html-keyboard-response","618","706266","0.0-8.0-1.12","","<img src=""img/purple-r.png"">","null","trial","null","","0.4,0.6","4:nogo_d","1",""
"null","","html-keyboard-response","619","707267","0.0-8.0-2.12","","<div style=""font-size:60px;"">+</div>","null","","","","","","",""
"398.4249999921303","","image-keyboard-response","620","707666","0.0-8.0-0.13","","img/yellow.png","32","trial","32","true","0.6,0.4","3:go_c","",""
"null","","html-keyboard-response","621","708667","0.0-8.0-1.13","","<img src=""img/yellow-r.png"" border=""10"">","null","trial","32","","0.6,0.4","3:go_c","1",""
"null","","html-keyboard-response","622","709668","0.0-8.0-2.13","","<div style=""font-size:60px;"">+</div>","null","","","","","","",""
"null","","image-keyboard-response","623","711170","0.0-8.0-0.14","","img/red.png","null","trial","null","true","0.2,0.8","2:nogo_b","",""
"null","","html-keyboard-response","624","712172","0.0-8.0-1.14","","<img src=""img/red-n.png"">","null","trial","null","","0.2,0.8","2:nogo_b","0",""
"null","","html-keyboard-response","625","713173","0.0-8.0-2.14","","<div style=""font-size:60px;"">+</div>","null","","","","","","",""
"null","","image-keyboard-response","626","714675","0.0-8.0-0.15","","img/orange.png","null","trial","32","false","0.8,0.2","1:go_a","",""
"null","","html-keyboard-response","627","715677","0.0-8.0-1.15","","<img src=""img/orange-n.png"">","null","trial","32","","0.8,0.2","1:go_a","0",""
"null","","html-keyboard-response","628","716679","0.0-8.0-2.15","","<div style=""font-size:60px;"">+</div>","null","","","","","","",""
"null","","image-keyboard-response","629","718181","0.0-8.0-0.16","","img/purple.png","null","trial","null","true","0.4,0.6","4:nogo_d","",""
"null","","html-keyboard-response","630","719182","0.0-8.0-1.16","","<img src=""img/purple-r.png"">","null","trial","null","","0.4,0.6","4:nogo_d","1",""
"null","","html-keyboard-response","631","720183","0.0-8.0-2.16","","<div style=""font-size:60px;"">+</div>","null","","","","","","",""
"null","","image-keyboard-response","632","721685","0.0-8.0-0.17","","img/orange.png","null","trial","32","false","0.8,0.2","1:go_a","",""
"null","","html-keyboard-response","633","722688","0.0-8.0-1.17","","<img src=""img/orange-n.png"">","null","trial","32","","0.8,0.2","1:go_a","0",""
"null","","html-keyboard-response","634","723689","0.0-8.0-2.17","","<div style=""font-size:60px;"">+</div>","null","","","","","","",""
"700.7699999958277","","image-keyboard-response","635","724390","0.0-8.0-0.18","","img/yellow.png","32","trial","32","true","0.6,0.4","3:go_c","",""
"null","","html-keyboard-response","636","725392","0.0-8.0-1.18","","<img src=""img/yellow-n.png"" border=""10"">","null","trial","32","","0.6,0.4","3:go_c","0",""
"null","","html-keyboard-response","637","726394","0.0-8.0-2.18","","<div style=""font-size:60px;"">+</div>","null","","","","","","",""
"null","","image-keyboard-response","638","727896","0.0-8.0-0.19","","img/red.png","null","trial","null","true","0.2,0.8","2:nogo_b","",""
"null","","html-keyboard-response","639","728897","0.0-8.0-1.19","","<img src=""img/red-n.png"">","null","trial","null","","0.2,0.8","2:nogo_b","0",""
"null","","html-keyboard-response","640","729898","0.0-8.0-2.19","","<div style=""font-size:60px;"">+</div>","null","","","","","","",""
"null","","image-keyboard-response","641","731400","0.0-8.0-0.20","","img/yellow.png","null","trial","32","false","0.6,0.4","3:go_c","",""
"null","","html-keyboard-response","642","732403","0.0-8.0-1.20","","<img src=""img/yellow-r.png"">","null","trial","32","","0.6,0.4","3:go_c","1",""
"null","","html-keyboard-response","643","733404","0.0-8.0-2.20","","<div style=""font-size:60px;"">+</div>","null","","","","","","",""
"null","","image-keyboard-response","644","734905","0.0-8.0-0.21","","img/orange.png","null","trial","32","false","0.8,0.2","1:go_a","",""
"null","","html-keyboard-response","645","735907","0.0-8.0-1.21","","<img src=""img/orange-n.png"">","null","trial","32","","0.8,0.2","1:go_a","0",""
"null","","html-keyboard-response","646","736909","0.0-8.0-2.21","","<div style=""font-size:60px;"">+</div>","null","","","","","","",""
"790.1850000198465","","image-keyboard-response","647","737699","0.0-8.0-0.22","","img/red.png","32","trial","null","false","0.2,0.8","2:nogo_b","",""
"null","","html-keyboard-response","648","738701","0.0-8.0-1.22","","<img src=""img/red-r.png"" border=""10"">","null","trial","null","","0.2,0.8","2:nogo_b","1",""
"null","","html-keyboard-response","649","739703","0.0-8.0-2.22","","<div style=""font-size:60px;"">+</div>","null","","","","","","",""
"null","","image-keyboard-response","650","741205","0.0-8.0-0.23","","img/purple.png","null","trial","null","true","0.4,0.6","4:nogo_d","",""
"null","","html-keyboard-response","651","742206","0.0-8.0-1.23","","<img src=""img/purple-n.png"">","null","trial","null","","0.4,0.6","4:nogo_d","0",""
"null","","html-keyboard-response","652","743208","0.0-8.0-2.23","","<div style=""font-size:60px;"">+</div>","null","","","","","","",""
"1372.7599999983795","","image-keyboard-response","653","744581","0.0-8.0-0.24","","img/orange.png","32","trial","32","true","0.8,0.2","1:go_a","",""
"null","","html-keyboard-response","654","745583","0.0-8.0-1.24","","<img src=""img/orange-r.png"" border=""10"">","null","trial","32","","0.8,0.2","1:go_a","1",""
"null","","html-keyboard-response","655","746585","0.0-8.0-2.24","","<div style=""font-size:60px;"">+</div>","null","","","","","","",""
"null","","image-keyboard-response","656","748087","0.0-8.0-0.25","","img/yellow.png","null","trial","32","false","0.6,0.4","3:go_c","",""
"null","","html-keyboard-response","657","749089","0.0-8.0-1.25","","<img src=""img/yellow-n.png"">","null","trial","32","","0.6,0.4","3:go_c","0",""
"null","","html-keyboard-response","658","750090","0.0-8.0-2.25","","<div style=""font-size:60px;"">+</div>","null","","","","","","",""
"399.81500001158565","","image-keyboard-response","659","750491","0.0-8.0-0.26","","img/red.png","32","trial","null","false","0.2,0.8","2:nogo_b","",""
"null","","html-keyboard-response","660","751493","0.0-8.0-1.26","","<img src=""img/red-r.png"" border=""10"">","null","trial","null","","0.2,0.8","2:nogo_b","1",""
"null","","html-keyboard-response","661","752494","0.0-8.0-2.26","","<div style=""font-size:60px;"">+</div>","null","","","","","","",""
"null","","image-keyboard-response","662","753996","0.0-8.0-0.27","","img/purple.png","null","trial","null","true","0.4,0.6","4:nogo_d","",""
"null","","html-keyboard-response","663","754997","0.0-8.0-1.27","","<img src=""img/purple-r.png"">","null","trial","null","","0.4,0.6","4:nogo_d","1",""
"null","","html-keyboard-response","664","755999","0.0-8.0-2.27","","<div style=""font-size:60px;"">+</div>","null","","","","","","",""
"417.9199999780394","","image-keyboard-response","665","756417","0.0-8.0-0.28","","img/red.png","32","trial","null","false","0.2,0.8","2:nogo_b","",""
"null","","html-keyboard-response","666","757419","0.0-8.0-1.28","","<img src=""img/red-r.png"" border=""10"">","null","trial","null","","0.2,0.8","2:nogo_b","1",""
"null","","html-keyboard-response","667","758420","0.0-8.0-2.28","","<div style=""font-size:60px;"">+</div>","null","","","","","","",""
"null","","image-keyboard-response","668","759922","0.0-8.0-0.29","","img/purple.png","null","trial","null","true","0.4,0.6","4:nogo_d","",""
"null","","html-keyboard-response","669","760923","0.0-8.0-1.29","","<img src=""img/purple-r.png"">","null","trial","null","","0.4,0.6","4:nogo_d","1",""
"null","","html-keyboard-response","670","761925","0.0-8.0-2.29","","<div style=""font-size:60px;"">+</div>","null","","","","","","",""
"360.58999999659136","","image-keyboard-response","671","762286","0.0-8.0-0.30","","img/yellow.png","32","trial","32","true","0.6,0.4","3:go_c","",""
"null","","html-keyboard-response","672","763287","0.0-8.0-1.30","","<img src=""img/yellow-n.png"" border=""10"">","null","trial","32","","0.6,0.4","3:go_c","0",""
"null","","html-keyboard-response","673","764289","0.0-8.0-2.30","","<div style=""font-size:60px;"">+</div>","null","","","","","","",""
"null","","image-keyboard-response","674","765791","0.0-8.0-0.31","","img/orange.png","null","trial","32","false","0.8,0.2","1:go_a","",""
"null","","html-keyboard-response","675","766793","0.0-8.0-1.31","","<img src=""img/orange-n.png"">","null","trial","32","","0.8,0.2","1:go_a","0",""
"null","","html-keyboard-response","676","767794","0.0-8.0-2.31","","<div style=""font-size:60px;"">+</div>","null","","","","","","",""
"336.0299999767449","","image-keyboard-response","677","768131","0.0-8.0-0.32","","img/purple.png","32","trial","null","false","0.4,0.6","4:nogo_d","",""
"null","","html-keyboard-response","678","769132","0.0-8.0-1.32","","<img src=""img/purple-r.png"" border=""10"">","null","trial","null","","0.4,0.6","4:nogo_d","1",""
"null","","html-keyboard-response","679","770134","0.0-8.0-2.32","","<div style=""font-size:60px;"">+</div>","null","","","","","","",""
"null","","image-keyboard-response","680","771635","0.0-8.0-0.33","","img/yellow.png","null","trial","32","false","0.6,0.4","3:go_c","",""
"null","","html-keyboard-response","681","772636","0.0-8.0-1.33","","<img src=""img/yellow-r.png"">","null","trial","32","","0.6,0.4","3:go_c","1",""
"null","","html-keyboard-response","682","773637","0.0-8.0-2.33","","<div style=""font-size:60px;"">+</div>","null","","","","","","",""
"null","","image-keyboard-response","683","775139","0.0-8.0-0.34","","img/orange.png","null","trial","32","false","0.8,0.2","1:go_a","",""
"null","","html-keyboard-response","684","776141","0.0-8.0-1.34","","<img src=""img/orange-n.png"">","null","trial","32","","0.8,0.2","1:go_a","0",""
