"rt","url","trial_type","trial_index","time_elapsed","internal_node_id","view_history","stimulus","key_press","test_part","correct_response","correct","use_rew","which_stim","reward","responses"
"12893.445000052452","consent.html","external-html","0","12962","0.0-0.0","","","","","","","","","",""
"91837.6350000035","","instructions","1","104800","0.0-1.0","[{""page_index"":0,""viewing_time"":3693.310000002384},{""page_index"":1,""viewing_time"":22246.630000066943},{""page_index"":2,""viewing_time"":7678.764999960549},{""page_index"":3,""viewing_time"":30348.069999949075},{""page_index"":4,""viewing_time"":13296.05000000447},{""page_index"":5,""viewing_time"":6238.645000034012},{""page_index"":6,""viewing_time"":8335.309999994934}]","","","","","","","","",""
"613.0099999718368","","image-keyboard-response","2","105415","0.0-2.0-0.0","","img/test1.PNG","32","practice","32","true","","","",""
"null","","html-keyboard-response","3","106417","0.0-2.0-1.0","","<img src=""img/test1-reward.PNG"" border=""10px; grey"">","null","","","","","","",""
"null","","html-keyboard-response","4","107418","0.0-2.0-2.0","","<div style=""font-size:60px;"">+</div>","null","","","","","","",""
"662.6600000308827","","image-keyboard-response","5","108082","0.0-2.0-0.1","","img/test3.PNG","32","practice","null","false","","","",""
"null","","html-keyboard-response","6","109084","0.0-2.0-1.1","","<img src=""img/test3-neutral.PNG"" border=""10px; grey"">","null","","","","","","",""
"null","","html-keyboard-response","7","110086","0.0-2.0-2.1","","<div style=""font-size:60px;"">+</div>","null","","","","","","",""
"447.45000009424984","","image-keyboard-response","8","110534","0.0-2.0-0.2","","img/test2.PNG","32","practice","null","false","","","",""
"null","","html-keyboard-response","9","111536","0.0-2.0-1.2","","<img src=""img/test2-neutral.PNG"" border=""10px; grey"">","null","","","","","","",""
"null","","html-keyboard-response","10","112538","0.0-2.0-2.2","","<div style=""font-size:60px;"">+</div>","null","","","","","","",""
"null","","image-keyboard-response","11","114039","0.0-2.0-0.3","","img/test3.PNG","null","practice","null","true","","","",""
"null","","html-keyboard-response","12","115041","0.0-2.0-1.3","","<img src=""img/test3-reward.PNG"">","null","","","","","","",""
"null","","html-keyboard-response","13","116042","0.0-2.0-2.3","","<div style=""font-size:60px;"">+</div>","null","","","","","","",""
"517.7599999587983","","image-keyboard-response","14","116562","0.0-2.0-0.4","","img/test1.PNG","32","practice","32","true","","","",""
"null","","html-keyboard-response","15","117564","0.0-2.0-1.4","","<img src=""img/test1-reward.PNG"" border=""10px; grey"">","null","","","","","","",""
"null","","html-keyboard-response","16","118564","0.0-2.0-2.4","","<div style=""font-size:60px;"">+</div>","null","","","","","","",""
"null","","image-keyboard-response","17","120066","0.0-2.0-0.5","","img/test2.PNG","null","practice","null","true","","","",""
"null","","html-keyboard-response","18","121067","0.0-2.0-1.5","","<img src=""img/test2-reward.PNG"">","null","","","","","","",""
"null","","html-keyboard-response","19","122069","0.0-2.0-2.5","","<div style=""font-size:60px;"">+</div>","null","","","","","","",""
"null","","image-keyboard-response","20","123572","0.0-2.0-0.6","","img/test3.PNG","null","practice","null","true","","","",""
"null","","html-keyboard-response","21","124574","0.0-2.0-1.6","","<img src=""img/test3-reward.PNG"">","null","","","","","","",""
"null","","html-keyboard-response","22","125575","0.0-2.0-2.6","","<div style=""font-size:60px;"">+</div>","null","","","","","","",""
"465.94000002369285","","image-keyboard-response","23","126042","0.0-2.0-0.7","","img/test1.PNG","32","practice","32","true","","","",""
"null","","html-keyboard-response","24","127043","0.0-2.0-1.7","","<img src=""img/test1-reward.PNG"" border=""10px; grey"">","null","","","","","","",""
"null","","html-keyboard-response","25","128045","0.0-2.0-2.7","","<div style=""font-size:60px;"">+</div>","null","","","","","","",""
"null","","image-keyboard-response","26","129546","0.0-2.0-0.8","","img/test2.PNG","null","practice","null","true","","","",""
"null","","html-keyboard-response","27","130548","0.0-2.0-1.8","","<img src=""img/test2-reward.PNG"">","null","","","","","","",""
"null","","html-keyboard-response","28","131549","0.0-2.0-2.8","","<div style=""font-size:60px;"">+</div>","null","","","","","","",""
"null","","image-keyboard-response","29","133050","0.0-2.0-0.9","","img/test2.PNG","null","practice","null","true","","","",""
"null","","html-keyboard-response","30","134058","0.0-2.0-1.9","","<img src=""img/test2-reward.PNG"">","null","","","","","","",""
"null","","html-keyboard-response","31","135059","0.0-2.0-2.9","","<div style=""font-size:60px;"">+</div>","null","","","","","","",""
"null","","image-keyboard-response","32","136562","0.0-2.0-0.10","","img/test3.PNG","null","practice","null","true","","","",""
"null","","html-keyboard-response","33","137563","0.0-2.0-1.10","","<img src=""img/test3-reward.PNG"">","null","","","","","","",""
"null","","html-keyboard-response","34","138564","0.0-2.0-2.10","","<div style=""font-size:60px;"">+</div>","null","","","","","","",""
"389.6199999144301","","image-keyboard-response","35","138954","0.0-2.0-0.11","","img/test1.PNG","32","practice","32","true","","","",""
"null","","html-keyboard-response","36","139956","0.0-2.0-1.11","","<img src=""img/test1-reward.PNG"" border=""10px; grey"">","null","","","","","","",""
"null","","html-keyboard-response","37","140958","0.0-2.0-2.11","","<div style=""font-size:60px;"">+</div>","null","","","","","","",""
"2399.154999991879","","instructions","38","143358","0.0-3.0","[{""page_index"":0,""viewing_time"":2398.990000016056}]","","","","","","","","",""
"726.0450000176206","","image-keyboard-response","39","144085","0.0-4.0-0.0","","img/pink.png","32","trial","32","true","0.8,0.2","1:go_a","",""
"null","","html-keyboard-response","40","145087","0.0-4.0-1.0","","<img src=""img/pink-r.png"" border=""10"">","null","trial","32","","0.8,0.2","1:go_a","1",""
"null","","html-keyboard-response","41","146088","0.0-4.0-2.0","","<div style=""font-size:60px;"">+</div>","null","","","","","","",""
"903.7550000939518","","image-keyboard-response","42","146993","0.0-4.0-0.1","","img/green.png","32","trial","null","false","0.2,0.8","2:nogo_b","",""
"null","","html-keyboard-response","43","147995","0.0-4.0-1.1","","<img src=""img/green-n.png"" border=""10"">","null","trial","null","","0.2,0.8","2:nogo_b","0",""
"null","","html-keyboard-response","44","148997","0.0-4.0-2.1","","<div style=""font-size:60px;"">+</div>","null","","","","","","",""
"879.3750000186265","","image-keyboard-response","45","149877","0.0-4.0-0.2","","img/pink.png","32","trial","32","true","0.8,0.2","1:go_a","",""
"null","","html-keyboard-response","46","150880","0.0-4.0-1.2","","<img src=""img/pink-r.png"" border=""10"">","null","trial","32","","0.8,0.2","1:go_a","1",""
"null","","html-keyboard-response","47","151885","0.0-4.0-2.2","","<div style=""font-size:60px;"">+</div>","null","","","","","","",""
"null","","image-keyboard-response","48","153387","0.0-4.0-0.3","","img/green.png","null","trial","null","true","0.2,0.8","2:nogo_b","",""
"null","","html-keyboard-response","49","154389","0.0-4.0-1.3","","<img src=""img/green-r.png"">","null","trial","null","","0.2,0.8","2:nogo_b","1",""
"null","","html-keyboard-response","50","155399","0.0-4.0-2.3","","<div style=""font-size:60px;"">+</div>","null","","","","","","",""
"null","","image-keyboard-response","51","156901","0.0-4.0-0.4","","img/green.png","null","trial","null","true","0.2,0.8","2:nogo_b","",""
"null","","html-keyboard-response","52","157916","0.0-4.0-1.4","","<img src=""img/green-r.png"">","null","trial","null","","0.2,0.8","2:nogo_b","1",""
"null","","html-keyboard-response","53","158918","0.0-4.0-2.4","","<div style=""font-size:60px;"">+</div>","null","","","","","","",""
"433.930000057444","","image-keyboard-response","54","159353","0.0-4.0-0.5","","img/pink.png","32","trial","32","true","0.8,0.2","1:go_a","",""
"null","","html-keyboard-response","55","160356","0.0-4.0-1.5","","<img src=""img/pink-r.png"" border=""10"">","null","trial","32","","0.8,0.2","1:go_a","1",""
"null","","html-keyboard-response","56","161357","0.0-4.0-2.5","","<div style=""font-size:60px;"">+</div>","null","","","","","","",""
"null","","image-keyboard-response","57","162859","0.0-4.0-0.6","","img/pink.png","null","trial","32","false","0.8,0.2","1:go_a","",""
"null","","html-keyboard-response","58","163860","0.0-4.0-1.6","","<img src=""img/pink-n.png"">","null","trial","32","","0.8,0.2","1:go_a","0",""
"null","","html-keyboard-response","59","164862","0.0-4.0-2.6","","<div style=""font-size:60px;"">+</div>","null","","","","","","",""
"538.2799999788404","","image-keyboard-response","60","165401","0.0-4.0-0.7","","img/green.png","32","trial","null","false","0.2,0.8","2:nogo_b","",""
"null","","html-keyboard-response","61","166404","0.0-4.0-1.7","","<img src=""img/green-n.png"" border=""10"">","null","trial","null","","0.2,0.8","2:nogo_b","0",""
"null","","html-keyboard-response","62","167405","0.0-4.0-2.7","","<div style=""font-size:60px;"">+</div>","null","","","","","","",""
"855.3400000091642","","image-keyboard-response","63","168261","0.0-4.0-0.8","","img/green.png","32","trial","null","false","0.2,0.8","2:nogo_b","",""
"null","","html-keyboard-response","64","169263","0.0-4.0-1.8","","<img src=""img/green-n.png"" border=""10"">","null","trial","null","","0.2,0.8","2:nogo_b","0",""
"null","","html-keyboard-response","65","170265","0.0-4.0-2.8","","<div style=""font-size:60px;"">+</div>","null","","","","","","",""
"623.3899999642745","","image-keyboard-response","66","170889","0.0-4.0-0.9","","img/pink.png","32","trial","32","true","0.8,0.2","1:go_a","",""
"null","","html-keyboard-response","67","171890","0.0-4.0-1.9","","<img src=""img/pink-r.png"" border=""10"">","null","trial","32","","0.8,0.2","1:go_a","1",""
"null","","html-keyboard-response","68","172892","0.0-4.0-2.9","","<div style=""font-size:60px;"">+</div>","null","","","","","","",""
"523.8149999640882","","image-keyboard-response","69","173417","0.0-4.0-0.10","","img/pink.png","32","trial","32","true","0.8,0.2","1:go_a","",""
"null","","html-keyboard-response","70","174421","0.0-4.0-1.10","","<img src=""img/pink-r.png"" border=""10"">","null","trial","32","","0.8,0.2","1:go_a","1",""
"null","","html-keyboard-response","71","175423","0.0-4.0-2.10","","<div style=""font-size:60px;"">+</div>","null","","","","","","",""
"null","","image-keyboard-response","72","176924","0.0-4.0-0.11","","img/green.png","null","trial","null","true","0.2,0.8","2:nogo_b","",""
"null","","html-keyboard-response","73","177927","0.0-4.0-1.11","","<img src=""img/green-n.png"">","null","trial","null","","0.2,0.8","2:nogo_b","0",""
"null","","html-keyboard-response","74","178928","0.0-4.0-2.11","","<div style=""font-size:60px;"">+</div>","null","","","","","","",""
"null","","image-keyboard-response","75","180430","0.0-4.0-0.12","","img/green.png","null","trial","null","true","0.2,0.8","2:nogo_b","",""
"null","","html-keyboard-response","76","181433","0.0-4.0-1.12","","<img src=""img/green-r.png"">","null","trial","null","","0.2,0.8","2:nogo_b","1",""
"null","","html-keyboard-response","77","182434","0.0-4.0-2.12","","<div style=""font-size:60px;"">+</div>","null","","","","","","",""
"333.59999989625067","","image-keyboard-response","78","182769","0.0-4.0-0.13","","img/pink.png","32","trial","32","true","0.8,0.2","1:go_a","",""
"null","","html-keyboard-response","79","183772","0.0-4.0-1.13","","<img src=""img/pink-r.png"" border=""10"">","null","trial","32","","0.8,0.2","1:go_a","1",""
"null","","html-keyboard-response","80","184774","0.0-4.0-2.13","","<div style=""font-size:60px;"">+</div>","null","","","","","","",""
"446.4699999662116","","image-keyboard-response","81","185221","0.0-4.0-0.14","","img/pink.png","32","trial","32","true","0.8,0.2","1:go_a","",""
"null","","html-keyboard-response","82","186222","0.0-4.0-1.14","","<img src=""img/pink-n.png"" border=""10"">","null","trial","32","","0.8,0.2","1:go_a","0",""
"null","","html-keyboard-response","83","187225","0.0-4.0-2.14","","<div style=""font-size:60px;"">+</div>","null","","","","","","",""
"null","","image-keyboard-response","84","188726","0.0-4.0-0.15","","img/green.png","null","trial","null","true","0.2,0.8","2:nogo_b","",""
"null","","html-keyboard-response","85","189728","0.0-4.0-1.15","","<img src=""img/green-r.png"">","null","trial","null","","0.2,0.8","2:nogo_b","1",""
"null","","html-keyboard-response","86","190729","0.0-4.0-2.15","","<div style=""font-size:60px;"">+</div>","null","","","","","","",""
"null","","image-keyboard-response","87","192231","0.0-4.0-0.16","","img/green.png","null","trial","null","true","0.2,0.8","2:nogo_b","",""
"null","","html-keyboard-response","88","193233","0.0-4.0-1.16","","<img src=""img/green-r.png"">","null","trial","null","","0.2,0.8","2:nogo_b","1",""
"null","","html-keyboard-response","89","194234","0.0-4.0-2.16","","<div style=""font-size:60px;"">+</div>","null","","","","","","",""
"409.5000000670552","","image-keyboard-response","90","194644","0.0-4.0-0.17","","img/pink.png","32","trial","32","true","0.8,0.2","1:go_a","",""
"null","","html-keyboard-response","91","195646","0.0-4.0-1.17","","<img src=""img/pink-r.png"" border=""10"">","null","trial","32","","0.8,0.2","1:go_a","1",""
"null","","html-keyboard-response","92","196648","0.0-4.0-2.17","","<div style=""font-size:60px;"">+</div>","null","","","","","","",""
"null","","image-keyboard-response","93","198150","0.0-4.0-0.18","","img/green.png","null","trial","null","true","0.2,0.8","2:nogo_b","",""
"null","","html-keyboard-response","94","199152","0.0-4.0-1.18","","<img src=""img/green-r.png"">","null","trial","null","","0.2,0.8","2:nogo_b","1",""
"null","","html-keyboard-response","95","200154","0.0-4.0-2.18","","<div style=""font-size:60px;"">+</div>","null","","","","","","",""
"428.00000007264316","","image-keyboard-response","96","200582","0.0-4.0-0.19","","img/pink.png","32","trial","32","true","0.8,0.2","1:go_a","",""
"null","","html-keyboard-response","97","201585","0.0-4.0-1.19","","<img src=""img/pink-n.png"" border=""10"">","null","trial","32","","0.8,0.2","1:go_a","0",""
"null","","html-keyboard-response","98","202587","0.0-4.0-2.19","","<div style=""font-size:60px;"">+</div>","null","","","","","","",""
"null","","image-keyboard-response","99","204088","0.0-4.0-0.20","","img/green.png","null","trial","null","true","0.2,0.8","2:nogo_b","",""
"null","","html-keyboard-response","100","205090","0.0-4.0-1.20","","<img src=""img/green-r.png"">","null","trial","null","","0.2,0.8","2:nogo_b","1",""
"null","","html-keyboard-response","101","206091","0.0-4.0-2.20","","<div style=""font-size:60px;"">+</div>","null","","","","","","",""
"338.9250000473112","","image-keyboard-response","102","206431","0.0-4.0-0.21","","img/pink.png","32","trial","32","true","0.8,0.2","1:go_a","",""
"null","","html-keyboard-response","103","207433","0.0-4.0-1.21","","<img src=""img/pink-r.png"" border=""10"">","null","trial","32","","0.8,0.2","1:go_a","1",""
"null","","html-keyboard-response","104","208434","0.0-4.0-2.21","","<div style=""font-size:60px;"">+</div>","null","","","","","","",""
"432.6250000158325","","image-keyboard-response","105","208868","0.0-4.0-0.22","","img/pink.png","32","trial","32","true","0.8,0.2","1:go_a","",""
"null","","html-keyboard-response","106","209870","0.0-4.0-1.22","","<img src=""img/pink-r.png"" border=""10"">","null","trial","32","","0.8,0.2","1:go_a","1",""
"null","","html-keyboard-response","107","210872","0.0-4.0-2.22","","<div style=""font-size:60px;"">+</div>","null","","","","","","",""
"null","","image-keyboard-response","108","212374","0.0-4.0-0.23","","img/green.png","null","trial","null","true","0.2,0.8","2:nogo_b","",""
"null","","html-keyboard-response","109","213376","0.0-4.0-1.23","","<img src=""img/green-r.png"">","null","trial","null","","0.2,0.8","2:nogo_b","1",""
"null","","html-keyboard-response","110","214377","0.0-4.0-2.23","","<div style=""font-size:60px;"">+</div>","null","","","","","","",""
"349.29500008001924","","image-keyboard-response","111","214727","0.0-4.0-0.24","","img/pink.png","32","trial","32","true","0.8,0.2","1:go_a","",""
"null","","html-keyboard-response","112","215730","0.0-4.0-1.24","","<img src=""img/pink-n.png"" border=""10"">","null","trial","32","","0.8,0.2","1:go_a","0",""
"null","","html-keyboard-response","113","216731","0.0-4.0-2.24","","<div style=""font-size:60px;"">+</div>","null","","","","","","",""
"null","","image-keyboard-response","114","218232","0.0-4.0-0.25","","img/green.png","null","trial","null","true","0.2,0.8","2:nogo_b","",""
"null","","html-keyboard-response","115","219237","0.0-4.0-1.25","","<img src=""img/green-r.png"">","null","trial","null","","0.2,0.8","2:nogo_b","1",""
"null","","html-keyboard-response","116","220238","0.0-4.0-2.25","","<div style=""font-size:60px;"">+</div>","null","","","","","","",""
"399.0099999355152","","image-keyboard-response","117","220638","0.0-4.0-0.26","","img/pink.png","32","trial","32","true","0.8,0.2","1:go_a","",""
"null","","html-keyboard-response","118","221639","0.0-4.0-1.26","","<img src=""img/pink-r.png"" border=""10"">","null","trial","32","","0.8,0.2","1:go_a","1",""
"null","","html-keyboard-response","119","222640","0.0-4.0-2.26","","<div style=""font-size:60px;"">+</div>","null","","","","","","",""
"null","","image-keyboard-response","120","224142","0.0-4.0-0.27","","img/green.png","null","trial","null","true","0.2,0.8","2:nogo_b","",""
"null","","html-keyboard-response","121","225143","0.0-4.0-1.27","","<img src=""img/green-r.png"">","null","trial","null","","0.2,0.8","2:nogo_b","1",""
"null","","html-keyboard-response","122","226145","0.0-4.0-2.27","","<div style=""font-size:60px;"">+</div>","null","","","","","","",""
"null","","image-keyboard-response","123","227647","0.0-4.0-0.28","","img/green.png","null","trial","null","true","0.2,0.8","2:nogo_b","",""
"null","","html-keyboard-response","124","228649","0.0-4.0-1.28","","<img src=""img/green-r.png"">","null","trial","null","","0.2,0.8","2:nogo_b","1",""
"null","","html-keyboard-response","125","229650","0.0-4.0-2.28","","<div style=""font-size:60px;"">+</div>","null","","","","","","",""
"434.4799999380484","","image-keyboard-response","126","230086","0.0-4.0-0.29","","img/pink.png","32","trial","32","true","0.8,0.2","1:go_a","",""
"null","","html-keyboard-response","127","231088","0.0-4.0-1.29","","<img src=""img/pink-n.png"" border=""10"">","null","trial","32","","0.8,0.2","1:go_a","0",""
"null","","html-keyboard-response","128","232090","0.0-4.0-2.29","","<div style=""font-size:60px;"">+</div>","null","","","","","","",""
"439.79999993462116","","image-keyboard-response","129","232530","0.0-4.0-0.30","","img/pink.png","32","trial","32","true","0.8,0.2","1:go_a","",""
"null","","html-keyboard-response","130","233532","0.0-4.0-1.30","","<img src=""img/pink-r.png"" border=""10"">","null","trial","32","","0.8,0.2","1:go_a","1",""
"null","","html-keyboard-response","131","234533","0.0-4.0-2.30","","<div style=""font-size:60px;"">+</div>","null","","","","","","",""
"null","","image-keyboard-response","132","236035","0.0-4.0-0.31","","img/green.png","null","trial","null","true","0.2,0.8","2:nogo_b","",""
"null","","html-keyboard-response","133","237038","0.0-4.0-1.31","","<img src=""img/green-r.png"">","null","trial","null","","0.2,0.8","2:nogo_b","1",""
"null","","html-keyboard-response","134","238039","0.0-4.0-2.31","","<div style=""font-size:60px;"">+</div>","null","","","","","","",""
"null","","image-keyboard-response","135","239541","0.0-4.0-0.32","","img/green.png","null","trial","null","true","0.2,0.8","2:nogo_b","",""
"null","","html-keyboard-response","136","240543","0.0-4.0-1.32","","<img src=""img/green-r.png"">","null","trial","null","","0.2,0.8","2:nogo_b","1",""
"null","","html-keyboard-response","137","241554","0.0-4.0-2.32","","<div style=""font-size:60px;"">+</div>","null","","","","","","",""
"363.7800000142306","","image-keyboard-response","138","241918","0.0-4.0-0.33","","img/pink.png","32","trial","32","true","0.8,0.2","1:go_a","",""
"null","","html-keyboard-response","139","242920","0.0-4.0-1.33","","<img src=""img/pink-r.png"" border=""10"">","null","trial","32","","0.8,0.2","1:go_a","1",""
"null","","html-keyboard-response","140","243922","0.0-4.0-2.33","","<div style=""font-size:60px;"">+</div>","null","","","","","","",""
"null","","image-keyboard-response","141","245424","0.0-4.0-0.34","","img/green.png","null","trial","null","true","0.2,0.8","2:nogo_b","",""
"null","","html-keyboard-response","142","246426","0.0-4.0-1.34","","<img src=""img/green-n.png"">","null","trial","null","","0.2,0.8","2:nogo_b","0",""
"null","","html-keyboard-response","143","247427","0.0-4.0-2.34","","<div style=""font-size:60px;"">+</div>","null","","","","","","",""
"410.0199999520555","","image-keyboard-response","144","247838","0.0-4.0-0.35","","img/pink.png","32","trial","32","true","0.8,0.2","1:go_a","",""
"null","","html-keyboard-response","145","248840","0.0-4.0-1.35","","<img src=""img/pink-r.png"" border=""10"">","null","trial","32","","0.8,0.2","1:go_a","1",""
"null","","html-keyboard-response","146","249841","0.0-4.0-2.35","","<div style=""font-size:60px;"">+</div>","null","","","","","","",""
"null","","image-keyboard-response","147","251352","0.0-4.0-0.36","","img/green.png","null","trial","null","true","0.2,0.8","2:nogo_b","",""
"null","","html-keyboard-response","148","252368","0.0-4.0-1.36","","<img src=""img/green-r.png"">","null","trial","null","","0.2,0.8","2:nogo_b","1",""
"null","","html-keyboard-response","149","253369","0.0-4.0-2.36","","<div style=""font-size:60px;"">+</div>","null","","","","","","",""
"311.54000002425164","","image-keyboard-response","150","253682","0.0-4.0-0.37","","img/pink.png","32","trial","32","true","0.8,0.2","1:go_a","",""
"null","","html-keyboard-response","151","254683","0.0-4.0-1.37","","<img src=""img/pink-r.png"" border=""10"">","null","trial","32","","0.8,0.2","1:go_a","1",""
"null","","html-keyboard-response","152","255684","0.0-4.0-2.37","","<div style=""font-size:60px;"">+</div>","null","","","","","","",""
"null","","image-keyboard-response","153","257185","0.0-4.0-0.38","","img/green.png","null","trial","null","true","0.2,0.8","2:nogo_b","",""
"null","","html-keyboard-response","154","258187","0.0-4.0-1.38","","<img src=""img/green-r.png"">","null","trial","null","","0.2,0.8","2:nogo_b","1",""
"null","","html-keyboard-response","155","259190","0.0-4.0-2.38","","<div style=""font-size:60px;"">+</div>","null","","","","","","",""
"357.50499996356666","","image-keyboard-response","156","259549","0.0-4.0-0.39","","img/pink.png","32","trial","32","true","0.8,0.2","1:go_a","",""
"null","","html-keyboard-response","157","260550","0.0-4.0-1.39","","<img src=""img/pink-r.png"" border=""10"">","null","trial","32","","0.8,0.2","1:go_a","1",""
"null","","html-keyboard-response","158","261556","0.0-4.0-2.39","","<div style=""font-size:60px;"">+</div>","null","","","","","","",""
"404.3900000397116","","image-keyboard-response","159","261961","0.0-4.0-0.40","","img/pink.png","32","trial","32","true","0.8,0.2","1:go_a","",""
"null","","html-keyboard-response","160","262963","0.0-4.0-1.40","","<img src=""img/pink-r.png"" border=""10"">","null","trial","32","","0.8,0.2","1:go_a","1",""
"null","","html-keyboard-response","161","263965","0.0-4.0-2.40","","<div style=""font-size:60px;"">+</div>","null","","","","","","",""
"null","","image-keyboard-response","162","265466","0.0-4.0-0.41","","img/green.png","null","trial","null","true","0.2,0.8","2:nogo_b","",""
"null","","html-keyboard-response","163","266468","0.0-4.0-1.41","","<img src=""img/green-r.png"">","null","trial","null","","0.2,0.8","2:nogo_b","1",""
"null","","html-keyboard-response","164","267469","0.0-4.0-2.41","","<div style=""font-size:60px;"">+</div>","null","","","","","","",""
"331.3649999909103","","image-keyboard-response","165","267802","0.0-4.0-0.42","","img/pink.png","32","trial","32","true","0.8,0.2","1:go_a","",""
"null","","html-keyboard-response","166","268804","0.0-4.0-1.42","","<img src=""img/pink-r.png"" border=""10"">","null","trial","32","","0.8,0.2","1:go_a","1",""
"null","","html-keyboard-response","167","269805","0.0-4.0-2.42","","<div style=""font-size:60px;"">+</div>","null","","","","","","",""
"null","","image-keyboard-response","168","271308","0.0-4.0-0.43","","img/green.png","null","trial","null","true","0.2,0.8","2:nogo_b","",""
"null","","html-keyboard-response","169","272309","0.0-4.0-1.43","","<img src=""img/green-n.png"">","null","trial","null","","0.2,0.8","2:nogo_b","0",""
"null","","html-keyboard-response","170","273311","0.0-4.0-2.43","","<div style=""font-size:60px;"">+</div>","null","","","","","","",""
"null","","image-keyboard-response","171","274813","0.0-4.0-0.44","","img/green.png","null","trial","null","true","0.2,0.8","2:nogo_b","",""
"null","","html-keyboard-response","172","275815","0.0-4.0-1.44","","<img src=""img/green-n.png"">","null","trial","null","","0.2,0.8","2:nogo_b","0",""
"null","","html-keyboard-response","173","276817","0.0-4.0-2.44","","<div style=""font-size:60px;"">+</div>","null","","","","","","",""
"379.69500001054257","","image-keyboard-response","174","277198","0.0-4.0-0.45","","img/pink.png","32","trial","32","true","0.8,0.2","1:go_a","",""
"null","","html-keyboard-response","175","278199","0.0-4.0-1.45","","<img src=""img/pink-n.png"" border=""10"">","null","trial","32","","0.8,0.2","1:go_a","0",""
"null","","html-keyboard-response","176","279200","0.0-4.0-2.45","","<div style=""font-size:60px;"">+</div>","null","","","","","","",""
"null","","image-keyboard-response","177","280702","0.0-4.0-0.46","","img/green.png","null","trial","null","true","0.2,0.8","2:nogo_b","",""
"null","","html-keyboard-response","178","281705","0.0-4.0-1.46","","<img src=""img/green-n.png"">","null","trial","null","","0.2,0.8","2:nogo_b","0",""
"null","","html-keyboard-response","179","282706","0.0-4.0-2.46","","<div style=""font-size:60px;"">+</div>","null","","","","","","",""
"378.41999996453524","","image-keyboard-response","180","283085","0.0-4.0-0.47","","img/pink.png","32","trial","32","true","0.8,0.2","1:go_a","",""
"null","","html-keyboard-response","181","284088","0.0-4.0-1.47","","<img src=""img/pink-r.png"" border=""10"">","null","trial","32","","0.8,0.2","1:go_a","1",""
"null","","html-keyboard-response","182","285090","0.0-4.0-2.47","","<div style=""font-size:60px;"">+</div>","null","","","","","","",""
"null","","image-keyboard-response","183","286592","0.0-4.0-0.48","","img/green.png","null","trial","null","true","0.2,0.8","2:nogo_b","",""
"null","","html-keyboard-response","184","287593","0.0-4.0-1.48","","<img src=""img/green-r.png"">","null","trial","null","","0.2,0.8","2:nogo_b","1",""
"null","","html-keyboard-response","185","288595","0.0-4.0-2.48","","<div style=""font-size:60px;"">+</div>","null","","","","","","",""
"528.2450000522658","","image-keyboard-response","186","289124","0.0-4.0-0.49","","img/pink.png","32","trial","32","true","0.8,0.2","1:go_a","",""
"null","","html-keyboard-response","187","290127","0.0-4.0-1.49","","<img src=""img/pink-r.png"" border=""10"">","null","trial","32","","0.8,0.2","1:go_a","1",""
"null","","html-keyboard-response","188","291129","0.0-4.0-2.49","","<div style=""font-size:60px;"">+</div>","null","","","","","","",""
"null","","image-keyboard-response","189","292631","0.0-4.0-0.50","","img/green.png","null","trial","null","true","0.2,0.8","2:nogo_b","",""
"null","","html-keyboard-response","190","293632","0.0-4.0-1.50","","<img src=""img/green-r.png"">","null","trial","null","","0.2,0.8","2:nogo_b","1",""
"null","","html-keyboard-response","191","294633","0.0-4.0-2.50","","<div style=""font-size:60px;"">+</div>","null","","","","","","",""
"461.9199999142438","","image-keyboard-response","192","295096","0.0-4.0-0.51","","img/pink.png","32","trial","32","true","0.8,0.2","1:go_a","",""
"null","","html-keyboard-response","193","296099","0.0-4.0-1.51","","<img src=""img/pink-r.png"" border=""10"">","null","trial","32","","0.8,0.2","1:go_a","1",""
"null","","html-keyboard-response","194","297101","0.0-4.0-2.51","","<div style=""font-size:60px;"">+</div>","null","","","","","","",""
"null","","image-keyboard-response","195","298602","0.0-4.0-0.52","","img/green.png","null","trial","null","true","0.2,0.8","2:nogo_b","",""
"null","","html-keyboard-response","196","299604","0.0-4.0-1.52","","<img src=""img/green-r.png"">","null","trial","null","","0.2,0.8","2:nogo_b","1",""
"null","","html-keyboard-response","197","300605","0.0-4.0-2.52","","<div style=""font-size:60px;"">+</div>","null","","","","","","",""
"485.8000000240281","","image-keyboard-response","198","301092","0.0-4.0-0.53","","img/pink.png","32","trial","32","true","0.8,0.2","1:go_a","",""
"null","","html-keyboard-response","199","302093","0.0-4.0-1.53","","<img src=""img/pink-r.png"" border=""10"">","null","trial","32","","0.8,0.2","1:go_a","1",""
"null","","html-keyboard-response","200","303094","0.0-4.0-2.53","","<div style=""font-size:60px;"">+</div>","null","","","","","","",""
"960.3699999861419","","image-keyboard-response","201","304056","0.0-4.0-0.54","","img/pink.png","32","trial","32","true","0.8,0.2","1:go_a","",""
"null","","html-keyboard-response","202","305058","0.0-4.0-1.54","","<img src=""img/pink-r.png"" border=""10"">","null","trial","32","","0.8,0.2","1:go_a","1",""
"null","","html-keyboard-response","203","306059","0.0-4.0-2.54","","<div style=""font-size:60px;"">+</div>","null","","","","","","",""
"null","","image-keyboard-response","204","307561","0.0-4.0-0.55","","img/green.png","null","trial","null","true","0.2,0.8","2:nogo_b","",""
"null","","html-keyboard-response","205","308563","0.0-4.0-1.55","","<img src=""img/green-r.png"">","null","trial","null","","0.2,0.8","2:nogo_b","1",""
"null","","html-keyboard-response","206","309565","0.0-4.0-2.55","","<div style=""font-size:60px;"">+</div>","null","","","","","","",""
"305.58000004384667","","image-keyboard-response","207","309871","0.0-4.0-0.56","","img/pink.png","32","trial","32","true","0.8,0.2","1:go_a","",""
"null","","html-keyboard-response","208","310873","0.0-4.0-1.56","","<img src=""img/pink-n.png"" border=""10"">","null","trial","32","","0.8,0.2","1:go_a","0",""
"null","","html-keyboard-response","209","311875","0.0-4.0-2.56","","<div style=""font-size:60px;"">+</div>","null","","","","","","",""
"null","","image-keyboard-response","210","313376","0.0-4.0-0.57","","img/green.png","null","trial","null","true","0.2,0.8","2:nogo_b","",""
"null","","html-keyboard-response","211","314379","0.0-4.0-1.57","","<img src=""img/green-r.png"">","null","trial","null","","0.2,0.8","2:nogo_b","1",""
"null","","html-keyboard-response","212","315381","0.0-4.0-2.57","","<div style=""font-size:60px;"">+</div>","null","","","","","","",""
"469.99499993398786","","image-keyboard-response","213","315852","0.0-4.0-0.58","","img/pink.png","32","trial","32","true","0.8,0.2","1:go_a","",""
"null","","html-keyboard-response","214","316853","0.0-4.0-1.58","","<img src=""img/pink-r.png"" border=""10"">","null","trial","32","","0.8,0.2","1:go_a","1",""
"null","","html-keyboard-response","215","317855","0.0-4.0-2.58","","<div style=""font-size:60px;"">+</div>","null","","","","","","",""
"null","","image-keyboard-response","216","319356","0.0-4.0-0.59","","img/green.png","null","trial","null","true","0.2,0.8","2:nogo_b","",""
"null","","html-keyboard-response","217","320358","0.0-4.0-1.59","","<img src=""img/green-r.png"">","null","trial","null","","0.2,0.8","2:nogo_b","1",""
"null","","html-keyboard-response","218","321360","0.0-4.0-2.59","","<div style=""font-size:60px;"">+</div>","null","","","","","","",""
"21374.10999997519","","instructions","219","342734","0.0-5.0","[{""page_index"":0,""viewing_time"":21373.819999978878}]","","","","","","","","",""
"950.4449999658391","","image-keyboard-response","220","343686","0.0-6.0-0.0","","img/red.png","32","trial","null","false","0.2,0.8","2:nogo_b","",""
"null","","html-keyboard-response","221","344688","0.0-6.0-1.0","","<img src=""img/red-n.png"" border=""10"">","null","trial","null","","0.2,0.8","2:nogo_b","0",""
"null","","html-keyboard-response","222","345691","0.0-6.0-2.0","","<div style=""font-size:60px;"">+</div>","null","","","","","","",""
"625.6800000555813","","image-keyboard-response","223","346317","0.0-6.0-0.1","","img/green.png","32","trial","32","true","0.6,0.4","3:go_c","",""
"null","","html-keyboard-response","224","347320","0.0-6.0-1.1","","<img src=""img/green-r.png"" border=""10"">","null","trial","32","","0.6,0.4","3:go_c","1",""
"null","","html-keyboard-response","225","348321","0.0-6.0-2.1","","<div style=""font-size:60px;"">+</div>","null","","","","","","",""
"707.2349999798462","","image-keyboard-response","226","349029","0.0-6.0-0.2","","img/orange.png","32","trial","null","false","0.4,0.6","4:nogo_d","",""
"null","","html-keyboard-response","227","350032","0.0-6.0-1.2","","<img src=""img/orange-n.png"" border=""10"">","null","trial","null","","0.4,0.6","4:nogo_d","0",""
"null","","html-keyboard-response","228","351033","0.0-6.0-2.2","","<div style=""font-size:60px;"">+</div>","null","","","","","","",""
"594.5099999662489","","image-keyboard-response","229","351629","0.0-6.0-0.3","","img/blue.png","32","trial","32","true","0.8,0.2","1:go_a","",""
"null","","html-keyboard-response","230","352632","0.0-6.0-1.3","","<img src=""img/blue-r.png"" border=""10"">","null","trial","32","","0.8,0.2","1:go_a","1",""
"null","","html-keyboard-response","231","353633","0.0-6.0-2.3","","<div style=""font-size:60px;"">+</div>","null","","","","","","",""
"null","","image-keyboard-response","232","355135","0.0-6.0-0.4","","img/red.png","null","trial","null","true","0.2,0.8","2:nogo_b","",""
"null","","html-keyboard-response","233","356137","0.0-6.0-1.4","","<img src=""img/red-r.png"">","null","trial","null","","0.2,0.8","2:nogo_b","1",""
"null","","html-keyboard-response","234","357139","0.0-6.0-2.4","","<div style=""font-size:60px;"">+</div>","null","","","","","","",""
"488.4500000625849","","image-keyboard-response","235","357629","0.0-6.0-0.5","","img/blue.png","32","trial","32","true","0.8,0.2","1:go_a","",""
"null","","html-keyboard-response","236","358630","0.0-6.0-1.5","","<img src=""img/blue-r.png"" border=""10"">","null","trial","32","","0.8,0.2","1:go_a","1",""
"null","","html-keyboard-response","237","359631","0.0-6.0-2.5","","<div style=""font-size:60px;"">+</div>","null","","","","","","",""
"757.3250000132248","","image-keyboard-response","238","360389","0.0-6.0-0.6","","img/green.png","32","trial","32","true","0.6,0.4","3:go_c","",""
"null","","html-keyboard-response","239","361392","0.0-6.0-1.6","","<img src=""img/green-r.png"" border=""10"">","null","trial","32","","0.6,0.4","3:go_c","1",""
"null","","html-keyboard-response","240","362394","0.0-6.0-2.6","","<div style=""font-size:60px;"">+</div>","null","","","","","","",""
"null","","image-keyboard-response","241","363896","0.0-6.0-0.7","","img/orange.png","null","trial","null","true","0.4,0.6","4:nogo_d","",""
"null","","html-keyboard-response","242","364898","0.0-6.0-1.7","","<img src=""img/orange-r.png"">","null","trial","null","","0.4,0.6","4:nogo_d","1",""
"null","","html-keyboard-response","243","365899","0.0-6.0-2.7","","<div style=""font-size:60px;"">+</div>","null","","","","","","",""
"828.0000000959262","","image-keyboard-response","244","366728","0.0-6.0-0.8","","img/green.png","32","trial","32","true","0.6,0.4","3:go_c","",""
"null","","html-keyboard-response","245","367731","0.0-6.0-1.8","","<img src=""img/green-r.png"" border=""10"">","null","trial","32","","0.6,0.4","3:go_c","1",""
"null","","html-keyboard-response","246","368733","0.0-6.0-2.8","","<div style=""font-size:60px;"">+</div>","null","","","","","","",""
"null","","image-keyboard-response","247","370234","0.0-6.0-0.9","","img/red.png","null","trial","null","true","0.2,0.8","2:nogo_b","",""
"null","","html-keyboard-response","248","371237","0.0-6.0-1.9","","<img src=""img/red-r.png"">","null","trial","null","","0.2,0.8","2:nogo_b","1",""
"null","","html-keyboard-response","249","372238","0.0-6.0-2.9","","<div style=""font-size:60px;"">+</div>","null","","","","","","",""
"376.9600000232458","","image-keyboard-response","250","372616","0.0-6.0-0.10","","img/blue.png","32","trial","32","true","0.8,0.2","1:go_a","",""
"null","","html-keyboard-response","251","373617","0.0-6.0-1.10","","<img src=""img/blue-n.png"" border=""10"">","null","trial","32","","0.8,0.2","1:go_a","0",""
"null","","html-keyboard-response","252","374618","0.0-6.0-2.10","","<div style=""font-size:60px;"">+</div>","null","","","","","","",""
"null","","image-keyboard-response","253","376120","0.0-6.0-0.11","","img/orange.png","null","trial","null","true","0.4,0.6","4:nogo_d","",""
"null","","html-keyboard-response","254","377123","0.0-6.0-1.11","","<img src=""img/orange-r.png"">","null","trial","null","","0.4,0.6","4:nogo_d","1",""
"null","","html-keyboard-response","255","378124","0.0-6.0-2.11","","<div style=""font-size:60px;"">+</div>","null","","","","","","",""
"null","","image-keyboard-response","256","379626","0.0-6.0-0.12","","img/red.png","null","trial","null","true","0.2,0.8","2:nogo_b","",""
"null","","html-keyboard-response","257","380627","0.0-6.0-1.12","","<img src=""img/red-r.png"">","null","trial","null","","0.2,0.8","2:nogo_b","1",""
"null","","html-keyboard-response","258","381628","0.0-6.0-2.12","","<div style=""font-size:60px;"">+</div>","null","","","","","","",""
"null","","image-keyboard-response","259","383130","0.0-6.0-0.13","","img/orange.png","null","trial","null","true","0.4,0.6","4:nogo_d","",""
"null","","html-keyboard-response","260","384133","0.0-6.0-1.13","","<img src=""img/orange-r.png"">","null","trial","null","","0.4,0.6","4:nogo_d","1",""
"null","","html-keyboard-response","261","385134","0.0-6.0-2.13","","<div style=""font-size:60px;"">+</div>","null","","","","","","",""
"374.15000004693866","","image-keyboard-response","262","385509","0.0-6.0-0.14","","img/green.png","32","trial","32","true","0.6,0.4","3:go_c","",""
"null","","html-keyboard-response","263","386512","0.0-6.0-1.14","","<img src=""img/green-r.png"" border=""10"">","null","trial","32","","0.6,0.4","3:go_c","1",""
"null","","html-keyboard-response","264","387512","0.0-6.0-2.14","","<div style=""font-size:60px;"">+</div>","null","","","","","","",""
"378.53999994695187","","image-keyboard-response","265","387892","0.0-6.0-0.15","","img/blue.png","32","trial","32","true","0.8,0.2","1:go_a","",""
"null","","html-keyboard-response","266","388894","0.0-6.0-1.15","","<img src=""img/blue-r.png"" border=""10"">","null","trial","32","","0.8,0.2","1:go_a","1",""
"null","","html-keyboard-response","267","389896","0.0-6.0-2.15","","<div style=""font-size:60px;"">+</div>","null","","","","","","",""
"null","","image-keyboard-response","268","391398","0.0-6.0-0.16","","img/red.png","null","trial","null","true","0.2,0.8","2:nogo_b","",""
"null","","html-keyboard-response","269","392399","0.0-6.0-1.16","","<img src=""img/red-n.png"">","null","trial","null","","0.2,0.8","2:nogo_b","0",""
"null","","html-keyboard-response","270","393400","0.0-6.0-2.16","","<div style=""font-size:60px;"">+</div>","null","","","","","","",""
"519.2400000523776","","image-keyboard-response","271","393920","0.0-6.0-0.17","","img/blue.png","32","trial","32","true","0.8,0.2","1:go_a","",""
"null","","html-keyboard-response","272","394922","0.0-6.0-1.17","","<img src=""img/blue-r.png"" border=""10"">","null","trial","32","","0.8,0.2","1:go_a","1",""
"null","","html-keyboard-response","273","395924","0.0-6.0-2.17","","<div style=""font-size:60px;"">+</div>","null","","","","","","",""
"null","","image-keyboard-response","274","397426","0.0-6.0-0.18","","img/orange.png","null","trial","null","true","0.4,0.6","4:nogo_d","",""
"null","","html-keyboard-response","275","398428","0.0-6.0-1.18","","<img src=""img/orange-n.png"">","null","trial","null","","0.4,0.6","4:nogo_d","0",""
"null","","html-keyboard-response","276","399430","0.0-6.0-2.18","","<div style=""font-size:60px;"">+</div>","null","","","","","","",""
"389.24000004772097","","image-keyboard-response","277","399820","0.0-6.0-0.19","","img/green.png","32","trial","32","true","0.6,0.4","3:go_c","",""
"null","","html-keyboard-response","278","400822","0.0-6.0-1.19","","<img src=""img/green-r.png"" border=""10"">","null","trial","32","","0.6,0.4","3:go_c","1",""
"null","","html-keyboard-response","279","401824","0.0-6.0-2.19","","<div style=""font-size:60px;"">+</div>","null","","","","","","",""
"null","","image-keyboard-response","280","403326","0.0-6.0-0.20","","img/orange.png","null","trial","null","true","0.4,0.6","4:nogo_d","",""
"null","","html-keyboard-response","281","404328","0.0-6.0-1.20","","<img src=""img/orange-n.png"">","null","trial","null","","0.4,0.6","4:nogo_d","0",""
"null","","html-keyboard-response","282","405329","0.0-6.0-2.20","","<div style=""font-size:60px;"">+</div>","null","","","","","","",""
"508.86499998159707","","image-keyboard-response","283","405839","0.0-6.0-0.21","","img/green.png","32","trial","32","true","0.6,0.4","3:go_c","",""
"null","","html-keyboard-response","284","406841","0.0-6.0-1.21","","<img src=""img/green-r.png"" border=""10"">","null","trial","32","","0.6,0.4","3:go_c","1",""
"null","","html-keyboard-response","285","407843","0.0-6.0-2.21","","<div style=""font-size:60px;"">+</div>","null","","","","","","",""
"null","","image-keyboard-response","286","409344","0.0-6.0-0.22","","img/red.png","null","trial","null","true","0.2,0.8","2:nogo_b","",""
"null","","html-keyboard-response","287","410346","0.0-6.0-1.22","","<img src=""img/red-r.png"">","null","trial","null","","0.2,0.8","2:nogo_b","1",""
"null","","html-keyboard-response","288","411348","0.0-6.0-2.22","","<div style=""font-size:60px;"">+</div>","null","","","","","","",""
"710.069999913685","","image-keyboard-response","289","412060","0.0-6.0-0.23","","img/blue.png","32","trial","32","true","0.8,0.2","1:go_a","",""
"null","","html-keyboard-response","290","413062","0.0-6.0-1.23","","<img src=""img/blue-r.png"" border=""10"">","null","trial","32","","0.8,0.2","1:go_a","1",""
"null","","html-keyboard-response","291","414063","0.0-6.0-2.23","","<div style=""font-size:60px;"">+</div>","null","","","","","","",""
"573.24499997776","","image-keyboard-response","292","414639","0.0-6.0-0.24","","img/blue.png","32","trial","32","true","0.8,0.2","1:go_a","",""
"null","","html-keyboard-response","293","415640","0.0-6.0-1.24","","<img src=""img/blue-n.png"" border=""10"">","null","trial","32","","0.8,0.2","1:go_a","0",""
"null","","html-keyboard-response","294","416642","0.0-6.0-2.24","","<div style=""font-size:60px;"">+</div>","null","","","","","","",""
"null","","image-keyboard-response","295","418143","0.0-6.0-0.25","","img/orange.png","null","trial","null","true","0.4,0.6","4:nogo_d","",""
"null","","html-keyboard-response","296","419146","0.0-6.0-1.25","","<img src=""img/orange-r.png"">","null","trial","null","","0.4,0.6","4:nogo_d","1",""
"null","","html-keyboard-response","297","420147","0.0-6.0-2.25","","<div style=""font-size:60px;"">+</div>","null","","","","","","",""
"null","","image-keyboard-response","298","421649","0.0-6.0-0.26","","img/red.png","null","trial","null","true","0.2,0.8","2:nogo_b","",""
"null","","html-keyboard-response","299","422658","0.0-6.0-1.26","","<img src=""img/red-r.png"">","null","trial","null","","0.2,0.8","2:nogo_b","1",""
"null","","html-keyboard-response","300","423671","0.0-6.0-2.26","","<div style=""font-size:60px;"">+</div>","null","","","","","","",""
"510.24500001221895","","image-keyboard-response","301","424183","0.0-6.0-0.27","","img/green.png","32","trial","32","true","0.6,0.4","3:go_c","",""
"null","","html-keyboard-response","302","425184","0.0-6.0-1.27","","<img src=""img/green-r.png"" border=""10"">","null","trial","32","","0.6,0.4","3:go_c","1",""
"null","","html-keyboard-response","303","426186","0.0-6.0-2.27","","<div style=""font-size:60px;"">+</div>","null","","","","","","",""
"495.0850000604987","","image-keyboard-response","304","426682","0.0-6.0-0.28","","img/green.png","32","trial","32","true","0.6,0.4","3:go_c","",""
"null","","html-keyboard-response","305","427684","0.0-6.0-1.28","","<img src=""img/green-n.png"" border=""10"">","null","trial","32","","0.6,0.4","3:go_c","0",""
"null","","html-keyboard-response","306","428685","0.0-6.0-2.28","","<div style=""font-size:60px;"">+</div>","null","","","","","","",""
"412.4399999855086","","image-keyboard-response","307","429098","0.0-6.0-0.29","","img/blue.png","32","trial","32","true","0.8,0.2","1:go_a","",""
"null","","html-keyboard-response","308","430100","0.0-6.0-1.29","","<img src=""img/blue-r.png"" border=""10"">","null","trial","32","","0.8,0.2","1:go_a","1",""
"null","","html-keyboard-response","309","431110","0.0-6.0-2.29","","<div style=""font-size:60px;"">+</div>","null","","","","","","",""
"null","","image-keyboard-response","310","432612","0.0-6.0-0.30","","img/red.png","null","trial","null","true","0.2,0.8","2:nogo_b","",""
"null","","html-keyboard-response","311","433614","0.0-6.0-1.30","","<img src=""img/red-r.png"">","null","trial","null","","0.2,0.8","2:nogo_b","1",""
"null","","html-keyboard-response","312","434616","0.0-6.0-2.30","","<div style=""font-size:60px;"">+</div>","null","","","","","","",""
"null","","image-keyboard-response","313","436117","0.0-6.0-0.31","","img/orange.png","null","trial","null","true","0.4,0.6","4:nogo_d","",""
"null","","html-keyboard-response","314","437119","0.0-6.0-1.31","","<img src=""img/orange-r.png"">","null","trial","null","","0.4,0.6","4:nogo_d","1",""
"null","","html-keyboard-response","315","438121","0.0-6.0-2.31","","<div style=""font-size:60px;"">+</div>","null","","","","","","",""
"null","","image-keyboard-response","316","439623","0.0-6.0-0.32","","img/red.png","null","trial","null","true","0.2,0.8","2:nogo_b","",""
"null","","html-keyboard-response","317","440625","0.0-6.0-1.32","","<img src=""img/red-r.png"">","null","trial","null","","0.2,0.8","2:nogo_b","1",""
"null","","html-keyboard-response","318","441627","0.0-6.0-2.32","","<div style=""font-size:60px;"">+</div>","null","","","","","","",""
"1074.5149999856949","","image-keyboard-response","319","442702","0.0-6.0-0.33","","img/green.png","32","trial","32","true","0.6,0.4","3:go_c","",""
"null","","html-keyboard-response","320","443703","0.0-6.0-1.33","","<img src=""img/green-n.png"" border=""10"">","null","trial","32","","0.6,0.4","3:go_c","0",""
"null","","html-keyboard-response","321","444705","0.0-6.0-2.33","","<div style=""font-size:60px;"">+</div>","null","","","","","","",""
"null","","image-keyboard-response","322","446206","0.0-6.0-0.34","","img/orange.png","null","trial","null","true","0.4,0.6","4:nogo_d","",""
"null","","html-keyboard-response","323","447210","0.0-6.0-1.34","","<img src=""img/orange-r.png"">","null","trial","null","","0.4,0.6","4:nogo_d","1",""
"null","","html-keyboard-response","324","448212","0.0-6.0-2.34","","<div style=""font-size:60px;"">+</div>","null","","","","","","",""
"472.76499995496124","","image-keyboard-response","325","448686","0.0-6.0-0.35","","img/blue.png","32","trial","32","true","0.8,0.2","1:go_a","",""
"null","","html-keyboard-response","326","449689","0.0-6.0-1.35","","<img src=""img/blue-r.png"" border=""10"">","null","trial","32","","0.8,0.2","1:go_a","1",""
"null","","html-keyboard-response","327","450690","0.0-6.0-2.35","","<div style=""font-size:60px;"">+</div>","null","","","","","","",""
"454.4150000438094","","image-keyboard-response","328","451145","0.0-6.0-0.36","","img/blue.png","32","trial","32","true","0.8,0.2","1:go_a","",""
"null","","html-keyboard-response","329","452157","0.0-6.0-1.36","","<img src=""img/blue-r.png"" border=""10"">","null","trial","32","","0.8,0.2","1:go_a","1",""
"null","","html-keyboard-response","330","453158","0.0-6.0-2.36","","<div style=""font-size:60px;"">+</div>","null","","","","","","",""
"null","","image-keyboard-response","331","454660","0.0-6.0-0.37","","img/red.png","null","trial","null","true","0.2,0.8","2:nogo_b","",""
"null","","html-keyboard-response","332","455662","0.0-6.0-1.37","","<img src=""img/red-r.png"">","null","trial","null","","0.2,0.8","2:nogo_b","1",""
"null","","html-keyboard-response","333","456664","0.0-6.0-2.37","","<div style=""font-size:60px;"">+</div>","null","","","","","","",""
"null","","image-keyboard-response","334","458165","0.0-6.0-0.38","","img/orange.png","null","trial","null","true","0.4,0.6","4:nogo_d","",""
"null","","html-keyboard-response","335","459167","0.0-6.0-1.38","","<img src=""img/orange-r.png"">","null","trial","null","","0.4,0.6","4:nogo_d","1",""
"null","","html-keyboard-response","336","460169","0.0-6.0-2.38","","<div style=""font-size:60px;"">+</div>","null","","","","","","",""
"1107.49000008218","","image-keyboard-response","337","461278","0.0-6.0-0.39","","img/green.png","32","trial","32","true","0.6,0.4","3:go_c","",""
"null","","html-keyboard-response","338","462279","0.0-6.0-1.39","","<img src=""img/green-r.png"" border=""10"">","null","trial","32","","0.6,0.4","3:go_c","1",""
"null","","html-keyboard-response","339","463281","0.0-6.0-2.39","","<div style=""font-size:60px;"">+</div>","null","","","","","","",""
"null","","image-keyboard-response","340","464783","0.0-6.0-0.40","","img/orange.png","null","trial","null","true","0.4,0.6","4:nogo_d","",""
"null","","html-keyboard-response","341","465785","0.0-6.0-1.40","","<img src=""img/orange-n.png"">","null","trial","null","","0.4,0.6","4:nogo_d","0",""
"null","","html-keyboard-response","342","466786","0.0-6.0-2.40","","<div style=""font-size:60px;"">+</div>","null","","","","","","",""
"397.86499994806945","","image-keyboard-response","343","467185","0.0-6.0-0.41","","img/blue.png","32","trial","32","true","0.8,0.2","1:go_a","",""
"null","","html-keyboard-response","344","468187","0.0-6.0-1.41","","<img src=""img/blue-r.png"" border=""10"">","null","trial","32","","0.8,0.2","1:go_a","1",""
"null","","html-keyboard-response","345","469188","0.0-6.0-2.41","","<div style=""font-size:60px;"">+</div>","null","","","","","","",""
"730.6500000413507","","image-keyboard-response","346","469920","0.0-6.0-0.42","","img/green.png","32","trial","32","true","0.6,0.4","3:go_c","",""
"null","","html-keyboard-response","347","470922","0.0-6.0-1.42","","<img src=""img/green-r.png"" border=""10"">","null","trial","32","","0.6,0.4","3:go_c","1",""
"null","","html-keyboard-response","348","471923","0.0-6.0-2.42","","<div style=""font-size:60px;"">+</div>","null","","","","","","",""
"null","","image-keyboard-response","349","473425","0.0-6.0-0.43","","img/red.png","null","trial","null","true","0.2,0.8","2:nogo_b","",""
"null","","html-keyboard-response","350","474427","0.0-6.0-1.43","","<img src=""img/red-r.png"">","null","trial","null","","0.2,0.8","2:nogo_b","1",""
"null","","html-keyboard-response","351","475429","0.0-6.0-2.43","","<div style=""font-size:60px;"">+</div>","null","","","","","","",""
"563.2449999684468","","image-keyboard-response","352","475993","0.0-6.0-0.44","","img/green.png","32","trial","32","true","0.6,0.4","3:go_c","",""
"null","","html-keyboard-response","353","476995","0.0-6.0-1.44","","<img src=""img/green-n.png"" border=""10"">","null","trial","32","","0.6,0.4","3:go_c","0",""
"null","","html-keyboard-response","354","477996","0.0-6.0-2.44","","<div style=""font-size:60px;"">+</div>","null","","","","","","",""
"550.029999925755","","image-keyboard-response","355","478547","0.0-6.0-0.45","","img/blue.png","32","trial","32","true","0.8,0.2","1:go_a","",""
"null","","html-keyboard-response","356","479549","0.0-6.0-1.45","","<img src=""img/blue-r.png"" border=""10"">","null","trial","32","","0.8,0.2","1:go_a","1",""
"null","","html-keyboard-response","357","480550","0.0-6.0-2.45","","<div style=""font-size:60px;"">+</div>","null","","","","","","",""
"null","","image-keyboard-response","358","482052","0.0-6.0-0.46","","img/red.png","null","trial","null","true","0.2,0.8","2:nogo_b","",""
"null","","html-keyboard-response","359","483055","0.0-6.0-1.46","","<img src=""img/red-r.png"">","null","trial","null","","0.2,0.8","2:nogo_b","1",""
"null","","html-keyboard-response","360","484056","0.0-6.0-2.46","","<div style=""font-size:60px;"">+</div>","null","","","","","","",""
"null","","image-keyboard-response","361","485557","0.0-6.0-0.47","","img/orange.png","null","trial","null","true","0.4,0.6","4:nogo_d","",""
"null","","html-keyboard-response","362","486560","0.0-6.0-1.47","","<img src=""img/orange-r.png"">","null","trial","null","","0.4,0.6","4:nogo_d","1",""
"null","","html-keyboard-response","363","487562","0.0-6.0-2.47","","<div style=""font-size:60px;"">+</div>","null","","","","","","",""
"null","","image-keyboard-response","364","489064","0.0-6.0-0.48","","img/red.png","null","trial","null","true","0.2,0.8","2:nogo_b","",""
"null","","html-keyboard-response","365","490065","0.0-6.0-1.48","","<img src=""img/red-r.png"">","null","trial","null","","0.2,0.8","2:nogo_b","1",""
"null","","html-keyboard-response","366","491066","0.0-6.0-2.48","","<div style=""font-size:60px;"">+</div>","null","","","","","","",""
"null","","image-keyboard-response","367","492568","0.0-6.0-0.49","","img/orange.png","null","trial","null","true","0.4,0.6","4:nogo_d","",""
"null","","html-keyboard-response","368","493571","0.0-6.0-1.49","","<img src=""img/orange-r.png"">","null","trial","null","","0.4,0.6","4:nogo_d","1",""
"null","","html-keyboard-response","369","494584","0.0-6.0-2.49","","<div style=""font-size:60px;"">+</div>","null","","","","","","",""
"525.9949999162927","","image-keyboard-response","370","495111","0.0-6.0-0.50","","img/blue.png","32","trial","32","true","0.8,0.2","1:go_a","",""
"null","","html-keyboard-response","371","496113","0.0-6.0-1.50","","<img src=""img/blue-n.png"" border=""10"">","null","trial","32","","0.8,0.2","1:go_a","0",""
"null","","html-keyboard-response","372","497115","0.0-6.0-2.50","","<div style=""font-size:60px;"">+</div>","null","","","","","","",""
"530.6099998997524","","image-keyboard-response","373","497647","0.0-6.0-0.51","","img/green.png","32","trial","32","true","0.6,0.4","3:go_c","",""
"null","","html-keyboard-response","374","498648","0.0-6.0-1.51","","<img src=""img/green-r.png"" border=""10"">","null","trial","32","","0.6,0.4","3:go_c","1",""
"null","","html-keyboard-response","375","499649","0.0-6.0-2.51","","<div style=""font-size:60px;"">+</div>","null","","","","","","",""
"null","","image-keyboard-response","376","501150","0.0-6.0-0.52","","img/red.png","null","trial","null","true","0.2,0.8","2:nogo_b","",""
"null","","html-keyboard-response","377","502153","0.0-6.0-1.52","","<img src=""img/red-r.png"">","null","trial","null","","0.2,0.8","2:nogo_b","1",""
"null","","html-keyboard-response","378","503153","0.0-6.0-2.52","","<div style=""font-size:60px;"">+</div>","null","","","","","","",""
"444.1799999913201","","image-keyboard-response","379","503599","0.0-6.0-0.53","","img/blue.png","32","trial","32","true","0.8,0.2","1:go_a","",""
"null","","html-keyboard-response","380","504600","0.0-6.0-1.53","","<img src=""img/blue-r.png"" border=""10"">","null","trial","32","","0.8,0.2","1:go_a","1",""
"null","","html-keyboard-response","381","505603","0.0-6.0-2.53","","<div style=""font-size:60px;"">+</div>","null","","","","","","",""
"1035.9400000888854","","image-keyboard-response","382","506639","0.0-6.0-0.54","","img/green.png","32","trial","32","true","0.6,0.4","3:go_c","",""
"null","","html-keyboard-response","383","507641","0.0-6.0-1.54","","<img src=""img/green-r.png"" border=""10"">","null","trial","32","","0.6,0.4","3:go_c","1",""
"null","","html-keyboard-response","384","508643","0.0-6.0-2.54","","<div style=""font-size:60px;"">+</div>","null","","","","","","",""
"null","","image-keyboard-response","385","510145","0.0-6.0-0.55","","img/orange.png","null","trial","null","true","0.4,0.6","4:nogo_d","",""
"null","","html-keyboard-response","386","511147","0.0-6.0-1.55","","<img src=""img/orange-n.png"">","null","trial","null","","0.4,0.6","4:nogo_d","0",""
"null","","html-keyboard-response","387","512149","0.0-6.0-2.55","","<div style=""font-size:60px;"">+</div>","null","","","","","","",""
"613.0750000011176","","image-keyboard-response","388","512763","0.0-6.0-0.56","","img/blue.png","32","trial","32","true","0.8,0.2","1:go_a","",""
"null","","html-keyboard-response","389","513766","0.0-6.0-1.56","","<img src=""img/blue-r.png"" border=""10"">","null","trial","32","","0.8,0.2","1:go_a","1",""
"null","","html-keyboard-response","390","514766","0.0-6.0-2.56","","<div style=""font-size:60px;"">+</div>","null","","","","","","",""
"399.9450000701472","","image-keyboard-response","391","515167","0.0-6.0-0.57","","img/green.png","32","trial","32","true","0.6,0.4","3:go_c","",""
"null","","html-keyboard-response","392","516170","0.0-6.0-1.57","","<img src=""img/green-r.png"" border=""10"">","null","trial","32","","0.6,0.4","3:go_c","1",""
"null","","html-keyboard-response","393","517172","0.0-6.0-2.57","","<div style=""font-size:60px;"">+</div>","null","","","","","","",""
"null","","image-keyboard-response","394","518674","0.0-6.0-0.58","","img/red.png","null","trial","null","true","0.2,0.8","2:nogo_b","",""
"null","","html-keyboard-response","395","519677","0.0-6.0-1.58","","<img src=""img/red-r.png"">","null","trial","null","","0.2,0.8","2:nogo_b","1",""
"null","","html-keyboard-response","396","520679","0.0-6.0-2.58","","<div style=""font-size:60px;"">+</div>","null","","","","","","",""
"null","","image-keyboard-response","397","522181","0.0-6.0-0.59","","img/orange.png","null","trial","null","true","0.4,0.6","4:nogo_d","",""
"null","","html-keyboard-response","398","523182","0.0-6.0-1.59","","<img src=""img/orange-n.png"">","null","trial","null","","0.4,0.6","4:nogo_d","0",""
"null","","html-keyboard-response","399","524183","0.0-6.0-2.59","","<div style=""font-size:60px;"">+</div>","null","","","","","","",""
"null","","image-keyboard-response","400","525685","0.0-6.0-0.60","","img/red.png","null","trial","null","true","0.2,0.8","2:nogo_b","",""
"null","","html-keyboard-response","401","526687","0.0-6.0-1.60","","<img src=""img/red-r.png"">","null","trial","null","","0.2,0.8","2:nogo_b","1",""
"null","","html-keyboard-response","402","527689","0.0-6.0-2.60","","<div style=""font-size:60px;"">+</div>","null","","","","","","",""
"412.5050000147894","","image-keyboard-response","403","528103","0.0-6.0-0.61","","img/blue.png","32","trial","32","true","0.8,0.2","1:go_a","",""
"null","","html-keyboard-response","404","529105","0.0-6.0-1.61","","<img src=""img/blue-r.png"" border=""10"">","null","trial","32","","0.8,0.2","1:go_a","1",""
"null","","html-keyboard-response","405","530107","0.0-6.0-2.61","","<div style=""font-size:60px;"">+</div>","null","","","","","","",""
"null","","image-keyboard-response","406","531608","0.0-6.0-0.62","","img/orange.png","null","trial","null","true","0.4,0.6","4:nogo_d","",""
"null","","html-keyboard-response","407","532610","0.0-6.0-1.62","","<img src=""img/orange-r.png"">","null","trial","null","","0.4,0.6","4:nogo_d","1",""
"null","","html-keyboard-response","408","533611","0.0-6.0-2.62","","<div style=""font-size:60px;"">+</div>","null","","","","","","",""
"538.689999957569","","image-keyboard-response","409","534150","0.0-6.0-0.63","","img/green.png","32","trial","32","true","0.6,0.4","3:go_c","",""
"null","","html-keyboard-response","410","535152","0.0-6.0-1.63","","<img src=""img/green-r.png"" border=""10"">","null","trial","32","","0.6,0.4","3:go_c","1",""
"null","","html-keyboard-response","411","536153","0.0-6.0-2.63","","<div style=""font-size:60px;"">+</div>","null","","","","","","",""
"null","","image-keyboard-response","412","537654","0.0-6.0-0.64","","img/orange.png","null","trial","null","true","0.4,0.6","4:nogo_d","",""
"null","","html-keyboard-response","413","538656","0.0-6.0-1.64","","<img src=""img/orange-r.png"">","null","trial","null","","0.4,0.6","4:nogo_d","1",""
"null","","html-keyboard-response","414","539658","0.0-6.0-2.64","","<div style=""font-size:60px;"">+</div>","null","","","","","","",""
"715.3099999995902","","image-keyboard-response","415","540375","0.0-6.0-0.65","","img/green.png","32","trial","32","true","0.6,0.4","3:go_c","",""
"null","","html-keyboard-response","416","541376","0.0-6.0-1.65","","<img src=""img/green-r.png"" border=""10"">","null","trial","32","","0.6,0.4","3:go_c","1",""
"null","","html-keyboard-response","417","542378","0.0-6.0-2.65","","<div style=""font-size:60px;"">+</div>","null","","","","","","",""
"null","","image-keyboard-response","418","543879","0.0-6.0-0.66","","img/red.png","null","trial","null","true","0.2,0.8","2:nogo_b","",""
"null","","html-keyboard-response","419","544881","0.0-6.0-1.66","","<img src=""img/red-r.png"">","null","trial","null","","0.2,0.8","2:nogo_b","1",""
"null","","html-keyboard-response","420","545882","0.0-6.0-2.66","","<div style=""font-size:60px;"">+</div>","null","","","","","","",""
"387.0500000193715","","image-keyboard-response","421","546270","0.0-6.0-0.67","","img/blue.png","32","trial","32","true","0.8,0.2","1:go_a","",""
"null","","html-keyboard-response","422","547272","0.0-6.0-1.67","","<img src=""img/blue-r.png"" border=""10"">","null","trial","32","","0.8,0.2","1:go_a","1",""
"null","","html-keyboard-response","423","548273","0.0-6.0-2.67","","<div style=""font-size:60px;"">+</div>","null","","","","","","",""
"614.7699999855831","","image-keyboard-response","424","548889","0.0-6.0-0.68","","img/green.png","32","trial","32","true","0.6,0.4","3:go_c","",""
"null","","html-keyboard-response","425","549890","0.0-6.0-1.68","","<img src=""img/green-r.png"" border=""10"">","null","trial","32","","0.6,0.4","3:go_c","1",""
"null","","html-keyboard-response","426","550893","0.0-6.0-2.68","","<div style=""font-size:60px;"">+</div>","null","","","","","","",""
"null","","image-keyboard-response","427","552394","0.0-6.0-0.69","","img/orange.png","null","trial","null","true","0.4,0.6","4:nogo_d","",""
"null","","html-keyboard-response","428","553396","0.0-6.0-1.69","","<img src=""img/orange-n.png"">","null","trial","null","","0.4,0.6","4:nogo_d","0",""
"null","","html-keyboard-response","429","554398","0.0-6.0-2.69","","<div style=""font-size:60px;"">+</div>","null","","","","","","",""
"null","","image-keyboard-response","430","555899","0.0-6.0-0.70","","img/red.png","null","trial","null","true","0.2,0.8","2:nogo_b","",""
"null","","html-keyboard-response","431","556902","0.0-6.0-1.70","","<img src=""img/red-r.png"">","null","trial","null","","0.2,0.8","2:nogo_b","1",""
"null","","html-keyboard-response","432","557903","0.0-6.0-2.70","","<div style=""font-size:60px;"">+</div>","null","","","","","","",""
"472.7950000669807","","image-keyboard-response","433","558377","0.0-6.0-0.71","","img/blue.png","32","trial","32","true","0.8,0.2","1:go_a","",""
"null","","html-keyboard-response","434","559379","0.0-6.0-1.71","","<img src=""img/blue-r.png"" border=""10"">","null","trial","32","","0.8,0.2","1:go_a","1",""
"null","","html-keyboard-response","435","560381","0.0-6.0-2.71","","<div style=""font-size:60px;"">+</div>","null","","","","","","",""
"720.5000000540167","","image-keyboard-response","436","561102","0.0-6.0-0.72","","img/green.png","32","trial","32","true","0.6,0.4","3:go_c","",""
"null","","html-keyboard-response","437","562105","0.0-6.0-1.72","","<img src=""img/green-r.png"" border=""10"">","null","trial","32","","0.6,0.4","3:go_c","1",""
"null","","html-keyboard-response","438","563107","0.0-6.0-2.72","","<div style=""font-size:60px;"">+</div>","null","","","","","","",""
"null","","image-keyboard-response","439","564609","0.0-6.0-0.73","","img/red.png","null","trial","null","true","0.2,0.8","2:nogo_b","",""
"null","","html-keyboard-response","440","565612","0.0-6.0-1.73","","<img src=""img/red-r.png"">","null","trial","null","","0.2,0.8","2:nogo_b","1",""
"null","","html-keyboard-response","441","566612","0.0-6.0-2.73","","<div style=""font-size:60px;"">+</div>","null","","","","","","",""
"null","","image-keyboard-response","442","568114","0.0-6.0-0.74","","img/orange.png","null","trial","null","true","0.4,0.6","4:nogo_d","",""
"null","","html-keyboard-response","443","569116","0.0-6.0-1.74","","<img src=""img/orange-r.png"">","null","trial","null","","0.4,0.6","4:nogo_d","1",""
"null","","html-keyboard-response","444","570117","0.0-6.0-2.74","","<div style=""font-size:60px;"">+</div>","null","","","","","","",""
"486.38999997638166","","image-keyboard-response","445","570605","0.0-6.0-0.75","","img/blue.png","32","trial","32","true","0.8,0.2","1:go_a","",""
"null","","html-keyboard-response","446","571606","0.0-6.0-1.75","","<img src=""img/blue-r.png"" border=""10"">","null","trial","32","","0.8,0.2","1:go_a","1",""
"null","","html-keyboard-response","447","572609","0.0-6.0-2.75","","<div style=""font-size:60px;"">+</div>","null","","","","","","",""
"814.8149999324232","","image-keyboard-response","448","573425","0.0-6.0-0.76","","img/green.png","32","trial","32","true","0.6,0.4","3:go_c","",""
"null","","html-keyboard-response","449","574427","0.0-6.0-1.76","","<img src=""img/green-r.png"" border=""10"">","null","trial","32","","0.6,0.4","3:go_c","1",""
"null","","html-keyboard-response","450","575428","0.0-6.0-2.76","","<div style=""font-size:60px;"">+</div>","null","","","","","","",""
"null","","image-keyboard-response","451","576930","0.0-6.0-0.77","","img/orange.png","null","trial","null","true","0.4,0.6","4:nogo_d","",""
"null","","html-keyboard-response","452","577931","0.0-6.0-1.77","","<img src=""img/orange-n.png"">","null","trial","null","","0.4,0.6","4:nogo_d","0",""
"null","","html-keyboard-response","453","578932","0.0-6.0-2.77","","<div style=""font-size:60px;"">+</div>","null","","","","","","",""
"null","","image-keyboard-response","454","580435","0.0-6.0-0.78","","img/red.png","null","trial","null","true","0.2,0.8","2:nogo_b","",""
"null","","html-keyboard-response","455","581436","0.0-6.0-1.78","","<img src=""img/red-r.png"">","null","trial","null","","0.2,0.8","2:nogo_b","1",""
"null","","html-keyboard-response","456","582438","0.0-6.0-2.78","","<div style=""font-size:60px;"">+</div>","null","","","","","","",""
"450.04000002518296","","image-keyboard-response","457","582889","0.0-6.0-0.79","","img/blue.png","32","trial","32","true","0.8,0.2","1:go_a","",""
"null","","html-keyboard-response","458","583891","0.0-6.0-1.79","","<img src=""img/blue-r.png"" border=""10"">","null","trial","32","","0.8,0.2","1:go_a","1",""
"null","","html-keyboard-response","459","584892","0.0-6.0-2.79","","<div style=""font-size:60px;"">+</div>","null","","","","","","",""
"null","","image-keyboard-response","460","586394","0.0-6.0-0.80","","img/red.png","null","trial","null","true","0.2,0.8","2:nogo_b","",""
"null","","html-keyboard-response","461","587397","0.0-6.0-1.80","","<img src=""img/red-r.png"">","null","trial","null","","0.2,0.8","2:nogo_b","1",""
"null","","html-keyboard-response","462","588398","0.0-6.0-2.80","","<div style=""font-size:60px;"">+</div>","null","","","","","","",""
"501.1299999896437","","image-keyboard-response","463","588900","0.0-6.0-0.81","","img/blue.png","32","trial","32","true","0.8,0.2","1:go_a","",""
"null","","html-keyboard-response","464","589902","0.0-6.0-1.81","","<img src=""img/blue-r.png"" border=""10"">","null","trial","32","","0.8,0.2","1:go_a","1",""
"null","","html-keyboard-response","465","590903","0.0-6.0-2.81","","<div style=""font-size:60px;"">+</div>","null","","","","","","",""
"null","","image-keyboard-response","466","592404","0.0-6.0-0.82","","img/orange.png","null","trial","null","true","0.4,0.6","4:nogo_d","",""
"null","","html-keyboard-response","467","593405","0.0-6.0-1.82","","<img src=""img/orange-r.png"">","null","trial","null","","0.4,0.6","4:nogo_d","1",""
"null","","html-keyboard-response","468","594406","0.0-6.0-2.82","","<div style=""font-size:60px;"">+</div>","null","","","","","","",""
"1183.6500000208616","","image-keyboard-response","469","595591","0.0-6.0-0.83","","img/green.png","32","trial","32","true","0.6,0.4","3:go_c","",""
"null","","html-keyboard-response","470","596592","0.0-6.0-1.83","","<img src=""img/green-n.png"" border=""10"">","null","trial","32","","0.6,0.4","3:go_c","0",""
"null","","html-keyboard-response","471","597594","0.0-6.0-2.83","","<div style=""font-size:60px;"">+</div>","null","","","","","","",""
"625.1000000629574","","image-keyboard-response","472","598220","0.0-6.0-0.84","","img/green.png","32","trial","32","true","0.6,0.4","3:go_c","",""
"null","","html-keyboard-response","473","599221","0.0-6.0-1.84","","<img src=""img/green-r.png"" border=""10"">","null","trial","32","","0.6,0.4","3:go_c","1",""
"null","","html-keyboard-response","474","600223","0.0-6.0-2.84","","<div style=""font-size:60px;"">+</div>","null","","","","","","",""
"null","","image-keyboard-response","475","601725","0.0-6.0-0.85","","img/orange.png","null","trial","null","true","0.4,0.6","4:nogo_d","",""
"null","","html-keyboard-response","476","602726","0.0-6.0-1.85","","<img src=""img/orange-r.png"">","null","trial","null","","0.4,0.6","4:nogo_d","1",""
"null","","html-keyboard-response","477","603728","0.0-6.0-2.85","","<div style=""font-size:60px;"">+</div>","null","","","","","","",""
"null","","image-keyboard-response","478","605230","0.0-6.0-0.86","","img/red.png","null","trial","null","true","0.2,0.8","2:nogo_b","",""
"null","","html-keyboard-response","479","606232","0.0-6.0-1.86","","<img src=""img/red-r.png"">","null","trial","null","","0.2,0.8","2:nogo_b","1",""
"null","","html-keyboard-response","480","607234","0.0-6.0-2.86","","<div style=""font-size:60px;"">+</div>","null","","","","","","",""
"485.2200000314042","","image-keyboard-response","481","607720","0.0-6.0-0.87","","img/blue.png","32","trial","32","true","0.8,0.2","1:go_a","",""
"null","","html-keyboard-response","482","608722","0.0-6.0-1.87","","<img src=""img/blue-r.png"" border=""10"">","null","trial","32","","0.8,0.2","1:go_a","1",""
"null","","html-keyboard-response","483","609724","0.0-6.0-2.87","","<div style=""font-size:60px;"">+</div>","null","","","","","","",""
"742.0950001105666","","image-keyboard-response","484","610467","0.0-6.0-0.88","","img/green.png","32","trial","32","true","0.6,0.4","3:go_c","",""
"null","","html-keyboard-response","485","611469","0.0-6.0-1.88","","<img src=""img/green-n.png"" border=""10"">","null","trial","32","","0.6,0.4","3:go_c","0",""
"null","","html-keyboard-response","486","612471","0.0-6.0-2.88","","<div style=""font-size:60px;"">+</div>","null","","","","","","",""
"null","","image-keyboard-response","487","613972","0.0-6.0-0.89","","img/red.png","null","trial","null","true","0.2,0.8","2:nogo_b","",""
"null","","html-keyboard-response","488","614975","0.0-6.0-1.89","","<img src=""img/red-r.png"">","null","trial","null","","0.2,0.8","2:nogo_b","1",""
"null","","html-keyboard-response","489","615976","0.0-6.0-2.89","","<div style=""font-size:60px;"">+</div>","null","","","","","","",""
"494.2149999551475","","image-keyboard-response","490","616471","0.0-6.0-0.90","","img/blue.png","32","trial","32","true","0.8,0.2","1:go_a","",""
"null","","html-keyboard-response","491","617473","0.0-6.0-1.90","","<img src=""img/blue-r.png"" border=""10"">","null","trial","32","","0.8,0.2","1:go_a","1",""
"null","","html-keyboard-response","492","618474","0.0-6.0-2.90","","<div style=""font-size:60px;"">+</div>","null","","","","","","",""
"null","","image-keyboard-response","493","619976","0.0-6.0-0.91","","img/orange.png","null","trial","null","true","0.4,0.6","4:nogo_d","",""
"null","","html-keyboard-response","494","620978","0.0-6.0-1.91","","<img src=""img/orange-r.png"">","null","trial","null","","0.4,0.6","4:nogo_d","1",""
"null","","html-keyboard-response","495","621979","0.0-6.0-2.91","","<div style=""font-size:60px;"">+</div>","null","","","","","","",""
"null","","image-keyboard-response","496","623481","0.0-6.0-0.92","","img/orange.png","null","trial","null","true","0.4,0.6","4:nogo_d","",""
"null","","html-keyboard-response","497","624482","0.0-6.0-1.92","","<img src=""img/orange-r.png"">","null","trial","null","","0.4,0.6","4:nogo_d","1",""
"null","","html-keyboard-response","498","625483","0.0-6.0-2.92","","<div style=""font-size:60px;"">+</div>","null","","","","","","",""
"474.9199999496341","","image-keyboard-response","499","625959","0.0-6.0-0.93","","img/blue.png","32","trial","32","true","0.8,0.2","1:go_a","",""
"null","","html-keyboard-response","500","626962","0.0-6.0-1.93","","<img src=""img/blue-r.png"" border=""10"">","null","trial","32","","0.8,0.2","1:go_a","1",""
"null","","html-keyboard-response","501","627963","0.0-6.0-2.93","","<div style=""font-size:60px;"">+</div>","null","","","","","","",""
"962.6050000078976","","image-keyboard-response","502","628927","0.0-6.0-0.94","","img/green.png","32","trial","32","true","0.6,0.4","3:go_c","",""
"null","","html-keyboard-response","503","629929","0.0-6.0-1.94","","<img src=""img/green-r.png"" border=""10"">","null","trial","32","","0.6,0.4","3:go_c","1",""
"null","","html-keyboard-response","504","630931","0.0-6.0-2.94","","<div style=""font-size:60px;"">+</div>","null","","","","","","",""
"null","","image-keyboard-response","505","632432","0.0-6.0-0.95","","img/red.png","null","trial","null","true","0.2,0.8","2:nogo_b","",""
"null","","html-keyboard-response","506","633435","0.0-6.0-1.95","","<img src=""img/red-r.png"">","null","trial","null","","0.2,0.8","2:nogo_b","1",""
"null","","html-keyboard-response","507","634436","0.0-6.0-2.95","","<div style=""font-size:60px;"">+</div>","null","","","","","","",""
"null","","image-keyboard-response","508","635938","0.0-6.0-0.96","","img/orange.png","null","trial","null","true","0.4,0.6","4:nogo_d","",""
"null","","html-keyboard-response","509","636940","0.0-6.0-1.96","","<img src=""img/orange-r.png"">","null","trial","null","","0.4,0.6","4:nogo_d","1",""
"null","","html-keyboard-response","510","637941","0.0-6.0-2.96","","<div style=""font-size:60px;"">+</div>","null","","","","","","",""
"null","","image-keyboard-response","511","639442","0.0-6.0-0.97","","img/red.png","null","trial","null","true","0.2,0.8","2:nogo_b","",""
"null","","html-keyboard-response","512","640445","0.0-6.0-1.97","","<img src=""img/red-r.png"">","null","trial","null","","0.2,0.8","2:nogo_b","1",""
"null","","html-keyboard-response","513","641447","0.0-6.0-2.97","","<div style=""font-size:60px;"">+</div>","null","","","","","","",""
"610.1400000043213","","image-keyboard-response","514","642058","0.0-6.0-0.98","","img/green.png","32","trial","32","true","0.6,0.4","3:go_c","",""
"null","","html-keyboard-response","515","643061","0.0-6.0-1.98","","<img src=""img/green-r.png"" border=""10"">","null","trial","32","","0.6,0.4","3:go_c","1",""
"null","","html-keyboard-response","516","644062","0.0-6.0-2.98","","<div style=""font-size:60px;"">+</div>","null","","","","","","",""
"677.3299999767914","","image-keyboard-response","517","644741","0.0-6.0-0.99","","img/blue.png","32","trial","32","true","0.8,0.2","1:go_a","",""
"null","","html-keyboard-response","518","645743","0.0-6.0-1.99","","<img src=""img/blue-n.png"" border=""10"">","null","trial","32","","0.8,0.2","1:go_a","0",""
"null","","html-keyboard-response","519","646744","0.0-6.0-2.99","","<div style=""font-size:60px;"">+</div>","null","","","","","","",""
"null","","image-keyboard-response","520","648246","0.0-6.0-0.100","","img/orange.png","null","trial","null","true","0.4,0.6","4:nogo_d","",""
"null","","html-keyboard-response","521","649247","0.0-6.0-1.100","","<img src=""img/orange-n.png"">","null","trial","null","","0.4,0.6","4:nogo_d","0",""
"null","","html-keyboard-response","522","650249","0.0-6.0-2.100","","<div style=""font-size:60px;"">+</div>","null","","","","","","",""
"474.335000035353","","image-keyboard-response","523","650725","0.0-6.0-0.101","","img/blue.png","32","trial","32","true","0.8,0.2","1:go_a","",""
"null","","html-keyboard-response","524","651726","0.0-6.0-1.101","","<img src=""img/blue-r.png"" border=""10"">","null","trial","32","","0.8,0.2","1:go_a","1",""
"null","","html-keyboard-response","525","652727","0.0-6.0-2.101","","<div style=""font-size:60px;"">+</div>","null","","","","","","",""
"null","","image-keyboard-response","526","654230","0.0-6.0-0.102","","img/red.png","null","trial","null","true","0.2,0.8","2:nogo_b","",""
"null","","html-keyboard-response","527","655232","0.0-6.0-1.102","","<img src=""img/red-r.png"">","null","trial","null","","0.2,0.8","2:nogo_b","1",""
"null","","html-keyboard-response","528","656234","0.0-6.0-2.102","","<div style=""font-size:60px;"">+</div>","null","","","","","","",""
"610.1599999237806","","image-keyboard-response","529","656845","0.0-6.0-0.103","","img/green.png","32","trial","32","true","0.6,0.4","3:go_c","",""
"null","","html-keyboard-response","530","657846","0.0-6.0-1.103","","<img src=""img/green-r.png"" border=""10"">","null","trial","32","","0.6,0.4","3:go_c","1",""
"null","","html-keyboard-response","531","658848","0.0-6.0-2.103","","<div style=""font-size:60px;"">+</div>","null","","","","","","",""
"null","","image-keyboard-response","532","660349","0.0-6.0-0.104","","img/orange.png","null","trial","null","true","0.4,0.6","4:nogo_d","",""
"null","","html-keyboard-response","533","661351","0.0-6.0-1.104","","<img src=""img/orange-n.png"">","null","trial","null","","0.4,0.6","4:nogo_d","0",""
"null","","html-keyboard-response","534","662352","0.0-6.0-2.104","","<div style=""font-size:60px;"">+</div>","null","","","","","","",""
"547.8649999713525","","image-keyboard-response","535","662901","0.0-6.0-0.105","","img/green.png","32","trial","32","true","0.6,0.4","3:go_c","",""
"null","","html-keyboard-response","536","663903","0.0-6.0-1.105","","<img src=""img/green-r.png"" border=""10"">","null","trial","32","","0.6,0.4","3:go_c","1",""
"null","","html-keyboard-response","537","664905","0.0-6.0-2.105","","<div style=""font-size:60px;"">+</div>","null","","","","","","",""
"null","","image-keyboard-response","538","666406","0.0-6.0-0.106","","img/red.png","null","trial","null","true","0.2,0.8","2:nogo_b","",""
"null","","html-keyboard-response","539","667407","0.0-6.0-1.106","","<img src=""img/red-r.png"">","null","trial","null","","0.2,0.8","2:nogo_b","1",""
"null","","html-keyboard-response","540","668408","0.0-6.0-2.106","","<div style=""font-size:60px;"">+</div>","null","","","","","","",""
"507.2699999436736","","image-keyboard-response","541","668917","0.0-6.0-0.107","","img/blue.png","32","trial","32","true","0.8,0.2","1:go_a","",""
"null","","html-keyboard-response","542","669918","0.0-6.0-1.107","","<img src=""img/blue-n.png"" border=""10"">","null","trial","32","","0.8,0.2","1:go_a","0",""
"null","","html-keyboard-response","543","670919","0.0-6.0-2.107","","<div style=""font-size:60px;"">+</div>","null","","","","","","",""
"461.05000004172325","","image-keyboard-response","544","671381","0.0-6.0-0.108","","img/blue.png","32","trial","32","true","0.8,0.2","1:go_a","",""
"null","","html-keyboard-response","545","672383","0.0-6.0-1.108","","<img src=""img/blue-r.png"" border=""10"">","null","trial","32","","0.8,0.2","1:go_a","1",""
"null","","html-keyboard-response","546","673384","0.0-6.0-2.108","","<div style=""font-size:60px;"">+</div>","null","","","","","","",""
"null","","image-keyboard-response","547","674886","0.0-6.0-0.109","","img/orange.png","null","trial","null","true","0.4,0.6","4:nogo_d","",""
"null","","html-keyboard-response","548","675888","0.0-6.0-1.109","","<img src=""img/orange-r.png"">","null","trial","null","","0.4,0.6","4:nogo_d","1",""
"null","","html-keyboard-response","549","676889","0.0-6.0-2.109","","<div style=""font-size:60px;"">+</div>","null","","","","","","",""
"null","","image-keyboard-response","550","678391","0.0-6.0-0.110","","img/red.png","null","trial","null","true","0.2,0.8","2:nogo_b","",""
"null","","html-keyboard-response","551","679392","0.0-6.0-1.110","","<img src=""img/red-r.png"">","null","trial","null","","0.2,0.8","2:nogo_b","1",""
"null","","html-keyboard-response","552","680394","0.0-6.0-2.110","","<div style=""font-size:60px;"">+</div>","null","","","","","","",""
"596.9850000692531","","image-keyboard-response","553","680992","0.0-6.0-0.111","","img/green.png","32","trial","32","true","0.6,0.4","3:go_c","",""
"null","","html-keyboard-response","554","681994","0.0-6.0-1.111","","<img src=""img/green-r.png"" border=""10"">","null","trial","32","","0.6,0.4","3:go_c","1",""
"null","","html-keyboard-response","555","682996","0.0-6.0-2.111","","<div style=""font-size:60px;"">+</div>","null","","","","","","",""
"null","","image-keyboard-response","556","684498","0.0-6.0-0.112","","img/orange.png","null","trial","null","true","0.4,0.6","4:nogo_d","",""
"null","","html-keyboard-response","557","685500","0.0-6.0-1.112","","<img src=""img/orange-n.png"">","null","trial","null","","0.4,0.6","4:nogo_d","0",""
"null","","html-keyboard-response","558","686503","0.0-6.0-2.112","","<div style=""font-size:60px;"">+</div>","null","","","","","","",""
"null","","image-keyboard-response","559","688005","0.0-6.0-0.113","","img/red.png","null","trial","null","true","0.2,0.8","2:nogo_b","",""
"null","","html-keyboard-response","560","689007","0.0-6.0-1.113","","<img src=""img/red-r.png"">","null","trial","null","","0.2,0.8","2:nogo_b","1",""
"null","","html-keyboard-response","561","690008","0.0-6.0-2.113","","<div style=""font-size:60px;"">+</div>","null","","","","","","",""
"610.6199999339879","","image-keyboard-response","562","690619","0.0-6.0-0.114","","img/blue.png","32","trial","32","true","0.8,0.2","1:go_a","",""
"null","","html-keyboard-response","563","691621","0.0-6.0-1.114","","<img src=""img/blue-n.png"" border=""10"">","null","trial","32","","0.8,0.2","1:go_a","0",""
"null","","html-keyboard-response","564","692623","0.0-6.0-2.114","","<div style=""font-size:60px;"">+</div>","null","","","","","","",""
"568.7799999723211","","image-keyboard-response","565","693192","0.0-6.0-0.115","","img/green.png","32","trial","32","true","0.6,0.4","3:go_c","",""
"null","","html-keyboard-response","566","694194","0.0-6.0-1.115","","<img src=""img/green-r.png"" border=""10"">","null","trial","32","","0.6,0.4","3:go_c","1",""
"null","","html-keyboard-response","567","695196","0.0-6.0-2.115","","<div style=""font-size:60px;"">+</div>","null","","","","","","",""
"723.0700000654906","","image-keyboard-response","568","695920","0.0-6.0-0.116","","img/blue.png","32","trial","32","true","0.8,0.2","1:go_a","",""
"null","","html-keyboard-response","569","696923","0.0-6.0-1.116","","<img src=""img/blue-r.png"" border=""10"">","null","trial","32","","0.8,0.2","1:go_a","1",""
"null","","html-keyboard-response","570","697924","0.0-6.0-2.116","","<div style=""font-size:60px;"">+</div>","null","","","","","","",""
"null","","image-keyboard-response","571","699426","0.0-6.0-0.117","","img/red.png","null","trial","null","true","0.2,0.8","2:nogo_b","",""
"null","","html-keyboard-response","572","700428","0.0-6.0-1.117","","<img src=""img/red-r.png"">","null","trial","null","","0.2,0.8","2:nogo_b","1",""
"null","","html-keyboard-response","573","701429","0.0-6.0-2.117","","<div style=""font-size:60px;"">+</div>","null","","","","","","",""
"516.9600000372157","","image-keyboard-response","574","701948","0.0-6.0-0.118","","img/green.png","32","trial","32","true","0.6,0.4","3:go_c","",""
"null","","html-keyboard-response","575","702950","0.0-6.0-1.118","","<img src=""img/green-n.png"" border=""10"">","null","trial","32","","0.6,0.4","3:go_c","0",""
"null","","html-keyboard-response","576","703952","0.0-6.0-2.118","","<div style=""font-size:60px;"">+</div>","null","","","","","","",""
"null","","image-keyboard-response","577","705454","0.0-6.0-0.119","","img/orange.png","null","trial","null","true","0.4,0.6","4:nogo_d","",""
"null","","html-keyboard-response","578","706455","0.0-6.0-1.119","","<img src=""img/orange-n.png"">","null","trial","null","","0.4,0.6","4:nogo_d","0",""
"null","","html-keyboard-response","579","707457","0.0-6.0-2.119","","<div style=""font-size:60px;"">+</div>","null","","","","","","",""
"122979.73500005901","","instructions","580","830437","0.0-7.0","[{""page_index"":0,""viewing_time"":122979.47000002023}]","","","","","","","","",""
"1175.0100000062957","","image-keyboard-response","581","831613","0.0-8.0-0.0","","img/red.png","32","trial","32","true","0.8,0.2","1:go_a","",""
"null","","html-keyboard-response","582","832615","0.0-8.0-1.0","","<img src=""img/red-r.png"" border=""10"">","null","trial","32","","0.8,0.2","1:go_a","1",""
"null","","html-keyboard-response","583","833616","0.0-8.0-2.0","","<div style=""font-size:60px;"">+</div>","null","","","","","","",""
"577.2450000513345","","image-keyboard-response","584","834194","0.0-8.0-0.1","","img/yellow.png","32","trial","null","false","0.2,0.8","2:nogo_b","",""
"null","","html-keyboard-response","585","835197","0.0-8.0-1.1","","<img src=""img/yellow-n.png"" border=""10"">","null","trial","null","","0.2,0.8","2:nogo_b","0",""
"null","","html-keyboard-response","586","836197","0.0-8.0-2.1","","<div style=""font-size:60px;"">+</div>","null","","","","","","",""
"494.82000002171844","","image-keyboard-response","587","836693","0.0-8.0-0.2","","img/blue.png","32","trial","null","false","0.2,0.8","4:nogo_d","",""
"null","","html-keyboard-response","588","837696","0.0-8.0-1.2","","<img src=""img/blue-r.png"" border=""10"">","null","trial","null","","0.2,0.8","4:nogo_d","1",""
"null","","html-keyboard-response","589","838698","0.0-8.0-2.2","","<div style=""font-size:60px;"">+</div>","null","","","","","","",""
"399.6250000782311","","image-keyboard-response","590","839098","0.0-8.0-0.3","","img/green.png","32","trial","32","true","0.8,0.2","3:go_c","",""
"null","","html-keyboard-response","591","840102","0.0-8.0-1.3","","<img src=""img/green-n.png"" border=""10"">","null","trial","32","","0.8,0.2","3:go_c","0",""
"null","","html-keyboard-response","592","841115","0.0-8.0-2.3","","<div style=""font-size:60px;"">+</div>","null","","","","","","",""
"630.3100000368431","","image-keyboard-response","593","841746","0.0-8.0-0.4","","img/red.png","32","trial","32","true","0.8,0.2","1:go_a","",""
"null","","html-keyboard-response","594","842748","0.0-8.0-1.4","","<img src=""img/red-r.png"" border=""10"">","null","trial","32","","0.8,0.2","1:go_a","1",""
"null","","html-keyboard-response","595","843749","0.0-8.0-2.4","","<div style=""font-size:60px;"">+</div>","null","","","","","","",""
"null","","image-keyboard-response","596","845251","0.0-8.0-0.5","","img/yellow.png","null","trial","null","true","0.2,0.8","2:nogo_b","",""
"null","","html-keyboard-response","597","846254","0.0-8.0-1.5","","<img src=""img/yellow-r.png"">","null","trial","null","","0.2,0.8","2:nogo_b","1",""
"null","","html-keyboard-response","598","847255","0.0-8.0-2.5","","<div style=""font-size:60px;"">+</div>","null","","","","","","",""
"null","","image-keyboard-response","599","848757","0.0-8.0-0.6","","img/green.png","null","trial","32","false","0.8,0.2","3:go_c","",""
"null","","html-keyboard-response","600","849766","0.0-8.0-1.6","","<img src=""img/green-n.png"">","null","trial","32","","0.8,0.2","3:go_c","0",""
"null","","html-keyboard-response","601","850768","0.0-8.0-2.6","","<div style=""font-size:60px;"">+</div>","null","","","","","","",""
"400.3299999749288","","image-keyboard-response","602","851169","0.0-8.0-0.7","","img/blue.png","32","trial","null","false","0.2,0.8","4:nogo_d","",""
"null","","html-keyboard-response","603","852172","0.0-8.0-1.7","","<img src=""img/blue-n.png"" border=""10"">","null","trial","null","","0.2,0.8","4:nogo_d","0",""
"null","","html-keyboard-response","604","853175","0.0-8.0-2.7","","<div style=""font-size:60px;"">+</div>","null","","","","","","",""
"582.5900000054389","","image-keyboard-response","605","853758","0.0-8.0-0.8","","img/red.png","32","trial","32","true","0.8,0.2","1:go_a","",""
"null","","html-keyboard-response","606","854760","0.0-8.0-1.8","","<img src=""img/red-n.png"" border=""10"">","null","trial","32","","0.8,0.2","1:go_a","0",""
"null","","html-keyboard-response","607","855761","0.0-8.0-2.8","","<div style=""font-size:60px;"">+</div>","null","","","","","","",""
"null","","image-keyboard-response","608","857264","0.0-8.0-0.9","","img/yellow.png","null","trial","null","true","0.2,0.8","2:nogo_b","",""
"null","","html-keyboard-response","609","858266","0.0-8.0-1.9","","<img src=""img/yellow-r.png"">","null","trial","null","","0.2,0.8","2:nogo_b","1",""
"null","","html-keyboard-response","610","859268","0.0-8.0-2.9","","<div style=""font-size:60px;"">+</div>","null","","","","","","",""
"423.01000002771616","","image-keyboard-response","611","859692","0.0-8.0-0.10","","img/blue.png","32","trial","null","false","0.2,0.8","4:nogo_d","",""
"null","","html-keyboard-response","612","860695","0.0-8.0-1.10","","<img src=""img/blue-n.png"" border=""10"">","null","trial","null","","0.2,0.8","4:nogo_d","0",""
"null","","html-keyboard-response","613","861696","0.0-8.0-2.10","","<div style=""font-size:60px;"">+</div>","null","","","","","","",""
"499.294999986887","","image-keyboard-response","614","862197","0.0-8.0-0.11","","img/green.png","32","trial","32","true","0.8,0.2","3:go_c","",""
"null","","html-keyboard-response","615","863199","0.0-8.0-1.11","","<img src=""img/green-r.png"" border=""10"">","null","trial","32","","0.8,0.2","3:go_c","1",""
"null","","html-keyboard-response","616","864200","0.0-8.0-2.11","","<div style=""font-size:60px;"">+</div>","null","","","","","","",""
"603.110000025481","","image-keyboard-response","617","864804","0.0-8.0-0.12","","img/red.png","32","trial","32","true","0.8,0.2","1:go_a","",""
"null","","html-keyboard-response","618","865807","0.0-8.0-1.12","","<img src=""img/red-r.png"" border=""10"">","null","trial","32","","0.8,0.2","1:go_a","1",""
"null","","html-keyboard-response","619","866809","0.0-8.0-2.12","","<div style=""font-size:60px;"">+</div>","null","","","","","","",""
"null","","image-keyboard-response","620","868310","0.0-8.0-0.13","","img/yellow.png","null","trial","null","true","0.2,0.8","2:nogo_b","",""
"null","","html-keyboard-response","621","869313","0.0-8.0-1.13","","<img src=""img/yellow-r.png"">","null","trial","null","","0.2,0.8","2:nogo_b","1",""
"null","","html-keyboard-response","622","870314","0.0-8.0-2.13","","<div style=""font-size:60px;"">+</div>","null","","","","","","",""
"null","","image-keyboard-response","623","871816","0.0-8.0-0.14","","img/blue.png","null","trial","null","true","0.2,0.8","4:nogo_d","",""
"null","","html-keyboard-response","624","872818","0.0-8.0-1.14","","<img src=""img/blue-r.png"">","null","trial","null","","0.2,0.8","4:nogo_d","1",""
"null","","html-keyboard-response","625","873820","0.0-8.0-2.14","","<div style=""font-size:60px;"">+</div>","null","","","","","","",""
"366.3149999920279","","image-keyboard-response","626","874187","0.0-8.0-0.15","","img/green.png","32","trial","32","true","0.8,0.2","3:go_c","",""
"null","","html-keyboard-response","627","875189","0.0-8.0-1.15","","<img src=""img/green-r.png"" border=""10"">","null","trial","32","","0.8,0.2","3:go_c","1",""
"null","","html-keyboard-response","628","876191","0.0-8.0-2.15","","<div style=""font-size:60px;"">+</div>","null","","","","","","",""
"468.9249999355525","","image-keyboard-response","629","876661","0.0-8.0-0.16","","img/red.png","32","trial","32","true","0.8,0.2","1:go_a","",""
"null","","html-keyboard-response","630","877663","0.0-8.0-1.16","","<img src=""img/red-r.png"" border=""10"">","null","trial","32","","0.8,0.2","1:go_a","1",""
"null","","html-keyboard-response","631","878665","0.0-8.0-2.16","","<div style=""font-size:60px;"">+</div>","null","","","","","","",""
"677.8949999716133","","image-keyboard-response","632","879344","0.0-8.0-0.17","","img/green.png","32","trial","32","true","0.8,0.2","3:go_c","",""
"null","","html-keyboard-response","633","880345","0.0-8.0-1.17","","<img src=""img/green-r.png"" border=""10"">","null","trial","32","","0.8,0.2","3:go_c","1",""
"null","","html-keyboard-response","634","881348","0.0-8.0-2.17","","<div style=""font-size:60px;"">+</div>","null","","","","","","",""
"null","","image-keyboard-response","635","882850","0.0-8.0-0.18","","img/yellow.png","null","trial","null","true","0.2,0.8","2:nogo_b","",""
"null","","html-keyboard-response","636","883852","0.0-8.0-1.18","","<img src=""img/yellow-r.png"">","null","trial","null","","0.2,0.8","2:nogo_b","1",""
"null","","html-keyboard-response","637","884853","0.0-8.0-2.18","","<div style=""font-size:60px;"">+</div>","null","","","","","","",""
"null","","image-keyboard-response","638","886354","0.0-8.0-0.19","","img/blue.png","null","trial","null","true","0.2,0.8","4:nogo_d","",""
"null","","html-keyboard-response","639","887357","0.0-8.0-1.19","","<img src=""img/blue-n.png"">","null","trial","null","","0.2,0.8","4:nogo_d","0",""
"null","","html-keyboard-response","640","888358","0.0-8.0-2.19","","<div style=""font-size:60px;"">+</div>","null","","","","","","",""
"336.405000067316","","image-keyboard-response","641","888695","0.0-8.0-0.20","","img/red.png","32","trial","32","true","0.8,0.2","1:go_a","",""
"null","","html-keyboard-response","642","889697","0.0-8.0-1.20","","<img src=""img/red-r.png"" border=""10"">","null","trial","32","","0.8,0.2","1:go_a","1",""
"null","","html-keyboard-response","643","890699","0.0-8.0-2.20","","<div style=""font-size:60px;"">+</div>","null","","","","","","",""
"null","","image-keyboard-response","644","892200","0.0-8.0-0.21","","img/blue.png","null","trial","null","true","0.2,0.8","4:nogo_d","",""
"null","","html-keyboard-response","645","893203","0.0-8.0-1.21","","<img src=""img/blue-r.png"">","null","trial","null","","0.2,0.8","4:nogo_d","1",""
"null","","html-keyboard-response","646","894203","0.0-8.0-2.21","","<div style=""font-size:60px;"">+</div>","null","","","","","","",""
"290.41500005405396","","image-keyboard-response","647","894495","0.0-8.0-0.22","","img/green.png","32","trial","32","true","0.8,0.2","3:go_c","",""
"null","","html-keyboard-response","648","895497","0.0-8.0-1.22","","<img src=""img/green-n.png"" border=""10"">","null","trial","32","","0.8,0.2","3:go_c","0",""
"null","","html-keyboard-response","649","896498","0.0-8.0-2.22","","<div style=""font-size:60px;"">+</div>","null","","","","","","",""
"null","","image-keyboard-response","650","897999","0.0-8.0-0.23","","img/yellow.png","null","trial","null","true","0.2,0.8","2:nogo_b","",""
"null","","html-keyboard-response","651","899002","0.0-8.0-1.23","","<img src=""img/yellow-r.png"">","null","trial","null","","0.2,0.8","2:nogo_b","1",""
"null","","html-keyboard-response","652","900004","0.0-8.0-2.23","","<div style=""font-size:60px;"">+</div>","null","","","","","","",""
"590.6899999827147","","image-keyboard-response","653","900596","0.0-8.0-0.24","","img/green.png","32","trial","32","true","0.8,0.2","3:go_c","",""
"null","","html-keyboard-response","654","901597","0.0-8.0-1.24","","<img src=""img/green-n.png"" border=""10"">","null","trial","32","","0.8,0.2","3:go_c","0",""
"null","","html-keyboard-response","655","902600","0.0-8.0-2.24","","<div style=""font-size:60px;"">+</div>","null","","","","","","",""
"null","","image-keyboard-response","656","904102","0.0-8.0-0.25","","img/yellow.png","null","trial","null","true","0.2,0.8","2:nogo_b","",""
"null","","html-keyboard-response","657","905104","0.0-8.0-1.25","","<img src=""img/yellow-r.png"">","null","trial","null","","0.2,0.8","2:nogo_b","1",""
"null","","html-keyboard-response","658","906105","0.0-8.0-2.25","","<div style=""font-size:60px;"">+</div>","null","","","","","","",""
"404.2800000170246","","image-keyboard-response","659","906511","0.0-8.0-0.26","","img/blue.png","32","trial","null","false","0.2,0.8","4:nogo_d","",""
"null","","html-keyboard-response","660","907513","0.0-8.0-1.26","","<img src=""img/blue-n.png"" border=""10"">","null","trial","null","","0.2,0.8","4:nogo_d","0",""
"null","","html-keyboard-response","661","908514","0.0-8.0-2.26","","<div style=""font-size:60px;"">+</div>","null","","","","","","",""
"447.0100000035018","","image-keyboard-response","662","908962","0.0-8.0-0.27","","img/red.png","32","trial","32","true","0.8,0.2","1:go_a","",""
"null","","html-keyboard-response","663","909964","0.0-8.0-1.27","","<img src=""img/red-r.png"" border=""10"">","null","trial","32","","0.8,0.2","1:go_a","1",""
"null","","html-keyboard-response","664","910965","0.0-8.0-2.27","","<div style=""font-size:60px;"">+</div>","null","","","","","","",""
"null","","image-keyboard-response","665","912467","0.0-8.0-0.28","","img/yellow.png","null","trial","null","true","0.2,0.8","2:nogo_b","",""
"null","","html-keyboard-response","666","913470","0.0-8.0-1.28","","<img src=""img/yellow-n.png"">","null","trial","null","","0.2,0.8","2:nogo_b","0",""
"null","","html-keyboard-response","667","914471","0.0-8.0-2.28","","<div style=""font-size:60px;"">+</div>","null","","","","","","",""
"430.2200000965968","","image-keyboard-response","668","914903","0.0-8.0-0.29","","img/green.png","32","trial","32","true","0.8,0.2","3:go_c","",""
"null","","html-keyboard-response","669","915905","0.0-8.0-1.29","","<img src=""img/green-r.png"" border=""10"">","null","trial","32","","0.8,0.2","3:go_c","1",""
"null","","html-keyboard-response","670","916906","0.0-8.0-2.29","","<div style=""font-size:60px;"">+</div>","null","","","","","","",""
"540.1650000130758","","image-keyboard-response","671","917447","0.0-8.0-0.30","","img/red.png","32","trial","32","true","0.8,0.2","1:go_a","",""
"null","","html-keyboard-response","672","918449","0.0-8.0-1.30","","<img src=""img/red-n.png"" border=""10"">","null","trial","32","","0.8,0.2","1:go_a","0",""
"null","","html-keyboard-response","673","919451","0.0-8.0-2.30","","<div style=""font-size:60px;"">+</div>","null","","","","","","",""
"null","","image-keyboard-response","674","920953","0.0-8.0-0.31","","img/blue.png","null","trial","null","true","0.2,0.8","4:nogo_d","",""
"null","","html-keyboard-response","675","921954","0.0-8.0-1.31","","<img src=""img/blue-r.png"">","null","trial","null","","0.2,0.8","4:nogo_d","1",""
"null","","html-keyboard-response","676","922956","0.0-8.0-2.31","","<div style=""font-size:60px;"">+</div>","null","","","","","","",""
"null","","image-keyboard-response","677","924458","0.0-8.0-0.32","","img/yellow.png","null","trial","null","true","0.2,0.8","2:nogo_b","",""
"null","","html-keyboard-response","678","925459","0.0-8.0-1.32","","<img src=""img/yellow-r.png"">","null","trial","null","","0.2,0.8","2:nogo_b","1",""
"null","","html-keyboard-response","679","926461","0.0-8.0-2.32","","<div style=""font-size:60px;"">+</div>","null","","","","","","",""
"636.2250000238419","","image-keyboard-response","680","927099","0.0-8.0-0.33","","img/green.png","32","trial","32","true","0.8,0.2","3:go_c","",""
"null","","html-keyboard-response","681","928101","0.0-8.0-1.33","","<img src=""img/green-r.png"" border=""10"">","null","trial","32","","0.8,0.2","3:go_c","1",""
