"rt","url","trial_type","trial_index","time_elapsed","internal_node_id","view_history","stimulus","key_press","test_part","correct_response","correct","use_rew","which_stim","reward","responses"
"3977.4999999208376","consent.html","external-html","0","4115","0.0-0.0","","","","","","","","","",""
"80696.72000000719","","instructions","1","84816","0.0-1.0","[{""page_index"":0,""viewing_time"":5110.865000053309},{""page_index"":1,""viewing_time"":18513.129999977536},{""page_index"":2,""viewing_time"":6000.160000054166},{""page_index"":3,""viewing_time"":21815.83499989938},{""page_index"":4,""viewing_time"":12453.370000002906},{""page_index"":5,""viewing_time"":4308.035000110976},{""page_index"":6,""viewing_time"":12494.03999990318}]","","","","","","","","",""
"719.9999999720603","","image-keyboard-response","2","85538","0.0-2.0-0.0","","img/test1.PNG","32","practice","32","true","","","",""
"null","","html-keyboard-response","3","86545","0.0-2.0-1.0","","<img src=""img/test1-reward.PNG"" border=""10px; grey"">","null","","","","","","",""
"null","","html-keyboard-response","4","87550","0.0-2.0-2.0","","<div style=""font-size:60px;"">+</div>","null","","","","","","",""
"null","","image-keyboard-response","5","89054","0.0-2.0-0.1","","img/test2.PNG","null","practice","null","true","","","",""
"null","","html-keyboard-response","6","90058","0.0-2.0-1.1","","<img src=""img/test2-reward.PNG"">","null","","","","","","",""
"null","","html-keyboard-response","7","91062","0.0-2.0-2.1","","<div style=""font-size:60px;"">+</div>","null","","","","","","",""
"null","","image-keyboard-response","8","92566","0.0-2.0-0.2","","img/test3.PNG","null","practice","null","true","","","",""
"null","","html-keyboard-response","9","93570","0.0-2.0-1.2","","<img src=""img/test3-reward.PNG"">","null","","","","","","",""
"null","","html-keyboard-response","10","94574","0.0-2.0-2.2","","<div style=""font-size:60px;"">+</div>","null","","","","","","",""
"null","","image-keyboard-response","11","96078","0.0-2.0-0.3","","img/test2.PNG","null","practice","null","true","","","",""
"null","","html-keyboard-response","12","97082","0.0-2.0-1.3","","<img src=""img/test2-reward.PNG"">","null","","","","","","",""
"null","","html-keyboard-response","13","98087","0.0-2.0-2.3","","<div style=""font-size:60px;"">+</div>","null","","","","","","",""
"null","","image-keyboard-response","14","99590","0.0-2.0-0.4","","img/test3.PNG","null","practice","null","true","","","",""
"null","","html-keyboard-response","15","100594","0.0-2.0-1.4","","<img src=""img/test3-reward.PNG"">","null","","","","","","",""
"null","","html-keyboard-response","16","101598","0.0-2.0-2.4","","<div style=""font-size:60px;"">+</div>","null","","","","","","",""
"403.85000000242144","","image-keyboard-response","17","102004","0.0-2.0-0.5","","img/test1.PNG","32","practice","32","true","","","",""
"null","","html-keyboard-response","18","103009","0.0-2.0-1.5","","<img src=""img/test1-reward.PNG"" border=""10px; grey"">","null","","","","","","",""
"null","","html-keyboard-response","19","104014","0.0-2.0-2.5","","<div style=""font-size:60px;"">+</div>","null","","","","","","",""
"null","","image-keyboard-response","20","105517","0.0-2.0-0.6","","img/test2.PNG","null","practice","null","true","","","",""
"null","","html-keyboard-response","21","106522","0.0-2.0-1.6","","<img src=""img/test2-reward.PNG"">","null","","","","","","",""
"null","","html-keyboard-response","22","107525","0.0-2.0-2.6","","<div style=""font-size:60px;"">+</div>","null","","","","","","",""
"null","","image-keyboard-response","23","109029","0.0-2.0-0.7","","img/test3.PNG","null","practice","null","true","","","",""
"null","","html-keyboard-response","24","110034","0.0-2.0-1.7","","<img src=""img/test3-reward.PNG"">","null","","","","","","",""
"null","","html-keyboard-response","25","111038","0.0-2.0-2.7","","<div style=""font-size:60px;"">+</div>","null","","","","","","",""
"415.4000000562519","","image-keyboard-response","26","111455","0.0-2.0-0.8","","img/test1.PNG","32","practice","32","true","","","",""
"null","","html-keyboard-response","27","112460","0.0-2.0-1.8","","<img src=""img/test1-reward.PNG"" border=""10px; grey"">","null","","","","","","",""
"null","","html-keyboard-response","28","113464","0.0-2.0-2.8","","<div style=""font-size:60px;"">+</div>","null","","","","","","",""
"615.5250000301749","","image-keyboard-response","29","114081","0.0-2.0-0.9","","img/test1.PNG","32","practice","32","true","","","",""
"null","","html-keyboard-response","30","115084","0.0-2.0-1.9","","<img src=""img/test1-reward.PNG"" border=""10px; grey"">","null","","","","","","",""
"null","","html-keyboard-response","31","116088","0.0-2.0-2.9","","<div style=""font-size:60px;"">+</div>","null","","","","","","",""
"null","","image-keyboard-response","32","117592","0.0-2.0-0.10","","img/test2.PNG","null","practice","null","true","","","",""
"null","","html-keyboard-response","33","118596","0.0-2.0-1.10","","<img src=""img/test2-reward.PNG"">","null","","","","","","",""
"null","","html-keyboard-response","34","119601","0.0-2.0-2.10","","<div style=""font-size:60px;"">+</div>","null","","","","","","",""
"null","","image-keyboard-response","35","121106","0.0-2.0-0.11","","img/test3.PNG","null","practice","null","true","","","",""
"null","","html-keyboard-response","36","122108","0.0-2.0-1.11","","<img src=""img/test3-reward.PNG"">","null","","","","","","",""
"null","","html-keyboard-response","37","123113","0.0-2.0-2.11","","<div style=""font-size:60px;"">+</div>","null","","","","","","",""
"8696.574999950826","","instructions","38","131810","0.0-3.0","[{""page_index"":0,""viewing_time"":8696.309999912046}]","","","","","","","","",""
"null","","image-keyboard-response","39","133312","0.0-4.0-0.0","","img/orange.png","null","trial","32","false","0.8,0.2","1:go_a","",""
"null","","html-keyboard-response","40","134317","0.0-4.0-1.0","","<img src=""img/orange-n.png"">","null","trial","32","","0.8,0.2","1:go_a","0",""
"null","","html-keyboard-response","41","135321","0.0-4.0-2.0","","<div style=""font-size:60px;"">+</div>","null","","","","","","",""
"1469.385000062175","","image-keyboard-response","42","136791","0.0-4.0-0.1","","img/yellow.png","32","trial","null","false","0.2,0.8","2:nogo_b","",""
"null","","html-keyboard-response","43","137795","0.0-4.0-1.1","","<img src=""img/yellow-r.png"" border=""10"">","null","trial","null","","0.2,0.8","2:nogo_b","1",""
"null","","html-keyboard-response","44","138798","0.0-4.0-2.1","","<div style=""font-size:60px;"">+</div>","null","","","","","","",""
"728.8249999983236","","image-keyboard-response","45","139528","0.0-4.0-0.2","","img/yellow.png","32","trial","null","false","0.2,0.8","2:nogo_b","",""
"null","","html-keyboard-response","46","140534","0.0-4.0-1.2","","<img src=""img/yellow-n.png"" border=""10"">","null","trial","null","","0.2,0.8","2:nogo_b","0",""
"null","","html-keyboard-response","47","141538","0.0-4.0-2.2","","<div style=""font-size:60px;"">+</div>","null","","","","","","",""
"1008.1649998901412","","image-keyboard-response","48","142547","0.0-4.0-0.3","","img/orange.png","32","trial","32","true","0.8,0.2","1:go_a","",""
"null","","html-keyboard-response","49","143553","0.0-4.0-1.3","","<img src=""img/orange-r.png"" border=""10"">","null","trial","32","","0.8,0.2","1:go_a","1",""
"null","","html-keyboard-response","50","144557","0.0-4.0-2.3","","<div style=""font-size:60px;"">+</div>","null","","","","","","",""
"504.06499998643994","","image-keyboard-response","51","145062","0.0-4.0-0.4","","img/orange.png","32","trial","32","true","0.8,0.2","1:go_a","",""
"null","","html-keyboard-response","52","146065","0.0-4.0-1.4","","<img src=""img/orange-r.png"" border=""10"">","null","trial","32","","0.8,0.2","1:go_a","1",""
"null","","html-keyboard-response","53","147070","0.0-4.0-2.4","","<div style=""font-size:60px;"">+</div>","null","","","","","","",""
"716.9749999884516","","image-keyboard-response","54","147788","0.0-4.0-0.5","","img/yellow.png","32","trial","null","false","0.2,0.8","2:nogo_b","",""
"null","","html-keyboard-response","55","148795","0.0-4.0-1.5","","<img src=""img/yellow-r.png"" border=""10"">","null","trial","null","","0.2,0.8","2:nogo_b","1",""
"null","","html-keyboard-response","56","149799","0.0-4.0-2.5","","<div style=""font-size:60px;"">+</div>","null","","","","","","",""
"463.9000000897795","","image-keyboard-response","57","150264","0.0-4.0-0.6","","img/orange.png","32","trial","32","true","0.8,0.2","1:go_a","",""
"null","","html-keyboard-response","58","151268","0.0-4.0-1.6","","<img src=""img/orange-r.png"" border=""10"">","null","trial","32","","0.8,0.2","1:go_a","1",""
"null","","html-keyboard-response","59","152272","0.0-4.0-2.6","","<div style=""font-size:60px;"">+</div>","null","","","","","","",""
"350.42000003159046","","image-keyboard-response","60","152623","0.0-4.0-0.7","","img/yellow.png","32","trial","null","false","0.2,0.8","2:nogo_b","",""
"null","","html-keyboard-response","61","153630","0.0-4.0-1.7","","<img src=""img/yellow-r.png"" border=""10"">","null","trial","null","","0.2,0.8","2:nogo_b","1",""
"null","","html-keyboard-response","62","154635","0.0-4.0-2.7","","<div style=""font-size:60px;"">+</div>","null","","","","","","",""
"312.17500008642673","","image-keyboard-response","63","154948","0.0-4.0-0.8","","img/yellow.png","32","trial","null","false","0.2,0.8","2:nogo_b","",""
"null","","html-keyboard-response","64","155952","0.0-4.0-1.8","","<img src=""img/yellow-n.png"" border=""10"">","null","trial","null","","0.2,0.8","2:nogo_b","0",""
"null","","html-keyboard-response","65","156957","0.0-4.0-2.8","","<div style=""font-size:60px;"">+</div>","null","","","","","","",""
"402.2150000091642","","image-keyboard-response","66","157360","0.0-4.0-0.9","","img/orange.png","32","trial","32","true","0.8,0.2","1:go_a","",""
"null","","html-keyboard-response","67","158362","0.0-4.0-1.9","","<img src=""img/orange-r.png"" border=""10"">","null","trial","32","","0.8,0.2","1:go_a","1",""
"null","","html-keyboard-response","68","159365","0.0-4.0-2.9","","<div style=""font-size:60px;"">+</div>","null","","","","","","",""
"469.150000018999","","image-keyboard-response","69","159836","0.0-4.0-0.10","","img/orange.png","32","trial","32","true","0.8,0.2","1:go_a","",""
"null","","html-keyboard-response","70","160846","0.0-4.0-1.10","","<img src=""img/orange-n.png"" border=""10"">","null","trial","32","","0.8,0.2","1:go_a","0",""
"null","","html-keyboard-response","71","161847","0.0-4.0-2.10","","<div style=""font-size:60px;"">+</div>","null","","","","","","",""
"553.8500000257045","","image-keyboard-response","72","162402","0.0-4.0-0.11","","img/yellow.png","32","trial","null","false","0.2,0.8","2:nogo_b","",""
"null","","html-keyboard-response","73","163406","0.0-4.0-1.11","","<img src=""img/yellow-n.png"" border=""10"">","null","trial","null","","0.2,0.8","2:nogo_b","0",""
"null","","html-keyboard-response","74","164411","0.0-4.0-2.11","","<div style=""font-size:60px;"">+</div>","null","","","","","","",""
"441.1949999630451","","image-keyboard-response","75","164853","0.0-4.0-0.12","","img/orange.png","32","trial","32","true","0.8,0.2","1:go_a","",""
"null","","html-keyboard-response","76","165855","0.0-4.0-1.12","","<img src=""img/orange-r.png"" border=""10"">","null","trial","32","","0.8,0.2","1:go_a","1",""
"null","","html-keyboard-response","77","166860","0.0-4.0-2.12","","<div style=""font-size:60px;"">+</div>","null","","","","","","",""
"456.80499996524304","","image-keyboard-response","78","167318","0.0-4.0-0.13","","img/yellow.png","32","trial","null","false","0.2,0.8","2:nogo_b","",""
"null","","html-keyboard-response","79","168324","0.0-4.0-1.13","","<img src=""img/yellow-n.png"" border=""10"">","null","trial","null","","0.2,0.8","2:nogo_b","0",""
"null","","html-keyboard-response","80","169328","0.0-4.0-2.13","","<div style=""font-size:60px;"">+</div>","null","","","","","","",""
"481.6300000529736","","image-keyboard-response","81","169810","0.0-4.0-0.14","","img/orange.png","32","trial","32","true","0.8,0.2","1:go_a","",""
"null","","html-keyboard-response","82","170814","0.0-4.0-1.14","","<img src=""img/orange-n.png"" border=""10"">","null","trial","32","","0.8,0.2","1:go_a","0",""
"null","","html-keyboard-response","83","171818","0.0-4.0-2.14","","<div style=""font-size:60px;"">+</div>","null","","","","","","",""
"436.284999945201","","image-keyboard-response","84","172255","0.0-4.0-0.15","","img/yellow.png","32","trial","null","false","0.2,0.8","2:nogo_b","",""
"null","","html-keyboard-response","85","173258","0.0-4.0-1.15","","<img src=""img/yellow-r.png"" border=""10"">","null","trial","null","","0.2,0.8","2:nogo_b","1",""
"null","","html-keyboard-response","86","174262","0.0-4.0-2.15","","<div style=""font-size:60px;"">+</div>","null","","","","","","",""
"null","","image-keyboard-response","87","175765","0.0-4.0-0.16","","img/orange.png","null","trial","32","false","0.8,0.2","1:go_a","",""
"null","","html-keyboard-response","88","176770","0.0-4.0-1.16","","<img src=""img/orange-n.png"">","null","trial","32","","0.8,0.2","1:go_a","0",""
"null","","html-keyboard-response","89","177774","0.0-4.0-2.16","","<div style=""font-size:60px;"">+</div>","null","","","","","","",""
"497.2350000170991","","image-keyboard-response","90","178272","0.0-4.0-0.17","","img/yellow.png","32","trial","null","false","0.2,0.8","2:nogo_b","",""
"null","","html-keyboard-response","91","179278","0.0-4.0-1.17","","<img src=""img/yellow-n.png"" border=""10"">","null","trial","null","","0.2,0.8","2:nogo_b","0",""
"null","","html-keyboard-response","92","180281","0.0-4.0-2.17","","<div style=""font-size:60px;"">+</div>","null","","","","","","",""
"712.0250000152737","","image-keyboard-response","93","180994","0.0-4.0-0.18","","img/orange.png","32","trial","32","true","0.8,0.2","1:go_a","",""
"null","","html-keyboard-response","94","182000","0.0-4.0-1.18","","<img src=""img/orange-r.png"" border=""10"">","null","trial","32","","0.8,0.2","1:go_a","1",""
"null","","html-keyboard-response","95","183005","0.0-4.0-2.18","","<div style=""font-size:60px;"">+</div>","null","","","","","","",""
"582.0600000442937","","image-keyboard-response","96","183588","0.0-4.0-0.19","","img/yellow.png","32","trial","null","false","0.2,0.8","2:nogo_b","",""
"null","","html-keyboard-response","97","184594","0.0-4.0-1.19","","<img src=""img/yellow-n.png"" border=""10"">","null","trial","null","","0.2,0.8","2:nogo_b","0",""
"null","","html-keyboard-response","98","185599","0.0-4.0-2.19","","<div style=""font-size:60px;"">+</div>","null","","","","","","",""
"615.2999999467283","","image-keyboard-response","99","186215","0.0-4.0-0.20","","img/orange.png","32","trial","32","true","0.8,0.2","1:go_a","",""
"null","","html-keyboard-response","100","187219","0.0-4.0-1.20","","<img src=""img/orange-r.png"" border=""10"">","null","trial","32","","0.8,0.2","1:go_a","1",""
"null","","html-keyboard-response","101","188223","0.0-4.0-2.20","","<div style=""font-size:60px;"">+</div>","null","","","","","","",""
"710.7700000051409","","image-keyboard-response","102","188935","0.0-4.0-0.21","","img/yellow.png","32","trial","null","false","0.2,0.8","2:nogo_b","",""
"null","","html-keyboard-response","103","189942","0.0-4.0-1.21","","<img src=""img/yellow-r.png"" border=""10"">","null","trial","null","","0.2,0.8","2:nogo_b","1",""
"null","","html-keyboard-response","104","190945","0.0-4.0-2.21","","<div style=""font-size:60px;"">+</div>","null","","","","","","",""
"null","","image-keyboard-response","105","192449","0.0-4.0-0.22","","img/yellow.png","null","trial","null","true","0.2,0.8","2:nogo_b","",""
"null","","html-keyboard-response","106","193454","0.0-4.0-1.22","","<img src=""img/yellow-r.png"">","null","trial","null","","0.2,0.8","2:nogo_b","1",""
"null","","html-keyboard-response","107","194457","0.0-4.0-2.22","","<div style=""font-size:60px;"">+</div>","null","","","","","","",""
"420.285000000149","","image-keyboard-response","108","194879","0.0-4.0-0.23","","img/orange.png","32","trial","32","true","0.8,0.2","1:go_a","",""
"null","","html-keyboard-response","109","195885","0.0-4.0-1.23","","<img src=""img/orange-n.png"" border=""10"">","null","trial","32","","0.8,0.2","1:go_a","0",""
"null","","html-keyboard-response","110","196890","0.0-4.0-2.23","","<div style=""font-size:60px;"">+</div>","null","","","","","","",""
"742.6700000651181","","image-keyboard-response","111","197634","0.0-4.0-0.24","","img/orange.png","32","trial","32","true","0.8,0.2","1:go_a","",""
"null","","html-keyboard-response","112","198638","0.0-4.0-1.24","","<img src=""img/orange-r.png"" border=""10"">","null","trial","32","","0.8,0.2","1:go_a","1",""
"null","","html-keyboard-response","113","199642","0.0-4.0-2.24","","<div style=""font-size:60px;"">+</div>","null","","","","","","",""
"null","","image-keyboard-response","114","201146","0.0-4.0-0.25","","img/yellow.png","null","trial","null","true","0.2,0.8","2:nogo_b","",""
"null","","html-keyboard-response","115","202150","0.0-4.0-1.25","","<img src=""img/yellow-r.png"">","null","trial","null","","0.2,0.8","2:nogo_b","1",""
"null","","html-keyboard-response","116","203154","0.0-4.0-2.25","","<div style=""font-size:60px;"">+</div>","null","","","","","","",""
"614.3700000829995","","image-keyboard-response","117","203770","0.0-4.0-0.26","","img/yellow.png","32","trial","null","false","0.2,0.8","2:nogo_b","",""
"null","","html-keyboard-response","118","204774","0.0-4.0-1.26","","<img src=""img/yellow-n.png"" border=""10"">","null","trial","null","","0.2,0.8","2:nogo_b","0",""
"null","","html-keyboard-response","119","205778","0.0-4.0-2.26","","<div style=""font-size:60px;"">+</div>","null","","","","","","",""
"419.66000001411885","","image-keyboard-response","120","206199","0.0-4.0-0.27","","img/orange.png","32","trial","32","true","0.8,0.2","1:go_a","",""
"null","","html-keyboard-response","121","207206","0.0-4.0-1.27","","<img src=""img/orange-r.png"" border=""10"">","null","trial","32","","0.8,0.2","1:go_a","1",""
"null","","html-keyboard-response","122","208210","0.0-4.0-2.27","","<div style=""font-size:60px;"">+</div>","null","","","","","","",""
"386.70999999158084","","image-keyboard-response","123","208598","0.0-4.0-0.28","","img/yellow.png","32","trial","null","false","0.2,0.8","2:nogo_b","",""
"null","","html-keyboard-response","124","209604","0.0-4.0-1.28","","<img src=""img/yellow-n.png"" border=""10"">","null","trial","null","","0.2,0.8","2:nogo_b","0",""
"null","","html-keyboard-response","125","210608","0.0-4.0-2.28","","<div style=""font-size:60px;"">+</div>","null","","","","","","",""
"487.6550000626594","","image-keyboard-response","126","211097","0.0-4.0-0.29","","img/orange.png","32","trial","32","true","0.8,0.2","1:go_a","",""
"null","","html-keyboard-response","127","212100","0.0-4.0-1.29","","<img src=""img/orange-n.png"" border=""10"">","null","trial","32","","0.8,0.2","1:go_a","0",""
"null","","html-keyboard-response","128","213104","0.0-4.0-2.29","","<div style=""font-size:60px;"">+</div>","null","","","","","","",""
"null","","image-keyboard-response","129","214607","0.0-4.0-0.30","","img/orange.png","null","trial","32","false","0.8,0.2","1:go_a","",""
"null","","html-keyboard-response","130","215612","0.0-4.0-1.30","","<img src=""img/orange-r.png"">","null","trial","32","","0.8,0.2","1:go_a","1",""
"null","","html-keyboard-response","131","216616","0.0-4.0-2.30","","<div style=""font-size:60px;"">+</div>","null","","","","","","",""
"319.50500002130866","","image-keyboard-response","132","216937","0.0-4.0-0.31","","img/yellow.png","32","trial","null","false","0.2,0.8","2:nogo_b","",""
"null","","html-keyboard-response","133","217940","0.0-4.0-1.31","","<img src=""img/yellow-r.png"" border=""10"">","null","trial","null","","0.2,0.8","2:nogo_b","1",""
"null","","html-keyboard-response","134","218944","0.0-4.0-2.31","","<div style=""font-size:60px;"">+</div>","null","","","","","","",""
"null","","image-keyboard-response","135","220448","0.0-4.0-0.32","","img/yellow.png","null","trial","null","true","0.2,0.8","2:nogo_b","",""
"null","","html-keyboard-response","136","221452","0.0-4.0-1.32","","<img src=""img/yellow-r.png"">","null","trial","null","","0.2,0.8","2:nogo_b","1",""
"null","","html-keyboard-response","137","222456","0.0-4.0-2.32","","<div style=""font-size:60px;"">+</div>","null","","","","","","",""
"null","","image-keyboard-response","138","223960","0.0-4.0-0.33","","img/orange.png","null","trial","32","false","0.8,0.2","1:go_a","",""
"null","","html-keyboard-response","139","224964","0.0-4.0-1.33","","<img src=""img/orange-n.png"">","null","trial","32","","0.8,0.2","1:go_a","0",""
"null","","html-keyboard-response","140","225968","0.0-4.0-2.33","","<div style=""font-size:60px;"">+</div>","null","","","","","","",""
"420.1249999459833","","image-keyboard-response","141","226389","0.0-4.0-0.34","","img/yellow.png","32","trial","null","false","0.2,0.8","2:nogo_b","",""
"null","","html-keyboard-response","142","227394","0.0-4.0-1.34","","<img src=""img/yellow-n.png"" border=""10"">","null","trial","null","","0.2,0.8","2:nogo_b","0",""
"null","","html-keyboard-response","143","228395","0.0-4.0-2.34","","<div style=""font-size:60px;"">+</div>","null","","","","","","",""
"736.9050000561401","","image-keyboard-response","144","229133","0.0-4.0-0.35","","img/orange.png","32","trial","32","true","0.8,0.2","1:go_a","",""
"null","","html-keyboard-response","145","230137","0.0-4.0-1.35","","<img src=""img/orange-r.png"" border=""10"">","null","trial","32","","0.8,0.2","1:go_a","1",""
"null","","html-keyboard-response","146","231141","0.0-4.0-2.35","","<div style=""font-size:60px;"">+</div>","null","","","","","","",""
"null","","image-keyboard-response","147","232644","0.0-4.0-0.36","","img/yellow.png","null","trial","null","true","0.2,0.8","2:nogo_b","",""
"null","","html-keyboard-response","148","233649","0.0-4.0-1.36","","<img src=""img/yellow-r.png"">","null","trial","null","","0.2,0.8","2:nogo_b","1",""
"null","","html-keyboard-response","149","234653","0.0-4.0-2.36","","<div style=""font-size:60px;"">+</div>","null","","","","","","",""
"1179.3899999465793","","image-keyboard-response","150","235834","0.0-4.0-0.37","","img/orange.png","32","trial","32","true","0.8,0.2","1:go_a","",""
"null","","html-keyboard-response","151","236836","0.0-4.0-1.37","","<img src=""img/orange-r.png"" border=""10"">","null","trial","32","","0.8,0.2","1:go_a","1",""
"null","","html-keyboard-response","152","237840","0.0-4.0-2.37","","<div style=""font-size:60px;"">+</div>","null","","","","","","",""
"null","","image-keyboard-response","153","239344","0.0-4.0-0.38","","img/orange.png","null","trial","32","false","0.8,0.2","1:go_a","",""
"null","","html-keyboard-response","154","240348","0.0-4.0-1.38","","<img src=""img/orange-n.png"">","null","trial","32","","0.8,0.2","1:go_a","0",""
"null","","html-keyboard-response","155","241352","0.0-4.0-2.38","","<div style=""font-size:60px;"">+</div>","null","","","","","","",""
"637.0100000640377","","image-keyboard-response","156","241990","0.0-4.0-0.39","","img/yellow.png","32","trial","null","false","0.2,0.8","2:nogo_b","",""
"null","","html-keyboard-response","157","242995","0.0-4.0-1.39","","<img src=""img/yellow-n.png"" border=""10"">","null","trial","null","","0.2,0.8","2:nogo_b","0",""
"null","","html-keyboard-response","158","243999","0.0-4.0-2.39","","<div style=""font-size:60px;"">+</div>","null","","","","","","",""
"643.3500000275671","","image-keyboard-response","159","244644","0.0-4.0-0.40","","img/yellow.png","32","trial","null","false","0.2,0.8","2:nogo_b","",""
"null","","html-keyboard-response","160","245648","0.0-4.0-1.40","","<img src=""img/yellow-n.png"" border=""10"">","null","trial","null","","0.2,0.8","2:nogo_b","0",""
"null","","html-keyboard-response","161","246652","0.0-4.0-2.40","","<div style=""font-size:60px;"">+</div>","null","","","","","","",""
"1272.164999973029","","image-keyboard-response","162","247925","0.0-4.0-0.41","","img/orange.png","32","trial","32","true","0.8,0.2","1:go_a","",""
"null","","html-keyboard-response","163","248928","0.0-4.0-1.41","","<img src=""img/orange-r.png"" border=""10"">","null","trial","32","","0.8,0.2","1:go_a","1",""
"null","","html-keyboard-response","164","249932","0.0-4.0-2.41","","<div style=""font-size:60px;"">+</div>","null","","","","","","",""
"null","","image-keyboard-response","165","251436","0.0-4.0-0.42","","img/orange.png","null","trial","32","false","0.8,0.2","1:go_a","",""
"null","","html-keyboard-response","166","252440","0.0-4.0-1.42","","<img src=""img/orange-n.png"">","null","trial","32","","0.8,0.2","1:go_a","0",""
"null","","html-keyboard-response","167","253444","0.0-4.0-2.42","","<div style=""font-size:60px;"">+</div>","null","","","","","","",""
"423.5800000606105","","image-keyboard-response","168","253869","0.0-4.0-0.43","","img/yellow.png","32","trial","null","false","0.2,0.8","2:nogo_b","",""
"null","","html-keyboard-response","169","254872","0.0-4.0-1.43","","<img src=""img/yellow-n.png"" border=""10"">","null","trial","null","","0.2,0.8","2:nogo_b","0",""
"null","","html-keyboard-response","170","255876","0.0-4.0-2.43","","<div style=""font-size:60px;"">+</div>","null","","","","","","",""
"735.675000003539","","image-keyboard-response","171","256613","0.0-4.0-0.44","","img/yellow.png","32","trial","null","false","0.2,0.8","2:nogo_b","",""
"null","","html-keyboard-response","172","257618","0.0-4.0-1.44","","<img src=""img/yellow-n.png"" border=""10"">","null","trial","null","","0.2,0.8","2:nogo_b","0",""
"null","","html-keyboard-response","173","258623","0.0-4.0-2.44","","<div style=""font-size:60px;"">+</div>","null","","","","","","",""
"906.7299999296665","","image-keyboard-response","174","259530","0.0-4.0-0.45","","img/orange.png","32","trial","32","true","0.8,0.2","1:go_a","",""
"null","","html-keyboard-response","175","260532","0.0-4.0-1.45","","<img src=""img/orange-r.png"" border=""10"">","null","trial","32","","0.8,0.2","1:go_a","1",""
"null","","html-keyboard-response","176","261537","0.0-4.0-2.45","","<div style=""font-size:60px;"">+</div>","null","","","","","","",""
"null","","image-keyboard-response","177","263042","0.0-4.0-0.46","","img/orange.png","null","trial","32","false","0.8,0.2","1:go_a","",""
"null","","html-keyboard-response","178","264045","0.0-4.0-1.46","","<img src=""img/orange-n.png"">","null","trial","32","","0.8,0.2","1:go_a","0",""
"null","","html-keyboard-response","179","265049","0.0-4.0-2.46","","<div style=""font-size:60px;"">+</div>","null","","","","","","",""
"598.0499999132007","","image-keyboard-response","180","265648","0.0-4.0-0.47","","img/yellow.png","32","trial","null","false","0.2,0.8","2:nogo_b","",""
"null","","html-keyboard-response","181","266651","0.0-4.0-1.47","","<img src=""img/yellow-n.png"" border=""10"">","null","trial","null","","0.2,0.8","2:nogo_b","0",""
"null","","html-keyboard-response","182","267655","0.0-4.0-2.47","","<div style=""font-size:60px;"">+</div>","null","","","","","","",""
"null","","image-keyboard-response","183","269159","0.0-4.0-0.48","","img/yellow.png","null","trial","null","true","0.2,0.8","2:nogo_b","",""
"null","","html-keyboard-response","184","270163","0.0-4.0-1.48","","<img src=""img/yellow-r.png"">","null","trial","null","","0.2,0.8","2:nogo_b","1",""
"null","","html-keyboard-response","185","271169","0.0-4.0-2.48","","<div style=""font-size:60px;"">+</div>","null","","","","","","",""
"548.6950000049546","","image-keyboard-response","186","271719","0.0-4.0-0.49","","img/orange.png","32","trial","32","true","0.8,0.2","1:go_a","",""
"null","","html-keyboard-response","187","272723","0.0-4.0-1.49","","<img src=""img/orange-r.png"" border=""10"">","null","trial","32","","0.8,0.2","1:go_a","1",""
"null","","html-keyboard-response","188","273727","0.0-4.0-2.49","","<div style=""font-size:60px;"">+</div>","null","","","","","","",""
"null","","image-keyboard-response","189","275231","0.0-4.0-0.50","","img/yellow.png","null","trial","null","true","0.2,0.8","2:nogo_b","",""
"null","","html-keyboard-response","190","276235","0.0-4.0-1.50","","<img src=""img/yellow-r.png"">","null","trial","null","","0.2,0.8","2:nogo_b","1",""
"null","","html-keyboard-response","191","277240","0.0-4.0-2.50","","<div style=""font-size:60px;"">+</div>","null","","","","","","",""
"null","","image-keyboard-response","192","278744","0.0-4.0-0.51","","img/orange.png","null","trial","32","false","0.8,0.2","1:go_a","",""
"null","","html-keyboard-response","193","279747","0.0-4.0-1.51","","<img src=""img/orange-n.png"">","null","trial","32","","0.8,0.2","1:go_a","0",""
"null","","html-keyboard-response","194","280752","0.0-4.0-2.51","","<div style=""font-size:60px;"">+</div>","null","","","","","","",""
"null","","image-keyboard-response","195","282255","0.0-4.0-0.52","","img/yellow.png","null","trial","null","true","0.2,0.8","2:nogo_b","",""
"null","","html-keyboard-response","196","283259","0.0-4.0-1.52","","<img src=""img/yellow-r.png"">","null","trial","null","","0.2,0.8","2:nogo_b","1",""
"null","","html-keyboard-response","197","284264","0.0-4.0-2.52","","<div style=""font-size:60px;"">+</div>","null","","","","","","",""
"960.1650000549853","","image-keyboard-response","198","285225","0.0-4.0-0.53","","img/orange.png","32","trial","32","true","0.8,0.2","1:go_a","",""
"null","","html-keyboard-response","199","286232","0.0-4.0-1.53","","<img src=""img/orange-r.png"" border=""10"">","null","trial","32","","0.8,0.2","1:go_a","1",""
"null","","html-keyboard-response","200","287236","0.0-4.0-2.53","","<div style=""font-size:60px;"">+</div>","null","","","","","","",""
"329.81999998446554","","image-keyboard-response","201","287567","0.0-4.0-0.54","","img/yellow.png","32","trial","null","false","0.2,0.8","2:nogo_b","",""
"null","","html-keyboard-response","202","288571","0.0-4.0-1.54","","<img src=""img/yellow-r.png"" border=""10"">","null","trial","null","","0.2,0.8","2:nogo_b","1",""
"null","","html-keyboard-response","203","289576","0.0-4.0-2.54","","<div style=""font-size:60px;"">+</div>","null","","","","","","",""
"null","","image-keyboard-response","204","291079","0.0-4.0-0.55","","img/orange.png","null","trial","32","false","0.8,0.2","1:go_a","",""
"null","","html-keyboard-response","205","292084","0.0-4.0-1.55","","<img src=""img/orange-n.png"">","null","trial","32","","0.8,0.2","1:go_a","0",""
"null","","html-keyboard-response","206","293088","0.0-4.0-2.55","","<div style=""font-size:60px;"">+</div>","null","","","","","","",""
"null","","image-keyboard-response","207","294591","0.0-4.0-0.56","","img/yellow.png","null","trial","null","true","0.2,0.8","2:nogo_b","",""
"null","","html-keyboard-response","208","295595","0.0-4.0-1.56","","<img src=""img/yellow-r.png"">","null","trial","null","","0.2,0.8","2:nogo_b","1",""
"null","","html-keyboard-response","209","296600","0.0-4.0-2.56","","<div style=""font-size:60px;"">+</div>","null","","","","","","",""
"null","","image-keyboard-response","210","298105","0.0-4.0-0.57","","img/orange.png","null","trial","32","false","0.8,0.2","1:go_a","",""
"null","","html-keyboard-response","211","299108","0.0-4.0-1.57","","<img src=""img/orange-n.png"">","null","trial","32","","0.8,0.2","1:go_a","0",""
"null","","html-keyboard-response","212","300112","0.0-4.0-2.57","","<div style=""font-size:60px;"">+</div>","null","","","","","","",""
"421.7849998967722","","image-keyboard-response","213","300535","0.0-4.0-0.58","","img/orange.png","32","trial","32","true","0.8,0.2","1:go_a","",""
"null","","html-keyboard-response","214","301540","0.0-4.0-1.58","","<img src=""img/orange-r.png"" border=""10"">","null","trial","32","","0.8,0.2","1:go_a","1",""
"null","","html-keyboard-response","215","302544","0.0-4.0-2.58","","<div style=""font-size:60px;"">+</div>","null","","","","","","",""
"1077.9350000666454","","image-keyboard-response","216","303623","0.0-4.0-0.59","","img/yellow.png","32","trial","null","false","0.2,0.8","2:nogo_b","",""
"null","","html-keyboard-response","217","304628","0.0-4.0-1.59","","<img src=""img/yellow-n.png"" border=""10"">","null","trial","null","","0.2,0.8","2:nogo_b","0",""
"null","","html-keyboard-response","218","305633","0.0-4.0-2.59","","<div style=""font-size:60px;"">+</div>","null","","","","","","",""
"208223.9300000947","","instructions","219","513863","0.0-5.0","[{""page_index"":0,""viewing_time"":208223.5900000669}]","","","","","","","","",""
"null","","image-keyboard-response","220","515367","0.0-6.0-0.0","","img/red.png","null","trial","null","true","0.2,0.8","2:nogo_b","",""
"null","","html-keyboard-response","221","516372","0.0-6.0-1.0","","<img src=""img/red-r.png"">","null","trial","null","","0.2,0.8","2:nogo_b","1",""
"null","","html-keyboard-response","222","517376","0.0-6.0-2.0","","<div style=""font-size:60px;"">+</div>","null","","","","","","",""
"811.6900000022724","","image-keyboard-response","223","518189","0.0-6.0-0.1","","img/grey.png","32","trial","32","true","1,0","3:go_c","",""
"null","","html-keyboard-response","224","519193","0.0-6.0-1.1","","<img src=""img/grey-r.png"" border=""10"">","null","trial","32","","1,0","3:go_c","1",""
"null","","html-keyboard-response","225","520197","0.0-6.0-2.1","","<div style=""font-size:60px;"">+</div>","null","","","","","","",""
"846.0300000151619","","image-keyboard-response","226","521045","0.0-6.0-0.2","","img/orange.png","32","trial","32","true","0.8,0.2","1:go_a","",""
"null","","html-keyboard-response","227","522051","0.0-6.0-1.2","","<img src=""img/orange-r.png"" border=""10"">","null","trial","32","","0.8,0.2","1:go_a","1",""
"null","","html-keyboard-response","228","523054","0.0-6.0-2.2","","<div style=""font-size:60px;"">+</div>","null","","","","","","",""
"428.95500001031905","","image-keyboard-response","229","523483","0.0-6.0-0.3","","img/purple.png","32","trial","null","false","0,1","4:nogo_d","",""
"null","","html-keyboard-response","230","524487","0.0-6.0-1.3","","<img src=""img/purple-n.png"" border=""10"">","null","trial","null","","0,1","4:nogo_d","0",""
"null","","html-keyboard-response","231","525492","0.0-6.0-2.3","","<div style=""font-size:60px;"">+</div>","null","","","","","","",""
"541.9549999060109","","image-keyboard-response","232","526035","0.0-6.0-0.4","","img/orange.png","32","trial","32","true","0.8,0.2","1:go_a","",""
"null","","html-keyboard-response","233","527041","0.0-6.0-1.4","","<img src=""img/orange-n.png"" border=""10"">","null","trial","32","","0.8,0.2","1:go_a","0",""
"null","","html-keyboard-response","234","528046","0.0-6.0-2.4","","<div style=""font-size:60px;"">+</div>","null","","","","","","",""
"616.4649999700487","","image-keyboard-response","235","528663","0.0-6.0-0.5","","img/grey.png","32","trial","32","true","1,0","3:go_c","",""
"null","","html-keyboard-response","236","529666","0.0-6.0-1.5","","<img src=""img/grey-r.png"" border=""10"">","null","trial","32","","1,0","3:go_c","1",""
"null","","html-keyboard-response","237","530670","0.0-6.0-2.5","","<div style=""font-size:60px;"">+</div>","null","","","","","","",""
"null","","image-keyboard-response","238","532173","0.0-6.0-0.6","","img/purple.png","null","trial","null","true","0,1","4:nogo_d","",""
"null","","html-keyboard-response","239","533178","0.0-6.0-1.6","","<img src=""img/purple-r.png"">","null","trial","null","","0,1","4:nogo_d","1",""
"null","","html-keyboard-response","240","534182","0.0-6.0-2.6","","<div style=""font-size:60px;"">+</div>","null","","","","","","",""
"606.5649999072775","","image-keyboard-response","241","534790","0.0-6.0-0.7","","img/red.png","32","trial","null","false","0.2,0.8","2:nogo_b","",""
"null","","html-keyboard-response","242","535796","0.0-6.0-1.7","","<img src=""img/red-r.png"" border=""10"">","null","trial","null","","0.2,0.8","2:nogo_b","1",""
"null","","html-keyboard-response","243","536800","0.0-6.0-2.7","","<div style=""font-size:60px;"">+</div>","null","","","","","","",""
"1065.3550000861287","","image-keyboard-response","244","537867","0.0-6.0-0.8","","img/purple.png","32","trial","null","false","0,1","4:nogo_d","",""
"null","","html-keyboard-response","245","538868","0.0-6.0-1.8","","<img src=""img/purple-n.png"" border=""10"">","null","trial","null","","0,1","4:nogo_d","0",""
"null","","html-keyboard-response","246","539870","0.0-6.0-2.8","","<div style=""font-size:60px;"">+</div>","null","","","","","","",""
"624.779999954626","","image-keyboard-response","247","540496","0.0-6.0-0.9","","img/grey.png","32","trial","32","true","1,0","3:go_c","",""
"null","","html-keyboard-response","248","541500","0.0-6.0-1.9","","<img src=""img/grey-r.png"" border=""10"">","null","trial","32","","1,0","3:go_c","1",""
"null","","html-keyboard-response","249","542505","0.0-6.0-2.9","","<div style=""font-size:60px;"">+</div>","null","","","","","","",""
"611.3200000254437","","image-keyboard-response","250","543117","0.0-6.0-0.10","","img/red.png","32","trial","null","false","0.2,0.8","2:nogo_b","",""
"null","","html-keyboard-response","251","544120","0.0-6.0-1.10","","<img src=""img/red-n.png"" border=""10"">","null","trial","null","","0.2,0.8","2:nogo_b","0",""
"null","","html-keyboard-response","252","545125","0.0-6.0-2.10","","<div style=""font-size:60px;"">+</div>","null","","","","","","",""
"684.7399999387562","","image-keyboard-response","253","545811","0.0-6.0-0.11","","img/orange.png","32","trial","32","true","0.8,0.2","1:go_a","",""
"null","","html-keyboard-response","254","546814","0.0-6.0-1.11","","<img src=""img/orange-r.png"" border=""10"">","null","trial","32","","0.8,0.2","1:go_a","1",""
"null","","html-keyboard-response","255","547818","0.0-6.0-2.11","","<div style=""font-size:60px;"">+</div>","null","","","","","","",""
"null","","image-keyboard-response","256","549322","0.0-6.0-0.12","","img/grey.png","null","trial","32","false","1,0","3:go_c","",""
"null","","html-keyboard-response","257","550326","0.0-6.0-1.12","","<img src=""img/grey-n.png"">","null","trial","32","","1,0","3:go_c","0",""
"null","","html-keyboard-response","258","551330","0.0-6.0-2.12","","<div style=""font-size:60px;"">+</div>","null","","","","","","",""
"1197.9750000173226","","image-keyboard-response","259","552529","0.0-6.0-0.13","","img/purple.png","32","trial","null","false","0,1","4:nogo_d","",""
"null","","html-keyboard-response","260","553531","0.0-6.0-1.13","","<img src=""img/purple-n.png"" border=""10"">","null","trial","null","","0,1","4:nogo_d","0",""
"null","","html-keyboard-response","261","554535","0.0-6.0-2.13","","<div style=""font-size:60px;"">+</div>","null","","","","","","",""
"578.8699999684468","","image-keyboard-response","262","555115","0.0-6.0-0.14","","img/red.png","32","trial","null","false","0.2,0.8","2:nogo_b","",""
"null","","html-keyboard-response","263","556120","0.0-6.0-1.14","","<img src=""img/red-r.png"" border=""10"">","null","trial","null","","0.2,0.8","2:nogo_b","1",""
"null","","html-keyboard-response","264","557124","0.0-6.0-2.14","","<div style=""font-size:60px;"">+</div>","null","","","","","","",""
"null","","image-keyboard-response","265","558628","0.0-6.0-0.15","","img/orange.png","null","trial","32","false","0.8,0.2","1:go_a","",""
"null","","html-keyboard-response","266","559632","0.0-6.0-1.15","","<img src=""img/orange-n.png"">","null","trial","32","","0.8,0.2","1:go_a","0",""
"null","","html-keyboard-response","267","560636","0.0-6.0-2.15","","<div style=""font-size:60px;"">+</div>","null","","","","","","",""
"1336.644999915734","","image-keyboard-response","268","561974","0.0-6.0-0.16","","img/grey.png","32","trial","32","true","1,0","3:go_c","",""
"null","","html-keyboard-response","269","562977","0.0-6.0-1.16","","<img src=""img/grey-r.png"" border=""10"">","null","trial","32","","1,0","3:go_c","1",""
"null","","html-keyboard-response","270","563982","0.0-6.0-2.16","","<div style=""font-size:60px;"">+</div>","null","","","","","","",""
"null","","image-keyboard-response","271","565483","0.0-6.0-0.17","","img/red.png","null","trial","null","true","0.2,0.8","2:nogo_b","",""
"null","","html-keyboard-response","272","566488","0.0-6.0-1.17","","<img src=""img/red-r.png"">","null","trial","null","","0.2,0.8","2:nogo_b","1",""
"null","","html-keyboard-response","273","567493","0.0-6.0-2.17","","<div style=""font-size:60px;"">+</div>","null","","","","","","",""
"664.7299999604002","","image-keyboard-response","274","568158","0.0-6.0-0.18","","img/orange.png","32","trial","32","true","0.8,0.2","1:go_a","",""
"null","","html-keyboard-response","275","569164","0.0-6.0-1.18","","<img src=""img/orange-r.png"" border=""10"">","null","trial","32","","0.8,0.2","1:go_a","1",""
"null","","html-keyboard-response","276","570168","0.0-6.0-2.18","","<div style=""font-size:60px;"">+</div>","null","","","","","","",""
"820.4850000329316","","image-keyboard-response","277","570990","0.0-6.0-0.19","","img/purple.png","32","trial","null","false","0,1","4:nogo_d","",""
"null","","html-keyboard-response","278","571996","0.0-6.0-1.19","","<img src=""img/purple-n.png"" border=""10"">","null","trial","null","","0,1","4:nogo_d","0",""
"null","","html-keyboard-response","279","573001","0.0-6.0-2.19","","<div style=""font-size:60px;"">+</div>","null","","","","","","",""
"null","","image-keyboard-response","280","574505","0.0-6.0-0.20","","img/purple.png","null","trial","null","true","0,1","4:nogo_d","",""
"null","","html-keyboard-response","281","575509","0.0-6.0-1.20","","<img src=""img/purple-r.png"">","null","trial","null","","0,1","4:nogo_d","1",""
"null","","html-keyboard-response","282","576513","0.0-6.0-2.20","","<div style=""font-size:60px;"">+</div>","null","","","","","","",""
"1199.5399999432266","","image-keyboard-response","283","577714","0.0-6.0-0.21","","img/grey.png","32","trial","32","true","1,0","3:go_c","",""
"null","","html-keyboard-response","284","578716","0.0-6.0-1.21","","<img src=""img/grey-r.png"" border=""10"">","null","trial","32","","1,0","3:go_c","1",""
"null","","html-keyboard-response","285","579718","0.0-6.0-2.21","","<div style=""font-size:60px;"">+</div>","null","","","","","","",""
"646.8550000572577","","image-keyboard-response","286","580365","0.0-6.0-0.22","","img/red.png","32","trial","null","false","0.2,0.8","2:nogo_b","",""
"null","","html-keyboard-response","287","581372","0.0-6.0-1.22","","<img src=""img/red-n.png"" border=""10"">","null","trial","null","","0.2,0.8","2:nogo_b","0",""
"null","","html-keyboard-response","288","582376","0.0-6.0-2.22","","<div style=""font-size:60px;"">+</div>","null","","","","","","",""
"750.2049999311566","","image-keyboard-response","289","583128","0.0-6.0-0.23","","img/orange.png","32","trial","32","true","0.8,0.2","1:go_a","",""
"null","","html-keyboard-response","290","584133","0.0-6.0-1.23","","<img src=""img/orange-r.png"" border=""10"">","null","trial","32","","0.8,0.2","1:go_a","1",""
"null","","html-keyboard-response","291","585134","0.0-6.0-2.23","","<div style=""font-size:60px;"">+</div>","null","","","","","","",""
"null","","image-keyboard-response","292","586637","0.0-6.0-0.24","","img/grey.png","null","trial","32","false","1,0","3:go_c","",""
"null","","html-keyboard-response","293","587642","0.0-6.0-1.24","","<img src=""img/grey-n.png"">","null","trial","32","","1,0","3:go_c","0",""
"null","","html-keyboard-response","294","588646","0.0-6.0-2.24","","<div style=""font-size:60px;"">+</div>","null","","","","","","",""
"803.760000038892","","image-keyboard-response","295","589451","0.0-6.0-0.25","","img/orange.png","32","trial","32","true","0.8,0.2","1:go_a","",""
"null","","html-keyboard-response","296","590457","0.0-6.0-1.25","","<img src=""img/orange-r.png"" border=""10"">","null","trial","32","","0.8,0.2","1:go_a","1",""
"null","","html-keyboard-response","297","591462","0.0-6.0-2.25","","<div style=""font-size:60px;"">+</div>","null","","","","","","",""
"null","","image-keyboard-response","298","592965","0.0-6.0-0.26","","img/red.png","null","trial","null","true","0.2,0.8","2:nogo_b","",""
"null","","html-keyboard-response","299","593970","0.0-6.0-1.26","","<img src=""img/red-n.png"">","null","trial","null","","0.2,0.8","2:nogo_b","0",""
"null","","html-keyboard-response","300","594974","0.0-6.0-2.26","","<div style=""font-size:60px;"">+</div>","null","","","","","","",""
"1289.8749999003485","","image-keyboard-response","301","596265","0.0-6.0-0.27","","img/purple.png","32","trial","null","false","0,1","4:nogo_d","",""
"null","","html-keyboard-response","302","597267","0.0-6.0-1.27","","<img src=""img/purple-n.png"" border=""10"">","null","trial","null","","0,1","4:nogo_d","0",""
"null","","html-keyboard-response","303","598271","0.0-6.0-2.27","","<div style=""font-size:60px;"">+</div>","null","","","","","","",""
"null","","image-keyboard-response","304","599775","0.0-6.0-0.28","","img/orange.png","null","trial","32","false","0.8,0.2","1:go_a","",""
"null","","html-keyboard-response","305","600779","0.0-6.0-1.28","","<img src=""img/orange-n.png"">","null","trial","32","","0.8,0.2","1:go_a","0",""
"null","","html-keyboard-response","306","601783","0.0-6.0-2.28","","<div style=""font-size:60px;"">+</div>","null","","","","","","",""
"1229.6799999894574","","image-keyboard-response","307","603014","0.0-6.0-0.29","","img/purple.png","32","trial","null","false","0,1","4:nogo_d","",""
"null","","html-keyboard-response","308","604018","0.0-6.0-1.29","","<img src=""img/purple-n.png"" border=""10"">","null","trial","null","","0,1","4:nogo_d","0",""
"null","","html-keyboard-response","309","605023","0.0-6.0-2.29","","<div style=""font-size:60px;"">+</div>","null","","","","","","",""
"null","","image-keyboard-response","310","606526","0.0-6.0-0.30","","img/grey.png","null","trial","32","false","1,0","3:go_c","",""
"null","","html-keyboard-response","311","607530","0.0-6.0-1.30","","<img src=""img/grey-n.png"">","null","trial","32","","1,0","3:go_c","0",""
"null","","html-keyboard-response","312","608535","0.0-6.0-2.30","","<div style=""font-size:60px;"">+</div>","null","","","","","","",""
"945.0400000205263","","image-keyboard-response","313","609481","0.0-6.0-0.31","","img/red.png","32","trial","null","false","0.2,0.8","2:nogo_b","",""
"null","","html-keyboard-response","314","610485","0.0-6.0-1.31","","<img src=""img/red-n.png"" border=""10"">","null","trial","null","","0.2,0.8","2:nogo_b","0",""
"null","","html-keyboard-response","315","611489","0.0-6.0-2.31","","<div style=""font-size:60px;"">+</div>","null","","","","","","",""
"null","","image-keyboard-response","316","612993","0.0-6.0-0.32","","img/orange.png","null","trial","32","false","0.8,0.2","1:go_a","",""
"null","","html-keyboard-response","317","613997","0.0-6.0-1.32","","<img src=""img/orange-n.png"">","null","trial","32","","0.8,0.2","1:go_a","0",""
"null","","html-keyboard-response","318","615002","0.0-6.0-2.32","","<div style=""font-size:60px;"">+</div>","null","","","","","","",""
"null","","image-keyboard-response","319","616508","0.0-6.0-0.33","","img/purple.png","null","trial","null","true","0,1","4:nogo_d","",""
"null","","html-keyboard-response","320","617509","0.0-6.0-1.33","","<img src=""img/purple-r.png"">","null","trial","null","","0,1","4:nogo_d","1",""
"null","","html-keyboard-response","321","618514","0.0-6.0-2.33","","<div style=""font-size:60px;"">+</div>","null","","","","","","",""
"911.4400000544265","","image-keyboard-response","322","619426","0.0-6.0-0.34","","img/red.png","32","trial","null","false","0.2,0.8","2:nogo_b","",""
"null","","html-keyboard-response","323","620429","0.0-6.0-1.34","","<img src=""img/red-r.png"" border=""10"">","null","trial","null","","0.2,0.8","2:nogo_b","1",""
"null","","html-keyboard-response","324","621434","0.0-6.0-2.34","","<div style=""font-size:60px;"">+</div>","null","","","","","","",""
"null","","image-keyboard-response","325","622939","0.0-6.0-0.35","","img/grey.png","null","trial","32","false","1,0","3:go_c","",""
"null","","html-keyboard-response","326","623941","0.0-6.0-1.35","","<img src=""img/grey-n.png"">","null","trial","32","","1,0","3:go_c","0",""
"null","","html-keyboard-response","327","624946","0.0-6.0-2.35","","<div style=""font-size:60px;"">+</div>","null","","","","","","",""
"908.4450000664219","","image-keyboard-response","328","625855","0.0-6.0-0.36","","img/red.png","32","trial","null","false","0.2,0.8","2:nogo_b","",""
"null","","html-keyboard-response","329","626861","0.0-6.0-1.36","","<img src=""img/red-n.png"" border=""10"">","null","trial","null","","0.2,0.8","2:nogo_b","0",""
"null","","html-keyboard-response","330","627866","0.0-6.0-2.36","","<div style=""font-size:60px;"">+</div>","null","","","","","","",""
"null","","image-keyboard-response","331","629369","0.0-6.0-0.37","","img/purple.png","null","trial","null","true","0,1","4:nogo_d","",""
"null","","html-keyboard-response","332","630375","0.0-6.0-1.37","","<img src=""img/purple-r.png"">","null","trial","null","","0,1","4:nogo_d","1",""
"null","","html-keyboard-response","333","631378","0.0-6.0-2.37","","<div style=""font-size:60px;"">+</div>","null","","","","","","",""
"null","","image-keyboard-response","334","632881","0.0-6.0-0.38","","img/grey.png","null","trial","32","false","1,0","3:go_c","",""
"null","","html-keyboard-response","335","633887","0.0-6.0-1.38","","<img src=""img/grey-n.png"">","null","trial","32","","1,0","3:go_c","0",""
"null","","html-keyboard-response","336","634890","0.0-6.0-2.38","","<div style=""font-size:60px;"">+</div>","null","","","","","","",""
"710.3450000286102","","image-keyboard-response","337","635602","0.0-6.0-0.39","","img/orange.png","32","trial","32","true","0.8,0.2","1:go_a","",""
"null","","html-keyboard-response","338","636608","0.0-6.0-1.39","","<img src=""img/orange-r.png"" border=""10"">","null","trial","32","","0.8,0.2","1:go_a","1",""
"null","","html-keyboard-response","339","637613","0.0-6.0-2.39","","<div style=""font-size:60px;"">+</div>","null","","","","","","",""
"1481.2549999915063","","image-keyboard-response","340","639095","0.0-6.0-0.40","","img/red.png","32","trial","null","false","0.2,0.8","2:nogo_b","",""
"null","","html-keyboard-response","341","640097","0.0-6.0-1.40","","<img src=""img/red-r.png"" border=""10"">","null","trial","null","","0.2,0.8","2:nogo_b","1",""
"null","","html-keyboard-response","342","641101","0.0-6.0-2.40","","<div style=""font-size:60px;"">+</div>","null","","","","","","",""
"null","","image-keyboard-response","343","642605","0.0-6.0-0.41","","img/purple.png","null","trial","null","true","0,1","4:nogo_d","",""
"null","","html-keyboard-response","344","643609","0.0-6.0-1.41","","<img src=""img/purple-r.png"">","null","trial","null","","0,1","4:nogo_d","1",""
"null","","html-keyboard-response","345","644614","0.0-6.0-2.41","","<div style=""font-size:60px;"">+</div>","null","","","","","","",""
"666.9049999909475","","image-keyboard-response","346","645282","0.0-6.0-0.42","","img/orange.png","32","trial","32","true","0.8,0.2","1:go_a","",""
"null","","html-keyboard-response","347","646288","0.0-6.0-1.42","","<img src=""img/orange-r.png"" border=""10"">","null","trial","32","","0.8,0.2","1:go_a","1",""
"null","","html-keyboard-response","348","647290","0.0-6.0-2.42","","<div style=""font-size:60px;"">+</div>","null","","","","","","",""
"null","","image-keyboard-response","349","648793","0.0-6.0-0.43","","img/grey.png","null","trial","32","false","1,0","3:go_c","",""
"null","","html-keyboard-response","350","649798","0.0-6.0-1.43","","<img src=""img/grey-n.png"">","null","trial","32","","1,0","3:go_c","0",""
"null","","html-keyboard-response","351","650802","0.0-6.0-2.43","","<div style=""font-size:60px;"">+</div>","null","","","","","","",""
"981.305000022985","","image-keyboard-response","352","651784","0.0-6.0-0.44","","img/red.png","32","trial","null","false","0.2,0.8","2:nogo_b","",""
"null","","html-keyboard-response","353","652787","0.0-6.0-1.44","","<img src=""img/red-n.png"" border=""10"">","null","trial","null","","0.2,0.8","2:nogo_b","0",""
"null","","html-keyboard-response","354","653790","0.0-6.0-2.44","","<div style=""font-size:60px;"">+</div>","null","","","","","","",""
"null","","image-keyboard-response","355","655295","0.0-6.0-0.45","","img/grey.png","null","trial","32","false","1,0","3:go_c","",""
"null","","html-keyboard-response","356","656299","0.0-6.0-1.45","","<img src=""img/grey-n.png"">","null","trial","32","","1,0","3:go_c","0",""
"null","","html-keyboard-response","357","657304","0.0-6.0-2.45","","<div style=""font-size:60px;"">+</div>","null","","","","","","",""
"577.0749999210238","","image-keyboard-response","358","657882","0.0-6.0-0.46","","img/purple.png","32","trial","null","false","0,1","4:nogo_d","",""
"null","","html-keyboard-response","359","658888","0.0-6.0-1.46","","<img src=""img/purple-n.png"" border=""10"">","null","trial","null","","0,1","4:nogo_d","0",""
"null","","html-keyboard-response","360","659893","0.0-6.0-2.46","","<div style=""font-size:60px;"">+</div>","null","","","","","","",""
"1111.9900000048801","","image-keyboard-response","361","661006","0.0-6.0-0.47","","img/orange.png","32","trial","32","true","0.8,0.2","1:go_a","",""
"null","","html-keyboard-response","362","662008","0.0-6.0-1.47","","<img src=""img/orange-r.png"" border=""10"">","null","trial","32","","0.8,0.2","1:go_a","1",""
"null","","html-keyboard-response","363","663010","0.0-6.0-2.47","","<div style=""font-size:60px;"">+</div>","null","","","","","","",""
"null","","image-keyboard-response","364","664513","0.0-6.0-0.48","","img/orange.png","null","trial","32","false","0.8,0.2","1:go_a","",""
"null","","html-keyboard-response","365","665518","0.0-6.0-1.48","","<img src=""img/orange-n.png"">","null","trial","32","","0.8,0.2","1:go_a","0",""
"null","","html-keyboard-response","366","666522","0.0-6.0-2.48","","<div style=""font-size:60px;"">+</div>","null","","","","","","",""
"null","","image-keyboard-response","367","668026","0.0-6.0-0.49","","img/purple.png","null","trial","null","true","0,1","4:nogo_d","",""
"null","","html-keyboard-response","368","669030","0.0-6.0-1.49","","<img src=""img/purple-r.png"">","null","trial","null","","0,1","4:nogo_d","1",""
"null","","html-keyboard-response","369","670034","0.0-6.0-2.49","","<div style=""font-size:60px;"">+</div>","null","","","","","","",""
"727.0200001075864","","image-keyboard-response","370","670762","0.0-6.0-0.50","","img/red.png","32","trial","null","false","0.2,0.8","2:nogo_b","",""
"null","","html-keyboard-response","371","671768","0.0-6.0-1.50","","<img src=""img/red-n.png"" border=""10"">","null","trial","null","","0.2,0.8","2:nogo_b","0",""
"null","","html-keyboard-response","372","672773","0.0-6.0-2.50","","<div style=""font-size:60px;"">+</div>","null","","","","","","",""
"null","","image-keyboard-response","373","674278","0.0-6.0-0.51","","img/grey.png","null","trial","32","false","1,0","3:go_c","",""
"null","","html-keyboard-response","374","675282","0.0-6.0-1.51","","<img src=""img/grey-n.png"">","null","trial","32","","1,0","3:go_c","0",""
"null","","html-keyboard-response","375","676287","0.0-6.0-2.51","","<div style=""font-size:60px;"">+</div>","null","","","","","","",""
"1235.8000000240281","","image-keyboard-response","376","677524","0.0-6.0-0.52","","img/grey.png","32","trial","32","true","1,0","3:go_c","",""
"null","","html-keyboard-response","377","678527","0.0-6.0-1.52","","<img src=""img/grey-r.png"" border=""10"">","null","trial","32","","1,0","3:go_c","1",""
"null","","html-keyboard-response","378","679531","0.0-6.0-2.52","","<div style=""font-size:60px;"">+</div>","null","","","","","","",""
"null","","image-keyboard-response","379","681036","0.0-6.0-0.53","","img/orange.png","null","trial","32","false","0.8,0.2","1:go_a","",""
"null","","html-keyboard-response","380","682040","0.0-6.0-1.53","","<img src=""img/orange-n.png"">","null","trial","32","","0.8,0.2","1:go_a","0",""
"null","","html-keyboard-response","381","683044","0.0-6.0-2.53","","<div style=""font-size:60px;"">+</div>","null","","","","","","",""
"907.8250000020489","","image-keyboard-response","382","683953","0.0-6.0-0.54","","img/purple.png","32","trial","null","false","0,1","4:nogo_d","",""
"null","","html-keyboard-response","383","684959","0.0-6.0-1.54","","<img src=""img/purple-n.png"" border=""10"">","null","trial","null","","0,1","4:nogo_d","0",""
"null","","html-keyboard-response","384","685963","0.0-6.0-2.54","","<div style=""font-size:60px;"">+</div>","null","","","","","","",""
"1103.2499999273568","","image-keyboard-response","385","687068","0.0-6.0-0.55","","img/red.png","32","trial","null","false","0.2,0.8","2:nogo_b","",""
"null","","html-keyboard-response","386","688071","0.0-6.0-1.55","","<img src=""img/red-n.png"" border=""10"">","null","trial","null","","0.2,0.8","2:nogo_b","0",""
"null","","html-keyboard-response","387","689075","0.0-6.0-2.55","","<div style=""font-size:60px;"">+</div>","null","","","","","","",""
"null","","image-keyboard-response","388","690579","0.0-6.0-0.56","","img/red.png","null","trial","null","true","0.2,0.8","2:nogo_b","",""
"null","","html-keyboard-response","389","691583","0.0-6.0-1.56","","<img src=""img/red-n.png"">","null","trial","null","","0.2,0.8","2:nogo_b","0",""
"null","","html-keyboard-response","390","692588","0.0-6.0-2.56","","<div style=""font-size:60px;"">+</div>","null","","","","","","",""
"994.4050000049174","","image-keyboard-response","391","693583","0.0-6.0-0.57","","img/orange.png","32","trial","32","true","0.8,0.2","1:go_a","",""
"null","","html-keyboard-response","392","694589","0.0-6.0-1.57","","<img src=""img/orange-r.png"" border=""10"">","null","trial","32","","0.8,0.2","1:go_a","1",""
"null","","html-keyboard-response","393","695595","0.0-6.0-2.57","","<div style=""font-size:60px;"">+</div>","null","","","","","","",""
"null","","image-keyboard-response","394","697098","0.0-6.0-0.58","","img/grey.png","null","trial","32","false","1,0","3:go_c","",""
"null","","html-keyboard-response","395","698102","0.0-6.0-1.58","","<img src=""img/grey-n.png"">","null","trial","32","","1,0","3:go_c","0",""
"null","","html-keyboard-response","396","699107","0.0-6.0-2.58","","<div style=""font-size:60px;"">+</div>","null","","","","","","",""
"null","","image-keyboard-response","397","700609","0.0-6.0-0.59","","img/purple.png","null","trial","null","true","0,1","4:nogo_d","",""
"null","","html-keyboard-response","398","701614","0.0-6.0-1.59","","<img src=""img/purple-r.png"">","null","trial","null","","0,1","4:nogo_d","1",""
"null","","html-keyboard-response","399","702619","0.0-6.0-2.59","","<div style=""font-size:60px;"">+</div>","null","","","","","","",""
"795.174999977462","","image-keyboard-response","400","703415","0.0-6.0-0.60","","img/orange.png","32","trial","32","true","0.8,0.2","1:go_a","",""
"null","","html-keyboard-response","401","704418","0.0-6.0-1.60","","<img src=""img/orange-r.png"" border=""10"">","null","trial","32","","0.8,0.2","1:go_a","1",""
"null","","html-keyboard-response","402","705423","0.0-6.0-2.60","","<div style=""font-size:60px;"">+</div>","null","","","","","","",""
"null","","image-keyboard-response","403","706926","0.0-6.0-0.61","","img/grey.png","null","trial","32","false","1,0","3:go_c","",""
"null","","html-keyboard-response","404","707931","0.0-6.0-1.61","","<img src=""img/grey-n.png"">","null","trial","32","","1,0","3:go_c","0",""
"null","","html-keyboard-response","405","708935","0.0-6.0-2.61","","<div style=""font-size:60px;"">+</div>","null","","","","","","",""
"792.2799999359995","","image-keyboard-response","406","709728","0.0-6.0-0.62","","img/purple.png","32","trial","null","false","0,1","4:nogo_d","",""
"null","","html-keyboard-response","407","710734","0.0-6.0-1.62","","<img src=""img/purple-n.png"" border=""10"">","null","trial","null","","0,1","4:nogo_d","0",""
"null","","html-keyboard-response","408","711739","0.0-6.0-2.62","","<div style=""font-size:60px;"">+</div>","null","","","","","","",""
"936.6300000110641","","image-keyboard-response","409","712676","0.0-6.0-0.63","","img/red.png","32","trial","null","false","0.2,0.8","2:nogo_b","",""
"null","","html-keyboard-response","410","713682","0.0-6.0-1.63","","<img src=""img/red-r.png"" border=""10"">","null","trial","null","","0.2,0.8","2:nogo_b","1",""
"null","","html-keyboard-response","411","714688","0.0-6.0-2.63","","<div style=""font-size:60px;"">+</div>","null","","","","","","",""
"null","","image-keyboard-response","412","716191","0.0-6.0-0.64","","img/red.png","null","trial","null","true","0.2,0.8","2:nogo_b","",""
"null","","html-keyboard-response","413","717196","0.0-6.0-1.64","","<img src=""img/red-r.png"">","null","trial","null","","0.2,0.8","2:nogo_b","1",""
"null","","html-keyboard-response","414","718200","0.0-6.0-2.64","","<div style=""font-size:60px;"">+</div>","null","","","","","","",""
"872.1750000258908","","image-keyboard-response","415","719073","0.0-6.0-0.65","","img/orange.png","32","trial","32","true","0.8,0.2","1:go_a","",""
"null","","html-keyboard-response","416","720075","0.0-6.0-1.65","","<img src=""img/orange-n.png"" border=""10"">","null","trial","32","","0.8,0.2","1:go_a","0",""
"null","","html-keyboard-response","417","721079","0.0-6.0-2.65","","<div style=""font-size:60px;"">+</div>","null","","","","","","",""
"1205.1249999785796","","image-keyboard-response","418","722286","0.0-6.0-0.66","","img/purple.png","32","trial","null","false","0,1","4:nogo_d","",""
"null","","html-keyboard-response","419","723288","0.0-6.0-1.66","","<img src=""img/purple-n.png"" border=""10"">","null","trial","null","","0,1","4:nogo_d","0",""
"null","","html-keyboard-response","420","724290","0.0-6.0-2.66","","<div style=""font-size:60px;"">+</div>","null","","","","","","",""
"null","","image-keyboard-response","421","725793","0.0-6.0-0.67","","img/grey.png","null","trial","32","false","1,0","3:go_c","",""
"null","","html-keyboard-response","422","726797","0.0-6.0-1.67","","<img src=""img/grey-n.png"">","null","trial","32","","1,0","3:go_c","0",""
"null","","html-keyboard-response","423","727802","0.0-6.0-2.67","","<div style=""font-size:60px;"">+</div>","null","","","","","","",""
"null","","image-keyboard-response","424","729305","0.0-6.0-0.68","","img/orange.png","null","trial","32","false","0.8,0.2","1:go_a","",""
"null","","html-keyboard-response","425","730309","0.0-6.0-1.68","","<img src=""img/orange-n.png"">","null","trial","32","","0.8,0.2","1:go_a","0",""
"null","","html-keyboard-response","426","731314","0.0-6.0-2.68","","<div style=""font-size:60px;"">+</div>","null","","","","","","",""
"1332.0049999747425","","image-keyboard-response","427","732647","0.0-6.0-0.69","","img/purple.png","32","trial","null","false","0,1","4:nogo_d","",""
"null","","html-keyboard-response","428","733649","0.0-6.0-1.69","","<img src=""img/purple-n.png"" border=""10"">","null","trial","null","","0,1","4:nogo_d","0",""
"null","","html-keyboard-response","429","734652","0.0-6.0-2.69","","<div style=""font-size:60px;"">+</div>","null","","","","","","",""
"null","","image-keyboard-response","430","736157","0.0-6.0-0.70","","img/grey.png","null","trial","32","false","1,0","3:go_c","",""
"null","","html-keyboard-response","431","737160","0.0-6.0-1.70","","<img src=""img/grey-n.png"">","null","trial","32","","1,0","3:go_c","0",""
"null","","html-keyboard-response","432","738164","0.0-6.0-2.70","","<div style=""font-size:60px;"">+</div>","null","","","","","","",""
"1007.0250000571832","","image-keyboard-response","433","739172","0.0-6.0-0.71","","img/red.png","32","trial","null","false","0.2,0.8","2:nogo_b","",""
"null","","html-keyboard-response","434","740174","0.0-6.0-1.71","","<img src=""img/red-n.png"" border=""10"">","null","trial","null","","0.2,0.8","2:nogo_b","0",""
"null","","html-keyboard-response","435","741176","0.0-6.0-2.71","","<div style=""font-size:60px;"">+</div>","null","","","","","","",""
"1011.6549999220297","","image-keyboard-response","436","742188","0.0-6.0-0.72","","img/red.png","32","trial","null","false","0.2,0.8","2:nogo_b","",""
"null","","html-keyboard-response","437","743190","0.0-6.0-1.72","","<img src=""img/red-r.png"" border=""10"">","null","trial","null","","0.2,0.8","2:nogo_b","1",""
"null","","html-keyboard-response","438","744193","0.0-6.0-2.72","","<div style=""font-size:60px;"">+</div>","null","","","","","","",""
"null","","image-keyboard-response","439","745699","0.0-6.0-0.73","","img/purple.png","null","trial","null","true","0,1","4:nogo_d","",""
"null","","html-keyboard-response","440","746703","0.0-6.0-1.73","","<img src=""img/purple-r.png"">","null","trial","null","","0,1","4:nogo_d","1",""
"null","","html-keyboard-response","441","747707","0.0-6.0-2.73","","<div style=""font-size:60px;"">+</div>","null","","","","","","",""
"null","","image-keyboard-response","442","749211","0.0-6.0-0.74","","img/grey.png","null","trial","32","false","1,0","3:go_c","",""
"null","","html-keyboard-response","443","750217","0.0-6.0-1.74","","<img src=""img/grey-n.png"">","null","trial","32","","1,0","3:go_c","0",""
"null","","html-keyboard-response","444","751219","0.0-6.0-2.74","","<div style=""font-size:60px;"">+</div>","null","","","","","","",""
"null","","image-keyboard-response","445","752723","0.0-6.0-0.75","","img/orange.png","null","trial","32","false","0.8,0.2","1:go_a","",""
"null","","html-keyboard-response","446","753727","0.0-6.0-1.75","","<img src=""img/orange-n.png"">","null","trial","32","","0.8,0.2","1:go_a","0",""
"null","","html-keyboard-response","447","754732","0.0-6.0-2.75","","<div style=""font-size:60px;"">+</div>","null","","","","","","",""
"776.6699999338016","","image-keyboard-response","448","755509","0.0-6.0-0.76","","img/red.png","32","trial","null","false","0.2,0.8","2:nogo_b","",""
"null","","html-keyboard-response","449","756514","0.0-6.0-1.76","","<img src=""img/red-n.png"" border=""10"">","null","trial","null","","0.2,0.8","2:nogo_b","0",""
"null","","html-keyboard-response","450","757518","0.0-6.0-2.76","","<div style=""font-size:60px;"">+</div>","null","","","","","","",""
"null","","image-keyboard-response","451","759022","0.0-6.0-0.77","","img/grey.png","null","trial","32","false","1,0","3:go_c","",""
"null","","html-keyboard-response","452","760026","0.0-6.0-1.77","","<img src=""img/grey-n.png"">","null","trial","32","","1,0","3:go_c","0",""
"null","","html-keyboard-response","453","761030","0.0-6.0-2.77","","<div style=""font-size:60px;"">+</div>","null","","","","","","",""
"null","","image-keyboard-response","454","762534","0.0-6.0-0.78","","img/purple.png","null","trial","null","true","0,1","4:nogo_d","",""
"null","","html-keyboard-response","455","763538","0.0-6.0-1.78","","<img src=""img/purple-r.png"">","null","trial","null","","0,1","4:nogo_d","1",""
"null","","html-keyboard-response","456","764542","0.0-6.0-2.78","","<div style=""font-size:60px;"">+</div>","null","","","","","","",""
"799.0549999522045","","image-keyboard-response","457","765343","0.0-6.0-0.79","","img/orange.png","32","trial","32","true","0.8,0.2","1:go_a","",""
"null","","html-keyboard-response","458","766348","0.0-6.0-1.79","","<img src=""img/orange-r.png"" border=""10"">","null","trial","32","","0.8,0.2","1:go_a","1",""
"null","","html-keyboard-response","459","767352","0.0-6.0-2.79","","<div style=""font-size:60px;"">+</div>","null","","","","","","",""
"null","","image-keyboard-response","460","768856","0.0-6.0-0.80","","img/grey.png","null","trial","32","false","1,0","3:go_c","",""
"null","","html-keyboard-response","461","769860","0.0-6.0-1.80","","<img src=""img/grey-n.png"">","null","trial","32","","1,0","3:go_c","0",""
"null","","html-keyboard-response","462","770864","0.0-6.0-2.80","","<div style=""font-size:60px;"">+</div>","null","","","","","","",""
"824.1949999937788","","image-keyboard-response","463","771690","0.0-6.0-0.81","","img/purple.png","32","trial","null","false","0,1","4:nogo_d","",""
"null","","html-keyboard-response","464","772693","0.0-6.0-1.81","","<img src=""img/purple-n.png"" border=""10"">","null","trial","null","","0,1","4:nogo_d","0",""
"null","","html-keyboard-response","465","773697","0.0-6.0-2.81","","<div style=""font-size:60px;"">+</div>","null","","","","","","",""
"718.944999971427","","image-keyboard-response","466","774417","0.0-6.0-0.82","","img/red.png","32","trial","null","false","0.2,0.8","2:nogo_b","",""
"null","","html-keyboard-response","467","775421","0.0-6.0-1.82","","<img src=""img/red-n.png"" border=""10"">","null","trial","null","","0.2,0.8","2:nogo_b","0",""
"null","","html-keyboard-response","468","776426","0.0-6.0-2.82","","<div style=""font-size:60px;"">+</div>","null","","","","","","",""
"null","","image-keyboard-response","469","777929","0.0-6.0-0.83","","img/orange.png","null","trial","32","false","0.8,0.2","1:go_a","",""
"null","","html-keyboard-response","470","778934","0.0-6.0-1.83","","<img src=""img/orange-n.png"">","null","trial","32","","0.8,0.2","1:go_a","0",""
"null","","html-keyboard-response","471","779938","0.0-6.0-2.83","","<div style=""font-size:60px;"">+</div>","null","","","","","","",""
"1286.2099999329075","","image-keyboard-response","472","781225","0.0-6.0-0.84","","img/purple.png","32","trial","null","false","0,1","4:nogo_d","",""
"null","","html-keyboard-response","473","782230","0.0-6.0-1.84","","<img src=""img/purple-n.png"" border=""10"">","null","trial","null","","0,1","4:nogo_d","0",""
"null","","html-keyboard-response","474","783235","0.0-6.0-2.84","","<div style=""font-size:60px;"">+</div>","null","","","","","","",""
"null","","image-keyboard-response","475","784738","0.0-6.0-0.85","","img/grey.png","null","trial","32","false","1,0","3:go_c","",""
"null","","html-keyboard-response","476","785743","0.0-6.0-1.85","","<img src=""img/grey-n.png"">","null","trial","32","","1,0","3:go_c","0",""
"null","","html-keyboard-response","477","786747","0.0-6.0-2.85","","<div style=""font-size:60px;"">+</div>","null","","","","","","",""
"null","","image-keyboard-response","478","788249","0.0-6.0-0.86","","img/orange.png","null","trial","32","false","0.8,0.2","1:go_a","",""
"null","","html-keyboard-response","479","789255","0.0-6.0-1.86","","<img src=""img/orange-n.png"">","null","trial","32","","0.8,0.2","1:go_a","0",""
"null","","html-keyboard-response","480","790256","0.0-6.0-2.86","","<div style=""font-size:60px;"">+</div>","null","","","","","","",""
"1026.5300000319257","","image-keyboard-response","481","791284","0.0-6.0-0.87","","img/red.png","32","trial","null","false","0.2,0.8","2:nogo_b","",""
"null","","html-keyboard-response","482","792286","0.0-6.0-1.87","","<img src=""img/red-n.png"" border=""10"">","null","trial","null","","0.2,0.8","2:nogo_b","0",""
"null","","html-keyboard-response","483","793290","0.0-6.0-2.87","","<div style=""font-size:60px;"">+</div>","null","","","","","","",""
"817.1149999834597","","image-keyboard-response","484","794108","0.0-6.0-0.88","","img/red.png","32","trial","null","false","0.2,0.8","2:nogo_b","",""
"null","","html-keyboard-response","485","795112","0.0-6.0-1.88","","<img src=""img/red-n.png"" border=""10"">","null","trial","null","","0.2,0.8","2:nogo_b","0",""
"null","","html-keyboard-response","486","796117","0.0-6.0-2.88","","<div style=""font-size:60px;"">+</div>","null","","","","","","",""
"null","","image-keyboard-response","487","797623","0.0-6.0-0.89","","img/orange.png","null","trial","32","false","0.8,0.2","1:go_a","",""
"null","","html-keyboard-response","488","798625","0.0-6.0-1.89","","<img src=""img/orange-n.png"">","null","trial","32","","0.8,0.2","1:go_a","0",""
"null","","html-keyboard-response","489","799629","0.0-6.0-2.89","","<div style=""font-size:60px;"">+</div>","null","","","","","","",""
"null","","image-keyboard-response","490","801132","0.0-6.0-0.90","","img/grey.png","null","trial","32","false","1,0","3:go_c","",""
"null","","html-keyboard-response","491","802137","0.0-6.0-1.90","","<img src=""img/grey-n.png"">","null","trial","32","","1,0","3:go_c","0",""
"null","","html-keyboard-response","492","803141","0.0-6.0-2.90","","<div style=""font-size:60px;"">+</div>","null","","","","","","",""
"null","","image-keyboard-response","493","804644","0.0-6.0-0.91","","img/purple.png","null","trial","null","true","0,1","4:nogo_d","",""
"null","","html-keyboard-response","494","805649","0.0-6.0-1.91","","<img src=""img/purple-r.png"">","null","trial","null","","0,1","4:nogo_d","1",""
"null","","html-keyboard-response","495","806653","0.0-6.0-2.91","","<div style=""font-size:60px;"">+</div>","null","","","","","","",""
"null","","image-keyboard-response","496","808157","0.0-6.0-0.92","","img/purple.png","null","trial","null","true","0,1","4:nogo_d","",""
"null","","html-keyboard-response","497","809161","0.0-6.0-1.92","","<img src=""img/purple-r.png"">","null","trial","null","","0,1","4:nogo_d","1",""
"null","","html-keyboard-response","498","810165","0.0-6.0-2.92","","<div style=""font-size:60px;"">+</div>","null","","","","","","",""
"null","","image-keyboard-response","499","811669","0.0-6.0-0.93","","img/grey.png","null","trial","32","false","1,0","3:go_c","",""
"null","","html-keyboard-response","500","812673","0.0-6.0-1.93","","<img src=""img/grey-n.png"">","null","trial","32","","1,0","3:go_c","0",""
"null","","html-keyboard-response","501","813677","0.0-6.0-2.93","","<div style=""font-size:60px;"">+</div>","null","","","","","","",""
"null","","image-keyboard-response","502","815180","0.0-6.0-0.94","","img/orange.png","null","trial","32","false","0.8,0.2","1:go_a","",""
"null","","html-keyboard-response","503","816185","0.0-6.0-1.94","","<img src=""img/orange-n.png"">","null","trial","32","","0.8,0.2","1:go_a","0",""
"null","","html-keyboard-response","504","817189","0.0-6.0-2.94","","<div style=""font-size:60px;"">+</div>","null","","","","","","",""
"710.8749999897555","","image-keyboard-response","505","817901","0.0-6.0-0.95","","img/red.png","32","trial","null","false","0.2,0.8","2:nogo_b","",""
"null","","html-keyboard-response","506","818908","0.0-6.0-1.95","","<img src=""img/red-n.png"" border=""10"">","null","trial","null","","0.2,0.8","2:nogo_b","0",""
"null","","html-keyboard-response","507","819911","0.0-6.0-2.95","","<div style=""font-size:60px;"">+</div>","null","","","","","","",""
"null","","image-keyboard-response","508","821416","0.0-6.0-0.96","","img/purple.png","null","trial","null","true","0,1","4:nogo_d","",""
"null","","html-keyboard-response","509","822419","0.0-6.0-1.96","","<img src=""img/purple-r.png"">","null","trial","null","","0,1","4:nogo_d","1",""
"null","","html-keyboard-response","510","823424","0.0-6.0-2.96","","<div style=""font-size:60px;"">+</div>","null","","","","","","",""
"701.5749999554828","","image-keyboard-response","511","824127","0.0-6.0-0.97","","img/red.png","32","trial","null","false","0.2,0.8","2:nogo_b","",""
"null","","html-keyboard-response","512","825131","0.0-6.0-1.97","","<img src=""img/red-r.png"" border=""10"">","null","trial","null","","0.2,0.8","2:nogo_b","1",""
"null","","html-keyboard-response","513","826135","0.0-6.0-2.97","","<div style=""font-size:60px;"">+</div>","null","","","","","","",""
"729.0750000393018","","image-keyboard-response","514","826865","0.0-6.0-0.98","","img/orange.png","32","trial","32","true","0.8,0.2","1:go_a","",""
"null","","html-keyboard-response","515","827871","0.0-6.0-1.98","","<img src=""img/orange-n.png"" border=""10"">","null","trial","32","","0.8,0.2","1:go_a","0",""
"null","","html-keyboard-response","516","828875","0.0-6.0-2.98","","<div style=""font-size:60px;"">+</div>","null","","","","","","",""
"null","","image-keyboard-response","517","830379","0.0-6.0-0.99","","img/grey.png","null","trial","32","false","1,0","3:go_c","",""
"null","","html-keyboard-response","518","831383","0.0-6.0-1.99","","<img src=""img/grey-n.png"">","null","trial","32","","1,0","3:go_c","0",""
"null","","html-keyboard-response","519","832387","0.0-6.0-2.99","","<div style=""font-size:60px;"">+</div>","null","","","","","","",""
"935.5450000148267","","image-keyboard-response","520","833324","0.0-6.0-0.100","","img/grey.png","32","trial","32","true","1,0","3:go_c","",""
"null","","html-keyboard-response","521","834326","0.0-6.0-1.100","","<img src=""img/grey-r.png"" border=""10"">","null","trial","32","","1,0","3:go_c","1",""
"null","","html-keyboard-response","522","835331","0.0-6.0-2.100","","<div style=""font-size:60px;"">+</div>","null","","","","","","",""
"1024.5300000533462","","image-keyboard-response","523","836356","0.0-6.0-0.101","","img/purple.png","32","trial","null","false","0,1","4:nogo_d","",""
"null","","html-keyboard-response","524","837358","0.0-6.0-1.101","","<img src=""img/purple-n.png"" border=""10"">","null","trial","null","","0,1","4:nogo_d","0",""
"null","","html-keyboard-response","525","838361","0.0-6.0-2.101","","<div style=""font-size:60px;"">+</div>","null","","","","","","",""
"null","","image-keyboard-response","526","839864","0.0-6.0-0.102","","img/orange.png","null","trial","32","false","0.8,0.2","1:go_a","",""
"null","","html-keyboard-response","527","840869","0.0-6.0-1.102","","<img src=""img/orange-n.png"">","null","trial","32","","0.8,0.2","1:go_a","0",""
"null","","html-keyboard-response","528","841873","0.0-6.0-2.102","","<div style=""font-size:60px;"">+</div>","null","","","","","","",""
"569.5500000147149","","image-keyboard-response","529","842444","0.0-6.0-0.103","","img/red.png","32","trial","null","false","0.2,0.8","2:nogo_b","",""
"null","","html-keyboard-response","530","843446","0.0-6.0-1.103","","<img src=""img/red-n.png"" border=""10"">","null","trial","null","","0.2,0.8","2:nogo_b","0",""
"null","","html-keyboard-response","531","844451","0.0-6.0-2.103","","<div style=""font-size:60px;"">+</div>","null","","","","","","",""
"1408.6399999214336","","image-keyboard-response","532","845860","0.0-6.0-0.104","","img/purple.png","32","trial","null","false","0,1","4:nogo_d","",""
"null","","html-keyboard-response","533","846865","0.0-6.0-1.104","","<img src=""img/purple-n.png"" border=""10"">","null","trial","null","","0,1","4:nogo_d","0",""
"null","","html-keyboard-response","534","847870","0.0-6.0-2.104","","<div style=""font-size:60px;"">+</div>","null","","","","","","",""
"null","","image-keyboard-response","535","849373","0.0-6.0-0.105","","img/grey.png","null","trial","32","false","1,0","3:go_c","",""
"null","","html-keyboard-response","536","850378","0.0-6.0-1.105","","<img src=""img/grey-n.png"">","null","trial","32","","1,0","3:go_c","0",""
"null","","html-keyboard-response","537","851382","0.0-6.0-2.105","","<div style=""font-size:60px;"">+</div>","null","","","","","","",""
"967.5700000952929","","image-keyboard-response","538","852351","0.0-6.0-0.106","","img/red.png","32","trial","null","false","0.2,0.8","2:nogo_b","",""
"null","","html-keyboard-response","539","853356","0.0-6.0-1.106","","<img src=""img/red-n.png"" border=""10"">","null","trial","null","","0.2,0.8","2:nogo_b","0",""
"null","","html-keyboard-response","540","854360","0.0-6.0-2.106","","<div style=""font-size:60px;"">+</div>","null","","","","","","",""
"null","","image-keyboard-response","541","855863","0.0-6.0-0.107","","img/orange.png","null","trial","32","false","0.8,0.2","1:go_a","",""
"null","","html-keyboard-response","542","856868","0.0-6.0-1.107","","<img src=""img/orange-r.png"">","null","trial","32","","0.8,0.2","1:go_a","1",""
"null","","html-keyboard-response","543","857872","0.0-6.0-2.107","","<div style=""font-size:60px;"">+</div>","null","","","","","","",""
"null","","image-keyboard-response","544","859376","0.0-6.0-0.108","","img/grey.png","null","trial","32","false","1,0","3:go_c","",""
"null","","html-keyboard-response","545","860380","0.0-6.0-1.108","","<img src=""img/grey-n.png"">","null","trial","32","","1,0","3:go_c","0",""
"null","","html-keyboard-response","546","861384","0.0-6.0-2.108","","<div style=""font-size:60px;"">+</div>","null","","","","","","",""
"513.0999999819323","","image-keyboard-response","547","861898","0.0-6.0-0.109","","img/orange.png","32","trial","32","true","0.8,0.2","1:go_a","",""
"null","","html-keyboard-response","548","862903","0.0-6.0-1.109","","<img src=""img/orange-r.png"" border=""10"">","null","trial","32","","0.8,0.2","1:go_a","1",""
"null","","html-keyboard-response","549","863906","0.0-6.0-2.109","","<div style=""font-size:60px;"">+</div>","null","","","","","","",""
"null","","image-keyboard-response","550","865411","0.0-6.0-0.110","","img/purple.png","null","trial","null","true","0,1","4:nogo_d","",""
"null","","html-keyboard-response","551","866417","0.0-6.0-1.110","","<img src=""img/purple-r.png"">","null","trial","null","","0,1","4:nogo_d","1",""
"null","","html-keyboard-response","552","867421","0.0-6.0-2.110","","<div style=""font-size:60px;"">+</div>","null","","","","","","",""
"587.7800000598654","","image-keyboard-response","553","868010","0.0-6.0-0.111","","img/red.png","32","trial","null","false","0.2,0.8","2:nogo_b","",""
"null","","html-keyboard-response","554","869015","0.0-6.0-1.111","","<img src=""img/red-r.png"" border=""10"">","null","trial","null","","0.2,0.8","2:nogo_b","1",""
"null","","html-keyboard-response","555","870016","0.0-6.0-2.111","","<div style=""font-size:60px;"">+</div>","null","","","","","","",""
"null","","image-keyboard-response","556","871520","0.0-6.0-0.112","","img/purple.png","null","trial","null","true","0,1","4:nogo_d","",""
"null","","html-keyboard-response","557","872524","0.0-6.0-1.112","","<img src=""img/purple-r.png"">","null","trial","null","","0,1","4:nogo_d","1",""
"null","","html-keyboard-response","558","873529","0.0-6.0-2.112","","<div style=""font-size:60px;"">+</div>","null","","","","","","",""
"null","","image-keyboard-response","559","875032","0.0-6.0-0.113","","img/orange.png","null","trial","32","false","0.8,0.2","1:go_a","",""
"null","","html-keyboard-response","560","876036","0.0-6.0-1.113","","<img src=""img/orange-n.png"">","null","trial","32","","0.8,0.2","1:go_a","0",""
"null","","html-keyboard-response","561","877040","0.0-6.0-2.113","","<div style=""font-size:60px;"">+</div>","null","","","","","","",""
"null","","image-keyboard-response","562","878544","0.0-6.0-0.114","","img/grey.png","null","trial","32","false","1,0","3:go_c","",""
"null","","html-keyboard-response","563","879548","0.0-6.0-1.114","","<img src=""img/grey-n.png"">","null","trial","32","","1,0","3:go_c","0",""
"null","","html-keyboard-response","564","880553","0.0-6.0-2.114","","<div style=""font-size:60px;"">+</div>","null","","","","","","",""
"null","","image-keyboard-response","565","882056","0.0-6.0-0.115","","img/red.png","null","trial","null","true","0.2,0.8","2:nogo_b","",""
"null","","html-keyboard-response","566","883060","0.0-6.0-1.115","","<img src=""img/red-n.png"">","null","trial","null","","0.2,0.8","2:nogo_b","0",""
"null","","html-keyboard-response","567","884065","0.0-6.0-2.115","","<div style=""font-size:60px;"">+</div>","null","","","","","","",""
"null","","image-keyboard-response","568","885568","0.0-6.0-0.116","","img/orange.png","null","trial","32","false","0.8,0.2","1:go_a","",""
"null","","html-keyboard-response","569","886573","0.0-6.0-1.116","","<img src=""img/orange-n.png"">","null","trial","32","","0.8,0.2","1:go_a","0",""
"null","","html-keyboard-response","570","887577","0.0-6.0-2.116","","<div style=""font-size:60px;"">+</div>","null","","","","","","",""
"null","","image-keyboard-response","571","889080","0.0-6.0-0.117","","img/red.png","null","trial","null","true","0.2,0.8","2:nogo_b","",""
"null","","html-keyboard-response","572","890085","0.0-6.0-1.117","","<img src=""img/red-r.png"">","null","trial","null","","0.2,0.8","2:nogo_b","1",""
"null","","html-keyboard-response","573","891089","0.0-6.0-2.117","","<div style=""font-size:60px;"">+</div>","null","","","","","","",""
"null","","image-keyboard-response","574","892594","0.0-6.0-0.118","","img/grey.png","null","trial","32","false","1,0","3:go_c","",""
"null","","html-keyboard-response","575","893597","0.0-6.0-1.118","","<img src=""img/grey-n.png"">","null","trial","32","","1,0","3:go_c","0",""
"null","","html-keyboard-response","576","894601","0.0-6.0-2.118","","<div style=""font-size:60px;"">+</div>","null","","","","","","",""
"837.0400000130758","","image-keyboard-response","577","895439","0.0-6.0-0.119","","img/purple.png","32","trial","null","false","0,1","4:nogo_d","",""
"null","","html-keyboard-response","578","896442","0.0-6.0-1.119","","<img src=""img/purple-n.png"" border=""10"">","null","trial","null","","0,1","4:nogo_d","0",""
"null","","html-keyboard-response","579","897446","0.0-6.0-2.119","","<div style=""font-size:60px;"">+</div>","null","","","","","","",""
"488230.6600000011","","instructions","580","1385709","0.0-7.0","[{""page_index"":0,""viewing_time"":488230.429999996}]","","","","","","","","",""
"1124.8350000241771","","image-keyboard-response","581","1386835","0.0-8.0-0.0","","img/grey.png","32","trial","null","false","0.2,0.8","2:nogo_b","",""
"null","","html-keyboard-response","582","1387836","0.0-8.0-1.0","","<img src=""img/grey-n.png"" border=""10"">","null","trial","null","","0.2,0.8","2:nogo_b","0",""
"null","","html-keyboard-response","583","1388841","0.0-8.0-2.0","","<div style=""font-size:60px;"">+</div>","null","","","","","","",""
"504.1300000157207","","image-keyboard-response","584","1389346","0.0-8.0-0.1","","img/yellow.png","32","trial","32","true","0.8,0.2","1:go_a","",""
"null","","html-keyboard-response","585","1390348","0.0-8.0-1.1","","<img src=""img/yellow-r.png"" border=""10"">","null","trial","32","","0.8,0.2","1:go_a","1",""
"null","","html-keyboard-response","586","1391349","0.0-8.0-2.1","","<div style=""font-size:60px;"">+</div>","null","","","","","","",""
"548.175000003539","","image-keyboard-response","587","1391898","0.0-8.0-0.2","","img/red.png","32","trial","null","false","0.2,0.8","4:nogo_d","",""
"null","","html-keyboard-response","588","1392904","0.0-8.0-1.2","","<img src=""img/red-n.png"" border=""10"">","null","trial","null","","0.2,0.8","4:nogo_d","0",""
"null","","html-keyboard-response","589","1393909","0.0-8.0-2.2","","<div style=""font-size:60px;"">+</div>","null","","","","","","",""
"549.6000000275671","","image-keyboard-response","590","1394460","0.0-8.0-0.3","","img/green.png","32","trial","32","true","0.8,0.2","3:go_c","",""
"null","","html-keyboard-response","591","1395466","0.0-8.0-1.3","","<img src=""img/green-n.png"" border=""10"">","null","trial","32","","0.8,0.2","3:go_c","0",""
"null","","html-keyboard-response","592","1396469","0.0-8.0-2.3","","<div style=""font-size:60px;"">+</div>","null","","","","","","",""
"884.3450000276789","","image-keyboard-response","593","1397355","0.0-8.0-0.4","","img/grey.png","32","trial","null","false","0.2,0.8","2:nogo_b","",""
"null","","html-keyboard-response","594","1398358","0.0-8.0-1.4","","<img src=""img/grey-n.png"" border=""10"">","null","trial","null","","0.2,0.8","2:nogo_b","0",""
"null","","html-keyboard-response","595","1399359","0.0-8.0-2.4","","<div style=""font-size:60px;"">+</div>","null","","","","","","",""
"571.775000076741","","image-keyboard-response","596","1399932","0.0-8.0-0.5","","img/green.png","32","trial","32","true","0.8,0.2","3:go_c","",""
"null","","html-keyboard-response","597","1400938","0.0-8.0-1.5","","<img src=""img/green-r.png"" border=""10"">","null","trial","32","","0.8,0.2","3:go_c","1",""
"null","","html-keyboard-response","598","1401943","0.0-8.0-2.5","","<div style=""font-size:60px;"">+</div>","null","","","","","","",""
"781.8849999457598","","image-keyboard-response","599","1402727","0.0-8.0-0.6","","img/yellow.png","32","trial","32","true","0.8,0.2","1:go_a","",""
"null","","html-keyboard-response","600","1403731","0.0-8.0-1.6","","<img src=""img/yellow-r.png"" border=""10"">","null","trial","32","","0.8,0.2","1:go_a","1",""
"null","","html-keyboard-response","601","1404736","0.0-8.0-2.6","","<div style=""font-size:60px;"">+</div>","null","","","","","","",""
"970.2750000869855","","image-keyboard-response","602","1405707","0.0-8.0-0.7","","img/red.png","32","trial","null","false","0.2,0.8","4:nogo_d","",""
"null","","html-keyboard-response","603","1406709","0.0-8.0-1.7","","<img src=""img/red-n.png"" border=""10"">","null","trial","null","","0.2,0.8","4:nogo_d","0",""
"null","","html-keyboard-response","604","1407714","0.0-8.0-2.7","","<div style=""font-size:60px;"">+</div>","null","","","","","","",""
"null","","image-keyboard-response","605","1409217","0.0-8.0-0.8","","img/green.png","null","trial","32","false","0.8,0.2","3:go_c","",""
"null","","html-keyboard-response","606","1410222","0.0-8.0-1.8","","<img src=""img/green-n.png"">","null","trial","32","","0.8,0.2","3:go_c","0",""
"null","","html-keyboard-response","607","1411226","0.0-8.0-2.8","","<div style=""font-size:60px;"">+</div>","null","","","","","","",""
"1090.2599999681115","","image-keyboard-response","608","1412317","0.0-8.0-0.9","","img/grey.png","32","trial","null","false","0.2,0.8","2:nogo_b","",""
"null","","html-keyboard-response","609","1413321","0.0-8.0-1.9","","<img src=""img/grey-n.png"" border=""10"">","null","trial","null","","0.2,0.8","2:nogo_b","0",""
"null","","html-keyboard-response","610","1414326","0.0-8.0-2.9","","<div style=""font-size:60px;"">+</div>","null","","","","","","",""
"null","","image-keyboard-response","611","1415831","0.0-8.0-0.10","","img/yellow.png","null","trial","32","false","0.8,0.2","1:go_a","",""
"null","","html-keyboard-response","612","1416834","0.0-8.0-1.10","","<img src=""img/yellow-n.png"">","null","trial","32","","0.8,0.2","1:go_a","0",""
"null","","html-keyboard-response","613","1417838","0.0-8.0-2.10","","<div style=""font-size:60px;"">+</div>","null","","","","","","",""
"null","","image-keyboard-response","614","1419341","0.0-8.0-0.11","","img/red.png","null","trial","null","true","0.2,0.8","4:nogo_d","",""
"null","","html-keyboard-response","615","1420346","0.0-8.0-1.11","","<img src=""img/red-r.png"">","null","trial","null","","0.2,0.8","4:nogo_d","1",""
"null","","html-keyboard-response","616","1421350","0.0-8.0-2.11","","<div style=""font-size:60px;"">+</div>","null","","","","","","",""
"1010.8699999982491","","image-keyboard-response","617","1422362","0.0-8.0-0.12","","img/grey.png","32","trial","null","false","0.2,0.8","2:nogo_b","",""
"null","","html-keyboard-response","618","1423364","0.0-8.0-1.12","","<img src=""img/grey-r.png"" border=""10"">","null","trial","null","","0.2,0.8","2:nogo_b","1",""
"null","","html-keyboard-response","619","1424366","0.0-8.0-2.12","","<div style=""font-size:60px;"">+</div>","null","","","","","","",""
"null","","image-keyboard-response","620","1425868","0.0-8.0-0.13","","img/yellow.png","null","trial","32","false","0.8,0.2","1:go_a","",""
"null","","html-keyboard-response","621","1426871","0.0-8.0-1.13","","<img src=""img/yellow-n.png"">","null","trial","32","","0.8,0.2","1:go_a","0",""
"null","","html-keyboard-response","622","1427875","0.0-8.0-2.13","","<div style=""font-size:60px;"">+</div>","null","","","","","","",""
"null","","image-keyboard-response","623","1429378","0.0-8.0-0.14","","img/green.png","null","trial","32","false","0.8,0.2","3:go_c","",""
"null","","html-keyboard-response","624","1430383","0.0-8.0-1.14","","<img src=""img/green-n.png"">","null","trial","32","","0.8,0.2","3:go_c","0",""
"null","","html-keyboard-response","625","1431387","0.0-8.0-2.14","","<div style=""font-size:60px;"">+</div>","null","","","","","","",""
"806.63500004448","","image-keyboard-response","626","1432195","0.0-8.0-0.15","","img/red.png","32","trial","null","false","0.2,0.8","4:nogo_d","",""
"null","","html-keyboard-response","627","1433198","0.0-8.0-1.15","","<img src=""img/red-n.png"" border=""10"">","null","trial","null","","0.2,0.8","4:nogo_d","0",""
"null","","html-keyboard-response","628","1434202","0.0-8.0-2.15","","<div style=""font-size:60px;"">+</div>","null","","","","","","",""
"null","","image-keyboard-response","629","1435706","0.0-8.0-0.16","","img/yellow.png","null","trial","32","false","0.8,0.2","1:go_a","",""
"null","","html-keyboard-response","630","1436710","0.0-8.0-1.16","","<img src=""img/yellow-r.png"">","null","trial","32","","0.8,0.2","1:go_a","1",""
"null","","html-keyboard-response","631","1437715","0.0-8.0-2.16","","<div style=""font-size:60px;"">+</div>","null","","","","","","",""
"null","","image-keyboard-response","632","1439218","0.0-8.0-0.17","","img/red.png","null","trial","null","true","0.2,0.8","4:nogo_d","",""
"null","","html-keyboard-response","633","1440223","0.0-8.0-1.17","","<img src=""img/red-r.png"">","null","trial","null","","0.2,0.8","4:nogo_d","1",""
"null","","html-keyboard-response","634","1441227","0.0-8.0-2.17","","<div style=""font-size:60px;"">+</div>","null","","","","","","",""
"516.9049999676645","","image-keyboard-response","635","1441745","0.0-8.0-0.18","","img/green.png","32","trial","32","true","0.8,0.2","3:go_c","",""
"null","","html-keyboard-response","636","1442748","0.0-8.0-1.18","","<img src=""img/green-r.png"" border=""10"">","null","trial","32","","0.8,0.2","3:go_c","1",""
"null","","html-keyboard-response","637","1443752","0.0-8.0-2.18","","<div style=""font-size:60px;"">+</div>","null","","","","","","",""
"null","","image-keyboard-response","638","1445256","0.0-8.0-0.19","","img/grey.png","null","trial","null","true","0.2,0.8","2:nogo_b","",""
"null","","html-keyboard-response","639","1446260","0.0-8.0-1.19","","<img src=""img/grey-r.png"">","null","trial","null","","0.2,0.8","2:nogo_b","1",""
"null","","html-keyboard-response","640","1447264","0.0-8.0-2.19","","<div style=""font-size:60px;"">+</div>","null","","","","","","",""
"572.9999999748543","","image-keyboard-response","641","1447838","0.0-8.0-0.20","","img/red.png","32","trial","null","false","0.2,0.8","4:nogo_d","",""
"null","","html-keyboard-response","642","1448843","0.0-8.0-1.20","","<img src=""img/red-n.png"" border=""10"">","null","trial","null","","0.2,0.8","4:nogo_d","0",""
"null","","html-keyboard-response","643","1449848","0.0-8.0-2.20","","<div style=""font-size:60px;"">+</div>","null","","","","","","",""
"945.0650000944734","","image-keyboard-response","644","1450794","0.0-8.0-0.21","","img/green.png","32","trial","32","true","0.8,0.2","3:go_c","",""
"null","","html-keyboard-response","645","1451796","0.0-8.0-1.21","","<img src=""img/green-r.png"" border=""10"">","null","trial","32","","0.8,0.2","3:go_c","1",""
"null","","html-keyboard-response","646","1452802","0.0-8.0-2.21","","<div style=""font-size:60px;"">+</div>","null","","","","","","",""
"null","","image-keyboard-response","647","1454305","0.0-8.0-0.22","","img/yellow.png","null","trial","32","false","0.8,0.2","1:go_a","",""
"null","","html-keyboard-response","648","1455310","0.0-8.0-1.22","","<img src=""img/yellow-n.png"">","null","trial","32","","0.8,0.2","1:go_a","0",""
"null","","html-keyboard-response","649","1456315","0.0-8.0-2.22","","<div style=""font-size:60px;"">+</div>","null","","","","","","",""
"640.8400000073016","","image-keyboard-response","650","1456956","0.0-8.0-0.23","","img/grey.png","32","trial","null","false","0.2,0.8","2:nogo_b","",""
"null","","html-keyboard-response","651","1457963","0.0-8.0-1.23","","<img src=""img/grey-n.png"" border=""10"">","null","trial","null","","0.2,0.8","2:nogo_b","0",""
"null","","html-keyboard-response","652","1458967","0.0-8.0-2.23","","<div style=""font-size:60px;"">+</div>","null","","","","","","",""
"null","","image-keyboard-response","653","1460471","0.0-8.0-0.24","","img/green.png","null","trial","32","false","0.8,0.2","3:go_c","",""
"null","","html-keyboard-response","654","1461475","0.0-8.0-1.24","","<img src=""img/green-n.png"">","null","trial","32","","0.8,0.2","3:go_c","0",""
"null","","html-keyboard-response","655","1462479","0.0-8.0-2.24","","<div style=""font-size:60px;"">+</div>","null","","","","","","",""
"819.8400000110269","","image-keyboard-response","656","1463300","0.0-8.0-0.25","","img/grey.png","32","trial","null","false","0.2,0.8","2:nogo_b","",""
"null","","html-keyboard-response","657","1464307","0.0-8.0-1.25","","<img src=""img/grey-n.png"" border=""10"">","null","trial","null","","0.2,0.8","2:nogo_b","0",""
"null","","html-keyboard-response","658","1465312","0.0-8.0-2.25","","<div style=""font-size:60px;"">+</div>","null","","","","","","",""
"null","","image-keyboard-response","659","1466816","0.0-8.0-0.26","","img/red.png","null","trial","null","true","0.2,0.8","4:nogo_d","",""
"null","","html-keyboard-response","660","1467818","0.0-8.0-1.26","","<img src=""img/red-r.png"">","null","trial","null","","0.2,0.8","4:nogo_d","1",""
"null","","html-keyboard-response","661","1468821","0.0-8.0-2.26","","<div style=""font-size:60px;"">+</div>","null","","","","","","",""
"586.0650000395253","","image-keyboard-response","662","1469408","0.0-8.0-0.27","","img/yellow.png","32","trial","32","true","0.8,0.2","1:go_a","",""
"null","","html-keyboard-response","663","1470411","0.0-8.0-1.27","","<img src=""img/yellow-r.png"" border=""10"">","null","trial","32","","0.8,0.2","1:go_a","1",""
"null","","html-keyboard-response","664","1471414","0.0-8.0-2.27","","<div style=""font-size:60px;"">+</div>","null","","","","","","",""
"null","","image-keyboard-response","665","1472917","0.0-8.0-0.28","","img/red.png","null","trial","null","true","0.2,0.8","4:nogo_d","",""
"null","","html-keyboard-response","666","1473921","0.0-8.0-1.28","","<img src=""img/red-r.png"">","null","trial","null","","0.2,0.8","4:nogo_d","1",""
"null","","html-keyboard-response","667","1474926","0.0-8.0-2.28","","<div style=""font-size:60px;"">+</div>","null","","","","","","",""
"505.78000000678","","image-keyboard-response","668","1475433","0.0-8.0-0.29","","img/grey.png","32","trial","null","false","0.2,0.8","2:nogo_b","",""
"null","","html-keyboard-response","669","1476435","0.0-8.0-1.29","","<img src=""img/grey-n.png"" border=""10"">","null","trial","null","","0.2,0.8","2:nogo_b","0",""
"null","","html-keyboard-response","670","1477439","0.0-8.0-2.29","","<div style=""font-size:60px;"">+</div>","null","","","","","","",""
"null","","image-keyboard-response","671","1478943","0.0-8.0-0.30","","img/yellow.png","null","trial","32","false","0.8,0.2","1:go_a","",""
"null","","html-keyboard-response","672","1479947","0.0-8.0-1.30","","<img src=""img/yellow-r.png"">","null","trial","32","","0.8,0.2","1:go_a","1",""
"null","","html-keyboard-response","673","1480952","0.0-8.0-2.30","","<div style=""font-size:60px;"">+</div>","null","","","","","","",""
"692.600000067614","","image-keyboard-response","674","1481646","0.0-8.0-0.31","","img/green.png","32","trial","32","true","0.8,0.2","3:go_c","",""
"null","","html-keyboard-response","675","1482652","0.0-8.0-1.31","","<img src=""img/green-r.png"" border=""10"">","null","trial","32","","0.8,0.2","3:go_c","1",""
"null","","html-keyboard-response","676","1483657","0.0-8.0-2.31","","<div style=""font-size:60px;"">+</div>","null","","","","","","",""
"null","","image-keyboard-response","677","1485160","0.0-8.0-0.32","","img/red.png","null","trial","null","true","0.2,0.8","4:nogo_d","",""
"null","","html-keyboard-response","678","1486165","0.0-8.0-1.32","","<img src=""img/red-r.png"">","null","trial","null","","0.2,0.8","4:nogo_d","1",""
"null","","html-keyboard-response","679","1487169","0.0-8.0-2.32","","<div style=""font-size:60px;"">+</div>","null","","","","","","",""
"470.3250000020489","","image-keyboard-response","680","1487640","0.0-8.0-0.33","","img/yellow.png","32","trial","32","true","0.8,0.2","1:go_a","",""
