"rt","url","trial_type","trial_index","time_elapsed","internal_node_id","view_history","stimulus","key_press","test_part","correct_response","correct","use_rew","which_stim","reward","responses"
"23697.32499984093","consent.html","external-html","0","23841","0.0-0.0","","","","","","","","","",""
"163676.17999995127","","instructions","1","187518","0.0-1.0","[{""page_index"":0,""viewing_time"":9581.065000034869},{""page_index"":1,""viewing_time"":27744.26500010304},{""page_index"":2,""viewing_time"":12327.27999985218},{""page_index"":3,""viewing_time"":36695.53000014275},{""page_index"":4,""viewing_time"":35968.0249998346},{""page_index"":5,""viewing_time"":12895.70500003174},{""page_index"":6,""viewing_time"":28463.48000015132}]","","","","","","","","",""
"775.374999968335","","image-keyboard-response","2","188295","0.0-2.0-0.0","","img/test3.PNG","32","practice","null","false","","","",""
"null","","html-keyboard-response","3","189310","0.0-2.0-1.0","","<img src=""img/test3-neutral.PNG"" border=""10px; grey"">","null","","","","","","",""
"null","","html-keyboard-response","4","190323","0.0-2.0-2.0","","<div style=""font-size:60px;"">+</div>","null","","","","","","",""
"889.0050000045449","","image-keyboard-response","5","191213","0.0-2.0-0.1","","img/test1.PNG","32","practice","32","true","","","",""
"null","","html-keyboard-response","6","192226","0.0-2.0-1.1","","<img src=""img/test1-reward.PNG"" border=""10px; grey"">","null","","","","","","",""
"null","","html-keyboard-response","7","193237","0.0-2.0-2.1","","<div style=""font-size:60px;"">+</div>","null","","","","","","",""
"null","","image-keyboard-response","8","194750","0.0-2.0-0.2","","img/test2.PNG","null","practice","null","true","","","",""
"null","","html-keyboard-response","9","195757","0.0-2.0-1.2","","<img src=""img/test2-reward.PNG"">","null","","","","","","",""
"null","","html-keyboard-response","10","196759","0.0-2.0-2.2","","<div style=""font-size:60px;"">+</div>","null","","","","","","",""
"null","","image-keyboard-response","11","198266","0.0-2.0-0.3","","img/test3.PNG","null","practice","null","true","","","",""
"null","","html-keyboard-response","12","199268","0.0-2.0-1.3","","<img src=""img/test3-reward.PNG"">","null","","","","","","",""
"null","","html-keyboard-response","13","200279","0.0-2.0-2.3","","<div style=""font-size:60px;"">+</div>","null","","","","","","",""
"null","","image-keyboard-response","14","201790","0.0-2.0-0.4","","img/test2.PNG","null","practice","null","true","","","",""
"null","","html-keyboard-response","15","202795","0.0-2.0-1.4","","<img src=""img/test2-reward.PNG"">","null","","","","","","",""
"null","","html-keyboard-response","16","203797","0.0-2.0-2.4","","<div style=""font-size:60px;"">+</div>","null","","","","","","",""
"453.35500012151897","","image-keyboard-response","17","204252","0.0-2.0-0.5","","img/test1.PNG","32","practice","32","true","","","",""
"null","","html-keyboard-response","18","205266","0.0-2.0-1.5","","<img src=""img/test1-reward.PNG"" border=""10px; grey"">","null","","","","","","",""
"null","","html-keyboard-response","19","206277","0.0-2.0-2.5","","<div style=""font-size:60px;"">+</div>","null","","","","","","",""
"null","","image-keyboard-response","20","207780","0.0-2.0-0.6","","img/test3.PNG","null","practice","null","true","","","",""
"null","","html-keyboard-response","21","208795","0.0-2.0-1.6","","<img src=""img/test3-reward.PNG"">","null","","","","","","",""
"null","","html-keyboard-response","22","209810","0.0-2.0-2.6","","<div style=""font-size:60px;"">+</div>","null","","","","","","",""
"null","","image-keyboard-response","23","211321","0.0-2.0-0.7","","img/test2.PNG","null","practice","null","true","","","",""
"null","","html-keyboard-response","24","212332","0.0-2.0-1.7","","<img src=""img/test2-reward.PNG"">","null","","","","","","",""
"null","","html-keyboard-response","25","213342","0.0-2.0-2.7","","<div style=""font-size:60px;"">+</div>","null","","","","","","",""
"397.4800000432879","","image-keyboard-response","26","213740","0.0-2.0-0.8","","img/test1.PNG","32","practice","32","true","","","",""
"null","","html-keyboard-response","27","214758","0.0-2.0-1.8","","<img src=""img/test1-reward.PNG"" border=""10px; grey"">","null","","","","","","",""
"null","","html-keyboard-response","28","215771","0.0-2.0-2.8","","<div style=""font-size:60px;"">+</div>","null","","","","","","",""
"null","","image-keyboard-response","29","217275","0.0-2.0-0.9","","img/test2.PNG","null","practice","null","true","","","",""
"null","","html-keyboard-response","30","218279","0.0-2.0-1.9","","<img src=""img/test2-reward.PNG"">","null","","","","","","",""
"null","","html-keyboard-response","31","219295","0.0-2.0-2.9","","<div style=""font-size:60px;"">+</div>","null","","","","","","",""
"988.090000115335","","image-keyboard-response","32","220284","0.0-2.0-0.10","","img/test1.PNG","32","practice","32","true","","","",""
"null","","html-keyboard-response","33","221293","0.0-2.0-1.10","","<img src=""img/test1-reward.PNG"" border=""10px; grey"">","null","","","","","","",""
"null","","html-keyboard-response","34","222303","0.0-2.0-2.10","","<div style=""font-size:60px;"">+</div>","null","","","","","","",""
"null","","image-keyboard-response","35","223819","0.0-2.0-0.11","","img/test3.PNG","null","practice","null","true","","","",""
"null","","html-keyboard-response","36","224833","0.0-2.0-1.11","","<img src=""img/test3-reward.PNG"">","null","","","","","","",""
"null","","html-keyboard-response","37","225844","0.0-2.0-2.11","","<div style=""font-size:60px;"">+</div>","null","","","","","","",""
"3560.2750000543892","","instructions","38","229405","0.0-3.0","[{""page_index"":0,""viewing_time"":3560.1049999240786}]","","","","","","","","",""
"901.7549999989569","","image-keyboard-response","39","230309","0.0-4.0-0.0","","img/grey.png","32","trial","null","false","0.2,0.8","2:nogo_b","",""
"null","","html-keyboard-response","40","231326","0.0-4.0-1.0","","<img src=""img/grey-n.png"" border=""10"">","null","trial","null","","0.2,0.8","2:nogo_b","0",""
"null","","html-keyboard-response","41","232342","0.0-4.0-2.0","","<div style=""font-size:60px;"">+</div>","null","","","","","","",""
"904.3350000865757","","image-keyboard-response","42","233247","0.0-4.0-0.1","","img/red.png","32","trial","32","true","0.8,0.2","1:go_a","",""
"null","","html-keyboard-response","43","234260","0.0-4.0-1.1","","<img src=""img/red-n.png"" border=""10"">","null","trial","32","","0.8,0.2","1:go_a","0",""
"null","","html-keyboard-response","44","235273","0.0-4.0-2.1","","<div style=""font-size:60px;"">+</div>","null","","","","","","",""
"null","","image-keyboard-response","45","236787","0.0-4.0-0.2","","img/grey.png","null","trial","null","true","0.2,0.8","2:nogo_b","",""
"null","","html-keyboard-response","46","237802","0.0-4.0-1.2","","<img src=""img/grey-r.png"">","null","trial","null","","0.2,0.8","2:nogo_b","1",""
"null","","html-keyboard-response","47","238819","0.0-4.0-2.2","","<div style=""font-size:60px;"">+</div>","null","","","","","","",""
"null","","image-keyboard-response","48","240331","0.0-4.0-0.3","","img/red.png","null","trial","32","false","0.8,0.2","1:go_a","",""
"null","","html-keyboard-response","49","241347","0.0-4.0-1.3","","<img src=""img/red-n.png"">","null","trial","32","","0.8,0.2","1:go_a","0",""
"null","","html-keyboard-response","50","242362","0.0-4.0-2.3","","<div style=""font-size:60px;"">+</div>","null","","","","","","",""
"null","","image-keyboard-response","51","243869","0.0-4.0-0.4","","img/grey.png","null","trial","null","true","0.2,0.8","2:nogo_b","",""
"null","","html-keyboard-response","52","244884","0.0-4.0-1.4","","<img src=""img/grey-r.png"">","null","trial","null","","0.2,0.8","2:nogo_b","1",""
"null","","html-keyboard-response","53","245901","0.0-4.0-2.4","","<div style=""font-size:60px;"">+</div>","null","","","","","","",""
"582.8699998091906","","image-keyboard-response","54","246485","0.0-4.0-0.5","","img/red.png","32","trial","32","true","0.8,0.2","1:go_a","",""
"null","","html-keyboard-response","55","247492","0.0-4.0-1.5","","<img src=""img/red-r.png"" border=""10"">","null","trial","32","","0.8,0.2","1:go_a","1",""
"null","","html-keyboard-response","56","248505","0.0-4.0-2.5","","<div style=""font-size:60px;"">+</div>","null","","","","","","",""
"null","","image-keyboard-response","57","250011","0.0-4.0-0.6","","img/grey.png","null","trial","null","true","0.2,0.8","2:nogo_b","",""
"null","","html-keyboard-response","58","251015","0.0-4.0-1.6","","<img src=""img/grey-r.png"">","null","trial","null","","0.2,0.8","2:nogo_b","1",""
"null","","html-keyboard-response","59","252031","0.0-4.0-2.6","","<div style=""font-size:60px;"">+</div>","null","","","","","","",""
"469.32499995455146","","image-keyboard-response","60","252502","0.0-4.0-0.7","","img/red.png","32","trial","32","true","0.8,0.2","1:go_a","",""
"null","","html-keyboard-response","61","253510","0.0-4.0-1.7","","<img src=""img/red-r.png"" border=""10"">","null","trial","32","","0.8,0.2","1:go_a","1",""
"null","","html-keyboard-response","62","254526","0.0-4.0-2.7","","<div style=""font-size:60px;"">+</div>","null","","","","","","",""
"708.3100001327693","","image-keyboard-response","63","255235","0.0-4.0-0.8","","img/red.png","32","trial","32","true","0.8,0.2","1:go_a","",""
"null","","html-keyboard-response","64","256242","0.0-4.0-1.8","","<img src=""img/red-r.png"" border=""10"">","null","trial","32","","0.8,0.2","1:go_a","1",""
"null","","html-keyboard-response","65","257259","0.0-4.0-2.8","","<div style=""font-size:60px;"">+</div>","null","","","","","","",""
"null","","image-keyboard-response","66","258768","0.0-4.0-0.9","","img/grey.png","null","trial","null","true","0.2,0.8","2:nogo_b","",""
"null","","html-keyboard-response","67","259783","0.0-4.0-1.9","","<img src=""img/grey-r.png"">","null","trial","null","","0.2,0.8","2:nogo_b","1",""
"null","","html-keyboard-response","68","260796","0.0-4.0-2.9","","<div style=""font-size:60px;"">+</div>","null","","","","","","",""
"502.7700001373887","","image-keyboard-response","69","261300","0.0-4.0-0.10","","img/red.png","32","trial","32","true","0.8,0.2","1:go_a","",""
"null","","html-keyboard-response","70","262308","0.0-4.0-1.10","","<img src=""img/red-n.png"" border=""10"">","null","trial","32","","0.8,0.2","1:go_a","0",""
"null","","html-keyboard-response","71","263310","0.0-4.0-2.10","","<div style=""font-size:60px;"">+</div>","null","","","","","","",""
"null","","image-keyboard-response","72","264820","0.0-4.0-0.11","","img/grey.png","null","trial","null","true","0.2,0.8","2:nogo_b","",""
"null","","html-keyboard-response","73","265828","0.0-4.0-1.11","","<img src=""img/grey-r.png"">","null","trial","null","","0.2,0.8","2:nogo_b","1",""
"null","","html-keyboard-response","74","266843","0.0-4.0-2.11","","<div style=""font-size:60px;"">+</div>","null","","","","","","",""
"null","","image-keyboard-response","75","268352","0.0-4.0-0.12","","img/red.png","null","trial","32","false","0.8,0.2","1:go_a","",""
"null","","html-keyboard-response","76","269357","0.0-4.0-1.12","","<img src=""img/red-n.png"">","null","trial","32","","0.8,0.2","1:go_a","0",""
"null","","html-keyboard-response","77","270370","0.0-4.0-2.12","","<div style=""font-size:60px;"">+</div>","null","","","","","","",""
"null","","image-keyboard-response","78","271884","0.0-4.0-0.13","","img/grey.png","null","trial","null","true","0.2,0.8","2:nogo_b","",""
"null","","html-keyboard-response","79","272900","0.0-4.0-1.13","","<img src=""img/grey-r.png"">","null","trial","null","","0.2,0.8","2:nogo_b","1",""
"null","","html-keyboard-response","80","273912","0.0-4.0-2.13","","<div style=""font-size:60px;"">+</div>","null","","","","","","",""
"330.45999985188246","","image-keyboard-response","81","274243","0.0-4.0-0.14","","img/red.png","32","trial","32","true","0.8,0.2","1:go_a","",""
"null","","html-keyboard-response","82","275259","0.0-4.0-1.14","","<img src=""img/red-r.png"" border=""10"">","null","trial","32","","0.8,0.2","1:go_a","1",""
"null","","html-keyboard-response","83","276275","0.0-4.0-2.14","","<div style=""font-size:60px;"">+</div>","null","","","","","","",""
"null","","image-keyboard-response","84","277777","0.0-4.0-0.15","","img/grey.png","null","trial","null","true","0.2,0.8","2:nogo_b","",""
"null","","html-keyboard-response","85","278786","0.0-4.0-1.15","","<img src=""img/grey-n.png"">","null","trial","null","","0.2,0.8","2:nogo_b","0",""
"null","","html-keyboard-response","86","279798","0.0-4.0-2.15","","<div style=""font-size:60px;"">+</div>","null","","","","","","",""
"null","","image-keyboard-response","87","281307","0.0-4.0-0.16","","img/grey.png","null","trial","null","true","0.2,0.8","2:nogo_b","",""
"null","","html-keyboard-response","88","282320","0.0-4.0-1.16","","<img src=""img/grey-r.png"">","null","trial","null","","0.2,0.8","2:nogo_b","1",""
"null","","html-keyboard-response","89","283335","0.0-4.0-2.16","","<div style=""font-size:60px;"">+</div>","null","","","","","","",""
"668.244999833405","","image-keyboard-response","90","284004","0.0-4.0-0.17","","img/red.png","32","trial","32","true","0.8,0.2","1:go_a","",""
"null","","html-keyboard-response","91","285020","0.0-4.0-1.17","","<img src=""img/red-r.png"" border=""10"">","null","trial","32","","0.8,0.2","1:go_a","1",""
"null","","html-keyboard-response","92","286032","0.0-4.0-2.17","","<div style=""font-size:60px;"">+</div>","null","","","","","","",""
"843.2150001171976","","image-keyboard-response","93","286876","0.0-4.0-0.18","","img/red.png","32","trial","32","true","0.8,0.2","1:go_a","",""
"null","","html-keyboard-response","94","287880","0.0-4.0-1.18","","<img src=""img/red-r.png"" border=""10"">","null","trial","32","","0.8,0.2","1:go_a","1",""
"null","","html-keyboard-response","95","288895","0.0-4.0-2.18","","<div style=""font-size:60px;"">+</div>","null","","","","","","",""
"null","","image-keyboard-response","96","290405","0.0-4.0-0.19","","img/grey.png","null","trial","null","true","0.2,0.8","2:nogo_b","",""
"null","","html-keyboard-response","97","291415","0.0-4.0-1.19","","<img src=""img/grey-r.png"">","null","trial","null","","0.2,0.8","2:nogo_b","1",""
"null","","html-keyboard-response","98","292429","0.0-4.0-2.19","","<div style=""font-size:60px;"">+</div>","null","","","","","","",""
"390.28500020504","","image-keyboard-response","99","292820","0.0-4.0-0.20","","img/red.png","32","trial","32","true","0.8,0.2","1:go_a","",""
"null","","html-keyboard-response","100","293832","0.0-4.0-1.20","","<img src=""img/red-r.png"" border=""10"">","null","trial","32","","0.8,0.2","1:go_a","1",""
"null","","html-keyboard-response","101","294838","0.0-4.0-2.20","","<div style=""font-size:60px;"">+</div>","null","","","","","","",""
"null","","image-keyboard-response","102","296348","0.0-4.0-0.21","","img/grey.png","null","trial","null","true","0.2,0.8","2:nogo_b","",""
"null","","html-keyboard-response","103","297364","0.0-4.0-1.21","","<img src=""img/grey-r.png"">","null","trial","null","","0.2,0.8","2:nogo_b","1",""
"null","","html-keyboard-response","104","298376","0.0-4.0-2.21","","<div style=""font-size:60px;"">+</div>","null","","","","","","",""
"null","","image-keyboard-response","105","299889","0.0-4.0-0.22","","img/grey.png","null","trial","null","true","0.2,0.8","2:nogo_b","",""
"null","","html-keyboard-response","106","300892","0.0-4.0-1.22","","<img src=""img/grey-r.png"">","null","trial","null","","0.2,0.8","2:nogo_b","1",""
"null","","html-keyboard-response","107","301906","0.0-4.0-2.22","","<div style=""font-size:60px;"">+</div>","null","","","","","","",""
"432.10499989800155","","image-keyboard-response","108","302339","0.0-4.0-0.23","","img/red.png","32","trial","32","true","0.8,0.2","1:go_a","",""
"null","","html-keyboard-response","109","303345","0.0-4.0-1.23","","<img src=""img/red-n.png"" border=""10"">","null","trial","32","","0.8,0.2","1:go_a","0",""
"null","","html-keyboard-response","110","304354","0.0-4.0-2.23","","<div style=""font-size:60px;"">+</div>","null","","","","","","",""
"null","","image-keyboard-response","111","305872","0.0-4.0-0.24","","img/grey.png","null","trial","null","true","0.2,0.8","2:nogo_b","",""
"null","","html-keyboard-response","112","306886","0.0-4.0-1.24","","<img src=""img/grey-n.png"">","null","trial","null","","0.2,0.8","2:nogo_b","0",""
"null","","html-keyboard-response","113","307900","0.0-4.0-2.24","","<div style=""font-size:60px;"">+</div>","null","","","","","","",""
"470.0299999676645","","image-keyboard-response","114","308371","0.0-4.0-0.25","","img/red.png","32","trial","32","true","0.8,0.2","1:go_a","",""
"null","","html-keyboard-response","115","309379","0.0-4.0-1.25","","<img src=""img/red-r.png"" border=""10"">","null","trial","32","","0.8,0.2","1:go_a","1",""
"null","","html-keyboard-response","116","310395","0.0-4.0-2.25","","<div style=""font-size:60px;"">+</div>","null","","","","","","",""
"null","","image-keyboard-response","117","311904","0.0-4.0-0.26","","img/grey.png","null","trial","null","true","0.2,0.8","2:nogo_b","",""
"null","","html-keyboard-response","118","312916","0.0-4.0-1.26","","<img src=""img/grey-n.png"">","null","trial","null","","0.2,0.8","2:nogo_b","0",""
"null","","html-keyboard-response","119","313930","0.0-4.0-2.26","","<div style=""font-size:60px;"">+</div>","null","","","","","","",""
"464.2699998803437","","image-keyboard-response","120","314396","0.0-4.0-0.27","","img/red.png","32","trial","32","true","0.8,0.2","1:go_a","",""
"null","","html-keyboard-response","121","315414","0.0-4.0-1.27","","<img src=""img/red-n.png"" border=""10"">","null","trial","32","","0.8,0.2","1:go_a","0",""
"null","","html-keyboard-response","122","316426","0.0-4.0-2.27","","<div style=""font-size:60px;"">+</div>","null","","","","","","",""
"424.76500011980534","","image-keyboard-response","123","316851","0.0-4.0-0.28","","img/grey.png","32","trial","null","false","0.2,0.8","2:nogo_b","",""
"null","","html-keyboard-response","124","317859","0.0-4.0-1.28","","<img src=""img/grey-n.png"" border=""10"">","null","trial","null","","0.2,0.8","2:nogo_b","0",""
"null","","html-keyboard-response","125","318875","0.0-4.0-2.28","","<div style=""font-size:60px;"">+</div>","null","","","","","","",""
"527.7750000823289","","image-keyboard-response","126","319404","0.0-4.0-0.29","","img/red.png","32","trial","32","true","0.8,0.2","1:go_a","",""
"null","","html-keyboard-response","127","320407","0.0-4.0-1.29","","<img src=""img/red-n.png"" border=""10"">","null","trial","32","","0.8,0.2","1:go_a","0",""
"null","","html-keyboard-response","128","321419","0.0-4.0-2.29","","<div style=""font-size:60px;"">+</div>","null","","","","","","",""
"null","","image-keyboard-response","129","322933","0.0-4.0-0.30","","img/red.png","null","trial","32","false","0.8,0.2","1:go_a","",""
"null","","html-keyboard-response","130","323950","0.0-4.0-1.30","","<img src=""img/red-n.png"">","null","trial","32","","0.8,0.2","1:go_a","0",""
"null","","html-keyboard-response","131","324964","0.0-4.0-2.30","","<div style=""font-size:60px;"">+</div>","null","","","","","","",""
"614.9699999950826","","image-keyboard-response","132","325580","0.0-4.0-0.31","","img/grey.png","32","trial","null","false","0.2,0.8","2:nogo_b","",""
"null","","html-keyboard-response","133","326586","0.0-4.0-1.31","","<img src=""img/grey-n.png"" border=""10"">","null","trial","null","","0.2,0.8","2:nogo_b","0",""
"null","","html-keyboard-response","134","327597","0.0-4.0-2.31","","<div style=""font-size:60px;"">+</div>","null","","","","","","",""
"469.7999998461455","","image-keyboard-response","135","328068","0.0-4.0-0.32","","img/red.png","32","trial","32","true","0.8,0.2","1:go_a","",""
"null","","html-keyboard-response","136","329084","0.0-4.0-1.32","","<img src=""img/red-r.png"" border=""10"">","null","trial","32","","0.8,0.2","1:go_a","1",""
"null","","html-keyboard-response","137","330095","0.0-4.0-2.32","","<div style=""font-size:60px;"">+</div>","null","","","","","","",""
"null","","image-keyboard-response","138","331604","0.0-4.0-0.33","","img/grey.png","null","trial","null","true","0.2,0.8","2:nogo_b","",""
"null","","html-keyboard-response","139","332617","0.0-4.0-1.33","","<img src=""img/grey-r.png"">","null","trial","null","","0.2,0.8","2:nogo_b","1",""
"null","","html-keyboard-response","140","333630","0.0-4.0-2.33","","<div style=""font-size:60px;"">+</div>","null","","","","","","",""
"null","","image-keyboard-response","141","335137","0.0-4.0-0.34","","img/grey.png","null","trial","null","true","0.2,0.8","2:nogo_b","",""
"null","","html-keyboard-response","142","336149","0.0-4.0-1.34","","<img src=""img/grey-n.png"">","null","trial","null","","0.2,0.8","2:nogo_b","0",""
"null","","html-keyboard-response","143","337163","0.0-4.0-2.34","","<div style=""font-size:60px;"">+</div>","null","","","","","","",""
"362.93500009924173","","image-keyboard-response","144","337527","0.0-4.0-0.35","","img/red.png","32","trial","32","true","0.8,0.2","1:go_a","",""
"null","","html-keyboard-response","145","338540","0.0-4.0-1.35","","<img src=""img/red-r.png"" border=""10"">","null","trial","32","","0.8,0.2","1:go_a","1",""
"null","","html-keyboard-response","146","339552","0.0-4.0-2.35","","<div style=""font-size:60px;"">+</div>","null","","","","","","",""
"746.7499999329448","","image-keyboard-response","147","340299","0.0-4.0-0.36","","img/grey.png","32","trial","null","false","0.2,0.8","2:nogo_b","",""
"null","","html-keyboard-response","148","341303","0.0-4.0-1.36","","<img src=""img/grey-n.png"" border=""10"">","null","trial","null","","0.2,0.8","2:nogo_b","0",""
"null","","html-keyboard-response","149","342316","0.0-4.0-2.36","","<div style=""font-size:60px;"">+</div>","null","","","","","","",""
"517.6750000100583","","image-keyboard-response","150","342835","0.0-4.0-0.37","","img/red.png","32","trial","32","true","0.8,0.2","1:go_a","",""
"null","","html-keyboard-response","151","343841","0.0-4.0-1.37","","<img src=""img/red-r.png"" border=""10"">","null","trial","32","","0.8,0.2","1:go_a","1",""
"null","","html-keyboard-response","152","344853","0.0-4.0-2.37","","<div style=""font-size:60px;"">+</div>","null","","","","","","",""
"885.719999903813","","image-keyboard-response","153","345740","0.0-4.0-0.38","","img/grey.png","32","trial","null","false","0.2,0.8","2:nogo_b","",""
"null","","html-keyboard-response","154","346756","0.0-4.0-1.38","","<img src=""img/grey-n.png"" border=""10"">","null","trial","null","","0.2,0.8","2:nogo_b","0",""
"null","","html-keyboard-response","155","347770","0.0-4.0-2.38","","<div style=""font-size:60px;"">+</div>","null","","","","","","",""
"432.54999979399145","","image-keyboard-response","156","348204","0.0-4.0-0.39","","img/red.png","32","trial","32","true","0.8,0.2","1:go_a","",""
"null","","html-keyboard-response","157","349221","0.0-4.0-1.39","","<img src=""img/red-n.png"" border=""10"">","null","trial","32","","0.8,0.2","1:go_a","0",""
"null","","html-keyboard-response","158","350232","0.0-4.0-2.39","","<div style=""font-size:60px;"">+</div>","null","","","","","","",""
"938.5600001551211","","image-keyboard-response","159","351172","0.0-4.0-0.40","","img/red.png","32","trial","32","true","0.8,0.2","1:go_a","",""
"null","","html-keyboard-response","160","352178","0.0-4.0-1.40","","<img src=""img/red-n.png"" border=""10"">","null","trial","32","","0.8,0.2","1:go_a","0",""
"null","","html-keyboard-response","161","353190","0.0-4.0-2.40","","<div style=""font-size:60px;"">+</div>","null","","","","","","",""
"435.82499981857836","","image-keyboard-response","162","353627","0.0-4.0-0.41","","img/grey.png","32","trial","null","false","0.2,0.8","2:nogo_b","",""
"null","","html-keyboard-response","163","354637","0.0-4.0-1.41","","<img src=""img/grey-r.png"" border=""10"">","null","trial","null","","0.2,0.8","2:nogo_b","1",""
"null","","html-keyboard-response","164","355646","0.0-4.0-2.41","","<div style=""font-size:60px;"">+</div>","null","","","","","","",""
"null","","image-keyboard-response","165","357157","0.0-4.0-0.42","","img/red.png","null","trial","32","false","0.8,0.2","1:go_a","",""
"null","","html-keyboard-response","166","358168","0.0-4.0-1.42","","<img src=""img/red-n.png"">","null","trial","32","","0.8,0.2","1:go_a","0",""
"null","","html-keyboard-response","167","359181","0.0-4.0-2.42","","<div style=""font-size:60px;"">+</div>","null","","","","","","",""
"526.4649998862296","","image-keyboard-response","168","359708","0.0-4.0-0.43","","img/grey.png","32","trial","null","false","0.2,0.8","2:nogo_b","",""
"null","","html-keyboard-response","169","360722","0.0-4.0-1.43","","<img src=""img/grey-n.png"" border=""10"">","null","trial","null","","0.2,0.8","2:nogo_b","0",""
"null","","html-keyboard-response","170","361730","0.0-4.0-2.43","","<div style=""font-size:60px;"">+</div>","null","","","","","","",""
"928.404999896884","","image-keyboard-response","171","362660","0.0-4.0-0.44","","img/grey.png","32","trial","null","false","0.2,0.8","2:nogo_b","",""
"null","","html-keyboard-response","172","363673","0.0-4.0-1.44","","<img src=""img/grey-r.png"" border=""10"">","null","trial","null","","0.2,0.8","2:nogo_b","1",""
"null","","html-keyboard-response","173","364687","0.0-4.0-2.44","","<div style=""font-size:60px;"">+</div>","null","","","","","","",""
"442.79500003904104","","image-keyboard-response","174","365131","0.0-4.0-0.45","","img/red.png","32","trial","32","true","0.8,0.2","1:go_a","",""
"null","","html-keyboard-response","175","366142","0.0-4.0-1.45","","<img src=""img/red-r.png"" border=""10"">","null","trial","32","","0.8,0.2","1:go_a","1",""
"null","","html-keyboard-response","176","367151","0.0-4.0-2.45","","<div style=""font-size:60px;"">+</div>","null","","","","","","",""
"732.6449998654425","","image-keyboard-response","177","367885","0.0-4.0-0.46","","img/red.png","32","trial","32","true","0.8,0.2","1:go_a","",""
"null","","html-keyboard-response","178","368901","0.0-4.0-1.46","","<img src=""img/red-r.png"" border=""10"">","null","trial","32","","0.8,0.2","1:go_a","1",""
"null","","html-keyboard-response","179","369914","0.0-4.0-2.46","","<div style=""font-size:60px;"">+</div>","null","","","","","","",""
"null","","image-keyboard-response","180","371420","0.0-4.0-0.47","","img/grey.png","null","trial","null","true","0.2,0.8","2:nogo_b","",""
"null","","html-keyboard-response","181","372432","0.0-4.0-1.47","","<img src=""img/grey-n.png"">","null","trial","null","","0.2,0.8","2:nogo_b","0",""
"null","","html-keyboard-response","182","373444","0.0-4.0-2.47","","<div style=""font-size:60px;"">+</div>","null","","","","","","",""
"478.98500016890466","","image-keyboard-response","183","373924","0.0-4.0-0.48","","img/red.png","32","trial","32","true","0.8,0.2","1:go_a","",""
"null","","html-keyboard-response","184","374942","0.0-4.0-1.48","","<img src=""img/red-r.png"" border=""10"">","null","trial","32","","0.8,0.2","1:go_a","1",""
"null","","html-keyboard-response","185","375958","0.0-4.0-2.48","","<div style=""font-size:60px;"">+</div>","null","","","","","","",""
"347.9100000113249","","image-keyboard-response","186","376307","0.0-4.0-0.49","","img/grey.png","32","trial","null","false","0.2,0.8","2:nogo_b","",""
"null","","html-keyboard-response","187","377321","0.0-4.0-1.49","","<img src=""img/grey-r.png"" border=""10"">","null","trial","null","","0.2,0.8","2:nogo_b","1",""
"null","","html-keyboard-response","188","378334","0.0-4.0-2.49","","<div style=""font-size:60px;"">+</div>","null","","","","","","",""
"603.5350000020117","","image-keyboard-response","189","378939","0.0-4.0-0.50","","img/grey.png","32","trial","null","false","0.2,0.8","2:nogo_b","",""
"null","","html-keyboard-response","190","379942","0.0-4.0-1.50","","<img src=""img/grey-n.png"" border=""10"">","null","trial","null","","0.2,0.8","2:nogo_b","0",""
"null","","html-keyboard-response","191","380952","0.0-4.0-2.50","","<div style=""font-size:60px;"">+</div>","null","","","","","","",""
"433.97999997250736","","image-keyboard-response","192","381387","0.0-4.0-0.51","","img/red.png","32","trial","32","true","0.8,0.2","1:go_a","",""
"null","","html-keyboard-response","193","382404","0.0-4.0-1.51","","<img src=""img/red-r.png"" border=""10"">","null","trial","32","","0.8,0.2","1:go_a","1",""
"null","","html-keyboard-response","194","383418","0.0-4.0-2.51","","<div style=""font-size:60px;"">+</div>","null","","","","","","",""
"null","","image-keyboard-response","195","384930","0.0-4.0-0.52","","img/grey.png","null","trial","null","true","0.2,0.8","2:nogo_b","",""
"null","","html-keyboard-response","196","385944","0.0-4.0-1.52","","<img src=""img/grey-r.png"">","null","trial","null","","0.2,0.8","2:nogo_b","1",""
"null","","html-keyboard-response","197","386959","0.0-4.0-2.52","","<div style=""font-size:60px;"">+</div>","null","","","","","","",""
"299.000000115484","","image-keyboard-response","198","387259","0.0-4.0-0.53","","img/red.png","32","trial","32","true","0.8,0.2","1:go_a","",""
"null","","html-keyboard-response","199","388270","0.0-4.0-1.53","","<img src=""img/red-r.png"" border=""10"">","null","trial","32","","0.8,0.2","1:go_a","1",""
"null","","html-keyboard-response","200","389283","0.0-4.0-2.53","","<div style=""font-size:60px;"">+</div>","null","","","","","","",""
"1135.1149999536574","","image-keyboard-response","201","390419","0.0-4.0-0.54","","img/red.png","32","trial","32","true","0.8,0.2","1:go_a","",""
"null","","html-keyboard-response","202","391423","0.0-4.0-1.54","","<img src=""img/red-r.png"" border=""10"">","null","trial","32","","0.8,0.2","1:go_a","1",""
"null","","html-keyboard-response","203","392434","0.0-4.0-2.54","","<div style=""font-size:60px;"">+</div>","null","","","","","","",""
"null","","image-keyboard-response","204","393947","0.0-4.0-0.55","","img/grey.png","null","trial","null","true","0.2,0.8","2:nogo_b","",""
"null","","html-keyboard-response","205","394960","0.0-4.0-1.55","","<img src=""img/grey-r.png"">","null","trial","null","","0.2,0.8","2:nogo_b","1",""
"null","","html-keyboard-response","206","395973","0.0-4.0-2.55","","<div style=""font-size:60px;"">+</div>","null","","","","","","",""
"388.2550001144409","","image-keyboard-response","207","396362","0.0-4.0-0.56","","img/red.png","32","trial","32","true","0.8,0.2","1:go_a","",""
"null","","html-keyboard-response","208","397374","0.0-4.0-1.56","","<img src=""img/red-r.png"" border=""10"">","null","trial","32","","0.8,0.2","1:go_a","1",""
"null","","html-keyboard-response","209","398393","0.0-4.0-2.56","","<div style=""font-size:60px;"">+</div>","null","","","","","","",""
"null","","image-keyboard-response","210","399906","0.0-4.0-0.57","","img/grey.png","null","trial","null","true","0.2,0.8","2:nogo_b","",""
"null","","html-keyboard-response","211","400919","0.0-4.0-1.57","","<img src=""img/grey-r.png"">","null","trial","null","","0.2,0.8","2:nogo_b","1",""
"null","","html-keyboard-response","212","401935","0.0-4.0-2.57","","<div style=""font-size:60px;"">+</div>","null","","","","","","",""
"434.83499996364117","","image-keyboard-response","213","402371","0.0-4.0-0.58","","img/red.png","32","trial","32","true","0.8,0.2","1:go_a","",""
"null","","html-keyboard-response","214","403385","0.0-4.0-1.58","","<img src=""img/red-r.png"" border=""10"">","null","trial","32","","0.8,0.2","1:go_a","1",""
"null","","html-keyboard-response","215","404397","0.0-4.0-2.58","","<div style=""font-size:60px;"">+</div>","null","","","","","","",""
"null","","image-keyboard-response","216","405906","0.0-4.0-0.59","","img/grey.png","null","trial","null","true","0.2,0.8","2:nogo_b","",""
"null","","html-keyboard-response","217","406920","0.0-4.0-1.59","","<img src=""img/grey-r.png"">","null","trial","null","","0.2,0.8","2:nogo_b","1",""
"null","","html-keyboard-response","218","407936","0.0-4.0-2.59","","<div style=""font-size:60px;"">+</div>","null","","","","","","",""
"3163.0000001750886","","instructions","219","411100","0.0-5.0","[{""page_index"":0,""viewing_time"":3162.785000167787}]","","","","","","","","",""
"1005.6900000199676","","image-keyboard-response","220","412107","0.0-6.0-0.0","","img/green.png","32","trial","32","true","0.6,0.4","3:go_c","",""
"null","","html-keyboard-response","221","413113","0.0-6.0-1.0","","<img src=""img/green-r.png"" border=""10"">","null","trial","32","","0.6,0.4","3:go_c","1",""
"null","","html-keyboard-response","222","414119","0.0-6.0-2.0","","<div style=""font-size:60px;"">+</div>","null","","","","","","",""
"null","","image-keyboard-response","223","415634","0.0-6.0-0.1","","img/purple.png","null","trial","null","true","0.4,0.6","4:nogo_d","",""
"null","","html-keyboard-response","224","416650","0.0-6.0-1.1","","<img src=""img/purple-n.png"">","null","trial","null","","0.4,0.6","4:nogo_d","0",""
"null","","html-keyboard-response","225","417663","0.0-6.0-2.1","","<div style=""font-size:60px;"">+</div>","null","","","","","","",""
"1275.3399999346584","","image-keyboard-response","226","418939","0.0-6.0-0.2","","img/red.png","32","trial","null","false","0.2,0.8","2:nogo_b","",""
"null","","html-keyboard-response","227","419943","0.0-6.0-1.2","","<img src=""img/red-n.png"" border=""10"">","null","trial","null","","0.2,0.8","2:nogo_b","0",""
"null","","html-keyboard-response","228","420955","0.0-6.0-2.2","","<div style=""font-size:60px;"">+</div>","null","","","","","","",""
"1352.7049999684095","","image-keyboard-response","229","422309","0.0-6.0-0.3","","img/orange.png","32","trial","32","true","0.8,0.2","1:go_a","",""
"null","","html-keyboard-response","230","423322","0.0-6.0-1.3","","<img src=""img/orange-r.png"" border=""10"">","null","trial","32","","0.8,0.2","1:go_a","1",""
"null","","html-keyboard-response","231","424333","0.0-6.0-2.3","","<div style=""font-size:60px;"">+</div>","null","","","","","","",""
"780.6049999780953","","image-keyboard-response","232","425114","0.0-6.0-0.4","","img/orange.png","32","trial","32","true","0.8,0.2","1:go_a","",""
"null","","html-keyboard-response","233","426120","0.0-6.0-1.4","","<img src=""img/orange-r.png"" border=""10"">","null","trial","32","","0.8,0.2","1:go_a","1",""
"null","","html-keyboard-response","234","427132","0.0-6.0-2.4","","<div style=""font-size:60px;"">+</div>","null","","","","","","",""
"null","","image-keyboard-response","235","428636","0.0-6.0-0.5","","img/red.png","null","trial","null","true","0.2,0.8","2:nogo_b","",""
"null","","html-keyboard-response","236","429650","0.0-6.0-1.5","","<img src=""img/red-r.png"">","null","trial","null","","0.2,0.8","2:nogo_b","1",""
"null","","html-keyboard-response","237","430658","0.0-6.0-2.5","","<div style=""font-size:60px;"">+</div>","null","","","","","","",""
"824.4399998802692","","image-keyboard-response","238","431483","0.0-6.0-0.6","","img/purple.png","32","trial","null","false","0.4,0.6","4:nogo_d","",""
"null","","html-keyboard-response","239","432502","0.0-6.0-1.6","","<img src=""img/purple-r.png"" border=""10"">","null","trial","null","","0.4,0.6","4:nogo_d","1",""
"null","","html-keyboard-response","240","433514","0.0-6.0-2.6","","<div style=""font-size:60px;"">+</div>","null","","","","","","",""
"463.26000010594726","","image-keyboard-response","241","433978","0.0-6.0-0.7","","img/green.png","32","trial","32","true","0.6,0.4","3:go_c","",""
"null","","html-keyboard-response","242","434995","0.0-6.0-1.7","","<img src=""img/green-r.png"" border=""10"">","null","trial","32","","0.6,0.4","3:go_c","1",""
"null","","html-keyboard-response","243","436009","0.0-6.0-2.7","","<div style=""font-size:60px;"">+</div>","null","","","","","","",""
"560.5999999679625","","image-keyboard-response","244","436571","0.0-6.0-0.8","","img/green.png","32","trial","32","true","0.6,0.4","3:go_c","",""
"null","","html-keyboard-response","245","437588","0.0-6.0-1.8","","<img src=""img/green-n.png"" border=""10"">","null","trial","32","","0.6,0.4","3:go_c","0",""
"null","","html-keyboard-response","246","438600","0.0-6.0-2.8","","<div style=""font-size:60px;"">+</div>","null","","","","","","",""
"905.8799999766052","","image-keyboard-response","247","439506","0.0-6.0-0.9","","img/purple.png","32","trial","null","false","0.4,0.6","4:nogo_d","",""
"null","","html-keyboard-response","248","440516","0.0-6.0-1.9","","<img src=""img/purple-n.png"" border=""10"">","null","trial","null","","0.4,0.6","4:nogo_d","0",""
"null","","html-keyboard-response","249","441527","0.0-6.0-2.9","","<div style=""font-size:60px;"">+</div>","null","","","","","","",""
"594.6149998344481","","image-keyboard-response","250","442123","0.0-6.0-0.10","","img/orange.png","32","trial","32","true","0.8,0.2","1:go_a","",""
"null","","html-keyboard-response","251","443132","0.0-6.0-1.10","","<img src=""img/orange-n.png"" border=""10"">","null","trial","32","","0.8,0.2","1:go_a","0",""
"null","","html-keyboard-response","252","444141","0.0-6.0-2.10","","<div style=""font-size:60px;"">+</div>","null","","","","","","",""
"908.5049999412149","","image-keyboard-response","253","445050","0.0-6.0-0.11","","img/red.png","32","trial","null","false","0.2,0.8","2:nogo_b","",""
"null","","html-keyboard-response","254","446061","0.0-6.0-1.11","","<img src=""img/red-n.png"" border=""10"">","null","trial","null","","0.2,0.8","2:nogo_b","0",""
"null","","html-keyboard-response","255","447065","0.0-6.0-2.11","","<div style=""font-size:60px;"">+</div>","null","","","","","","",""
"385.2550000883639","","image-keyboard-response","256","447451","0.0-6.0-0.12","","img/green.png","32","trial","32","true","0.6,0.4","3:go_c","",""
"null","","html-keyboard-response","257","448468","0.0-6.0-1.12","","<img src=""img/green-n.png"" border=""10"">","null","trial","32","","0.6,0.4","3:go_c","0",""
"null","","html-keyboard-response","258","449472","0.0-6.0-2.12","","<div style=""font-size:60px;"">+</div>","null","","","","","","",""
"null","","image-keyboard-response","259","450981","0.0-6.0-0.13","","img/orange.png","null","trial","32","false","0.8,0.2","1:go_a","",""
"null","","html-keyboard-response","260","451990","0.0-6.0-1.13","","<img src=""img/orange-n.png"">","null","trial","32","","0.8,0.2","1:go_a","0",""
"null","","html-keyboard-response","261","453005","0.0-6.0-2.13","","<div style=""font-size:60px;"">+</div>","null","","","","","","",""
"470.22999986074865","","image-keyboard-response","262","453476","0.0-6.0-0.14","","img/purple.png","32","trial","null","false","0.4,0.6","4:nogo_d","",""
"null","","html-keyboard-response","263","454487","0.0-6.0-1.14","","<img src=""img/purple-n.png"" border=""10"">","null","trial","null","","0.4,0.6","4:nogo_d","0",""
"null","","html-keyboard-response","264","455504","0.0-6.0-2.14","","<div style=""font-size:60px;"">+</div>","null","","","","","","",""
"null","","image-keyboard-response","265","457016","0.0-6.0-0.15","","img/red.png","null","trial","null","true","0.2,0.8","2:nogo_b","",""
"null","","html-keyboard-response","266","458032","0.0-6.0-1.15","","<img src=""img/red-n.png"">","null","trial","null","","0.2,0.8","2:nogo_b","0",""
"null","","html-keyboard-response","267","459047","0.0-6.0-2.15","","<div style=""font-size:60px;"">+</div>","null","","","","","","",""
"930.614999961108","","image-keyboard-response","268","459979","0.0-6.0-0.16","","img/purple.png","32","trial","null","false","0.4,0.6","4:nogo_d","",""
"null","","html-keyboard-response","269","460996","0.0-6.0-1.16","","<img src=""img/purple-r.png"" border=""10"">","null","trial","null","","0.4,0.6","4:nogo_d","1",""
"null","","html-keyboard-response","270","462004","0.0-6.0-2.16","","<div style=""font-size:60px;"">+</div>","null","","","","","","",""
"557.1699999272823","","image-keyboard-response","271","462562","0.0-6.0-0.17","","img/orange.png","32","trial","32","true","0.8,0.2","1:go_a","",""
"null","","html-keyboard-response","272","463576","0.0-6.0-1.17","","<img src=""img/orange-r.png"" border=""10"">","null","trial","32","","0.8,0.2","1:go_a","1",""
"null","","html-keyboard-response","273","464587","0.0-6.0-2.17","","<div style=""font-size:60px;"">+</div>","null","","","","","","",""
"456.01000008173287","","image-keyboard-response","274","465043","0.0-6.0-0.18","","img/green.png","32","trial","32","true","0.6,0.4","3:go_c","",""
"null","","html-keyboard-response","275","466050","0.0-6.0-1.18","","<img src=""img/green-r.png"" border=""10"">","null","trial","32","","0.6,0.4","3:go_c","1",""
"null","","html-keyboard-response","276","467064","0.0-6.0-2.18","","<div style=""font-size:60px;"">+</div>","null","","","","","","",""
"585.9100001398474","","image-keyboard-response","277","467651","0.0-6.0-0.19","","img/red.png","32","trial","null","false","0.2,0.8","2:nogo_b","",""
"null","","html-keyboard-response","278","468654","0.0-6.0-1.19","","<img src=""img/red-n.png"" border=""10"">","null","trial","null","","0.2,0.8","2:nogo_b","0",""
"null","","html-keyboard-response","279","469667","0.0-6.0-2.19","","<div style=""font-size:60px;"">+</div>","null","","","","","","",""
"798.5149999149144","","image-keyboard-response","280","470467","0.0-6.0-0.20","","img/orange.png","32","trial","32","true","0.8,0.2","1:go_a","",""
"null","","html-keyboard-response","281","471474","0.0-6.0-1.20","","<img src=""img/orange-n.png"" border=""10"">","null","trial","32","","0.8,0.2","1:go_a","0",""
"null","","html-keyboard-response","282","472480","0.0-6.0-2.20","","<div style=""font-size:60px;"">+</div>","null","","","","","","",""
"null","","image-keyboard-response","283","473991","0.0-6.0-0.21","","img/green.png","null","trial","32","false","0.6,0.4","3:go_c","",""
"null","","html-keyboard-response","284","475006","0.0-6.0-1.21","","<img src=""img/green-n.png"">","null","trial","32","","0.6,0.4","3:go_c","0",""
"null","","html-keyboard-response","285","476022","0.0-6.0-2.21","","<div style=""font-size:60px;"">+</div>","null","","","","","","",""
"1052.6249997783452","","image-keyboard-response","286","477075","0.0-6.0-0.22","","img/red.png","32","trial","null","false","0.2,0.8","2:nogo_b","",""
"null","","html-keyboard-response","287","478091","0.0-6.0-1.22","","<img src=""img/red-n.png"" border=""10"">","null","trial","null","","0.2,0.8","2:nogo_b","0",""
"null","","html-keyboard-response","288","479105","0.0-6.0-2.22","","<div style=""font-size:60px;"">+</div>","null","","","","","","",""
"592.3500000499189","","image-keyboard-response","289","479698","0.0-6.0-0.23","","img/purple.png","32","trial","null","false","0.4,0.6","4:nogo_d","",""
"null","","html-keyboard-response","290","480704","0.0-6.0-1.23","","<img src=""img/purple-n.png"" border=""10"">","null","trial","null","","0.4,0.6","4:nogo_d","0",""
"null","","html-keyboard-response","291","481714","0.0-6.0-2.23","","<div style=""font-size:60px;"">+</div>","null","","","","","","",""
"null","","image-keyboard-response","292","483223","0.0-6.0-0.24","","img/red.png","null","trial","null","true","0.2,0.8","2:nogo_b","",""
"null","","html-keyboard-response","293","484235","0.0-6.0-1.24","","<img src=""img/red-r.png"">","null","trial","null","","0.2,0.8","2:nogo_b","1",""
"null","","html-keyboard-response","294","485252","0.0-6.0-2.24","","<div style=""font-size:60px;"">+</div>","null","","","","","","",""
"789.9500001221895","","image-keyboard-response","295","486043","0.0-6.0-0.25","","img/orange.png","32","trial","32","true","0.8,0.2","1:go_a","",""
"null","","html-keyboard-response","296","487048","0.0-6.0-1.25","","<img src=""img/orange-r.png"" border=""10"">","null","trial","32","","0.8,0.2","1:go_a","1",""
"null","","html-keyboard-response","297","488061","0.0-6.0-2.25","","<div style=""font-size:60px;"">+</div>","null","","","","","","",""
"733.5550000425428","","image-keyboard-response","298","488795","0.0-6.0-0.26","","img/purple.png","32","trial","null","false","0.4,0.6","4:nogo_d","",""
"null","","html-keyboard-response","299","489805","0.0-6.0-1.26","","<img src=""img/purple-r.png"" border=""10"">","null","trial","null","","0.4,0.6","4:nogo_d","1",""
"null","","html-keyboard-response","300","490818","0.0-6.0-2.26","","<div style=""font-size:60px;"">+</div>","null","","","","","","",""
"511.57500012777746","","image-keyboard-response","301","491331","0.0-6.0-0.27","","img/green.png","32","trial","32","true","0.6,0.4","3:go_c","",""
"null","","html-keyboard-response","302","492337","0.0-6.0-1.27","","<img src=""img/green-r.png"" border=""10"">","null","trial","32","","0.6,0.4","3:go_c","1",""
"null","","html-keyboard-response","303","493353","0.0-6.0-2.27","","<div style=""font-size:60px;"">+</div>","null","","","","","","",""
"568.7700000125915","","image-keyboard-response","304","493923","0.0-6.0-0.28","","img/green.png","32","trial","32","true","0.6,0.4","3:go_c","",""
"null","","html-keyboard-response","305","494932","0.0-6.0-1.28","","<img src=""img/green-r.png"" border=""10"">","null","trial","32","","0.6,0.4","3:go_c","1",""
"null","","html-keyboard-response","306","495944","0.0-6.0-2.28","","<div style=""font-size:60px;"">+</div>","null","","","","","","",""
"577.6649999897927","","image-keyboard-response","307","496523","0.0-6.0-0.29","","img/red.png","32","trial","null","false","0.2,0.8","2:nogo_b","",""
"null","","html-keyboard-response","308","497535","0.0-6.0-1.29","","<img src=""img/red-n.png"" border=""10"">","null","trial","null","","0.2,0.8","2:nogo_b","0",""
"null","","html-keyboard-response","309","498543","0.0-6.0-2.29","","<div style=""font-size:60px;"">+</div>","null","","","","","","",""
"633.4450000431389","","image-keyboard-response","310","499178","0.0-6.0-0.30","","img/purple.png","32","trial","null","false","0.4,0.6","4:nogo_d","",""
"null","","html-keyboard-response","311","500182","0.0-6.0-1.30","","<img src=""img/purple-n.png"" border=""10"">","null","trial","null","","0.4,0.6","4:nogo_d","0",""
"null","","html-keyboard-response","312","501196","0.0-6.0-2.30","","<div style=""font-size:60px;"">+</div>","null","","","","","","",""
"397.4349999334663","","image-keyboard-response","313","501595","0.0-6.0-0.31","","img/orange.png","32","trial","32","true","0.8,0.2","1:go_a","",""
"null","","html-keyboard-response","314","502604","0.0-6.0-1.31","","<img src=""img/orange-r.png"" border=""10"">","null","trial","32","","0.8,0.2","1:go_a","1",""
"null","","html-keyboard-response","315","503611","0.0-6.0-2.31","","<div style=""font-size:60px;"">+</div>","null","","","","","","",""
"654.9800001084805","","image-keyboard-response","316","504267","0.0-6.0-0.32","","img/purple.png","32","trial","null","false","0.4,0.6","4:nogo_d","",""
"null","","html-keyboard-response","317","505280","0.0-6.0-1.32","","<img src=""img/purple-n.png"" border=""10"">","null","trial","null","","0.4,0.6","4:nogo_d","0",""
"null","","html-keyboard-response","318","506292","0.0-6.0-2.32","","<div style=""font-size:60px;"">+</div>","null","","","","","","",""
"709.1650001239032","","image-keyboard-response","319","507002","0.0-6.0-0.33","","img/orange.png","32","trial","32","true","0.8,0.2","1:go_a","",""
"null","","html-keyboard-response","320","508009","0.0-6.0-1.33","","<img src=""img/orange-r.png"" border=""10"">","null","trial","32","","0.8,0.2","1:go_a","1",""
"null","","html-keyboard-response","321","509026","0.0-6.0-2.33","","<div style=""font-size:60px;"">+</div>","null","","","","","","",""
"688.0950001068413","","image-keyboard-response","322","509715","0.0-6.0-0.34","","img/red.png","32","trial","null","false","0.2,0.8","2:nogo_b","",""
"null","","html-keyboard-response","323","510729","0.0-6.0-1.34","","<img src=""img/red-n.png"" border=""10"">","null","trial","null","","0.2,0.8","2:nogo_b","0",""
"null","","html-keyboard-response","324","511740","0.0-6.0-2.34","","<div style=""font-size:60px;"">+</div>","null","","","","","","",""
"625.7700000423938","","image-keyboard-response","325","512366","0.0-6.0-0.35","","img/green.png","32","trial","32","true","0.6,0.4","3:go_c","",""
"null","","html-keyboard-response","326","513373","0.0-6.0-1.35","","<img src=""img/green-r.png"" border=""10"">","null","trial","32","","0.6,0.4","3:go_c","1",""
"null","","html-keyboard-response","327","514388","0.0-6.0-2.35","","<div style=""font-size:60px;"">+</div>","null","","","","","","",""
"565.714999800548","","image-keyboard-response","328","514955","0.0-6.0-0.36","","img/green.png","32","trial","32","true","0.6,0.4","3:go_c","",""
"null","","html-keyboard-response","329","515962","0.0-6.0-1.36","","<img src=""img/green-r.png"" border=""10"">","null","trial","32","","0.6,0.4","3:go_c","1",""
"null","","html-keyboard-response","330","516975","0.0-6.0-2.36","","<div style=""font-size:60px;"">+</div>","null","","","","","","",""
"null","","image-keyboard-response","331","518489","0.0-6.0-0.37","","img/red.png","null","trial","null","true","0.2,0.8","2:nogo_b","",""
"null","","html-keyboard-response","332","519502","0.0-6.0-1.37","","<img src=""img/red-r.png"">","null","trial","null","","0.2,0.8","2:nogo_b","1",""
"null","","html-keyboard-response","333","520515","0.0-6.0-2.37","","<div style=""font-size:60px;"">+</div>","null","","","","","","",""
"null","","image-keyboard-response","334","522024","0.0-6.0-0.38","","img/purple.png","null","trial","null","true","0.4,0.6","4:nogo_d","",""
"null","","html-keyboard-response","335","523035","0.0-6.0-1.38","","<img src=""img/purple-r.png"">","null","trial","null","","0.4,0.6","4:nogo_d","1",""
"null","","html-keyboard-response","336","524048","0.0-6.0-2.38","","<div style=""font-size:60px;"">+</div>","null","","","","","","",""
"null","","image-keyboard-response","337","525563","0.0-6.0-0.39","","img/orange.png","null","trial","32","false","0.8,0.2","1:go_a","",""
"null","","html-keyboard-response","338","526565","0.0-6.0-1.39","","<img src=""img/orange-n.png"">","null","trial","32","","0.8,0.2","1:go_a","0",""
"null","","html-keyboard-response","339","527577","0.0-6.0-2.39","","<div style=""font-size:60px;"">+</div>","null","","","","","","",""
"520.4000000376254","","image-keyboard-response","340","528099","0.0-6.0-0.40","","img/orange.png","32","trial","32","true","0.8,0.2","1:go_a","",""
"null","","html-keyboard-response","341","529113","0.0-6.0-1.40","","<img src=""img/orange-r.png"" border=""10"">","null","trial","32","","0.8,0.2","1:go_a","1",""
"null","","html-keyboard-response","342","530126","0.0-6.0-2.40","","<div style=""font-size:60px;"">+</div>","null","","","","","","",""
"619.3699999712408","","image-keyboard-response","343","530746","0.0-6.0-0.41","","img/red.png","32","trial","null","false","0.2,0.8","2:nogo_b","",""
"null","","html-keyboard-response","344","531758","0.0-6.0-1.41","","<img src=""img/red-n.png"" border=""10"">","null","trial","null","","0.2,0.8","2:nogo_b","0",""
"null","","html-keyboard-response","345","532771","0.0-6.0-2.41","","<div style=""font-size:60px;"">+</div>","null","","","","","","",""
"679.1450001765043","","image-keyboard-response","346","533451","0.0-6.0-0.42","","img/green.png","32","trial","32","true","0.6,0.4","3:go_c","",""
"null","","html-keyboard-response","347","534457","0.0-6.0-1.42","","<img src=""img/green-r.png"" border=""10"">","null","trial","32","","0.6,0.4","3:go_c","1",""
"null","","html-keyboard-response","348","535469","0.0-6.0-2.42","","<div style=""font-size:60px;"">+</div>","null","","","","","","",""
"820.2450000680983","","image-keyboard-response","349","536290","0.0-6.0-0.43","","img/purple.png","32","trial","null","false","0.4,0.6","4:nogo_d","",""
"null","","html-keyboard-response","350","537298","0.0-6.0-1.43","","<img src=""img/purple-r.png"" border=""10"">","null","trial","null","","0.4,0.6","4:nogo_d","1",""
"null","","html-keyboard-response","351","538301","0.0-6.0-2.43","","<div style=""font-size:60px;"">+</div>","null","","","","","","",""
"636.9150001555681","","image-keyboard-response","352","538939","0.0-6.0-0.44","","img/green.png","32","trial","32","true","0.6,0.4","3:go_c","",""
"null","","html-keyboard-response","353","539954","0.0-6.0-1.44","","<img src=""img/green-r.png"" border=""10"">","null","trial","32","","0.6,0.4","3:go_c","1",""
"null","","html-keyboard-response","354","540956","0.0-6.0-2.44","","<div style=""font-size:60px;"">+</div>","null","","","","","","",""
"685.59499992989","","image-keyboard-response","355","541643","0.0-6.0-0.45","","img/orange.png","32","trial","32","true","0.8,0.2","1:go_a","",""
"null","","html-keyboard-response","356","542652","0.0-6.0-1.45","","<img src=""img/orange-r.png"" border=""10"">","null","trial","32","","0.8,0.2","1:go_a","1",""
"null","","html-keyboard-response","357","543656","0.0-6.0-2.45","","<div style=""font-size:60px;"">+</div>","null","","","","","","",""
"706.0349998064339","","image-keyboard-response","358","544363","0.0-6.0-0.46","","img/purple.png","32","trial","null","false","0.4,0.6","4:nogo_d","",""
"null","","html-keyboard-response","359","545370","0.0-6.0-1.46","","<img src=""img/purple-r.png"" border=""10"">","null","trial","null","","0.4,0.6","4:nogo_d","1",""
"null","","html-keyboard-response","360","546382","0.0-6.0-2.46","","<div style=""font-size:60px;"">+</div>","null","","","","","","",""
"null","","image-keyboard-response","361","547894","0.0-6.0-0.47","","img/red.png","null","trial","null","true","0.2,0.8","2:nogo_b","",""
"null","","html-keyboard-response","362","548898","0.0-6.0-1.47","","<img src=""img/red-r.png"">","null","trial","null","","0.2,0.8","2:nogo_b","1",""
"null","","html-keyboard-response","363","549906","0.0-6.0-2.47","","<div style=""font-size:60px;"">+</div>","null","","","","","","",""
"null","","image-keyboard-response","364","551419","0.0-6.0-0.48","","img/red.png","null","trial","null","true","0.2,0.8","2:nogo_b","",""
"null","","html-keyboard-response","365","552436","0.0-6.0-1.48","","<img src=""img/red-r.png"">","null","trial","null","","0.2,0.8","2:nogo_b","1",""
"null","","html-keyboard-response","366","553448","0.0-6.0-2.48","","<div style=""font-size:60px;"">+</div>","null","","","","","","",""
"474.2449999321252","","image-keyboard-response","367","553923","0.0-6.0-0.49","","img/green.png","32","trial","32","true","0.6,0.4","3:go_c","",""
"null","","html-keyboard-response","368","554933","0.0-6.0-1.49","","<img src=""img/green-r.png"" border=""10"">","null","trial","32","","0.6,0.4","3:go_c","1",""
"null","","html-keyboard-response","369","555946","0.0-6.0-2.49","","<div style=""font-size:60px;"">+</div>","null","","","","","","",""
"421.88999988138676","","image-keyboard-response","370","556369","0.0-6.0-0.50","","img/orange.png","32","trial","32","true","0.8,0.2","1:go_a","",""
"null","","html-keyboard-response","371","557377","0.0-6.0-1.50","","<img src=""img/orange-n.png"" border=""10"">","null","trial","32","","0.8,0.2","1:go_a","0",""
"null","","html-keyboard-response","372","558384","0.0-6.0-2.50","","<div style=""font-size:60px;"">+</div>","null","","","","","","",""
"1025.2000000327826","","image-keyboard-response","373","559411","0.0-6.0-0.51","","img/purple.png","32","trial","null","false","0.4,0.6","4:nogo_d","",""
"null","","html-keyboard-response","374","560423","0.0-6.0-1.51","","<img src=""img/purple-r.png"" border=""10"">","null","trial","null","","0.4,0.6","4:nogo_d","1",""
"null","","html-keyboard-response","375","561435","0.0-6.0-2.51","","<div style=""font-size:60px;"">+</div>","null","","","","","","",""
"1462.159999879077","","image-keyboard-response","376","562898","0.0-6.0-0.52","","img/purple.png","32","trial","null","false","0.4,0.6","4:nogo_d","",""
"null","","html-keyboard-response","377","563915","0.0-6.0-1.52","","<img src=""img/purple-n.png"" border=""10"">","null","trial","null","","0.4,0.6","4:nogo_d","0",""
"null","","html-keyboard-response","378","564929","0.0-6.0-2.52","","<div style=""font-size:60px;"">+</div>","null","","","","","","",""
"879.9550000112504","","image-keyboard-response","379","565811","0.0-6.0-0.53","","img/red.png","32","trial","null","false","0.2,0.8","2:nogo_b","",""
"null","","html-keyboard-response","380","566817","0.0-6.0-1.53","","<img src=""img/red-n.png"" border=""10"">","null","trial","null","","0.2,0.8","2:nogo_b","0",""
"null","","html-keyboard-response","381","567827","0.0-6.0-2.53","","<div style=""font-size:60px;"">+</div>","null","","","","","","",""
"774.2200000211596","","image-keyboard-response","382","568601","0.0-6.0-0.54","","img/green.png","32","trial","32","true","0.6,0.4","3:go_c","",""
"null","","html-keyboard-response","383","569606","0.0-6.0-1.54","","<img src=""img/green-n.png"" border=""10"">","null","trial","32","","0.6,0.4","3:go_c","0",""
"null","","html-keyboard-response","384","570617","0.0-6.0-2.54","","<div style=""font-size:60px;"">+</div>","null","","","","","","",""
"630.6799999438226","","image-keyboard-response","385","571248","0.0-6.0-0.55","","img/orange.png","32","trial","32","true","0.8,0.2","1:go_a","",""
"null","","html-keyboard-response","386","572253","0.0-6.0-1.55","","<img src=""img/orange-n.png"" border=""10"">","null","trial","32","","0.8,0.2","1:go_a","0",""
"null","","html-keyboard-response","387","573267","0.0-6.0-2.55","","<div style=""font-size:60px;"">+</div>","null","","","","","","",""
"null","","image-keyboard-response","388","574784","0.0-6.0-0.56","","img/purple.png","null","trial","null","true","0.4,0.6","4:nogo_d","",""
"null","","html-keyboard-response","389","575795","0.0-6.0-1.56","","<img src=""img/purple-r.png"">","null","trial","null","","0.4,0.6","4:nogo_d","1",""
"null","","html-keyboard-response","390","576797","0.0-6.0-2.56","","<div style=""font-size:60px;"">+</div>","null","","","","","","",""
"null","","image-keyboard-response","391","578310","0.0-6.0-0.57","","img/green.png","null","trial","32","false","0.6,0.4","3:go_c","",""
"null","","html-keyboard-response","392","579319","0.0-6.0-1.57","","<img src=""img/green-n.png"">","null","trial","32","","0.6,0.4","3:go_c","0",""
"null","","html-keyboard-response","393","580335","0.0-6.0-2.57","","<div style=""font-size:60px;"">+</div>","null","","","","","","",""
"null","","image-keyboard-response","394","581848","0.0-6.0-0.58","","img/red.png","null","trial","null","true","0.2,0.8","2:nogo_b","",""
"null","","html-keyboard-response","395","582853","0.0-6.0-1.58","","<img src=""img/red-r.png"">","null","trial","null","","0.2,0.8","2:nogo_b","1",""
"null","","html-keyboard-response","396","583862","0.0-6.0-2.58","","<div style=""font-size:60px;"">+</div>","null","","","","","","",""
"null","","image-keyboard-response","397","585372","0.0-6.0-0.59","","img/orange.png","null","trial","32","false","0.8,0.2","1:go_a","",""
"null","","html-keyboard-response","398","586386","0.0-6.0-1.59","","<img src=""img/orange-n.png"">","null","trial","32","","0.8,0.2","1:go_a","0",""
"null","","html-keyboard-response","399","587397","0.0-6.0-2.59","","<div style=""font-size:60px;"">+</div>","null","","","","","","",""
"547.275000018999","","image-keyboard-response","400","587945","0.0-6.0-0.60","","img/orange.png","32","trial","32","true","0.8,0.2","1:go_a","",""
"null","","html-keyboard-response","401","588957","0.0-6.0-1.60","","<img src=""img/orange-r.png"" border=""10"">","null","trial","32","","0.8,0.2","1:go_a","1",""
"null","","html-keyboard-response","402","589970","0.0-6.0-2.60","","<div style=""font-size:60px;"">+</div>","null","","","","","","",""
"654.7999999020249","","image-keyboard-response","403","590625","0.0-6.0-0.61","","img/purple.png","32","trial","null","false","0.4,0.6","4:nogo_d","",""
"null","","html-keyboard-response","404","591637","0.0-6.0-1.61","","<img src=""img/purple-r.png"" border=""10"">","null","trial","null","","0.4,0.6","4:nogo_d","1",""
"null","","html-keyboard-response","405","592651","0.0-6.0-2.61","","<div style=""font-size:60px;"">+</div>","null","","","","","","",""
"573.7749999389052","","image-keyboard-response","406","593226","0.0-6.0-0.62","","img/green.png","32","trial","32","true","0.6,0.4","3:go_c","",""
"null","","html-keyboard-response","407","594242","0.0-6.0-1.62","","<img src=""img/green-n.png"" border=""10"">","null","trial","32","","0.6,0.4","3:go_c","0",""
"null","","html-keyboard-response","408","595258","0.0-6.0-2.62","","<div style=""font-size:60px;"">+</div>","null","","","","","","",""
"null","","image-keyboard-response","409","596771","0.0-6.0-0.63","","img/red.png","null","trial","null","true","0.2,0.8","2:nogo_b","",""
"null","","html-keyboard-response","410","597786","0.0-6.0-1.63","","<img src=""img/red-r.png"">","null","trial","null","","0.2,0.8","2:nogo_b","1",""
"null","","html-keyboard-response","411","598787","0.0-6.0-2.63","","<div style=""font-size:60px;"">+</div>","null","","","","","","",""
"549.3749999441206","","image-keyboard-response","412","599338","0.0-6.0-0.64","","img/green.png","32","trial","32","true","0.6,0.4","3:go_c","",""
"null","","html-keyboard-response","413","600349","0.0-6.0-1.64","","<img src=""img/green-n.png"" border=""10"">","null","trial","32","","0.6,0.4","3:go_c","0",""
"null","","html-keyboard-response","414","601362","0.0-6.0-2.64","","<div style=""font-size:60px;"">+</div>","null","","","","","","",""
"621.7000000178814","","image-keyboard-response","415","601985","0.0-6.0-0.65","","img/red.png","32","trial","null","false","0.2,0.8","2:nogo_b","",""
"null","","html-keyboard-response","416","602998","0.0-6.0-1.65","","<img src=""img/red-n.png"" border=""10"">","null","trial","null","","0.2,0.8","2:nogo_b","0",""
"null","","html-keyboard-response","417","604013","0.0-6.0-2.65","","<div style=""font-size:60px;"">+</div>","null","","","","","","",""
"1275.3149999771267","","image-keyboard-response","418","605289","0.0-6.0-0.66","","img/purple.png","32","trial","null","false","0.4,0.6","4:nogo_d","",""
"null","","html-keyboard-response","419","606300","0.0-6.0-1.66","","<img src=""img/purple-n.png"" border=""10"">","null","trial","null","","0.4,0.6","4:nogo_d","0",""
"null","","html-keyboard-response","420","607313","0.0-6.0-2.66","","<div style=""font-size:60px;"">+</div>","null","","","","","","",""
"494.40000019967556","","image-keyboard-response","421","607809","0.0-6.0-0.67","","img/orange.png","32","trial","32","true","0.8,0.2","1:go_a","",""
"null","","html-keyboard-response","422","608824","0.0-6.0-1.67","","<img src=""img/orange-n.png"" border=""10"">","null","trial","32","","0.8,0.2","1:go_a","0",""
"null","","html-keyboard-response","423","609835","0.0-6.0-2.67","","<div style=""font-size:60px;"">+</div>","null","","","","","","",""
"924.8099999967963","","image-keyboard-response","424","610761","0.0-6.0-0.68","","img/green.png","32","trial","32","true","0.6,0.4","3:go_c","",""
"null","","html-keyboard-response","425","611769","0.0-6.0-1.68","","<img src=""img/green-n.png"" border=""10"">","null","trial","32","","0.6,0.4","3:go_c","0",""
"null","","html-keyboard-response","426","612772","0.0-6.0-2.68","","<div style=""font-size:60px;"">+</div>","null","","","","","","",""
"null","","image-keyboard-response","427","614286","0.0-6.0-0.69","","img/orange.png","null","trial","32","false","0.8,0.2","1:go_a","",""
"null","","html-keyboard-response","428","615303","0.0-6.0-1.69","","<img src=""img/orange-n.png"">","null","trial","32","","0.8,0.2","1:go_a","0",""
"null","","html-keyboard-response","429","616318","0.0-6.0-2.69","","<div style=""font-size:60px;"">+</div>","null","","","","","","",""
"null","","image-keyboard-response","430","617823","0.0-6.0-0.70","","img/purple.png","null","trial","null","true","0.4,0.6","4:nogo_d","",""
"null","","html-keyboard-response","431","618837","0.0-6.0-1.70","","<img src=""img/purple-n.png"">","null","trial","null","","0.4,0.6","4:nogo_d","0",""
"null","","html-keyboard-response","432","619853","0.0-6.0-2.70","","<div style=""font-size:60px;"">+</div>","null","","","","","","",""
"null","","image-keyboard-response","433","621369","0.0-6.0-0.71","","img/red.png","null","trial","null","true","0.2,0.8","2:nogo_b","",""
"null","","html-keyboard-response","434","622376","0.0-6.0-1.71","","<img src=""img/red-n.png"">","null","trial","null","","0.2,0.8","2:nogo_b","0",""
"null","","html-keyboard-response","435","623391","0.0-6.0-2.71","","<div style=""font-size:60px;"">+</div>","null","","","","","","",""
"488.0300001241267","","image-keyboard-response","436","623881","0.0-6.0-0.72","","img/red.png","32","trial","null","false","0.2,0.8","2:nogo_b","",""
"null","","html-keyboard-response","437","624890","0.0-6.0-1.72","","<img src=""img/red-n.png"" border=""10"">","null","trial","null","","0.2,0.8","2:nogo_b","0",""
"null","","html-keyboard-response","438","625903","0.0-6.0-2.72","","<div style=""font-size:60px;"">+</div>","null","","","","","","",""
"416.53500008396804","","image-keyboard-response","439","626321","0.0-6.0-0.73","","img/green.png","32","trial","32","true","0.6,0.4","3:go_c","",""
"null","","html-keyboard-response","440","627338","0.0-6.0-1.73","","<img src=""img/green-r.png"" border=""10"">","null","trial","32","","0.6,0.4","3:go_c","1",""
"null","","html-keyboard-response","441","628351","0.0-6.0-2.73","","<div style=""font-size:60px;"">+</div>","null","","","","","","",""
"536.8349999189377","","image-keyboard-response","442","628889","0.0-6.0-0.74","","img/orange.png","32","trial","32","true","0.8,0.2","1:go_a","",""
"null","","html-keyboard-response","443","629895","0.0-6.0-1.74","","<img src=""img/orange-r.png"" border=""10"">","null","trial","32","","0.8,0.2","1:go_a","1",""
"null","","html-keyboard-response","444","630911","0.0-6.0-2.74","","<div style=""font-size:60px;"">+</div>","null","","","","","","",""
"465.98499990068376","","image-keyboard-response","445","631378","0.0-6.0-0.75","","img/purple.png","32","trial","null","false","0.4,0.6","4:nogo_d","",""
"null","","html-keyboard-response","446","632392","0.0-6.0-1.75","","<img src=""img/purple-n.png"" border=""10"">","null","trial","null","","0.4,0.6","4:nogo_d","0",""
"null","","html-keyboard-response","447","633407","0.0-6.0-2.75","","<div style=""font-size:60px;"">+</div>","null","","","","","","",""
"null","","image-keyboard-response","448","634917","0.0-6.0-0.76","","img/red.png","null","trial","null","true","0.2,0.8","2:nogo_b","",""
"null","","html-keyboard-response","449","635935","0.0-6.0-1.76","","<img src=""img/red-n.png"">","null","trial","null","","0.2,0.8","2:nogo_b","0",""
"null","","html-keyboard-response","450","636949","0.0-6.0-2.76","","<div style=""font-size:60px;"">+</div>","null","","","","","","",""
"null","","image-keyboard-response","451","638460","0.0-6.0-0.77","","img/purple.png","null","trial","null","true","0.4,0.6","4:nogo_d","",""
"null","","html-keyboard-response","452","639472","0.0-6.0-1.77","","<img src=""img/purple-r.png"">","null","trial","null","","0.4,0.6","4:nogo_d","1",""
"null","","html-keyboard-response","453","640488","0.0-6.0-2.77","","<div style=""font-size:60px;"">+</div>","null","","","","","","",""
"575.9850000031292","","image-keyboard-response","454","641065","0.0-6.0-0.78","","img/orange.png","32","trial","32","true","0.8,0.2","1:go_a","",""
"null","","html-keyboard-response","455","642082","0.0-6.0-1.78","","<img src=""img/orange-r.png"" border=""10"">","null","trial","32","","0.8,0.2","1:go_a","1",""
"null","","html-keyboard-response","456","643093","0.0-6.0-2.78","","<div style=""font-size:60px;"">+</div>","null","","","","","","",""
"482.69500001333654","","image-keyboard-response","457","643577","0.0-6.0-0.79","","img/green.png","32","trial","32","true","0.6,0.4","3:go_c","",""
"null","","html-keyboard-response","458","644592","0.0-6.0-1.79","","<img src=""img/green-n.png"" border=""10"">","null","trial","32","","0.6,0.4","3:go_c","0",""
"null","","html-keyboard-response","459","645609","0.0-6.0-2.79","","<div style=""font-size:60px;"">+</div>","null","","","","","","",""
"822.3849998321384","","image-keyboard-response","460","646433","0.0-6.0-0.80","","img/orange.png","32","trial","32","true","0.8,0.2","1:go_a","",""
"null","","html-keyboard-response","461","647446","0.0-6.0-1.80","","<img src=""img/orange-r.png"" border=""10"">","null","trial","32","","0.8,0.2","1:go_a","1",""
"null","","html-keyboard-response","462","648450","0.0-6.0-2.80","","<div style=""font-size:60px;"">+</div>","null","","","","","","",""
"1134.0150001924485","","image-keyboard-response","463","649585","0.0-6.0-0.81","","img/green.png","32","trial","32","true","0.6,0.4","3:go_c","",""
"null","","html-keyboard-response","464","650593","0.0-6.0-1.81","","<img src=""img/green-r.png"" border=""10"">","null","trial","32","","0.6,0.4","3:go_c","1",""
"null","","html-keyboard-response","465","651602","0.0-6.0-2.81","","<div style=""font-size:60px;"">+</div>","null","","","","","","",""
"621.4499999769032","","image-keyboard-response","466","652225","0.0-6.0-0.82","","img/red.png","32","trial","null","false","0.2,0.8","2:nogo_b","",""
"null","","html-keyboard-response","467","653240","0.0-6.0-1.82","","<img src=""img/red-r.png"" border=""10"">","null","trial","null","","0.2,0.8","2:nogo_b","1",""
"null","","html-keyboard-response","468","654255","0.0-6.0-2.82","","<div style=""font-size:60px;"">+</div>","null","","","","","","",""
"576.5849999152124","","image-keyboard-response","469","654833","0.0-6.0-0.83","","img/purple.png","32","trial","null","false","0.4,0.6","4:nogo_d","",""
"null","","html-keyboard-response","470","655842","0.0-6.0-1.83","","<img src=""img/purple-n.png"" border=""10"">","null","trial","null","","0.4,0.6","4:nogo_d","0",""
"null","","html-keyboard-response","471","656857","0.0-6.0-2.83","","<div style=""font-size:60px;"">+</div>","null","","","","","","",""
"780.8799999766052","","image-keyboard-response","472","657639","0.0-6.0-0.84","","img/orange.png","32","trial","32","true","0.8,0.2","1:go_a","",""
"null","","html-keyboard-response","473","658654","0.0-6.0-1.84","","<img src=""img/orange-r.png"" border=""10"">","null","trial","32","","0.8,0.2","1:go_a","1",""
"null","","html-keyboard-response","474","659666","0.0-6.0-2.84","","<div style=""font-size:60px;"">+</div>","null","","","","","","",""
"622.6500000339001","","image-keyboard-response","475","660289","0.0-6.0-0.85","","img/green.png","32","trial","32","true","0.6,0.4","3:go_c","",""
"null","","html-keyboard-response","476","661302","0.0-6.0-1.85","","<img src=""img/green-r.png"" border=""10"">","null","trial","32","","0.6,0.4","3:go_c","1",""
"null","","html-keyboard-response","477","662316","0.0-6.0-2.85","","<div style=""font-size:60px;"">+</div>","null","","","","","","",""
"null","","image-keyboard-response","478","663830","0.0-6.0-0.86","","img/red.png","null","trial","null","true","0.2,0.8","2:nogo_b","",""
"null","","html-keyboard-response","479","664845","0.0-6.0-1.86","","<img src=""img/red-r.png"">","null","trial","null","","0.2,0.8","2:nogo_b","1",""
"null","","html-keyboard-response","480","665860","0.0-6.0-2.86","","<div style=""font-size:60px;"">+</div>","null","","","","","","",""
"1186.3750000484288","","image-keyboard-response","481","667048","0.0-6.0-0.87","","img/purple.png","32","trial","null","false","0.4,0.6","4:nogo_d","",""
"null","","html-keyboard-response","482","668061","0.0-6.0-1.87","","<img src=""img/purple-n.png"" border=""10"">","null","trial","null","","0.4,0.6","4:nogo_d","0",""
"null","","html-keyboard-response","483","669075","0.0-6.0-2.87","","<div style=""font-size:60px;"">+</div>","null","","","","","","",""
"null","","image-keyboard-response","484","670589","0.0-6.0-0.88","","img/purple.png","null","trial","null","true","0.4,0.6","4:nogo_d","",""
"null","","html-keyboard-response","485","671607","0.0-6.0-1.88","","<img src=""img/purple-n.png"">","null","trial","null","","0.4,0.6","4:nogo_d","0",""
"null","","html-keyboard-response","486","672621","0.0-6.0-2.88","","<div style=""font-size:60px;"">+</div>","null","","","","","","",""
"930.9549999888986","","image-keyboard-response","487","673553","0.0-6.0-0.89","","img/green.png","32","trial","32","true","0.6,0.4","3:go_c","",""
"null","","html-keyboard-response","488","674568","0.0-6.0-1.89","","<img src=""img/green-n.png"" border=""10"">","null","trial","32","","0.6,0.4","3:go_c","0",""
"null","","html-keyboard-response","489","675580","0.0-6.0-2.89","","<div style=""font-size:60px;"">+</div>","null","","","","","","",""
"null","","image-keyboard-response","490","677086","0.0-6.0-0.90","","img/red.png","null","trial","null","true","0.2,0.8","2:nogo_b","",""
"null","","html-keyboard-response","491","678099","0.0-6.0-1.90","","<img src=""img/red-r.png"">","null","trial","null","","0.2,0.8","2:nogo_b","1",""
"null","","html-keyboard-response","492","679115","0.0-6.0-2.90","","<div style=""font-size:60px;"">+</div>","null","","","","","","",""
"null","","image-keyboard-response","493","680626","0.0-6.0-0.91","","img/orange.png","null","trial","32","false","0.8,0.2","1:go_a","",""
"null","","html-keyboard-response","494","681641","0.0-6.0-1.91","","<img src=""img/orange-n.png"">","null","trial","32","","0.8,0.2","1:go_a","0",""
"null","","html-keyboard-response","495","682652","0.0-6.0-2.91","","<div style=""font-size:60px;"">+</div>","null","","","","","","",""
"null","","image-keyboard-response","496","684167","0.0-6.0-0.92","","img/red.png","null","trial","null","true","0.2,0.8","2:nogo_b","",""
"null","","html-keyboard-response","497","685184","0.0-6.0-1.92","","<img src=""img/red-n.png"">","null","trial","null","","0.2,0.8","2:nogo_b","0",""
"null","","html-keyboard-response","498","686202","0.0-6.0-2.92","","<div style=""font-size:60px;"">+</div>","null","","","","","","",""
"486.9799998123199","","image-keyboard-response","499","686690","0.0-6.0-0.93","","img/purple.png","32","trial","null","false","0.4,0.6","4:nogo_d","",""
"null","","html-keyboard-response","500","687695","0.0-6.0-1.93","","<img src=""img/purple-n.png"" border=""10"">","null","trial","null","","0.4,0.6","4:nogo_d","0",""
"null","","html-keyboard-response","501","688707","0.0-6.0-2.93","","<div style=""font-size:60px;"">+</div>","null","","","","","","",""
"51.38499988242984","","image-keyboard-response","502","688760","0.0-6.0-0.94","","img/green.png","32","trial","32","true","0.6,0.4","3:go_c","",""
"null","","html-keyboard-response","503","689768","0.0-6.0-1.94","","<img src=""img/green-r.png"" border=""10"">","null","trial","32","","0.6,0.4","3:go_c","1",""
"null","","html-keyboard-response","504","690776","0.0-6.0-2.94","","<div style=""font-size:60px;"">+</div>","null","","","","","","",""
"863.1299999542534","","image-keyboard-response","505","691641","0.0-6.0-0.95","","img/orange.png","32","trial","32","true","0.8,0.2","1:go_a","",""
"null","","html-keyboard-response","506","692648","0.0-6.0-1.95","","<img src=""img/orange-r.png"" border=""10"">","null","trial","32","","0.8,0.2","1:go_a","1",""
"null","","html-keyboard-response","507","693659","0.0-6.0-2.95","","<div style=""font-size:60px;"">+</div>","null","","","","","","",""
"828.609999967739","","image-keyboard-response","508","694488","0.0-6.0-0.96","","img/purple.png","32","trial","null","false","0.4,0.6","4:nogo_d","",""
"null","","html-keyboard-response","509","695501","0.0-6.0-1.96","","<img src=""img/purple-n.png"" border=""10"">","null","trial","null","","0.4,0.6","4:nogo_d","0",""
"null","","html-keyboard-response","510","696515","0.0-6.0-2.96","","<div style=""font-size:60px;"">+</div>","null","","","","","","",""
"580.6249999441206","","image-keyboard-response","511","697097","0.0-6.0-0.97","","img/green.png","32","trial","32","true","0.6,0.4","3:go_c","",""
"null","","html-keyboard-response","512","698101","0.0-6.0-1.97","","<img src=""img/green-r.png"" border=""10"">","null","trial","32","","0.6,0.4","3:go_c","1",""
"null","","html-keyboard-response","513","699116","0.0-6.0-2.97","","<div style=""font-size:60px;"">+</div>","null","","","","","","",""
"972.0799999777228","","image-keyboard-response","514","700089","0.0-6.0-0.98","","img/orange.png","32","trial","32","true","0.8,0.2","1:go_a","",""
"null","","html-keyboard-response","515","701094","0.0-6.0-1.98","","<img src=""img/orange-r.png"" border=""10"">","null","trial","32","","0.8,0.2","1:go_a","1",""
"null","","html-keyboard-response","516","702105","0.0-6.0-2.98","","<div style=""font-size:60px;"">+</div>","null","","","","","","",""
"807.0949998218566","","image-keyboard-response","517","702913","0.0-6.0-0.99","","img/red.png","32","trial","null","false","0.2,0.8","2:nogo_b","",""
"null","","html-keyboard-response","518","703927","0.0-6.0-1.99","","<img src=""img/red-r.png"" border=""10"">","null","trial","null","","0.2,0.8","2:nogo_b","1",""
"null","","html-keyboard-response","519","704943","0.0-6.0-2.99","","<div style=""font-size:60px;"">+</div>","null","","","","","","",""
"504.04999987222254","","image-keyboard-response","520","705448","0.0-6.0-0.100","","img/green.png","32","trial","32","true","0.6,0.4","3:go_c","",""
"null","","html-keyboard-response","521","706465","0.0-6.0-1.100","","<img src=""img/green-n.png"" border=""10"">","null","trial","32","","0.6,0.4","3:go_c","0",""
"null","","html-keyboard-response","522","707468","0.0-6.0-2.100","","<div style=""font-size:60px;"">+</div>","null","","","","","","",""
"555.7450000196695","","image-keyboard-response","523","708025","0.0-6.0-0.101","","img/orange.png","32","trial","32","true","0.8,0.2","1:go_a","",""
"null","","html-keyboard-response","524","709030","0.0-6.0-1.101","","<img src=""img/orange-r.png"" border=""10"">","null","trial","32","","0.8,0.2","1:go_a","1",""
"null","","html-keyboard-response","525","710046","0.0-6.0-2.101","","<div style=""font-size:60px;"">+</div>","null","","","","","","",""
"null","","image-keyboard-response","526","711558","0.0-6.0-0.102","","img/purple.png","null","trial","null","true","0.4,0.6","4:nogo_d","",""
"null","","html-keyboard-response","527","712569","0.0-6.0-1.102","","<img src=""img/purple-r.png"">","null","trial","null","","0.4,0.6","4:nogo_d","1",""
"null","","html-keyboard-response","528","713583","0.0-6.0-2.102","","<div style=""font-size:60px;"">+</div>","null","","","","","","",""
"null","","image-keyboard-response","529","715084","0.0-6.0-0.103","","img/red.png","null","trial","null","true","0.2,0.8","2:nogo_b","",""
"null","","html-keyboard-response","530","716098","0.0-6.0-1.103","","<img src=""img/red-r.png"">","null","trial","null","","0.2,0.8","2:nogo_b","1",""
"null","","html-keyboard-response","531","717114","0.0-6.0-2.103","","<div style=""font-size:60px;"">+</div>","null","","","","","","",""
"438.0899998359382","","image-keyboard-response","532","717553","0.0-6.0-0.104","","img/green.png","32","trial","32","true","0.6,0.4","3:go_c","",""
"null","","html-keyboard-response","533","718566","0.0-6.0-1.104","","<img src=""img/green-r.png"" border=""10"">","null","trial","32","","0.6,0.4","3:go_c","1",""
"null","","html-keyboard-response","534","719580","0.0-6.0-2.104","","<div style=""font-size:60px;"">+</div>","null","","","","","","",""
"692.015000153333","","image-keyboard-response","535","720273","0.0-6.0-0.105","","img/orange.png","32","trial","32","true","0.8,0.2","1:go_a","",""
"null","","html-keyboard-response","536","721279","0.0-6.0-1.105","","<img src=""img/orange-n.png"" border=""10"">","null","trial","32","","0.8,0.2","1:go_a","0",""
"null","","html-keyboard-response","537","722291","0.0-6.0-2.105","","<div style=""font-size:60px;"">+</div>","null","","","","","","",""
"867.7399998996407","","image-keyboard-response","538","723160","0.0-6.0-0.106","","img/purple.png","32","trial","null","false","0.4,0.6","4:nogo_d","",""
"null","","html-keyboard-response","539","724165","0.0-6.0-1.106","","<img src=""img/purple-r.png"" border=""10"">","null","trial","null","","0.4,0.6","4:nogo_d","1",""
"null","","html-keyboard-response","540","725179","0.0-6.0-2.106","","<div style=""font-size:60px;"">+</div>","null","","","","","","",""
"null","","image-keyboard-response","541","726690","0.0-6.0-0.107","","img/red.png","null","trial","null","true","0.2,0.8","2:nogo_b","",""
"null","","html-keyboard-response","542","727702","0.0-6.0-1.107","","<img src=""img/red-r.png"">","null","trial","null","","0.2,0.8","2:nogo_b","1",""
"null","","html-keyboard-response","543","728717","0.0-6.0-2.107","","<div style=""font-size:60px;"">+</div>","null","","","","","","",""
"595.5699998885393","","image-keyboard-response","544","729313","0.0-6.0-0.108","","img/purple.png","32","trial","null","false","0.4,0.6","4:nogo_d","",""
"null","","html-keyboard-response","545","730322","0.0-6.0-1.108","","<img src=""img/purple-n.png"" border=""10"">","null","trial","null","","0.4,0.6","4:nogo_d","0",""
"null","","html-keyboard-response","546","731338","0.0-6.0-2.108","","<div style=""font-size:60px;"">+</div>","null","","","","","","",""
"828.9550000336021","","image-keyboard-response","547","732168","0.0-6.0-0.109","","img/orange.png","32","trial","32","true","0.8,0.2","1:go_a","",""
"null","","html-keyboard-response","548","733170","0.0-6.0-1.109","","<img src=""img/orange-r.png"" border=""10"">","null","trial","32","","0.8,0.2","1:go_a","1",""
"null","","html-keyboard-response","549","734183","0.0-6.0-2.109","","<div style=""font-size:60px;"">+</div>","null","","","","","","",""
"864.0450001694262","","image-keyboard-response","550","735048","0.0-6.0-0.110","","img/red.png","32","trial","null","false","0.2,0.8","2:nogo_b","",""
"null","","html-keyboard-response","551","736053","0.0-6.0-1.110","","<img src=""img/red-n.png"" border=""10"">","null","trial","null","","0.2,0.8","2:nogo_b","0",""
"null","","html-keyboard-response","552","737065","0.0-6.0-2.110","","<div style=""font-size:60px;"">+</div>","null","","","","","","",""
"639.5149999298155","","image-keyboard-response","553","737706","0.0-6.0-0.111","","img/green.png","32","trial","32","true","0.6,0.4","3:go_c","",""
"null","","html-keyboard-response","554","738718","0.0-6.0-1.111","","<img src=""img/green-r.png"" border=""10"">","null","trial","32","","0.6,0.4","3:go_c","1",""
"null","","html-keyboard-response","555","739734","0.0-6.0-2.111","","<div style=""font-size:60px;"">+</div>","null","","","","","","",""
"697.2449999302626","","image-keyboard-response","556","740432","0.0-6.0-0.112","","img/orange.png","32","trial","32","true","0.8,0.2","1:go_a","",""
"null","","html-keyboard-response","557","741450","0.0-6.0-1.112","","<img src=""img/orange-r.png"" border=""10"">","null","trial","32","","0.8,0.2","1:go_a","1",""
"null","","html-keyboard-response","558","742463","0.0-6.0-2.112","","<div style=""font-size:60px;"">+</div>","null","","","","","","",""
"null","","image-keyboard-response","559","743965","0.0-6.0-0.113","","img/red.png","null","trial","null","true","0.2,0.8","2:nogo_b","",""
"null","","html-keyboard-response","560","744982","0.0-6.0-1.113","","<img src=""img/red-r.png"">","null","trial","null","","0.2,0.8","2:nogo_b","1",""
"null","","html-keyboard-response","561","745991","0.0-6.0-2.113","","<div style=""font-size:60px;"">+</div>","null","","","","","","",""
"617.0299998484552","","image-keyboard-response","562","746609","0.0-6.0-0.114","","img/green.png","32","trial","32","true","0.6,0.4","3:go_c","",""
"null","","html-keyboard-response","563","747612","0.0-6.0-1.114","","<img src=""img/green-n.png"" border=""10"">","null","trial","32","","0.6,0.4","3:go_c","0",""
"null","","html-keyboard-response","564","748626","0.0-6.0-2.114","","<div style=""font-size:60px;"">+</div>","null","","","","","","",""
"757.1700001135468","","image-keyboard-response","565","749385","0.0-6.0-0.115","","img/purple.png","32","trial","null","false","0.4,0.6","4:nogo_d","",""
"null","","html-keyboard-response","566","750390","0.0-6.0-1.115","","<img src=""img/purple-r.png"" border=""10"">","null","trial","null","","0.4,0.6","4:nogo_d","1",""
"null","","html-keyboard-response","567","751403","0.0-6.0-2.115","","<div style=""font-size:60px;"">+</div>","null","","","","","","",""
"null","","image-keyboard-response","568","752987","0.0-6.0-0.116","","img/red.png","null","trial","null","true","0.2,0.8","2:nogo_b","",""
"null","","html-keyboard-response","569","753999","0.0-6.0-1.116","","<img src=""img/red-r.png"">","null","trial","null","","0.2,0.8","2:nogo_b","1",""
"null","","html-keyboard-response","570","755002","0.0-6.0-2.116","","<div style=""font-size:60px;"">+</div>","null","","","","","","",""
"748.6299998126924","","image-keyboard-response","571","755752","0.0-6.0-0.117","","img/green.png","32","trial","32","true","0.6,0.4","3:go_c","",""
"null","","html-keyboard-response","572","756757","0.0-6.0-1.117","","<img src=""img/green-r.png"" border=""10"">","null","trial","32","","0.6,0.4","3:go_c","1",""
"null","","html-keyboard-response","573","757767","0.0-6.0-2.117","","<div style=""font-size:60px;"">+</div>","null","","","","","","",""
"1039.8950001690537","","image-keyboard-response","574","758809","0.0-6.0-0.118","","img/purple.png","32","trial","null","false","0.4,0.6","4:nogo_d","",""
"null","","html-keyboard-response","575","759822","0.0-6.0-1.118","","<img src=""img/purple-n.png"" border=""10"">","null","trial","null","","0.4,0.6","4:nogo_d","0",""
"null","","html-keyboard-response","576","760836","0.0-6.0-2.118","","<div style=""font-size:60px;"">+</div>","null","","","","","","",""
"684.320000000298","","image-keyboard-response","577","761521","0.0-6.0-0.119","","img/orange.png","32","trial","32","true","0.8,0.2","1:go_a","",""
"null","","html-keyboard-response","578","762537","0.0-6.0-1.119","","<img src=""img/orange-r.png"" border=""10"">","null","trial","32","","0.8,0.2","1:go_a","1",""
"null","","html-keyboard-response","579","763539","0.0-6.0-2.119","","<div style=""font-size:60px;"">+</div>","null","","","","","","",""
"2597.7300000377","","instructions","580","766137","0.0-7.0","[{""page_index"":0,""viewing_time"":2597.499999916181}]","","","","","","","","",""
"1246.0450001526624","","image-keyboard-response","581","767384","0.0-8.0-0.0","","img/pink.png","32","trial","32","true","1,0","3:go_c","",""
"null","","html-keyboard-response","582","768391","0.0-8.0-1.0","","<img src=""img/pink-r.png"" border=""10"">","null","trial","32","","1,0","3:go_c","1",""
"null","","html-keyboard-response","583","769393","0.0-8.0-2.0","","<div style=""font-size:60px;"">+</div>","null","","","","","","",""
"500.9449999779463","","image-keyboard-response","584","769895","0.0-8.0-0.1","","img/orange.png","32","trial","32","true","0.8,0.2","1:go_a","",""
"null","","html-keyboard-response","585","770906","0.0-8.0-1.1","","<img src=""img/orange-r.png"" border=""10"">","null","trial","32","","0.8,0.2","1:go_a","1",""
"null","","html-keyboard-response","586","771922","0.0-8.0-2.1","","<div style=""font-size:60px;"">+</div>","null","","","","","","",""
"468.9849999267608","","image-keyboard-response","587","772392","0.0-8.0-0.2","","img/green.png","32","trial","null","false","0.2,0.8","2:nogo_b","",""
"null","","html-keyboard-response","588","773407","0.0-8.0-1.2","","<img src=""img/green-n.png"" border=""10"">","null","trial","null","","0.2,0.8","2:nogo_b","0",""
"null","","html-keyboard-response","589","774409","0.0-8.0-2.2","","<div style=""font-size:60px;"">+</div>","null","","","","","","",""
"757.6800000388175","","image-keyboard-response","590","775168","0.0-8.0-0.3","","img/yellow.png","32","trial","null","false","0,1","4:nogo_d","",""
"null","","html-keyboard-response","591","776174","0.0-8.0-1.3","","<img src=""img/yellow-n.png"" border=""10"">","null","trial","null","","0,1","4:nogo_d","0",""
"null","","html-keyboard-response","592","777187","0.0-8.0-2.3","","<div style=""font-size:60px;"">+</div>","null","","","","","","",""
"716.889999806881","","image-keyboard-response","593","777905","0.0-8.0-0.4","","img/orange.png","32","trial","32","true","0.8,0.2","1:go_a","",""
"null","","html-keyboard-response","594","778915","0.0-8.0-1.4","","<img src=""img/orange-r.png"" border=""10"">","null","trial","32","","0.8,0.2","1:go_a","1",""
"null","","html-keyboard-response","595","779930","0.0-8.0-2.4","","<div style=""font-size:60px;"">+</div>","null","","","","","","",""
"1020.0199999380857","","image-keyboard-response","596","780951","0.0-8.0-0.5","","img/green.png","32","trial","null","false","0.2,0.8","2:nogo_b","",""
"null","","html-keyboard-response","597","781969","0.0-8.0-1.5","","<img src=""img/green-n.png"" border=""10"">","null","trial","null","","0.2,0.8","2:nogo_b","0",""
"null","","html-keyboard-response","598","782978","0.0-8.0-2.5","","<div style=""font-size:60px;"">+</div>","null","","","","","","",""
"589.7000001277775","","image-keyboard-response","599","783569","0.0-8.0-0.6","","img/pink.png","32","trial","32","true","1,0","3:go_c","",""
"null","","html-keyboard-response","600","784579","0.0-8.0-1.6","","<img src=""img/pink-r.png"" border=""10"">","null","trial","32","","1,0","3:go_c","1",""
"null","","html-keyboard-response","601","785592","0.0-8.0-2.6","","<div style=""font-size:60px;"">+</div>","null","","","","","","",""
"null","","image-keyboard-response","602","787109","0.0-8.0-0.7","","img/yellow.png","null","trial","null","true","0,1","4:nogo_d","",""
"null","","html-keyboard-response","603","788113","0.0-8.0-1.7","","<img src=""img/yellow-r.png"">","null","trial","null","","0,1","4:nogo_d","1",""
"null","","html-keyboard-response","604","789126","0.0-8.0-2.7","","<div style=""font-size:60px;"">+</div>","null","","","","","","",""
"null","","image-keyboard-response","605","790636","0.0-8.0-0.8","","img/green.png","null","trial","null","true","0.2,0.8","2:nogo_b","",""
"null","","html-keyboard-response","606","791653","0.0-8.0-1.8","","<img src=""img/green-n.png"">","null","trial","null","","0.2,0.8","2:nogo_b","0",""
"null","","html-keyboard-response","607","792666","0.0-8.0-2.8","","<div style=""font-size:60px;"">+</div>","null","","","","","","",""
"805.4049999918789","","image-keyboard-response","608","793472","0.0-8.0-0.9","","img/orange.png","32","trial","32","true","0.8,0.2","1:go_a","",""
"null","","html-keyboard-response","609","794479","0.0-8.0-1.9","","<img src=""img/orange-r.png"" border=""10"">","null","trial","32","","0.8,0.2","1:go_a","1",""
"null","","html-keyboard-response","610","795494","0.0-8.0-2.9","","<div style=""font-size:60px;"">+</div>","null","","","","","","",""
"472.98000007867813","","image-keyboard-response","611","795968","0.0-8.0-0.10","","img/pink.png","32","trial","32","true","1,0","3:go_c","",""
"null","","html-keyboard-response","612","796971","0.0-8.0-1.10","","<img src=""img/pink-r.png"" border=""10"">","null","trial","32","","1,0","3:go_c","1",""
"null","","html-keyboard-response","613","797981","0.0-8.0-2.10","","<div style=""font-size:60px;"">+</div>","null","","","","","","",""
"null","","image-keyboard-response","614","799494","0.0-8.0-0.11","","img/yellow.png","null","trial","null","true","0,1","4:nogo_d","",""
"null","","html-keyboard-response","615","800511","0.0-8.0-1.11","","<img src=""img/yellow-r.png"">","null","trial","null","","0,1","4:nogo_d","1",""
"null","","html-keyboard-response","616","801513","0.0-8.0-2.11","","<div style=""font-size:60px;"">+</div>","null","","","","","","",""
"null","","image-keyboard-response","617","803026","0.0-8.0-0.12","","img/yellow.png","null","trial","null","true","0,1","4:nogo_d","",""
"null","","html-keyboard-response","618","804042","0.0-8.0-1.12","","<img src=""img/yellow-r.png"">","null","trial","null","","0,1","4:nogo_d","1",""
"null","","html-keyboard-response","619","805054","0.0-8.0-2.12","","<div style=""font-size:60px;"">+</div>","null","","","","","","",""
"595.0150000862777","","image-keyboard-response","620","805650","0.0-8.0-0.13","","img/pink.png","32","trial","32","true","1,0","3:go_c","",""
"null","","html-keyboard-response","621","806668","0.0-8.0-1.13","","<img src=""img/pink-r.png"" border=""10"">","null","trial","32","","1,0","3:go_c","1",""
"null","","html-keyboard-response","622","807678","0.0-8.0-2.13","","<div style=""font-size:60px;"">+</div>","null","","","","","","",""
"null","","image-keyboard-response","623","809183","0.0-8.0-0.14","","img/green.png","null","trial","null","true","0.2,0.8","2:nogo_b","",""
"null","","html-keyboard-response","624","810199","0.0-8.0-1.14","","<img src=""img/green-n.png"">","null","trial","null","","0.2,0.8","2:nogo_b","0",""
"null","","html-keyboard-response","625","811215","0.0-8.0-2.14","","<div style=""font-size:60px;"">+</div>","null","","","","","","",""
"751.3549998402596","","image-keyboard-response","626","811968","0.0-8.0-0.15","","img/orange.png","32","trial","32","true","0.8,0.2","1:go_a","",""
"null","","html-keyboard-response","627","812979","0.0-8.0-1.15","","<img src=""img/orange-r.png"" border=""10"">","null","trial","32","","0.8,0.2","1:go_a","1",""
"null","","html-keyboard-response","628","813993","0.0-8.0-2.15","","<div style=""font-size:60px;"">+</div>","null","","","","","","",""
"693.0800001136959","","image-keyboard-response","629","814687","0.0-8.0-0.16","","img/orange.png","32","trial","32","true","0.8,0.2","1:go_a","",""
"null","","html-keyboard-response","630","815703","0.0-8.0-1.16","","<img src=""img/orange-r.png"" border=""10"">","null","trial","32","","0.8,0.2","1:go_a","1",""
"null","","html-keyboard-response","631","816711","0.0-8.0-2.16","","<div style=""font-size:60px;"">+</div>","null","","","","","","",""
"704.9200001638383","","image-keyboard-response","632","817417","0.0-8.0-0.17","","img/pink.png","32","trial","32","true","1,0","3:go_c","",""
"null","","html-keyboard-response","633","818429","0.0-8.0-1.17","","<img src=""img/pink-r.png"" border=""10"">","null","trial","32","","1,0","3:go_c","1",""
"null","","html-keyboard-response","634","819440","0.0-8.0-2.17","","<div style=""font-size:60px;"">+</div>","null","","","","","","",""
"null","","image-keyboard-response","635","820955","0.0-8.0-0.18","","img/yellow.png","null","trial","null","true","0,1","4:nogo_d","",""
"null","","html-keyboard-response","636","821967","0.0-8.0-1.18","","<img src=""img/yellow-r.png"">","null","trial","null","","0,1","4:nogo_d","1",""
"null","","html-keyboard-response","637","822981","0.0-8.0-2.18","","<div style=""font-size:60px;"">+</div>","null","","","","","","",""
"722.0399999059737","","image-keyboard-response","638","823704","0.0-8.0-0.19","","img/green.png","32","trial","null","false","0.2,0.8","2:nogo_b","",""
"null","","html-keyboard-response","639","824714","0.0-8.0-1.19","","<img src=""img/green-n.png"" border=""10"">","null","trial","null","","0.2,0.8","2:nogo_b","0",""
"null","","html-keyboard-response","640","825728","0.0-8.0-2.19","","<div style=""font-size:60px;"">+</div>","null","","","","","","",""
"829.8250001389533","","image-keyboard-response","641","826559","0.0-8.0-0.20","","img/orange.png","32","trial","32","true","0.8,0.2","1:go_a","",""
"null","","html-keyboard-response","642","827567","0.0-8.0-1.20","","<img src=""img/orange-r.png"" border=""10"">","null","trial","32","","0.8,0.2","1:go_a","1",""
"null","","html-keyboard-response","643","828581","0.0-8.0-2.20","","<div style=""font-size:60px;"">+</div>","null","","","","","","",""
"null","","image-keyboard-response","644","830097","0.0-8.0-0.21","","img/yellow.png","null","trial","null","true","0,1","4:nogo_d","",""
"null","","html-keyboard-response","645","831114","0.0-8.0-1.21","","<img src=""img/yellow-r.png"">","null","trial","null","","0,1","4:nogo_d","1",""
"null","","html-keyboard-response","646","832123","0.0-8.0-2.21","","<div style=""font-size:60px;"">+</div>","null","","","","","","",""
"725.1200000755489","","image-keyboard-response","647","832849","0.0-8.0-0.22","","img/green.png","32","trial","null","false","0.2,0.8","2:nogo_b","",""
"null","","html-keyboard-response","648","833860","0.0-8.0-1.22","","<img src=""img/green-r.png"" border=""10"">","null","trial","null","","0.2,0.8","2:nogo_b","1",""
"null","","html-keyboard-response","649","834875","0.0-8.0-2.22","","<div style=""font-size:60px;"">+</div>","null","","","","","","",""
"754.7299999278039","","image-keyboard-response","650","835631","0.0-8.0-0.23","","img/pink.png","32","trial","32","true","1,0","3:go_c","",""
"null","","html-keyboard-response","651","836637","0.0-8.0-1.23","","<img src=""img/pink-r.png"" border=""10"">","null","trial","32","","1,0","3:go_c","1",""
"null","","html-keyboard-response","652","837652","0.0-8.0-2.23","","<div style=""font-size:60px;"">+</div>","null","","","","","","",""
"689.8949998430908","","image-keyboard-response","653","838343","0.0-8.0-0.24","","img/orange.png","32","trial","32","true","0.8,0.2","1:go_a","",""
"null","","html-keyboard-response","654","839354","0.0-8.0-1.24","","<img src=""img/orange-r.png"" border=""10"">","null","trial","32","","0.8,0.2","1:go_a","1",""
"null","","html-keyboard-response","655","840367","0.0-8.0-2.24","","<div style=""font-size:60px;"">+</div>","null","","","","","","",""
"462.9899999126792","","image-keyboard-response","656","840832","0.0-8.0-0.25","","img/green.png","32","trial","null","false","0.2,0.8","2:nogo_b","",""
"null","","html-keyboard-response","657","841846","0.0-8.0-1.25","","<img src=""img/green-n.png"" border=""10"">","null","trial","null","","0.2,0.8","2:nogo_b","0",""
"null","","html-keyboard-response","658","842859","0.0-8.0-2.25","","<div style=""font-size:60px;"">+</div>","null","","","","","","",""
"659.3550001271069","","image-keyboard-response","659","843519","0.0-8.0-0.26","","img/pink.png","32","trial","32","true","1,0","3:go_c","",""
"null","","html-keyboard-response","660","844534","0.0-8.0-1.26","","<img src=""img/pink-r.png"" border=""10"">","null","trial","32","","1,0","3:go_c","1",""
"null","","html-keyboard-response","661","845541","0.0-8.0-2.26","","<div style=""font-size:60px;"">+</div>","null","","","","","","",""
"null","","image-keyboard-response","662","847054","0.0-8.0-0.27","","img/yellow.png","null","trial","null","true","0,1","4:nogo_d","",""
"null","","html-keyboard-response","663","848068","0.0-8.0-1.27","","<img src=""img/yellow-r.png"">","null","trial","null","","0,1","4:nogo_d","1",""
"null","","html-keyboard-response","664","849080","0.0-8.0-2.27","","<div style=""font-size:60px;"">+</div>","null","","","","","","",""
"982.9400000162423","","image-keyboard-response","665","850064","0.0-8.0-0.28","","img/pink.png","32","trial","32","true","1,0","3:go_c","",""
"null","","html-keyboard-response","666","851073","0.0-8.0-1.28","","<img src=""img/pink-r.png"" border=""10"">","null","trial","32","","1,0","3:go_c","1",""
"null","","html-keyboard-response","667","852088","0.0-8.0-2.28","","<div style=""font-size:60px;"">+</div>","null","","","","","","",""
"749.864999903366","","image-keyboard-response","668","852840","0.0-8.0-0.29","","img/orange.png","32","trial","32","true","0.8,0.2","1:go_a","",""
"null","","html-keyboard-response","669","853845","0.0-8.0-1.29","","<img src=""img/orange-r.png"" border=""10"">","null","trial","32","","0.8,0.2","1:go_a","1",""
"null","","html-keyboard-response","670","854861","0.0-8.0-2.29","","<div style=""font-size:60px;"">+</div>","null","","","","","","",""
"778.0150000471622","","image-keyboard-response","671","855640","0.0-8.0-0.30","","img/green.png","32","trial","null","false","0.2,0.8","2:nogo_b","",""
"null","","html-keyboard-response","672","856653","0.0-8.0-1.30","","<img src=""img/green-r.png"" border=""10"">","null","trial","null","","0.2,0.8","2:nogo_b","1",""
"null","","html-keyboard-response","673","857670","0.0-8.0-2.30","","<div style=""font-size:60px;"">+</div>","null","","","","","","",""
"null","","image-keyboard-response","674","859180","0.0-8.0-0.31","","img/yellow.png","null","trial","null","true","0,1","4:nogo_d","",""
"null","","html-keyboard-response","675","860194","0.0-8.0-1.31","","<img src=""img/yellow-r.png"">","null","trial","null","","0,1","4:nogo_d","1",""
