"rt","url","trial_type","trial_index","time_elapsed","internal_node_id","view_history","stimulus","key_press","test_part","correct_response","correct","use_rew","which_stim","reward","responses"
"9591.79999999702","consent.html","external-html","0","9724","0.0-0.0","","","","","","","","","",""
"68832.90000000596","","instructions","1","78558","0.0-1.0","[{""page_index"":0,""viewing_time"":2672.60000000149},{""page_index"":1,""viewing_time"":39906.39999999851},{""page_index"":2,""viewing_time"":4359.5},{""page_index"":3,""viewing_time"":2215.8000000044703},{""page_index"":4,""viewing_time"":9734.5},{""page_index"":5,""viewing_time"":3584.39999999851},{""page_index"":6,""viewing_time"":6358.29999999702}]","","","","","","","","",""
"null","","image-keyboard-response","2","80063","0.0-2.0-0.0","","img/test3.PNG","null","practice","null","true","","","",""
"null","","html-keyboard-response","3","81066","0.0-2.0-1.0","","<img src=""img/test3-reward.PNG"">","null","","","","","","",""
"null","","html-keyboard-response","4","82068","0.0-2.0-2.0","","<div style=""font-size:60px;"">+</div>","null","","","","","","",""
"506.30000000447035","","image-keyboard-response","5","82576","0.0-2.0-0.1","","img/test2.PNG","32","practice","null","false","","","",""
"null","","html-keyboard-response","6","83578","0.0-2.0-1.1","","<img src=""img/test2-neutral.PNG"" border=""10px; grey"">","null","","","","","","",""
"null","","html-keyboard-response","7","84579","0.0-2.0-2.1","","<div style=""font-size:60px;"">+</div>","null","","","","","","",""
"521.5","","image-keyboard-response","8","85102","0.0-2.0-0.2","","img/test1.PNG","32","practice","32","true","","","",""
"null","","html-keyboard-response","9","86104","0.0-2.0-1.2","","<img src=""img/test1-reward.PNG"" border=""10px; grey"">","null","","","","","","",""
"null","","html-keyboard-response","10","87106","0.0-2.0-2.2","","<div style=""font-size:60px;"">+</div>","null","","","","","","",""
"null","","image-keyboard-response","11","88609","0.0-2.0-0.3","","img/test2.PNG","null","practice","null","true","","","",""
"null","","html-keyboard-response","12","89610","0.0-2.0-1.3","","<img src=""img/test2-reward.PNG"">","null","","","","","","",""
"null","","html-keyboard-response","13","90612","0.0-2.0-2.3","","<div style=""font-size:60px;"">+</div>","null","","","","","","",""
"null","","image-keyboard-response","14","92116","0.0-2.0-0.4","","img/test1.PNG","null","practice","32","false","","","",""
"null","","html-keyboard-response","15","93119","0.0-2.0-1.4","","<img src=""img/test1-neutral.PNG"">","null","","","","","","",""
"null","","html-keyboard-response","16","94121","0.0-2.0-2.4","","<div style=""font-size:60px;"">+</div>","null","","","","","","",""
"531.7000000029802","","image-keyboard-response","17","94653","0.0-2.0-0.5","","img/test3.PNG","32","practice","null","false","","","",""
"null","","html-keyboard-response","18","95656","0.0-2.0-1.5","","<img src=""img/test3-neutral.PNG"" border=""10px; grey"">","null","","","","","","",""
"null","","html-keyboard-response","19","96658","0.0-2.0-2.5","","<div style=""font-size:60px;"">+</div>","null","","","","","","",""
"321.29999999701977","","image-keyboard-response","20","96981","0.0-2.0-0.6","","img/test1.PNG","32","practice","32","true","","","",""
"null","","html-keyboard-response","21","97982","0.0-2.0-1.6","","<img src=""img/test1-reward.PNG"" border=""10px; grey"">","null","","","","","","",""
"null","","html-keyboard-response","22","98984","0.0-2.0-2.6","","<div style=""font-size:60px;"">+</div>","null","","","","","","",""
"915.7000000029802","","image-keyboard-response","23","99900","0.0-2.0-0.7","","img/test2.PNG","32","practice","null","false","","","",""
"null","","html-keyboard-response","24","100902","0.0-2.0-1.7","","<img src=""img/test2-neutral.PNG"" border=""10px; grey"">","null","","","","","","",""
"null","","html-keyboard-response","25","101904","0.0-2.0-2.7","","<div style=""font-size:60px;"">+</div>","null","","","","","","",""
"523.3999999985099","","image-keyboard-response","26","102428","0.0-2.0-0.8","","img/test3.PNG","32","practice","null","false","","","",""
"null","","html-keyboard-response","27","103431","0.0-2.0-1.8","","<img src=""img/test3-neutral.PNG"" border=""10px; grey"">","null","","","","","","",""
"null","","html-keyboard-response","28","104432","0.0-2.0-2.8","","<div style=""font-size:60px;"">+</div>","null","","","","","","",""
"363.19999999552965","","image-keyboard-response","29","104797","0.0-2.0-0.9","","img/test3.PNG","32","practice","null","false","","","",""
"null","","html-keyboard-response","30","105799","0.0-2.0-1.9","","<img src=""img/test3-neutral.PNG"" border=""10px; grey"">","null","","","","","","",""
"null","","html-keyboard-response","31","106802","0.0-2.0-2.9","","<div style=""font-size:60px;"">+</div>","null","","","","","","",""
"345.30000000447035","","image-keyboard-response","32","107149","0.0-2.0-0.10","","img/test2.PNG","32","practice","null","false","","","",""
"null","","html-keyboard-response","33","108151","0.0-2.0-1.10","","<img src=""img/test2-neutral.PNG"" border=""10px; grey"">","null","","","","","","",""
"null","","html-keyboard-response","34","109154","0.0-2.0-2.10","","<div style=""font-size:60px;"">+</div>","null","","","","","","",""
"546.4000000059605","","image-keyboard-response","35","109701","0.0-2.0-0.11","","img/test1.PNG","32","practice","32","true","","","",""
"null","","html-keyboard-response","36","110704","0.0-2.0-1.11","","<img src=""img/test1-reward.PNG"" border=""10px; grey"">","null","","","","","","",""
"null","","html-keyboard-response","37","111706","0.0-2.0-2.11","","<div style=""font-size:60px;"">+</div>","null","","","","","","",""
"2358.2999999970198","","instructions","38","114065","0.0-3.0","[{""page_index"":0,""viewing_time"":2357.89999999851}]","","","","","","","","",""
"1059.1999999955297","","image-keyboard-response","39","115126","0.0-4.0-0.0","","img/purple.png","32","trial","null","false","0.2,0.8","2:nogo_b","",""
"null","","html-keyboard-response","40","116128","0.0-4.0-1.0","","<img src=""img/purple-r.png"" border=""10"">","null","trial","null","","0.2,0.8","2:nogo_b","1",""
"null","","html-keyboard-response","41","117130","0.0-4.0-2.0","","<div style=""font-size:60px;"">+</div>","null","","","","","","",""
"321.1000000014901","","image-keyboard-response","42","117453","0.0-4.0-0.1","","img/red.png","32","trial","32","true","0.8,0.2","1:go_a","",""
"null","","html-keyboard-response","43","118454","0.0-4.0-1.1","","<img src=""img/red-r.png"" border=""10"">","null","trial","32","","0.8,0.2","1:go_a","1",""
"null","","html-keyboard-response","44","119456","0.0-4.0-2.1","","<div style=""font-size:60px;"">+</div>","null","","","","","","",""
"null","","image-keyboard-response","45","120958","0.0-4.0-0.2","","img/purple.png","null","trial","null","true","0.2,0.8","2:nogo_b","",""
"null","","html-keyboard-response","46","121961","0.0-4.0-1.2","","<img src=""img/purple-r.png"">","null","trial","null","","0.2,0.8","2:nogo_b","1",""
"null","","html-keyboard-response","47","122964","0.0-4.0-2.2","","<div style=""font-size:60px;"">+</div>","null","","","","","","",""
"null","","image-keyboard-response","48","124466","0.0-4.0-0.3","","img/red.png","null","trial","32","false","0.8,0.2","1:go_a","",""
"null","","html-keyboard-response","49","125476","0.0-4.0-1.3","","<img src=""img/red-n.png"">","null","trial","32","","0.8,0.2","1:go_a","0",""
"null","","html-keyboard-response","50","126478","0.0-4.0-2.3","","<div style=""font-size:60px;"">+</div>","null","","","","","","",""
"310.80000000447035","","image-keyboard-response","51","126790","0.0-4.0-0.4","","img/purple.png","32","trial","null","false","0.2,0.8","2:nogo_b","",""
"null","","html-keyboard-response","52","127792","0.0-4.0-1.4","","<img src=""img/purple-n.png"" border=""10"">","null","trial","null","","0.2,0.8","2:nogo_b","0",""
"null","","html-keyboard-response","53","128793","0.0-4.0-2.4","","<div style=""font-size:60px;"">+</div>","null","","","","","","",""
"411","","image-keyboard-response","54","129206","0.0-4.0-0.5","","img/red.png","32","trial","32","true","0.8,0.2","1:go_a","",""
"null","","html-keyboard-response","55","130213","0.0-4.0-1.5","","<img src=""img/red-r.png"" border=""10"">","null","trial","32","","0.8,0.2","1:go_a","1",""
"null","","html-keyboard-response","56","131216","0.0-4.0-2.5","","<div style=""font-size:60px;"">+</div>","null","","","","","","",""
"1098.5","","image-keyboard-response","57","132316","0.0-4.0-0.6","","img/red.png","32","trial","32","true","0.8,0.2","1:go_a","",""
"null","","html-keyboard-response","58","133319","0.0-4.0-1.6","","<img src=""img/red-r.png"" border=""10"">","null","trial","32","","0.8,0.2","1:go_a","1",""
"null","","html-keyboard-response","59","134331","0.0-4.0-2.6","","<div style=""font-size:60px;"">+</div>","null","","","","","","",""
"null","","image-keyboard-response","60","135832","0.0-4.0-0.7","","img/purple.png","null","trial","null","true","0.2,0.8","2:nogo_b","",""
"null","","html-keyboard-response","61","136836","0.0-4.0-1.7","","<img src=""img/purple-r.png"">","null","trial","null","","0.2,0.8","2:nogo_b","1",""
"null","","html-keyboard-response","62","137849","0.0-4.0-2.7","","<div style=""font-size:60px;"">+</div>","null","","","","","","",""
"null","","image-keyboard-response","63","139350","0.0-4.0-0.8","","img/purple.png","null","trial","null","true","0.2,0.8","2:nogo_b","",""
"null","","html-keyboard-response","64","140353","0.0-4.0-1.8","","<img src=""img/purple-r.png"">","null","trial","null","","0.2,0.8","2:nogo_b","1",""
"null","","html-keyboard-response","65","141354","0.0-4.0-2.8","","<div style=""font-size:60px;"">+</div>","null","","","","","","",""
"null","","image-keyboard-response","66","142856","0.0-4.0-0.9","","img/red.png","null","trial","32","false","0.8,0.2","1:go_a","",""
"null","","html-keyboard-response","67","143858","0.0-4.0-1.9","","<img src=""img/red-n.png"">","null","trial","32","","0.8,0.2","1:go_a","0",""
"null","","html-keyboard-response","68","144860","0.0-4.0-2.9","","<div style=""font-size:60px;"">+</div>","null","","","","","","",""
"null","","image-keyboard-response","69","146362","0.0-4.0-0.10","","img/purple.png","null","trial","null","true","0.2,0.8","2:nogo_b","",""
"null","","html-keyboard-response","70","147369","0.0-4.0-1.10","","<img src=""img/purple-n.png"">","null","trial","null","","0.2,0.8","2:nogo_b","0",""
"null","","html-keyboard-response","71","148371","0.0-4.0-2.10","","<div style=""font-size:60px;"">+</div>","null","","","","","","",""
"320.6000000014901","","image-keyboard-response","72","148693","0.0-4.0-0.11","","img/red.png","32","trial","32","true","0.8,0.2","1:go_a","",""
"null","","html-keyboard-response","73","149695","0.0-4.0-1.11","","<img src=""img/red-r.png"" border=""10"">","null","trial","32","","0.8,0.2","1:go_a","1",""
"null","","html-keyboard-response","74","150697","0.0-4.0-2.11","","<div style=""font-size:60px;"">+</div>","null","","","","","","",""
"531.6000000014901","","image-keyboard-response","75","151230","0.0-4.0-0.12","","img/purple.png","32","trial","null","false","0.2,0.8","2:nogo_b","",""
"null","","html-keyboard-response","76","152233","0.0-4.0-1.12","","<img src=""img/purple-r.png"" border=""10"">","null","trial","null","","0.2,0.8","2:nogo_b","1",""
"null","","html-keyboard-response","77","153235","0.0-4.0-2.12","","<div style=""font-size:60px;"">+</div>","null","","","","","","",""
"337.1000000014901","","image-keyboard-response","78","153573","0.0-4.0-0.13","","img/red.png","32","trial","32","true","0.8,0.2","1:go_a","",""
"null","","html-keyboard-response","79","154576","0.0-4.0-1.13","","<img src=""img/red-r.png"" border=""10"">","null","trial","32","","0.8,0.2","1:go_a","1",""
"null","","html-keyboard-response","80","155578","0.0-4.0-2.13","","<div style=""font-size:60px;"">+</div>","null","","","","","","",""
"690","","image-keyboard-response","81","156269","0.0-4.0-0.14","","img/purple.png","32","trial","null","false","0.2,0.8","2:nogo_b","",""
"null","","html-keyboard-response","82","157272","0.0-4.0-1.14","","<img src=""img/purple-r.png"" border=""10"">","null","trial","null","","0.2,0.8","2:nogo_b","1",""
"null","","html-keyboard-response","83","158273","0.0-4.0-2.14","","<div style=""font-size:60px;"">+</div>","null","","","","","","",""
"null","","image-keyboard-response","84","159775","0.0-4.0-0.15","","img/red.png","null","trial","32","false","0.8,0.2","1:go_a","",""
"null","","html-keyboard-response","85","160778","0.0-4.0-1.15","","<img src=""img/red-n.png"">","null","trial","32","","0.8,0.2","1:go_a","0",""
"null","","html-keyboard-response","86","161779","0.0-4.0-2.15","","<div style=""font-size:60px;"">+</div>","null","","","","","","",""
"1013.8999999985099","","image-keyboard-response","87","162794","0.0-4.0-0.16","","img/red.png","32","trial","32","true","0.8,0.2","1:go_a","",""
"null","","html-keyboard-response","88","163798","0.0-4.0-1.16","","<img src=""img/red-r.png"" border=""10"">","null","trial","32","","0.8,0.2","1:go_a","1",""
"null","","html-keyboard-response","89","164800","0.0-4.0-2.16","","<div style=""font-size:60px;"">+</div>","null","","","","","","",""
"404.79999999701977","","image-keyboard-response","90","165206","0.0-4.0-0.17","","img/purple.png","32","trial","null","false","0.2,0.8","2:nogo_b","",""
"null","","html-keyboard-response","91","166207","0.0-4.0-1.17","","<img src=""img/purple-n.png"" border=""10"">","null","trial","null","","0.2,0.8","2:nogo_b","0",""
"null","","html-keyboard-response","92","167214","0.0-4.0-2.17","","<div style=""font-size:60px;"">+</div>","null","","","","","","",""
"null","","image-keyboard-response","93","168716","0.0-4.0-0.18","","img/purple.png","null","trial","null","true","0.2,0.8","2:nogo_b","",""
"null","","html-keyboard-response","94","169719","0.0-4.0-1.18","","<img src=""img/purple-n.png"">","null","trial","null","","0.2,0.8","2:nogo_b","0",""
"null","","html-keyboard-response","95","170720","0.0-4.0-2.18","","<div style=""font-size:60px;"">+</div>","null","","","","","","",""
"499","","image-keyboard-response","96","171221","0.0-4.0-0.19","","img/red.png","32","trial","32","true","0.8,0.2","1:go_a","",""
"null","","html-keyboard-response","97","172223","0.0-4.0-1.19","","<img src=""img/red-r.png"" border=""10"">","null","trial","32","","0.8,0.2","1:go_a","1",""
"null","","html-keyboard-response","98","173225","0.0-4.0-2.19","","<div style=""font-size:60px;"">+</div>","null","","","","","","",""
"null","","image-keyboard-response","99","174726","0.0-4.0-0.20","","img/red.png","null","trial","32","false","0.8,0.2","1:go_a","",""
"null","","html-keyboard-response","100","175733","0.0-4.0-1.20","","<img src=""img/red-r.png"">","null","trial","32","","0.8,0.2","1:go_a","1",""
"null","","html-keyboard-response","101","176736","0.0-4.0-2.20","","<div style=""font-size:60px;"">+</div>","null","","","","","","",""
"477.29999999701977","","image-keyboard-response","102","177215","0.0-4.0-0.21","","img/purple.png","32","trial","null","false","0.2,0.8","2:nogo_b","",""
"null","","html-keyboard-response","103","178218","0.0-4.0-1.21","","<img src=""img/purple-n.png"" border=""10"">","null","trial","null","","0.2,0.8","2:nogo_b","0",""
"null","","html-keyboard-response","104","179220","0.0-4.0-2.21","","<div style=""font-size:60px;"">+</div>","null","","","","","","",""
"895.7999999970198","","image-keyboard-response","105","180117","0.0-4.0-0.22","","img/purple.png","32","trial","null","false","0.2,0.8","2:nogo_b","",""
"null","","html-keyboard-response","106","181119","0.0-4.0-1.22","","<img src=""img/purple-n.png"" border=""10"">","null","trial","null","","0.2,0.8","2:nogo_b","0",""
"null","","html-keyboard-response","107","182120","0.0-4.0-2.22","","<div style=""font-size:60px;"">+</div>","null","","","","","","",""
"923","","image-keyboard-response","108","183045","0.0-4.0-0.23","","img/red.png","32","trial","32","true","0.8,0.2","1:go_a","",""
"null","","html-keyboard-response","109","184048","0.0-4.0-1.23","","<img src=""img/red-r.png"" border=""10"">","null","trial","32","","0.8,0.2","1:go_a","1",""
"null","","html-keyboard-response","110","185049","0.0-4.0-2.23","","<div style=""font-size:60px;"">+</div>","null","","","","","","",""
"545.8000000044703","","image-keyboard-response","111","185596","0.0-4.0-0.24","","img/red.png","32","trial","32","true","0.8,0.2","1:go_a","",""
"null","","html-keyboard-response","112","186598","0.0-4.0-1.24","","<img src=""img/red-r.png"" border=""10"">","null","trial","32","","0.8,0.2","1:go_a","1",""
"null","","html-keyboard-response","113","187599","0.0-4.0-2.24","","<div style=""font-size:60px;"">+</div>","null","","","","","","",""
"null","","image-keyboard-response","114","189101","0.0-4.0-0.25","","img/purple.png","null","trial","null","true","0.2,0.8","2:nogo_b","",""
"null","","html-keyboard-response","115","190118","0.0-4.0-1.25","","<img src=""img/purple-r.png"">","null","trial","null","","0.2,0.8","2:nogo_b","1",""
"null","","html-keyboard-response","116","191120","0.0-4.0-2.25","","<div style=""font-size:60px;"">+</div>","null","","","","","","",""
"null","","image-keyboard-response","117","192622","0.0-4.0-0.26","","img/purple.png","null","trial","null","true","0.2,0.8","2:nogo_b","",""
"null","","html-keyboard-response","118","193625","0.0-4.0-1.26","","<img src=""img/purple-r.png"">","null","trial","null","","0.2,0.8","2:nogo_b","1",""
"null","","html-keyboard-response","119","194627","0.0-4.0-2.26","","<div style=""font-size:60px;"">+</div>","null","","","","","","",""
"681","","image-keyboard-response","120","195309","0.0-4.0-0.27","","img/red.png","32","trial","32","true","0.8,0.2","1:go_a","",""
"null","","html-keyboard-response","121","196311","0.0-4.0-1.27","","<img src=""img/red-r.png"" border=""10"">","null","trial","32","","0.8,0.2","1:go_a","1",""
"null","","html-keyboard-response","122","197316","0.0-4.0-2.27","","<div style=""font-size:60px;"">+</div>","null","","","","","","",""
"null","","image-keyboard-response","123","198825","0.0-4.0-0.28","","img/purple.png","null","trial","null","true","0.2,0.8","2:nogo_b","",""
"null","","html-keyboard-response","124","199827","0.0-4.0-1.28","","<img src=""img/purple-r.png"">","null","trial","null","","0.2,0.8","2:nogo_b","1",""
"null","","html-keyboard-response","125","200829","0.0-4.0-2.28","","<div style=""font-size:60px;"">+</div>","null","","","","","","",""
"null","","image-keyboard-response","126","202331","0.0-4.0-0.29","","img/red.png","null","trial","32","false","0.8,0.2","1:go_a","",""
"null","","html-keyboard-response","127","203334","0.0-4.0-1.29","","<img src=""img/red-n.png"">","null","trial","32","","0.8,0.2","1:go_a","0",""
"null","","html-keyboard-response","128","204335","0.0-4.0-2.29","","<div style=""font-size:60px;"">+</div>","null","","","","","","",""
"733.2999999970198","","image-keyboard-response","129","205070","0.0-4.0-0.30","","img/red.png","32","trial","32","true","0.8,0.2","1:go_a","",""
"null","","html-keyboard-response","130","206074","0.0-4.0-1.30","","<img src=""img/red-n.png"" border=""10"">","null","trial","32","","0.8,0.2","1:go_a","0",""
"null","","html-keyboard-response","131","207075","0.0-4.0-2.30","","<div style=""font-size:60px;"">+</div>","null","","","","","","",""
"616.6000000014901","","image-keyboard-response","132","207693","0.0-4.0-0.31","","img/purple.png","32","trial","null","false","0.2,0.8","2:nogo_b","",""
"null","","html-keyboard-response","133","208696","0.0-4.0-1.31","","<img src=""img/purple-n.png"" border=""10"">","null","trial","null","","0.2,0.8","2:nogo_b","0",""
"null","","html-keyboard-response","134","209698","0.0-4.0-2.31","","<div style=""font-size:60px;"">+</div>","null","","","","","","",""
"737.3000000044703","","image-keyboard-response","135","210436","0.0-4.0-0.32","","img/red.png","32","trial","32","true","0.8,0.2","1:go_a","",""
"null","","html-keyboard-response","136","211439","0.0-4.0-1.32","","<img src=""img/red-r.png"" border=""10"">","null","trial","32","","0.8,0.2","1:go_a","1",""
"null","","html-keyboard-response","137","212440","0.0-4.0-2.32","","<div style=""font-size:60px;"">+</div>","null","","","","","","",""
"1402.8000000044703","","image-keyboard-response","138","213845","0.0-4.0-0.33","","img/purple.png","32","trial","null","false","0.2,0.8","2:nogo_b","",""
"null","","html-keyboard-response","139","214848","0.0-4.0-1.33","","<img src=""img/purple-n.png"" border=""10"">","null","trial","null","","0.2,0.8","2:nogo_b","0",""
"null","","html-keyboard-response","140","215850","0.0-4.0-2.33","","<div style=""font-size:60px;"">+</div>","null","","","","","","",""
"1154.5","","image-keyboard-response","141","217006","0.0-4.0-0.34","","img/red.png","32","trial","32","true","0.8,0.2","1:go_a","",""
"null","","html-keyboard-response","142","218009","0.0-4.0-1.34","","<img src=""img/red-r.png"" border=""10"">","null","trial","32","","0.8,0.2","1:go_a","1",""
"null","","html-keyboard-response","143","219010","0.0-4.0-2.34","","<div style=""font-size:60px;"">+</div>","null","","","","","","",""
"617.1000000014901","","image-keyboard-response","144","219629","0.0-4.0-0.35","","img/purple.png","32","trial","null","false","0.2,0.8","2:nogo_b","",""
"null","","html-keyboard-response","145","220631","0.0-4.0-1.35","","<img src=""img/purple-n.png"" border=""10"">","null","trial","null","","0.2,0.8","2:nogo_b","0",""
"null","","html-keyboard-response","146","221633","0.0-4.0-2.35","","<div style=""font-size:60px;"">+</div>","null","","","","","","",""
"898.5","","image-keyboard-response","147","222532","0.0-4.0-0.36","","img/purple.png","32","trial","null","false","0.2,0.8","2:nogo_b","",""
"null","","html-keyboard-response","148","223535","0.0-4.0-1.36","","<img src=""img/purple-r.png"" border=""10"">","null","trial","null","","0.2,0.8","2:nogo_b","1",""
"null","","html-keyboard-response","149","224537","0.0-4.0-2.36","","<div style=""font-size:60px;"">+</div>","null","","","","","","",""
"null","","image-keyboard-response","150","226039","0.0-4.0-0.37","","img/red.png","null","trial","32","false","0.8,0.2","1:go_a","",""
"null","","html-keyboard-response","151","227042","0.0-4.0-1.37","","<img src=""img/red-r.png"">","null","trial","32","","0.8,0.2","1:go_a","1",""
"null","","html-keyboard-response","152","228044","0.0-4.0-2.37","","<div style=""font-size:60px;"">+</div>","null","","","","","","",""
"393","","image-keyboard-response","153","228438","0.0-4.0-0.38","","img/purple.png","32","trial","null","false","0.2,0.8","2:nogo_b","",""
"null","","html-keyboard-response","154","229440","0.0-4.0-1.38","","<img src=""img/purple-n.png"" border=""10"">","null","trial","null","","0.2,0.8","2:nogo_b","0",""
"null","","html-keyboard-response","155","230443","0.0-4.0-2.38","","<div style=""font-size:60px;"">+</div>","null","","","","","","",""
"560.7000000029802","","image-keyboard-response","156","231006","0.0-4.0-0.39","","img/red.png","32","trial","32","true","0.8,0.2","1:go_a","",""
"null","","html-keyboard-response","157","232008","0.0-4.0-1.39","","<img src=""img/red-n.png"" border=""10"">","null","trial","32","","0.8,0.2","1:go_a","0",""
"null","","html-keyboard-response","158","233021","0.0-4.0-2.39","","<div style=""font-size:60px;"">+</div>","null","","","","","","",""
"998.4000000059605","","image-keyboard-response","159","234021","0.0-4.0-0.40","","img/purple.png","32","trial","null","false","0.2,0.8","2:nogo_b","",""
"null","","html-keyboard-response","160","235024","0.0-4.0-1.40","","<img src=""img/purple-n.png"" border=""10"">","null","trial","null","","0.2,0.8","2:nogo_b","0",""
"null","","html-keyboard-response","161","236039","0.0-4.0-2.40","","<div style=""font-size:60px;"">+</div>","null","","","","","","",""
"965.6999999955297","","image-keyboard-response","162","237006","0.0-4.0-0.41","","img/red.png","32","trial","32","true","0.8,0.2","1:go_a","",""
"null","","html-keyboard-response","163","238009","0.0-4.0-1.41","","<img src=""img/red-r.png"" border=""10"">","null","trial","32","","0.8,0.2","1:go_a","1",""
"null","","html-keyboard-response","164","239010","0.0-4.0-2.41","","<div style=""font-size:60px;"">+</div>","null","","","","","","",""
"null","","image-keyboard-response","165","240512","0.0-4.0-0.42","","img/purple.png","null","trial","null","true","0.2,0.8","2:nogo_b","",""
"null","","html-keyboard-response","166","241514","0.0-4.0-1.42","","<img src=""img/purple-n.png"">","null","trial","null","","0.2,0.8","2:nogo_b","0",""
"null","","html-keyboard-response","167","242518","0.0-4.0-2.42","","<div style=""font-size:60px;"">+</div>","null","","","","","","",""
"null","","image-keyboard-response","168","244020","0.0-4.0-0.43","","img/red.png","null","trial","32","false","0.8,0.2","1:go_a","",""
"null","","html-keyboard-response","169","245023","0.0-4.0-1.43","","<img src=""img/red-n.png"">","null","trial","32","","0.8,0.2","1:go_a","0",""
"null","","html-keyboard-response","170","246025","0.0-4.0-2.43","","<div style=""font-size:60px;"">+</div>","null","","","","","","",""
"707","","image-keyboard-response","171","246733","0.0-4.0-0.44","","img/purple.png","32","trial","null","false","0.2,0.8","2:nogo_b","",""
"null","","html-keyboard-response","172","247736","0.0-4.0-1.44","","<img src=""img/purple-n.png"" border=""10"">","null","trial","null","","0.2,0.8","2:nogo_b","0",""
"null","","html-keyboard-response","173","248738","0.0-4.0-2.44","","<div style=""font-size:60px;"">+</div>","null","","","","","","",""
"450.30000000447035","","image-keyboard-response","174","249189","0.0-4.0-0.45","","img/red.png","32","trial","32","true","0.8,0.2","1:go_a","",""
"null","","html-keyboard-response","175","250193","0.0-4.0-1.45","","<img src=""img/red-r.png"" border=""10"">","null","trial","32","","0.8,0.2","1:go_a","1",""
"null","","html-keyboard-response","176","251197","0.0-4.0-2.45","","<div style=""font-size:60px;"">+</div>","null","","","","","","",""
"null","","image-keyboard-response","177","252699","0.0-4.0-0.46","","img/red.png","null","trial","32","false","0.8,0.2","1:go_a","",""
"null","","html-keyboard-response","178","253701","0.0-4.0-1.46","","<img src=""img/red-n.png"">","null","trial","32","","0.8,0.2","1:go_a","0",""
"null","","html-keyboard-response","179","254702","0.0-4.0-2.46","","<div style=""font-size:60px;"">+</div>","null","","","","","","",""
"806.2999999970198","","image-keyboard-response","180","255509","0.0-4.0-0.47","","img/purple.png","32","trial","null","false","0.2,0.8","2:nogo_b","",""
"null","","html-keyboard-response","181","256513","0.0-4.0-1.47","","<img src=""img/purple-n.png"" border=""10"">","null","trial","null","","0.2,0.8","2:nogo_b","0",""
"null","","html-keyboard-response","182","257513","0.0-4.0-2.47","","<div style=""font-size:60px;"">+</div>","null","","","","","","",""
"691.4000000059605","","image-keyboard-response","183","258206","0.0-4.0-0.48","","img/red.png","32","trial","32","true","0.8,0.2","1:go_a","",""
"null","","html-keyboard-response","184","259208","0.0-4.0-1.48","","<img src=""img/red-r.png"" border=""10"">","null","trial","32","","0.8,0.2","1:go_a","1",""
"null","","html-keyboard-response","185","260211","0.0-4.0-2.48","","<div style=""font-size:60px;"">+</div>","null","","","","","","",""
"null","","image-keyboard-response","186","261713","0.0-4.0-0.49","","img/purple.png","null","trial","null","true","0.2,0.8","2:nogo_b","",""
"null","","html-keyboard-response","187","262738","0.0-4.0-1.49","","<img src=""img/purple-r.png"">","null","trial","null","","0.2,0.8","2:nogo_b","1",""
"null","","html-keyboard-response","188","263739","0.0-4.0-2.49","","<div style=""font-size:60px;"">+</div>","null","","","","","","",""
"297.29999999701977","","image-keyboard-response","189","264038","0.0-4.0-0.50","","img/purple.png","32","trial","null","false","0.2,0.8","2:nogo_b","",""
"null","","html-keyboard-response","190","265040","0.0-4.0-1.50","","<img src=""img/purple-n.png"" border=""10"">","null","trial","null","","0.2,0.8","2:nogo_b","0",""
"null","","html-keyboard-response","191","266042","0.0-4.0-2.50","","<div style=""font-size:60px;"">+</div>","null","","","","","","",""
"641.7000000029802","","image-keyboard-response","192","266685","0.0-4.0-0.51","","img/red.png","32","trial","32","true","0.8,0.2","1:go_a","",""
"null","","html-keyboard-response","193","267687","0.0-4.0-1.51","","<img src=""img/red-r.png"" border=""10"">","null","trial","32","","0.8,0.2","1:go_a","1",""
"null","","html-keyboard-response","194","268689","0.0-4.0-2.51","","<div style=""font-size:60px;"">+</div>","null","","","","","","",""
"473.70000000298023","","image-keyboard-response","195","269164","0.0-4.0-0.52","","img/purple.png","32","trial","null","false","0.2,0.8","2:nogo_b","",""
"null","","html-keyboard-response","196","270167","0.0-4.0-1.52","","<img src=""img/purple-r.png"" border=""10"">","null","trial","null","","0.2,0.8","2:nogo_b","1",""
"null","","html-keyboard-response","197","271169","0.0-4.0-2.52","","<div style=""font-size:60px;"">+</div>","null","","","","","","",""
"null","","image-keyboard-response","198","272671","0.0-4.0-0.53","","img/red.png","null","trial","32","false","0.8,0.2","1:go_a","",""
"null","","html-keyboard-response","199","273674","0.0-4.0-1.53","","<img src=""img/red-n.png"">","null","trial","32","","0.8,0.2","1:go_a","0",""
"null","","html-keyboard-response","200","274685","0.0-4.0-2.53","","<div style=""font-size:60px;"">+</div>","null","","","","","","",""
"678.6000000014901","","image-keyboard-response","201","275365","0.0-4.0-0.54","","img/purple.png","32","trial","null","false","0.2,0.8","2:nogo_b","",""
"null","","html-keyboard-response","202","276367","0.0-4.0-1.54","","<img src=""img/purple-n.png"" border=""10"">","null","trial","null","","0.2,0.8","2:nogo_b","0",""
"null","","html-keyboard-response","203","277368","0.0-4.0-2.54","","<div style=""font-size:60px;"">+</div>","null","","","","","","",""
"379","","image-keyboard-response","204","277749","0.0-4.0-0.55","","img/red.png","32","trial","32","true","0.8,0.2","1:go_a","",""
"null","","html-keyboard-response","205","278752","0.0-4.0-1.55","","<img src=""img/red-r.png"" border=""10"">","null","trial","32","","0.8,0.2","1:go_a","1",""
"null","","html-keyboard-response","206","279754","0.0-4.0-2.55","","<div style=""font-size:60px;"">+</div>","null","","","","","","",""
"null","","image-keyboard-response","207","281256","0.0-4.0-0.56","","img/purple.png","null","trial","null","true","0.2,0.8","2:nogo_b","",""
"null","","html-keyboard-response","208","282258","0.0-4.0-1.56","","<img src=""img/purple-r.png"">","null","trial","null","","0.2,0.8","2:nogo_b","1",""
"null","","html-keyboard-response","209","283260","0.0-4.0-2.56","","<div style=""font-size:60px;"">+</div>","null","","","","","","",""
"920.2999999970198","","image-keyboard-response","210","284182","0.0-4.0-0.57","","img/red.png","32","trial","32","true","0.8,0.2","1:go_a","",""
"null","","html-keyboard-response","211","285184","0.0-4.0-1.57","","<img src=""img/red-r.png"" border=""10"">","null","trial","32","","0.8,0.2","1:go_a","1",""
"null","","html-keyboard-response","212","286187","0.0-4.0-2.57","","<div style=""font-size:60px;"">+</div>","null","","","","","","",""
"null","","image-keyboard-response","213","287694","0.0-4.0-0.58","","img/purple.png","null","trial","null","true","0.2,0.8","2:nogo_b","",""
"null","","html-keyboard-response","214","288696","0.0-4.0-1.58","","<img src=""img/purple-r.png"">","null","trial","null","","0.2,0.8","2:nogo_b","1",""
"null","","html-keyboard-response","215","289698","0.0-4.0-2.58","","<div style=""font-size:60px;"">+</div>","null","","","","","","",""
"897.1000000014901","","image-keyboard-response","216","290596","0.0-4.0-0.59","","img/red.png","32","trial","32","true","0.8,0.2","1:go_a","",""
"null","","html-keyboard-response","217","291598","0.0-4.0-1.59","","<img src=""img/red-r.png"" border=""10"">","null","trial","32","","0.8,0.2","1:go_a","1",""
"null","","html-keyboard-response","218","292600","0.0-4.0-2.59","","<div style=""font-size:60px;"">+</div>","null","","","","","","",""
"2664.0999999940395","","instructions","219","295264","0.0-5.0","[{""page_index"":0,""viewing_time"":2663.5999999940395}]","","","","","","","","",""
"null","","image-keyboard-response","220","296767","0.0-6.0-0.0","","img/purple.png","null","trial","32","false","0.8,0.2","1:go_a","",""
"null","","html-keyboard-response","221","297770","0.0-6.0-1.0","","<img src=""img/purple-n.png"">","null","trial","32","","0.8,0.2","1:go_a","0",""
"null","","html-keyboard-response","222","298772","0.0-6.0-2.0","","<div style=""font-size:60px;"">+</div>","null","","","","","","",""
"1111.2000000029802","","image-keyboard-response","223","299885","0.0-6.0-0.1","","img/blue.png","32","trial","null","false","0,1","4:nogo_d","",""
"null","","html-keyboard-response","224","300888","0.0-6.0-1.1","","<img src=""img/blue-n.png"" border=""10"">","null","trial","null","","0,1","4:nogo_d","0",""
"null","","html-keyboard-response","225","301889","0.0-6.0-2.1","","<div style=""font-size:60px;"">+</div>","null","","","","","","",""
"722.8999999985099","","image-keyboard-response","226","302614","0.0-6.0-0.2","","img/green.png","32","trial","32","true","1,0","3:go_c","",""
"null","","html-keyboard-response","227","303617","0.0-6.0-1.2","","<img src=""img/green-r.png"" border=""10"">","null","trial","32","","1,0","3:go_c","1",""
"null","","html-keyboard-response","228","304619","0.0-6.0-2.2","","<div style=""font-size:60px;"">+</div>","null","","","","","","",""
"817.0999999940395","","image-keyboard-response","229","305437","0.0-6.0-0.3","","img/yellow.png","32","trial","null","false","0.2,0.8","2:nogo_b","",""
"null","","html-keyboard-response","230","306439","0.0-6.0-1.3","","<img src=""img/yellow-n.png"" border=""10"">","null","trial","null","","0.2,0.8","2:nogo_b","0",""
"null","","html-keyboard-response","231","307441","0.0-6.0-2.3","","<div style=""font-size:60px;"">+</div>","null","","","","","","",""
"618.3999999985099","","image-keyboard-response","232","308060","0.0-6.0-0.4","","img/green.png","32","trial","32","true","1,0","3:go_c","",""
"null","","html-keyboard-response","233","309063","0.0-6.0-1.4","","<img src=""img/green-r.png"" border=""10"">","null","trial","32","","1,0","3:go_c","1",""
"null","","html-keyboard-response","234","310064","0.0-6.0-2.4","","<div style=""font-size:60px;"">+</div>","null","","","","","","",""
"1010.5","","image-keyboard-response","235","311076","0.0-6.0-0.5","","img/yellow.png","32","trial","null","false","0.2,0.8","2:nogo_b","",""
"null","","html-keyboard-response","236","312078","0.0-6.0-1.5","","<img src=""img/yellow-n.png"" border=""10"">","null","trial","null","","0.2,0.8","2:nogo_b","0",""
"null","","html-keyboard-response","237","313086","0.0-6.0-2.5","","<div style=""font-size:60px;"">+</div>","null","","","","","","",""
"573.1000000014901","","image-keyboard-response","238","313661","0.0-6.0-0.6","","img/blue.png","32","trial","null","false","0,1","4:nogo_d","",""
"null","","html-keyboard-response","239","314663","0.0-6.0-1.6","","<img src=""img/blue-n.png"" border=""10"">","null","trial","null","","0,1","4:nogo_d","0",""
"null","","html-keyboard-response","240","315665","0.0-6.0-2.6","","<div style=""font-size:60px;"">+</div>","null","","","","","","",""
"851.8999999985099","","image-keyboard-response","241","316518","0.0-6.0-0.7","","img/purple.png","32","trial","32","true","0.8,0.2","1:go_a","",""
"null","","html-keyboard-response","242","317520","0.0-6.0-1.7","","<img src=""img/purple-n.png"" border=""10"">","null","trial","32","","0.8,0.2","1:go_a","0",""
"null","","html-keyboard-response","243","318522","0.0-6.0-2.7","","<div style=""font-size:60px;"">+</div>","null","","","","","","",""
"1265.3999999985099","","image-keyboard-response","244","319789","0.0-6.0-0.8","","img/purple.png","32","trial","32","true","0.8,0.2","1:go_a","",""
"null","","html-keyboard-response","245","320791","0.0-6.0-1.8","","<img src=""img/purple-r.png"" border=""10"">","null","trial","32","","0.8,0.2","1:go_a","1",""
"null","","html-keyboard-response","246","321793","0.0-6.0-2.8","","<div style=""font-size:60px;"">+</div>","null","","","","","","",""
"587.2000000029802","","image-keyboard-response","247","322382","0.0-6.0-0.9","","img/blue.png","32","trial","null","false","0,1","4:nogo_d","",""
"null","","html-keyboard-response","248","323385","0.0-6.0-1.9","","<img src=""img/blue-n.png"" border=""10"">","null","trial","null","","0,1","4:nogo_d","0",""
"null","","html-keyboard-response","249","324386","0.0-6.0-2.9","","<div style=""font-size:60px;"">+</div>","null","","","","","","",""
"null","","image-keyboard-response","250","325888","0.0-6.0-0.10","","img/green.png","null","trial","32","false","1,0","3:go_c","",""
"null","","html-keyboard-response","251","326891","0.0-6.0-1.10","","<img src=""img/green-n.png"">","null","trial","32","","1,0","3:go_c","0",""
"null","","html-keyboard-response","252","327893","0.0-6.0-2.10","","<div style=""font-size:60px;"">+</div>","null","","","","","","",""
"893.7999999970198","","image-keyboard-response","253","328789","0.0-6.0-0.11","","img/yellow.png","32","trial","null","false","0.2,0.8","2:nogo_b","",""
"null","","html-keyboard-response","254","329791","0.0-6.0-1.11","","<img src=""img/yellow-n.png"" border=""10"">","null","trial","null","","0.2,0.8","2:nogo_b","0",""
"null","","html-keyboard-response","255","330793","0.0-6.0-2.11","","<div style=""font-size:60px;"">+</div>","null","","","","","","",""
"489.5","","image-keyboard-response","256","331284","0.0-6.0-0.12","","img/green.png","32","trial","32","true","1,0","3:go_c","",""
"null","","html-keyboard-response","257","332288","0.0-6.0-1.12","","<img src=""img/green-r.png"" border=""10"">","null","trial","32","","1,0","3:go_c","1",""
"null","","html-keyboard-response","258","333290","0.0-6.0-2.12","","<div style=""font-size:60px;"">+</div>","null","","","","","","",""
"null","","image-keyboard-response","259","334792","0.0-6.0-0.13","","img/blue.png","null","trial","null","true","0,1","4:nogo_d","",""
"null","","html-keyboard-response","260","335795","0.0-6.0-1.13","","<img src=""img/blue-r.png"">","null","trial","null","","0,1","4:nogo_d","1",""
"null","","html-keyboard-response","261","336797","0.0-6.0-2.13","","<div style=""font-size:60px;"">+</div>","null","","","","","","",""
"null","","image-keyboard-response","262","338299","0.0-6.0-0.14","","img/purple.png","null","trial","32","false","0.8,0.2","1:go_a","",""
"null","","html-keyboard-response","263","339302","0.0-6.0-1.14","","<img src=""img/purple-n.png"">","null","trial","32","","0.8,0.2","1:go_a","0",""
"null","","html-keyboard-response","264","340304","0.0-6.0-2.14","","<div style=""font-size:60px;"">+</div>","null","","","","","","",""
"539","","image-keyboard-response","265","340845","0.0-6.0-0.15","","img/yellow.png","32","trial","null","false","0.2,0.8","2:nogo_b","",""
"null","","html-keyboard-response","266","341846","0.0-6.0-1.15","","<img src=""img/yellow-r.png"" border=""10"">","null","trial","null","","0.2,0.8","2:nogo_b","1",""
"null","","html-keyboard-response","267","342848","0.0-6.0-2.15","","<div style=""font-size:60px;"">+</div>","null","","","","","","",""
"null","","image-keyboard-response","268","344349","0.0-6.0-0.16","","img/green.png","null","trial","32","false","1,0","3:go_c","",""
"null","","html-keyboard-response","269","345359","0.0-6.0-1.16","","<img src=""img/green-n.png"">","null","trial","32","","1,0","3:go_c","0",""
"null","","html-keyboard-response","270","346361","0.0-6.0-2.16","","<div style=""font-size:60px;"">+</div>","null","","","","","","",""
"66.20000000298023","","image-keyboard-response","271","346428","0.0-6.0-0.17","","img/blue.png","32","trial","null","false","0,1","4:nogo_d","",""
"null","","html-keyboard-response","272","347430","0.0-6.0-1.17","","<img src=""img/blue-n.png"" border=""10"">","null","trial","null","","0,1","4:nogo_d","0",""
"null","","html-keyboard-response","273","348432","0.0-6.0-2.17","","<div style=""font-size:60px;"">+</div>","null","","","","","","",""
"1107.5","","image-keyboard-response","274","349540","0.0-6.0-0.18","","img/purple.png","32","trial","32","true","0.8,0.2","1:go_a","",""
"null","","html-keyboard-response","275","350543","0.0-6.0-1.18","","<img src=""img/purple-n.png"" border=""10"">","null","trial","32","","0.8,0.2","1:go_a","0",""
"null","","html-keyboard-response","276","351545","0.0-6.0-2.18","","<div style=""font-size:60px;"">+</div>","null","","","","","","",""
"1435.6000000014901","","image-keyboard-response","277","352982","0.0-6.0-0.19","","img/yellow.png","32","trial","null","false","0.2,0.8","2:nogo_b","",""
"null","","html-keyboard-response","278","353994","0.0-6.0-1.19","","<img src=""img/yellow-n.png"" border=""10"">","null","trial","null","","0.2,0.8","2:nogo_b","0",""
"null","","html-keyboard-response","279","354996","0.0-6.0-2.19","","<div style=""font-size:60px;"">+</div>","null","","","","","","",""
"null","","image-keyboard-response","280","356497","0.0-6.0-0.20","","img/purple.png","null","trial","32","false","0.8,0.2","1:go_a","",""
"null","","html-keyboard-response","281","357500","0.0-6.0-1.20","","<img src=""img/purple-n.png"">","null","trial","32","","0.8,0.2","1:go_a","0",""
"null","","html-keyboard-response","282","358502","0.0-6.0-2.20","","<div style=""font-size:60px;"">+</div>","null","","","","","","",""
"1069.2999999970198","","image-keyboard-response","283","359573","0.0-6.0-0.21","","img/blue.png","32","trial","null","false","0,1","4:nogo_d","",""
"null","","html-keyboard-response","284","360575","0.0-6.0-1.21","","<img src=""img/blue-n.png"" border=""10"">","null","trial","null","","0,1","4:nogo_d","0",""
"null","","html-keyboard-response","285","361576","0.0-6.0-2.21","","<div style=""font-size:60px;"">+</div>","null","","","","","","",""
"null","","image-keyboard-response","286","363078","0.0-6.0-0.22","","img/green.png","null","trial","32","false","1,0","3:go_c","",""
"null","","html-keyboard-response","287","364082","0.0-6.0-1.22","","<img src=""img/green-n.png"">","null","trial","32","","1,0","3:go_c","0",""
"null","","html-keyboard-response","288","365083","0.0-6.0-2.22","","<div style=""font-size:60px;"">+</div>","null","","","","","","",""
"697","","image-keyboard-response","289","365781","0.0-6.0-0.23","","img/yellow.png","32","trial","null","false","0.2,0.8","2:nogo_b","",""
"null","","html-keyboard-response","290","366784","0.0-6.0-1.23","","<img src=""img/yellow-n.png"" border=""10"">","null","trial","null","","0.2,0.8","2:nogo_b","0",""
"null","","html-keyboard-response","291","367785","0.0-6.0-2.23","","<div style=""font-size:60px;"">+</div>","null","","","","","","",""
"995.3000000044703","","image-keyboard-response","292","368782","0.0-6.0-0.24","","img/green.png","32","trial","32","true","1,0","3:go_c","",""
"null","","html-keyboard-response","293","369785","0.0-6.0-1.24","","<img src=""img/green-r.png"" border=""10"">","null","trial","32","","1,0","3:go_c","1",""
"null","","html-keyboard-response","294","370787","0.0-6.0-2.24","","<div style=""font-size:60px;"">+</div>","null","","","","","","",""
"null","","image-keyboard-response","295","372289","0.0-6.0-0.25","","img/blue.png","null","trial","null","true","0,1","4:nogo_d","",""
"null","","html-keyboard-response","296","373292","0.0-6.0-1.25","","<img src=""img/blue-r.png"">","null","trial","null","","0,1","4:nogo_d","1",""
"null","","html-keyboard-response","297","374293","0.0-6.0-2.25","","<div style=""font-size:60px;"">+</div>","null","","","","","","",""
"1102.3000000044703","","image-keyboard-response","298","375397","0.0-6.0-0.26","","img/purple.png","32","trial","32","true","0.8,0.2","1:go_a","",""
"null","","html-keyboard-response","299","376400","0.0-6.0-1.26","","<img src=""img/purple-r.png"" border=""10"">","null","trial","32","","0.8,0.2","1:go_a","1",""
"null","","html-keyboard-response","300","377401","0.0-6.0-2.26","","<div style=""font-size:60px;"">+</div>","null","","","","","","",""
"null","","image-keyboard-response","301","378903","0.0-6.0-0.27","","img/yellow.png","null","trial","null","true","0.2,0.8","2:nogo_b","",""
"null","","html-keyboard-response","302","379906","0.0-6.0-1.27","","<img src=""img/yellow-r.png"">","null","trial","null","","0.2,0.8","2:nogo_b","1",""
"null","","html-keyboard-response","303","380908","0.0-6.0-2.27","","<div style=""font-size:60px;"">+</div>","null","","","","","","",""
"704.1000000014901","","image-keyboard-response","304","381613","0.0-6.0-0.28","","img/yellow.png","32","trial","null","false","0.2,0.8","2:nogo_b","",""
"null","","html-keyboard-response","305","382616","0.0-6.0-1.28","","<img src=""img/yellow-n.png"" border=""10"">","null","trial","null","","0.2,0.8","2:nogo_b","0",""
"null","","html-keyboard-response","306","383627","0.0-6.0-2.28","","<div style=""font-size:60px;"">+</div>","null","","","","","","",""
"null","","image-keyboard-response","307","385128","0.0-6.0-0.29","","img/green.png","null","trial","32","false","1,0","3:go_c","",""
"null","","html-keyboard-response","308","386130","0.0-6.0-1.29","","<img src=""img/green-n.png"">","null","trial","32","","1,0","3:go_c","0",""
"null","","html-keyboard-response","309","387132","0.0-6.0-2.29","","<div style=""font-size:60px;"">+</div>","null","","","","","","",""
"1192.5","","image-keyboard-response","310","388326","0.0-6.0-0.30","","img/blue.png","32","trial","null","false","0,1","4:nogo_d","",""
"null","","html-keyboard-response","311","389329","0.0-6.0-1.30","","<img src=""img/blue-n.png"" border=""10"">","null","trial","null","","0,1","4:nogo_d","0",""
"null","","html-keyboard-response","312","390332","0.0-6.0-2.30","","<div style=""font-size:60px;"">+</div>","null","","","","","","",""
"null","","image-keyboard-response","313","391834","0.0-6.0-0.31","","img/purple.png","null","trial","32","false","0.8,0.2","1:go_a","",""
"null","","html-keyboard-response","314","392837","0.0-6.0-1.31","","<img src=""img/purple-n.png"">","null","trial","32","","0.8,0.2","1:go_a","0",""
"null","","html-keyboard-response","315","393838","0.0-6.0-2.31","","<div style=""font-size:60px;"">+</div>","null","","","","","","",""
"838.2999999970198","","image-keyboard-response","316","394678","0.0-6.0-0.32","","img/green.png","32","trial","32","true","1,0","3:go_c","",""
"null","","html-keyboard-response","317","395681","0.0-6.0-1.32","","<img src=""img/green-r.png"" border=""10"">","null","trial","32","","1,0","3:go_c","1",""
"null","","html-keyboard-response","318","396682","0.0-6.0-2.32","","<div style=""font-size:60px;"">+</div>","null","","","","","","",""
"null","","image-keyboard-response","319","398184","0.0-6.0-0.33","","img/blue.png","null","trial","null","true","0,1","4:nogo_d","",""
"null","","html-keyboard-response","320","399198","0.0-6.0-1.33","","<img src=""img/blue-r.png"">","null","trial","null","","0,1","4:nogo_d","1",""
"null","","html-keyboard-response","321","400199","0.0-6.0-2.33","","<div style=""font-size:60px;"">+</div>","null","","","","","","",""
"null","","image-keyboard-response","322","401701","0.0-6.0-0.34","","img/purple.png","null","trial","32","false","0.8,0.2","1:go_a","",""
"null","","html-keyboard-response","323","402711","0.0-6.0-1.34","","<img src=""img/purple-n.png"">","null","trial","32","","0.8,0.2","1:go_a","0",""
"null","","html-keyboard-response","324","403712","0.0-6.0-2.34","","<div style=""font-size:60px;"">+</div>","null","","","","","","",""
"667.3999999985099","","image-keyboard-response","325","404381","0.0-6.0-0.35","","img/yellow.png","32","trial","null","false","0.2,0.8","2:nogo_b","",""
"null","","html-keyboard-response","326","405383","0.0-6.0-1.35","","<img src=""img/yellow-r.png"" border=""10"">","null","trial","null","","0.2,0.8","2:nogo_b","1",""
"null","","html-keyboard-response","327","406385","0.0-6.0-2.35","","<div style=""font-size:60px;"">+</div>","null","","","","","","",""
"1058.9000000059605","","image-keyboard-response","328","407445","0.0-6.0-0.36","","img/blue.png","32","trial","null","false","0,1","4:nogo_d","",""
"null","","html-keyboard-response","329","408448","0.0-6.0-1.36","","<img src=""img/blue-n.png"" border=""10"">","null","trial","null","","0,1","4:nogo_d","0",""
"null","","html-keyboard-response","330","409449","0.0-6.0-2.36","","<div style=""font-size:60px;"">+</div>","null","","","","","","",""
"null","","image-keyboard-response","331","410951","0.0-6.0-0.37","","img/yellow.png","null","trial","null","true","0.2,0.8","2:nogo_b","",""
"null","","html-keyboard-response","332","411955","0.0-6.0-1.37","","<img src=""img/yellow-n.png"">","null","trial","null","","0.2,0.8","2:nogo_b","0",""
"null","","html-keyboard-response","333","412957","0.0-6.0-2.37","","<div style=""font-size:60px;"">+</div>","null","","","","","","",""
"414.90000000596046","","image-keyboard-response","334","413373","0.0-6.0-0.38","","img/green.png","32","trial","32","true","1,0","3:go_c","",""
"null","","html-keyboard-response","335","414376","0.0-6.0-1.38","","<img src=""img/green-r.png"" border=""10"">","null","trial","32","","1,0","3:go_c","1",""
"null","","html-keyboard-response","336","415377","0.0-6.0-2.38","","<div style=""font-size:60px;"">+</div>","null","","","","","","",""
"null","","image-keyboard-response","337","416879","0.0-6.0-0.39","","img/purple.png","null","trial","32","false","0.8,0.2","1:go_a","",""
"null","","html-keyboard-response","338","417882","0.0-6.0-1.39","","<img src=""img/purple-r.png"">","null","trial","32","","0.8,0.2","1:go_a","1",""
"null","","html-keyboard-response","339","418883","0.0-6.0-2.39","","<div style=""font-size:60px;"">+</div>","null","","","","","","",""
"null","","image-keyboard-response","340","420385","0.0-6.0-0.40","","img/purple.png","null","trial","32","false","0.8,0.2","1:go_a","",""
"null","","html-keyboard-response","341","421387","0.0-6.0-1.40","","<img src=""img/purple-n.png"">","null","trial","32","","0.8,0.2","1:go_a","0",""
"null","","html-keyboard-response","342","422389","0.0-6.0-2.40","","<div style=""font-size:60px;"">+</div>","null","","","","","","",""
"870.3000000044703","","image-keyboard-response","343","423261","0.0-6.0-0.41","","img/green.png","32","trial","32","true","1,0","3:go_c","",""
"null","","html-keyboard-response","344","424264","0.0-6.0-1.41","","<img src=""img/green-r.png"" border=""10"">","null","trial","32","","1,0","3:go_c","1",""
"null","","html-keyboard-response","345","425265","0.0-6.0-2.41","","<div style=""font-size:60px;"">+</div>","null","","","","","","",""
"706.3999999985099","","image-keyboard-response","346","425973","0.0-6.0-0.42","","img/blue.png","32","trial","null","false","0,1","4:nogo_d","",""
"null","","html-keyboard-response","347","426976","0.0-6.0-1.42","","<img src=""img/blue-n.png"" border=""10"">","null","trial","null","","0,1","4:nogo_d","0",""
"null","","html-keyboard-response","348","427978","0.0-6.0-2.42","","<div style=""font-size:60px;"">+</div>","null","","","","","","",""
"null","","image-keyboard-response","349","429480","0.0-6.0-0.43","","img/yellow.png","null","trial","null","true","0.2,0.8","2:nogo_b","",""
"null","","html-keyboard-response","350","430482","0.0-6.0-1.43","","<img src=""img/yellow-n.png"">","null","trial","null","","0.2,0.8","2:nogo_b","0",""
"null","","html-keyboard-response","351","431483","0.0-6.0-2.43","","<div style=""font-size:60px;"">+</div>","null","","","","","","",""
"640.6000000014901","","image-keyboard-response","352","432125","0.0-6.0-0.44","","img/yellow.png","32","trial","null","false","0.2,0.8","2:nogo_b","",""
"null","","html-keyboard-response","353","433128","0.0-6.0-1.44","","<img src=""img/yellow-n.png"" border=""10"">","null","trial","null","","0.2,0.8","2:nogo_b","0",""
"null","","html-keyboard-response","354","434130","0.0-6.0-2.44","","<div style=""font-size:60px;"">+</div>","null","","","","","","",""
"601.1000000014901","","image-keyboard-response","355","434733","0.0-6.0-0.45","","img/purple.png","32","trial","32","true","0.8,0.2","1:go_a","",""
"null","","html-keyboard-response","356","435737","0.0-6.0-1.45","","<img src=""img/purple-r.png"" border=""10"">","null","trial","32","","0.8,0.2","1:go_a","1",""
"null","","html-keyboard-response","357","436739","0.0-6.0-2.45","","<div style=""font-size:60px;"">+</div>","null","","","","","","",""
"null","","image-keyboard-response","358","438241","0.0-6.0-0.46","","img/green.png","null","trial","32","false","1,0","3:go_c","",""
"null","","html-keyboard-response","359","439246","0.0-6.0-1.46","","<img src=""img/green-n.png"">","null","trial","32","","1,0","3:go_c","0",""
"null","","html-keyboard-response","360","440250","0.0-6.0-2.46","","<div style=""font-size:60px;"">+</div>","null","","","","","","",""
"371.1000000014901","","image-keyboard-response","361","440623","0.0-6.0-0.47","","img/blue.png","32","trial","null","false","0,1","4:nogo_d","",""
"null","","html-keyboard-response","362","441625","0.0-6.0-1.47","","<img src=""img/blue-n.png"" border=""10"">","null","trial","null","","0,1","4:nogo_d","0",""
"null","","html-keyboard-response","363","442627","0.0-6.0-2.47","","<div style=""font-size:60px;"">+</div>","null","","","","","","",""
"null","","image-keyboard-response","364","444129","0.0-6.0-0.48","","img/purple.png","null","trial","32","false","0.8,0.2","1:go_a","",""
"null","","html-keyboard-response","365","445132","0.0-6.0-1.48","","<img src=""img/purple-n.png"">","null","trial","32","","0.8,0.2","1:go_a","0",""
"null","","html-keyboard-response","366","446134","0.0-6.0-2.48","","<div style=""font-size:60px;"">+</div>","null","","","","","","",""
"342.3999999985099","","image-keyboard-response","367","446478","0.0-6.0-0.49","","img/green.png","32","trial","32","true","1,0","3:go_c","",""
"null","","html-keyboard-response","368","447480","0.0-6.0-1.49","","<img src=""img/green-r.png"" border=""10"">","null","trial","32","","1,0","3:go_c","1",""
"null","","html-keyboard-response","369","448481","0.0-6.0-2.49","","<div style=""font-size:60px;"">+</div>","null","","","","","","",""
"null","","image-keyboard-response","370","449984","0.0-6.0-0.50","","img/blue.png","null","trial","null","true","0,1","4:nogo_d","",""
"null","","html-keyboard-response","371","450986","0.0-6.0-1.50","","<img src=""img/blue-r.png"">","null","trial","null","","0,1","4:nogo_d","1",""
"null","","html-keyboard-response","372","451987","0.0-6.0-2.50","","<div style=""font-size:60px;"">+</div>","null","","","","","","",""
"null","","image-keyboard-response","373","453491","0.0-6.0-0.51","","img/yellow.png","null","trial","null","true","0.2,0.8","2:nogo_b","",""
"null","","html-keyboard-response","374","454493","0.0-6.0-1.51","","<img src=""img/yellow-n.png"">","null","trial","null","","0.2,0.8","2:nogo_b","0",""
"null","","html-keyboard-response","375","455503","0.0-6.0-2.51","","<div style=""font-size:60px;"">+</div>","null","","","","","","",""
"null","","image-keyboard-response","376","457005","0.0-6.0-0.52","","img/purple.png","null","trial","32","false","0.8,0.2","1:go_a","",""
"null","","html-keyboard-response","377","458007","0.0-6.0-1.52","","<img src=""img/purple-n.png"">","null","trial","32","","0.8,0.2","1:go_a","0",""
"null","","html-keyboard-response","378","459016","0.0-6.0-2.52","","<div style=""font-size:60px;"">+</div>","null","","","","","","",""
"451.6000000014901","","image-keyboard-response","379","459469","0.0-6.0-0.53","","img/green.png","32","trial","32","true","1,0","3:go_c","",""
"null","","html-keyboard-response","380","460480","0.0-6.0-1.53","","<img src=""img/green-r.png"" border=""10"">","null","trial","32","","1,0","3:go_c","1",""
"null","","html-keyboard-response","381","461481","0.0-6.0-2.53","","<div style=""font-size:60px;"">+</div>","null","","","","","","",""
"null","","image-keyboard-response","382","462984","0.0-6.0-0.54","","img/yellow.png","null","trial","null","true","0.2,0.8","2:nogo_b","",""
"null","","html-keyboard-response","383","463991","0.0-6.0-1.54","","<img src=""img/yellow-r.png"">","null","trial","null","","0.2,0.8","2:nogo_b","1",""
"null","","html-keyboard-response","384","464993","0.0-6.0-2.54","","<div style=""font-size:60px;"">+</div>","null","","","","","","",""
"1178.2999999970198","","image-keyboard-response","385","466173","0.0-6.0-0.55","","img/blue.png","32","trial","null","false","0,1","4:nogo_d","",""
"null","","html-keyboard-response","386","467175","0.0-6.0-1.55","","<img src=""img/blue-n.png"" border=""10"">","null","trial","null","","0,1","4:nogo_d","0",""
"null","","html-keyboard-response","387","468177","0.0-6.0-2.55","","<div style=""font-size:60px;"">+</div>","null","","","","","","",""
"1186.6000000014901","","image-keyboard-response","388","469365","0.0-6.0-0.56","","img/green.png","32","trial","32","true","1,0","3:go_c","",""
"null","","html-keyboard-response","389","470368","0.0-6.0-1.56","","<img src=""img/green-r.png"" border=""10"">","null","trial","32","","1,0","3:go_c","1",""
"null","","html-keyboard-response","390","471370","0.0-6.0-2.56","","<div style=""font-size:60px;"">+</div>","null","","","","","","",""
"null","","image-keyboard-response","391","472872","0.0-6.0-0.57","","img/blue.png","null","trial","null","true","0,1","4:nogo_d","",""
"null","","html-keyboard-response","392","473874","0.0-6.0-1.57","","<img src=""img/blue-r.png"">","null","trial","null","","0,1","4:nogo_d","1",""
"null","","html-keyboard-response","393","474877","0.0-6.0-2.57","","<div style=""font-size:60px;"">+</div>","null","","","","","","",""
"823.2000000029802","","image-keyboard-response","394","475701","0.0-6.0-0.58","","img/yellow.png","32","trial","null","false","0.2,0.8","2:nogo_b","",""
"null","","html-keyboard-response","395","476705","0.0-6.0-1.58","","<img src=""img/yellow-n.png"" border=""10"">","null","trial","null","","0.2,0.8","2:nogo_b","0",""
"null","","html-keyboard-response","396","477707","0.0-6.0-2.58","","<div style=""font-size:60px;"">+</div>","null","","","","","","",""
"1209","","image-keyboard-response","397","478917","0.0-6.0-0.59","","img/purple.png","32","trial","32","true","0.8,0.2","1:go_a","",""
"null","","html-keyboard-response","398","479919","0.0-6.0-1.59","","<img src=""img/purple-n.png"" border=""10"">","null","trial","32","","0.8,0.2","1:go_a","0",""
"null","","html-keyboard-response","399","480921","0.0-6.0-2.59","","<div style=""font-size:60px;"">+</div>","null","","","","","","",""
"586.2999999970198","","image-keyboard-response","400","481509","0.0-6.0-0.60","","img/blue.png","32","trial","null","false","0,1","4:nogo_d","",""
"null","","html-keyboard-response","401","482511","0.0-6.0-1.60","","<img src=""img/blue-n.png"" border=""10"">","null","trial","null","","0,1","4:nogo_d","0",""
"null","","html-keyboard-response","402","483513","0.0-6.0-2.60","","<div style=""font-size:60px;"">+</div>","null","","","","","","",""
"null","","image-keyboard-response","403","485016","0.0-6.0-0.61","","img/purple.png","null","trial","32","false","0.8,0.2","1:go_a","",""
"null","","html-keyboard-response","404","486019","0.0-6.0-1.61","","<img src=""img/purple-n.png"">","null","trial","32","","0.8,0.2","1:go_a","0",""
"null","","html-keyboard-response","405","487020","0.0-6.0-2.61","","<div style=""font-size:60px;"">+</div>","null","","","","","","",""
"735.5","","image-keyboard-response","406","487757","0.0-6.0-0.62","","img/yellow.png","32","trial","null","false","0.2,0.8","2:nogo_b","",""
"null","","html-keyboard-response","407","488760","0.0-6.0-1.62","","<img src=""img/yellow-r.png"" border=""10"">","null","trial","null","","0.2,0.8","2:nogo_b","1",""
"null","","html-keyboard-response","408","489763","0.0-6.0-2.62","","<div style=""font-size:60px;"">+</div>","null","","","","","","",""
"null","","image-keyboard-response","409","491267","0.0-6.0-0.63","","img/green.png","null","trial","32","false","1,0","3:go_c","",""
"null","","html-keyboard-response","410","492270","0.0-6.0-1.63","","<img src=""img/green-n.png"">","null","trial","32","","1,0","3:go_c","0",""
"null","","html-keyboard-response","411","493272","0.0-6.0-2.63","","<div style=""font-size:60px;"">+</div>","null","","","","","","",""
"387.5","","image-keyboard-response","412","493660","0.0-6.0-0.64","","img/blue.png","32","trial","null","false","0,1","4:nogo_d","",""
"null","","html-keyboard-response","413","494663","0.0-6.0-1.64","","<img src=""img/blue-n.png"" border=""10"">","null","trial","null","","0,1","4:nogo_d","0",""
"null","","html-keyboard-response","414","495665","0.0-6.0-2.64","","<div style=""font-size:60px;"">+</div>","null","","","","","","",""
"1283.1999999955297","","image-keyboard-response","415","496950","0.0-6.0-0.65","","img/yellow.png","32","trial","null","false","0.2,0.8","2:nogo_b","",""
"null","","html-keyboard-response","416","497953","0.0-6.0-1.65","","<img src=""img/yellow-r.png"" border=""10"">","null","trial","null","","0.2,0.8","2:nogo_b","1",""
"null","","html-keyboard-response","417","498954","0.0-6.0-2.65","","<div style=""font-size:60px;"">+</div>","null","","","","","","",""
"null","","image-keyboard-response","418","500458","0.0-6.0-0.66","","img/green.png","null","trial","32","false","1,0","3:go_c","",""
"null","","html-keyboard-response","419","501461","0.0-6.0-1.66","","<img src=""img/green-n.png"">","null","trial","32","","1,0","3:go_c","0",""
"null","","html-keyboard-response","420","502463","0.0-6.0-2.66","","<div style=""font-size:60px;"">+</div>","null","","","","","","",""
"1060.3999999985099","","image-keyboard-response","421","503525","0.0-6.0-0.67","","img/purple.png","32","trial","32","true","0.8,0.2","1:go_a","",""
"null","","html-keyboard-response","422","504528","0.0-6.0-1.67","","<img src=""img/purple-r.png"" border=""10"">","null","trial","32","","0.8,0.2","1:go_a","1",""
"null","","html-keyboard-response","423","505530","0.0-6.0-2.67","","<div style=""font-size:60px;"">+</div>","null","","","","","","",""
"null","","image-keyboard-response","424","507032","0.0-6.0-0.68","","img/blue.png","null","trial","null","true","0,1","4:nogo_d","",""
"null","","html-keyboard-response","425","508049","0.0-6.0-1.68","","<img src=""img/blue-r.png"">","null","trial","null","","0,1","4:nogo_d","1",""
"null","","html-keyboard-response","426","509051","0.0-6.0-2.68","","<div style=""font-size:60px;"">+</div>","null","","","","","","",""
"null","","image-keyboard-response","427","510553","0.0-6.0-0.69","","img/yellow.png","null","trial","null","true","0.2,0.8","2:nogo_b","",""
"null","","html-keyboard-response","428","511555","0.0-6.0-1.69","","<img src=""img/yellow-r.png"">","null","trial","null","","0.2,0.8","2:nogo_b","1",""
"null","","html-keyboard-response","429","512562","0.0-6.0-2.69","","<div style=""font-size:60px;"">+</div>","null","","","","","","",""
"null","","image-keyboard-response","430","514063","0.0-6.0-0.70","","img/purple.png","null","trial","32","false","0.8,0.2","1:go_a","",""
"null","","html-keyboard-response","431","515066","0.0-6.0-1.70","","<img src=""img/purple-n.png"">","null","trial","32","","0.8,0.2","1:go_a","0",""
"null","","html-keyboard-response","432","516067","0.0-6.0-2.70","","<div style=""font-size:60px;"">+</div>","null","","","","","","",""
"1200.5","","image-keyboard-response","433","517269","0.0-6.0-0.71","","img/green.png","32","trial","32","true","1,0","3:go_c","",""
"null","","html-keyboard-response","434","518271","0.0-6.0-1.71","","<img src=""img/green-r.png"" border=""10"">","null","trial","32","","1,0","3:go_c","1",""
"null","","html-keyboard-response","435","519275","0.0-6.0-2.71","","<div style=""font-size:60px;"">+</div>","null","","","","","","",""
"null","","image-keyboard-response","436","520778","0.0-6.0-0.72","","img/yellow.png","null","trial","null","true","0.2,0.8","2:nogo_b","",""
"null","","html-keyboard-response","437","521781","0.0-6.0-1.72","","<img src=""img/yellow-r.png"">","null","trial","null","","0.2,0.8","2:nogo_b","1",""
"null","","html-keyboard-response","438","522783","0.0-6.0-2.72","","<div style=""font-size:60px;"">+</div>","null","","","","","","",""
"908.3000000044703","","image-keyboard-response","439","523692","0.0-6.0-0.73","","img/blue.png","32","trial","null","false","0,1","4:nogo_d","",""
"null","","html-keyboard-response","440","524695","0.0-6.0-1.73","","<img src=""img/blue-n.png"" border=""10"">","null","trial","null","","0,1","4:nogo_d","0",""
"null","","html-keyboard-response","441","525696","0.0-6.0-2.73","","<div style=""font-size:60px;"">+</div>","null","","","","","","",""
"424.20000000298023","","image-keyboard-response","442","526125","0.0-6.0-0.74","","img/purple.png","32","trial","32","true","0.8,0.2","1:go_a","",""
"null","","html-keyboard-response","443","527129","0.0-6.0-1.74","","<img src=""img/purple-r.png"" border=""10"">","null","trial","32","","0.8,0.2","1:go_a","1",""
"null","","html-keyboard-response","444","528133","0.0-6.0-2.74","","<div style=""font-size:60px;"">+</div>","null","","","","","","",""
"null","","image-keyboard-response","445","529635","0.0-6.0-0.75","","img/green.png","null","trial","32","false","1,0","3:go_c","",""
"null","","html-keyboard-response","446","530638","0.0-6.0-1.75","","<img src=""img/green-n.png"">","null","trial","32","","1,0","3:go_c","0",""
"null","","html-keyboard-response","447","531639","0.0-6.0-2.75","","<div style=""font-size:60px;"">+</div>","null","","","","","","",""
"500.6000000014901","","image-keyboard-response","448","532141","0.0-6.0-0.76","","img/green.png","32","trial","32","true","1,0","3:go_c","",""
"null","","html-keyboard-response","449","533157","0.0-6.0-1.76","","<img src=""img/green-r.png"" border=""10"">","null","trial","32","","1,0","3:go_c","1",""
"null","","html-keyboard-response","450","534158","0.0-6.0-2.76","","<div style=""font-size:60px;"">+</div>","null","","","","","","",""
"null","","image-keyboard-response","451","535660","0.0-6.0-0.77","","img/blue.png","null","trial","null","true","0,1","4:nogo_d","",""
"null","","html-keyboard-response","452","536663","0.0-6.0-1.77","","<img src=""img/blue-r.png"">","null","trial","null","","0,1","4:nogo_d","1",""
"null","","html-keyboard-response","453","537668","0.0-6.0-2.77","","<div style=""font-size:60px;"">+</div>","null","","","","","","",""
"1063","","image-keyboard-response","454","538732","0.0-6.0-0.78","","img/purple.png","32","trial","32","true","0.8,0.2","1:go_a","",""
"null","","html-keyboard-response","455","539736","0.0-6.0-1.78","","<img src=""img/purple-r.png"" border=""10"">","null","trial","32","","0.8,0.2","1:go_a","1",""
"null","","html-keyboard-response","456","540738","0.0-6.0-2.78","","<div style=""font-size:60px;"">+</div>","null","","","","","","",""
"null","","image-keyboard-response","457","542242","0.0-6.0-0.79","","img/yellow.png","null","trial","null","true","0.2,0.8","2:nogo_b","",""
"null","","html-keyboard-response","458","543245","0.0-6.0-1.79","","<img src=""img/yellow-r.png"">","null","trial","null","","0.2,0.8","2:nogo_b","1",""
"null","","html-keyboard-response","459","544253","0.0-6.0-2.79","","<div style=""font-size:60px;"">+</div>","null","","","","","","",""
"454.30000000447035","","image-keyboard-response","460","544709","0.0-6.0-0.80","","img/yellow.png","32","trial","null","false","0.2,0.8","2:nogo_b","",""
"null","","html-keyboard-response","461","545712","0.0-6.0-1.80","","<img src=""img/yellow-n.png"" border=""10"">","null","trial","null","","0.2,0.8","2:nogo_b","0",""
"null","","html-keyboard-response","462","546713","0.0-6.0-2.80","","<div style=""font-size:60px;"">+</div>","null","","","","","","",""
"555.5","","image-keyboard-response","463","547271","0.0-6.0-0.81","","img/blue.png","32","trial","null","false","0,1","4:nogo_d","",""
"null","","html-keyboard-response","464","548274","0.0-6.0-1.81","","<img src=""img/blue-n.png"" border=""10"">","null","trial","null","","0,1","4:nogo_d","0",""
"null","","html-keyboard-response","465","549276","0.0-6.0-2.81","","<div style=""font-size:60px;"">+</div>","null","","","","","","",""
"1039","","image-keyboard-response","466","550316","0.0-6.0-0.82","","img/green.png","32","trial","32","true","1,0","3:go_c","",""
"null","","html-keyboard-response","467","551319","0.0-6.0-1.82","","<img src=""img/green-r.png"" border=""10"">","null","trial","32","","1,0","3:go_c","1",""
"null","","html-keyboard-response","468","552321","0.0-6.0-2.82","","<div style=""font-size:60px;"">+</div>","null","","","","","","",""
"null","","image-keyboard-response","469","553822","0.0-6.0-0.83","","img/purple.png","null","trial","32","false","0.8,0.2","1:go_a","",""
"null","","html-keyboard-response","470","554825","0.0-6.0-1.83","","<img src=""img/purple-r.png"">","null","trial","32","","0.8,0.2","1:go_a","1",""
"null","","html-keyboard-response","471","555827","0.0-6.0-2.83","","<div style=""font-size:60px;"">+</div>","null","","","","","","",""
"689.2999999970198","","image-keyboard-response","472","556517","0.0-6.0-0.84","","img/blue.png","32","trial","null","false","0,1","4:nogo_d","",""
"null","","html-keyboard-response","473","557519","0.0-6.0-1.84","","<img src=""img/blue-n.png"" border=""10"">","null","trial","null","","0,1","4:nogo_d","0",""
"null","","html-keyboard-response","474","558523","0.0-6.0-2.84","","<div style=""font-size:60px;"">+</div>","null","","","","","","",""
"null","","image-keyboard-response","475","560027","0.0-6.0-0.85","","img/purple.png","null","trial","32","false","0.8,0.2","1:go_a","",""
"null","","html-keyboard-response","476","561029","0.0-6.0-1.85","","<img src=""img/purple-n.png"">","null","trial","32","","0.8,0.2","1:go_a","0",""
"null","","html-keyboard-response","477","562032","0.0-6.0-2.85","","<div style=""font-size:60px;"">+</div>","null","","","","","","",""
"1132.1999999955297","","image-keyboard-response","478","563166","0.0-6.0-0.86","","img/green.png","32","trial","32","true","1,0","3:go_c","",""
"null","","html-keyboard-response","479","564168","0.0-6.0-1.86","","<img src=""img/green-r.png"" border=""10"">","null","trial","32","","1,0","3:go_c","1",""
"null","","html-keyboard-response","480","565170","0.0-6.0-2.86","","<div style=""font-size:60px;"">+</div>","null","","","","","","",""
"737.1999999955297","","image-keyboard-response","481","565909","0.0-6.0-0.87","","img/yellow.png","32","trial","null","false","0.2,0.8","2:nogo_b","",""
"null","","html-keyboard-response","482","566912","0.0-6.0-1.87","","<img src=""img/yellow-n.png"" border=""10"">","null","trial","null","","0.2,0.8","2:nogo_b","0",""
"null","","html-keyboard-response","483","567925","0.0-6.0-2.87","","<div style=""font-size:60px;"">+</div>","null","","","","","","",""
"null","","image-keyboard-response","484","569427","0.0-6.0-0.88","","img/purple.png","null","trial","32","false","0.8,0.2","1:go_a","",""
"null","","html-keyboard-response","485","570429","0.0-6.0-1.88","","<img src=""img/purple-n.png"">","null","trial","32","","0.8,0.2","1:go_a","0",""
"null","","html-keyboard-response","486","571431","0.0-6.0-2.88","","<div style=""font-size:60px;"">+</div>","null","","","","","","",""
"null","","image-keyboard-response","487","572934","0.0-6.0-0.89","","img/yellow.png","null","trial","null","true","0.2,0.8","2:nogo_b","",""
"null","","html-keyboard-response","488","573937","0.0-6.0-1.89","","<img src=""img/yellow-r.png"">","null","trial","null","","0.2,0.8","2:nogo_b","1",""
"null","","html-keyboard-response","489","574938","0.0-6.0-2.89","","<div style=""font-size:60px;"">+</div>","null","","","","","","",""
"null","","image-keyboard-response","490","576440","0.0-6.0-0.90","","img/green.png","null","trial","32","false","1,0","3:go_c","",""
"null","","html-keyboard-response","491","577442","0.0-6.0-1.90","","<img src=""img/green-n.png"">","null","trial","32","","1,0","3:go_c","0",""
"null","","html-keyboard-response","492","578448","0.0-6.0-2.90","","<div style=""font-size:60px;"">+</div>","null","","","","","","",""
"null","","image-keyboard-response","493","579955","0.0-6.0-0.91","","img/blue.png","null","trial","null","true","0,1","4:nogo_d","",""
"null","","html-keyboard-response","494","580958","0.0-6.0-1.91","","<img src=""img/blue-r.png"">","null","trial","null","","0,1","4:nogo_d","1",""
"null","","html-keyboard-response","495","581960","0.0-6.0-2.91","","<div style=""font-size:60px;"">+</div>","null","","","","","","",""
"null","","image-keyboard-response","496","583462","0.0-6.0-0.92","","img/purple.png","null","trial","32","false","0.8,0.2","1:go_a","",""
"null","","html-keyboard-response","497","584464","0.0-6.0-1.92","","<img src=""img/purple-n.png"">","null","trial","32","","0.8,0.2","1:go_a","0",""
"null","","html-keyboard-response","498","585467","0.0-6.0-2.92","","<div style=""font-size:60px;"">+</div>","null","","","","","","",""
"null","","image-keyboard-response","499","586979","0.0-6.0-0.93","","img/green.png","null","trial","32","false","1,0","3:go_c","",""
"null","","html-keyboard-response","500","587983","0.0-6.0-1.93","","<img src=""img/green-n.png"">","null","trial","32","","1,0","3:go_c","0",""
"null","","html-keyboard-response","501","588985","0.0-6.0-2.93","","<div style=""font-size:60px;"">+</div>","null","","","","","","",""
"475.1000000014901","","image-keyboard-response","502","589461","0.0-6.0-0.94","","img/blue.png","32","trial","null","false","0,1","4:nogo_d","",""
"null","","html-keyboard-response","503","590463","0.0-6.0-1.94","","<img src=""img/blue-n.png"" border=""10"">","null","trial","null","","0,1","4:nogo_d","0",""
"null","","html-keyboard-response","504","591464","0.0-6.0-2.94","","<div style=""font-size:60px;"">+</div>","null","","","","","","",""
"642.6000000014901","","image-keyboard-response","505","592108","0.0-6.0-0.95","","img/yellow.png","32","trial","null","false","0.2,0.8","2:nogo_b","",""
"null","","html-keyboard-response","506","593125","0.0-6.0-1.95","","<img src=""img/yellow-r.png"" border=""10"">","null","trial","null","","0.2,0.8","2:nogo_b","1",""
"null","","html-keyboard-response","507","594127","0.0-6.0-2.95","","<div style=""font-size:60px;"">+</div>","null","","","","","","",""
"null","","image-keyboard-response","508","595629","0.0-6.0-0.96","","img/blue.png","null","trial","null","true","0,1","4:nogo_d","",""
"null","","html-keyboard-response","509","596631","0.0-6.0-1.96","","<img src=""img/blue-r.png"">","null","trial","null","","0,1","4:nogo_d","1",""
"null","","html-keyboard-response","510","597633","0.0-6.0-2.96","","<div style=""font-size:60px;"">+</div>","null","","","","","","",""
"674.7000000029802","","image-keyboard-response","511","598309","0.0-6.0-0.97","","img/green.png","32","trial","32","true","1,0","3:go_c","",""
"null","","html-keyboard-response","512","599312","0.0-6.0-1.97","","<img src=""img/green-r.png"" border=""10"">","null","trial","32","","1,0","3:go_c","1",""
"null","","html-keyboard-response","513","600318","0.0-6.0-2.97","","<div style=""font-size:60px;"">+</div>","null","","","","","","",""
"879.8999999985099","","image-keyboard-response","514","601200","0.0-6.0-0.98","","img/purple.png","32","trial","32","true","0.8,0.2","1:go_a","",""
"null","","html-keyboard-response","515","602208","0.0-6.0-1.98","","<img src=""img/purple-r.png"" border=""10"">","null","trial","32","","0.8,0.2","1:go_a","1",""
"null","","html-keyboard-response","516","603211","0.0-6.0-2.98","","<div style=""font-size:60px;"">+</div>","null","","","","","","",""
"null","","image-keyboard-response","517","604713","0.0-6.0-0.99","","img/yellow.png","null","trial","null","true","0.2,0.8","2:nogo_b","",""
"null","","html-keyboard-response","518","605716","0.0-6.0-1.99","","<img src=""img/yellow-r.png"">","null","trial","null","","0.2,0.8","2:nogo_b","1",""
"null","","html-keyboard-response","519","606717","0.0-6.0-2.99","","<div style=""font-size:60px;"">+</div>","null","","","","","","",""
"774.6000000014901","","image-keyboard-response","520","607493","0.0-6.0-0.100","","img/purple.png","32","trial","32","true","0.8,0.2","1:go_a","",""
"null","","html-keyboard-response","521","608496","0.0-6.0-1.100","","<img src=""img/purple-r.png"" border=""10"">","null","trial","32","","0.8,0.2","1:go_a","1",""
"null","","html-keyboard-response","522","609501","0.0-6.0-2.100","","<div style=""font-size:60px;"">+</div>","null","","","","","","",""
"null","","image-keyboard-response","523","611004","0.0-6.0-0.101","","img/green.png","null","trial","32","false","1,0","3:go_c","",""
"null","","html-keyboard-response","524","612007","0.0-6.0-1.101","","<img src=""img/green-n.png"">","null","trial","32","","1,0","3:go_c","0",""
"null","","html-keyboard-response","525","613016","0.0-6.0-2.101","","<div style=""font-size:60px;"">+</div>","null","","","","","","",""
"787.7000000029802","","image-keyboard-response","526","613805","0.0-6.0-0.102","","img/blue.png","32","trial","null","false","0,1","4:nogo_d","",""
"null","","html-keyboard-response","527","614807","0.0-6.0-1.102","","<img src=""img/blue-n.png"" border=""10"">","null","trial","null","","0,1","4:nogo_d","0",""
"null","","html-keyboard-response","528","615808","0.0-6.0-2.102","","<div style=""font-size:60px;"">+</div>","null","","","","","","",""
"987","","image-keyboard-response","529","616797","0.0-6.0-0.103","","img/yellow.png","32","trial","null","false","0.2,0.8","2:nogo_b","",""
"null","","html-keyboard-response","530","617800","0.0-6.0-1.103","","<img src=""img/yellow-n.png"" border=""10"">","null","trial","null","","0.2,0.8","2:nogo_b","0",""
"null","","html-keyboard-response","531","618803","0.0-6.0-2.103","","<div style=""font-size:60px;"">+</div>","null","","","","","","",""
"904.1000000014901","","image-keyboard-response","532","619709","0.0-6.0-0.104","","img/green.png","32","trial","32","true","1,0","3:go_c","",""
"null","","html-keyboard-response","533","620711","0.0-6.0-1.104","","<img src=""img/green-r.png"" border=""10"">","null","trial","32","","1,0","3:go_c","1",""
"null","","html-keyboard-response","534","621713","0.0-6.0-2.104","","<div style=""font-size:60px;"">+</div>","null","","","","","","",""
"null","","image-keyboard-response","535","623217","0.0-6.0-0.105","","img/purple.png","null","trial","32","false","0.8,0.2","1:go_a","",""
"null","","html-keyboard-response","536","624223","0.0-6.0-1.105","","<img src=""img/purple-n.png"">","null","trial","32","","0.8,0.2","1:go_a","0",""
"null","","html-keyboard-response","537","625227","0.0-6.0-2.105","","<div style=""font-size:60px;"">+</div>","null","","","","","","",""
"null","","image-keyboard-response","538","626729","0.0-6.0-0.106","","img/blue.png","null","trial","null","true","0,1","4:nogo_d","",""
"null","","html-keyboard-response","539","627731","0.0-6.0-1.106","","<img src=""img/blue-r.png"">","null","trial","null","","0,1","4:nogo_d","1",""
"null","","html-keyboard-response","540","628733","0.0-6.0-2.106","","<div style=""font-size:60px;"">+</div>","null","","","","","","",""
"582.6000000014901","","image-keyboard-response","541","629317","0.0-6.0-0.107","","img/yellow.png","32","trial","null","false","0.2,0.8","2:nogo_b","",""
"null","","html-keyboard-response","542","630319","0.0-6.0-1.107","","<img src=""img/yellow-n.png"" border=""10"">","null","trial","null","","0.2,0.8","2:nogo_b","0",""
"null","","html-keyboard-response","543","631321","0.0-6.0-2.107","","<div style=""font-size:60px;"">+</div>","null","","","","","","",""
"1483.7999999970198","","image-keyboard-response","544","632811","0.0-6.0-0.108","","img/purple.png","32","trial","32","true","0.8,0.2","1:go_a","",""
"null","","html-keyboard-response","545","633814","0.0-6.0-1.108","","<img src=""img/purple-r.png"" border=""10"">","null","trial","32","","0.8,0.2","1:go_a","1",""
"null","","html-keyboard-response","546","634817","0.0-6.0-2.108","","<div style=""font-size:60px;"">+</div>","null","","","","","","",""
"null","","image-keyboard-response","547","636320","0.0-6.0-0.109","","img/blue.png","null","trial","null","true","0,1","4:nogo_d","",""
"null","","html-keyboard-response","548","637343","0.0-6.0-1.109","","<img src=""img/blue-r.png"">","null","trial","null","","0,1","4:nogo_d","1",""
"null","","html-keyboard-response","549","638345","0.0-6.0-2.109","","<div style=""font-size:60px;"">+</div>","null","","","","","","",""
"null","","image-keyboard-response","550","639847","0.0-6.0-0.110","","img/yellow.png","null","trial","null","true","0.2,0.8","2:nogo_b","",""
"null","","html-keyboard-response","551","640850","0.0-6.0-1.110","","<img src=""img/yellow-r.png"">","null","trial","null","","0.2,0.8","2:nogo_b","1",""
"null","","html-keyboard-response","552","641861","0.0-6.0-2.110","","<div style=""font-size:60px;"">+</div>","null","","","","","","",""
"null","","image-keyboard-response","553","643386","0.0-6.0-0.111","","img/green.png","null","trial","32","false","1,0","3:go_c","",""
"null","","html-keyboard-response","554","644409","0.0-6.0-1.111","","<img src=""img/green-n.png"">","null","trial","32","","1,0","3:go_c","0",""
"null","","html-keyboard-response","555","645411","0.0-6.0-2.111","","<div style=""font-size:60px;"">+</div>","null","","","","","","",""
"1256.1999999955297","","image-keyboard-response","556","646669","0.0-6.0-0.112","","img/yellow.png","32","trial","null","false","0.2,0.8","2:nogo_b","",""
"null","","html-keyboard-response","557","647683","0.0-6.0-1.112","","<img src=""img/yellow-n.png"" border=""10"">","null","trial","null","","0.2,0.8","2:nogo_b","0",""
"null","","html-keyboard-response","558","648685","0.0-6.0-2.112","","<div style=""font-size:60px;"">+</div>","null","","","","","","",""
"767.0999999940395","","image-keyboard-response","559","649453","0.0-6.0-0.113","","img/purple.png","32","trial","32","true","0.8,0.2","1:go_a","",""
"null","","html-keyboard-response","560","650456","0.0-6.0-1.113","","<img src=""img/purple-r.png"" border=""10"">","null","trial","32","","0.8,0.2","1:go_a","1",""
"null","","html-keyboard-response","561","651457","0.0-6.0-2.113","","<div style=""font-size:60px;"">+</div>","null","","","","","","",""
"762.6999999955297","","image-keyboard-response","562","652221","0.0-6.0-0.114","","img/blue.png","32","trial","null","false","0,1","4:nogo_d","",""
"null","","html-keyboard-response","563","653225","0.0-6.0-1.114","","<img src=""img/blue-n.png"" border=""10"">","null","trial","null","","0,1","4:nogo_d","0",""
"null","","html-keyboard-response","564","654227","0.0-6.0-2.114","","<div style=""font-size:60px;"">+</div>","null","","","","","","",""
"1304.5","","image-keyboard-response","565","655533","0.0-6.0-0.115","","img/green.png","32","trial","32","true","1,0","3:go_c","",""
"null","","html-keyboard-response","566","656536","0.0-6.0-1.115","","<img src=""img/green-r.png"" border=""10"">","null","trial","32","","1,0","3:go_c","1",""
"null","","html-keyboard-response","567","657542","0.0-6.0-2.115","","<div style=""font-size:60px;"">+</div>","null","","","","","","",""
"null","","image-keyboard-response","568","659045","0.0-6.0-0.116","","img/blue.png","null","trial","null","true","0,1","4:nogo_d","",""
"null","","html-keyboard-response","569","660048","0.0-6.0-1.116","","<img src=""img/blue-r.png"">","null","trial","null","","0,1","4:nogo_d","1",""
"null","","html-keyboard-response","570","661049","0.0-6.0-2.116","","<div style=""font-size:60px;"">+</div>","null","","","","","","",""
"714.7000000029802","","image-keyboard-response","571","661766","0.0-6.0-0.117","","img/purple.png","32","trial","32","true","0.8,0.2","1:go_a","",""
"null","","html-keyboard-response","572","662768","0.0-6.0-1.117","","<img src=""img/purple-r.png"" border=""10"">","null","trial","32","","0.8,0.2","1:go_a","1",""
"null","","html-keyboard-response","573","663770","0.0-6.0-2.117","","<div style=""font-size:60px;"">+</div>","null","","","","","","",""
"1153.3999999985099","","image-keyboard-response","574","664925","0.0-6.0-0.118","","img/yellow.png","32","trial","null","false","0.2,0.8","2:nogo_b","",""
"null","","html-keyboard-response","575","665927","0.0-6.0-1.118","","<img src=""img/yellow-n.png"" border=""10"">","null","trial","null","","0.2,0.8","2:nogo_b","0",""
"null","","html-keyboard-response","576","666929","0.0-6.0-2.118","","<div style=""font-size:60px;"">+</div>","null","","","","","","",""
"826.2999999970198","","image-keyboard-response","577","667757","0.0-6.0-0.119","","img/green.png","32","trial","32","true","1,0","3:go_c","",""
"null","","html-keyboard-response","578","668759","0.0-6.0-1.119","","<img src=""img/green-r.png"" border=""10"">","null","trial","32","","1,0","3:go_c","1",""
"null","","html-keyboard-response","579","669762","0.0-6.0-2.119","","<div style=""font-size:60px;"">+</div>","null","","","","","","",""
"5340.10000000149","","instructions","580","675102","0.0-7.0","[{""page_index"":0,""viewing_time"":5339.60000000149}]","","","","","","","","",""
"1140.7999999970198","","image-keyboard-response","581","676245","0.0-8.0-0.0","","img/pink.png","32","trial","32","true","0.8,0.2","1:go_a","",""
"null","","html-keyboard-response","582","677247","0.0-8.0-1.0","","<img src=""img/pink-n.png"" border=""10"">","null","trial","32","","0.8,0.2","1:go_a","0",""
"null","","html-keyboard-response","583","678250","0.0-8.0-2.0","","<div style=""font-size:60px;"">+</div>","null","","","","","","",""
"1315","","image-keyboard-response","584","679566","0.0-8.0-0.1","","img/purple.png","32","trial","32","true","0.8,0.2","3:go_c","",""
"null","","html-keyboard-response","585","680569","0.0-8.0-1.1","","<img src=""img/purple-r.png"" border=""10"">","null","trial","32","","0.8,0.2","3:go_c","1",""
"null","","html-keyboard-response","586","681571","0.0-8.0-2.1","","<div style=""font-size:60px;"">+</div>","null","","","","","","",""
"null","","image-keyboard-response","587","683073","0.0-8.0-0.2","","img/blue.png","null","trial","null","true","0.2,0.8","2:nogo_b","",""
"null","","html-keyboard-response","588","684075","0.0-8.0-1.2","","<img src=""img/blue-r.png"">","null","trial","null","","0.2,0.8","2:nogo_b","1",""
"null","","html-keyboard-response","589","685077","0.0-8.0-2.2","","<div style=""font-size:60px;"">+</div>","null","","","","","","",""
"496.40000000596046","","image-keyboard-response","590","685575","0.0-8.0-0.3","","img/grey.png","32","trial","null","false","0.2,0.8","4:nogo_d","",""
"null","","html-keyboard-response","591","686579","0.0-8.0-1.3","","<img src=""img/grey-n.png"" border=""10"">","null","trial","null","","0.2,0.8","4:nogo_d","0",""
"null","","html-keyboard-response","592","687580","0.0-8.0-2.3","","<div style=""font-size:60px;"">+</div>","null","","","","","","",""
"null","","image-keyboard-response","593","689081","0.0-8.0-0.4","","img/grey.png","null","trial","null","true","0.2,0.8","4:nogo_d","",""
"null","","html-keyboard-response","594","690084","0.0-8.0-1.4","","<img src=""img/grey-r.png"">","null","trial","null","","0.2,0.8","4:nogo_d","1",""
"null","","html-keyboard-response","595","691085","0.0-8.0-2.4","","<div style=""font-size:60px;"">+</div>","null","","","","","","",""
"806.2000000029802","","image-keyboard-response","596","691893","0.0-8.0-0.5","","img/purple.png","32","trial","32","true","0.8,0.2","3:go_c","",""
"null","","html-keyboard-response","597","692896","0.0-8.0-1.5","","<img src=""img/purple-r.png"" border=""10"">","null","trial","32","","0.8,0.2","3:go_c","1",""
"null","","html-keyboard-response","598","693898","0.0-8.0-2.5","","<div style=""font-size:60px;"">+</div>","null","","","","","","",""
"1433.8000000044703","","image-keyboard-response","599","695333","0.0-8.0-0.6","","img/pink.png","32","trial","32","true","0.8,0.2","1:go_a","",""
"null","","html-keyboard-response","600","696335","0.0-8.0-1.6","","<img src=""img/pink-r.png"" border=""10"">","null","trial","32","","0.8,0.2","1:go_a","1",""
"null","","html-keyboard-response","601","697336","0.0-8.0-2.6","","<div style=""font-size:60px;"">+</div>","null","","","","","","",""
"null","","image-keyboard-response","602","698841","0.0-8.0-0.7","","img/blue.png","null","trial","null","true","0.2,0.8","2:nogo_b","",""
"null","","html-keyboard-response","603","699846","0.0-8.0-1.7","","<img src=""img/blue-r.png"">","null","trial","null","","0.2,0.8","2:nogo_b","1",""
"null","","html-keyboard-response","604","700847","0.0-8.0-2.7","","<div style=""font-size:60px;"">+</div>","null","","","","","","",""
"404.90000000596046","","image-keyboard-response","605","701254","0.0-8.0-0.8","","img/purple.png","32","trial","32","true","0.8,0.2","3:go_c","",""
"null","","html-keyboard-response","606","702256","0.0-8.0-1.8","","<img src=""img/purple-r.png"" border=""10"">","null","trial","32","","0.8,0.2","3:go_c","1",""
"null","","html-keyboard-response","607","703258","0.0-8.0-2.8","","<div style=""font-size:60px;"">+</div>","null","","","","","","",""
"1193","","image-keyboard-response","608","704453","0.0-8.0-0.9","","img/grey.png","32","trial","null","false","0.2,0.8","4:nogo_d","",""
"null","","html-keyboard-response","609","705456","0.0-8.0-1.9","","<img src=""img/grey-r.png"" border=""10"">","null","trial","null","","0.2,0.8","4:nogo_d","1",""
"null","","html-keyboard-response","610","706459","0.0-8.0-2.9","","<div style=""font-size:60px;"">+</div>","null","","","","","","",""
"null","","image-keyboard-response","611","707973","0.0-8.0-0.10","","img/pink.png","null","trial","32","false","0.8,0.2","1:go_a","",""
"null","","html-keyboard-response","612","708978","0.0-8.0-1.10","","<img src=""img/pink-n.png"">","null","trial","32","","0.8,0.2","1:go_a","0",""
"null","","html-keyboard-response","613","709980","0.0-8.0-2.10","","<div style=""font-size:60px;"">+</div>","null","","","","","","",""
"376.20000000298023","","image-keyboard-response","614","710357","0.0-8.0-0.11","","img/blue.png","32","trial","null","false","0.2,0.8","2:nogo_b","",""
"null","","html-keyboard-response","615","711359","0.0-8.0-1.11","","<img src=""img/blue-n.png"" border=""10"">","null","trial","null","","0.2,0.8","2:nogo_b","0",""
"null","","html-keyboard-response","616","712361","0.0-8.0-2.11","","<div style=""font-size:60px;"">+</div>","null","","","","","","",""
"null","","image-keyboard-response","617","713863","0.0-8.0-0.12","","img/grey.png","null","trial","null","true","0.2,0.8","4:nogo_d","",""
"null","","html-keyboard-response","618","714865","0.0-8.0-1.12","","<img src=""img/grey-n.png"">","null","trial","null","","0.2,0.8","4:nogo_d","0",""
"null","","html-keyboard-response","619","715868","0.0-8.0-2.12","","<div style=""font-size:60px;"">+</div>","null","","","","","","",""
"311.70000000298023","","image-keyboard-response","620","716181","0.0-8.0-0.13","","img/pink.png","32","trial","32","true","0.8,0.2","1:go_a","",""
"null","","html-keyboard-response","621","717183","0.0-8.0-1.13","","<img src=""img/pink-r.png"" border=""10"">","null","trial","32","","0.8,0.2","1:go_a","1",""
"null","","html-keyboard-response","622","718185","0.0-8.0-2.13","","<div style=""font-size:60px;"">+</div>","null","","","","","","",""
"594.6999999955297","","image-keyboard-response","623","718781","0.0-8.0-0.14","","img/purple.png","32","trial","32","true","0.8,0.2","3:go_c","",""
"null","","html-keyboard-response","624","719784","0.0-8.0-1.14","","<img src=""img/purple-r.png"" border=""10"">","null","trial","32","","0.8,0.2","3:go_c","1",""
"null","","html-keyboard-response","625","720786","0.0-8.0-2.14","","<div style=""font-size:60px;"">+</div>","null","","","","","","",""
"null","","image-keyboard-response","626","722287","0.0-8.0-0.15","","img/blue.png","null","trial","null","true","0.2,0.8","2:nogo_b","",""
"null","","html-keyboard-response","627","723289","0.0-8.0-1.15","","<img src=""img/blue-n.png"">","null","trial","null","","0.2,0.8","2:nogo_b","0",""
"null","","html-keyboard-response","628","724291","0.0-8.0-2.15","","<div style=""font-size:60px;"">+</div>","null","","","","","","",""
"575.8999999985099","","image-keyboard-response","629","724869","0.0-8.0-0.16","","img/pink.png","32","trial","32","true","0.8,0.2","1:go_a","",""
"null","","html-keyboard-response","630","725871","0.0-8.0-1.16","","<img src=""img/pink-r.png"" border=""10"">","null","trial","32","","0.8,0.2","1:go_a","1",""
"null","","html-keyboard-response","631","726872","0.0-8.0-2.16","","<div style=""font-size:60px;"">+</div>","null","","","","","","",""
"null","","image-keyboard-response","632","728375","0.0-8.0-0.17","","img/purple.png","null","trial","32","false","0.8,0.2","3:go_c","",""
"null","","html-keyboard-response","633","729379","0.0-8.0-1.17","","<img src=""img/purple-n.png"">","null","trial","32","","0.8,0.2","3:go_c","0",""
"null","","html-keyboard-response","634","730382","0.0-8.0-2.17","","<div style=""font-size:60px;"">+</div>","null","","","","","","",""
"805.6000000014901","","image-keyboard-response","635","731189","0.0-8.0-0.18","","img/blue.png","32","trial","null","false","0.2,0.8","2:nogo_b","",""
"null","","html-keyboard-response","636","732192","0.0-8.0-1.18","","<img src=""img/blue-n.png"" border=""10"">","null","trial","null","","0.2,0.8","2:nogo_b","0",""
"null","","html-keyboard-response","637","733195","0.0-8.0-2.18","","<div style=""font-size:60px;"">+</div>","null","","","","","","",""
"null","","image-keyboard-response","638","734698","0.0-8.0-0.19","","img/grey.png","null","trial","null","true","0.2,0.8","4:nogo_d","",""
"null","","html-keyboard-response","639","735700","0.0-8.0-1.19","","<img src=""img/grey-r.png"">","null","trial","null","","0.2,0.8","4:nogo_d","1",""
"null","","html-keyboard-response","640","736703","0.0-8.0-2.19","","<div style=""font-size:60px;"">+</div>","null","","","","","","",""
"924.3999999985099","","image-keyboard-response","641","737628","0.0-8.0-0.20","","img/blue.png","32","trial","null","false","0.2,0.8","2:nogo_b","",""
"null","","html-keyboard-response","642","738631","0.0-8.0-1.20","","<img src=""img/blue-r.png"" border=""10"">","null","trial","null","","0.2,0.8","2:nogo_b","1",""
"null","","html-keyboard-response","643","739633","0.0-8.0-2.20","","<div style=""font-size:60px;"">+</div>","null","","","","","","",""
"null","","image-keyboard-response","644","741135","0.0-8.0-0.21","","img/purple.png","null","trial","32","false","0.8,0.2","3:go_c","",""
"null","","html-keyboard-response","645","742139","0.0-8.0-1.21","","<img src=""img/purple-n.png"">","null","trial","32","","0.8,0.2","3:go_c","0",""
"null","","html-keyboard-response","646","743140","0.0-8.0-2.21","","<div style=""font-size:60px;"">+</div>","null","","","","","","",""
"439.40000000596046","","image-keyboard-response","647","743581","0.0-8.0-0.22","","img/grey.png","32","trial","null","false","0.2,0.8","4:nogo_d","",""
"null","","html-keyboard-response","648","744595","0.0-8.0-1.22","","<img src=""img/grey-n.png"" border=""10"">","null","trial","null","","0.2,0.8","4:nogo_d","0",""
"null","","html-keyboard-response","649","745597","0.0-8.0-2.22","","<div style=""font-size:60px;"">+</div>","null","","","","","","",""
"null","","image-keyboard-response","650","747100","0.0-8.0-0.23","","img/pink.png","null","trial","32","false","0.8,0.2","1:go_a","",""
"null","","html-keyboard-response","651","748105","0.0-8.0-1.23","","<img src=""img/pink-r.png"">","null","trial","32","","0.8,0.2","1:go_a","1",""
"null","","html-keyboard-response","652","749108","0.0-8.0-2.23","","<div style=""font-size:60px;"">+</div>","null","","","","","","",""
"null","","image-keyboard-response","653","750614","0.0-8.0-0.24","","img/grey.png","null","trial","null","true","0.2,0.8","4:nogo_d","",""
"null","","html-keyboard-response","654","751617","0.0-8.0-1.24","","<img src=""img/grey-r.png"">","null","trial","null","","0.2,0.8","4:nogo_d","1",""
"null","","html-keyboard-response","655","752620","0.0-8.0-2.24","","<div style=""font-size:60px;"">+</div>","null","","","","","","",""
"694.6999999955297","","image-keyboard-response","656","753316","0.0-8.0-0.25","","img/pink.png","32","trial","32","true","0.8,0.2","1:go_a","",""
"null","","html-keyboard-response","657","754318","0.0-8.0-1.25","","<img src=""img/pink-r.png"" border=""10"">","null","trial","32","","0.8,0.2","1:go_a","1",""
"null","","html-keyboard-response","658","755344","0.0-8.0-2.25","","<div style=""font-size:60px;"">+</div>","null","","","","","","",""
"null","","image-keyboard-response","659","756845","0.0-8.0-0.26","","img/blue.png","null","trial","null","true","0.2,0.8","2:nogo_b","",""
"null","","html-keyboard-response","660","757847","0.0-8.0-1.26","","<img src=""img/blue-r.png"">","null","trial","null","","0.2,0.8","2:nogo_b","1",""
"null","","html-keyboard-response","661","758850","0.0-8.0-2.26","","<div style=""font-size:60px;"">+</div>","null","","","","","","",""
"null","","image-keyboard-response","662","760352","0.0-8.0-0.27","","img/purple.png","null","trial","32","false","0.8,0.2","3:go_c","",""
"null","","html-keyboard-response","663","761354","0.0-8.0-1.27","","<img src=""img/purple-n.png"">","null","trial","32","","0.8,0.2","3:go_c","0",""
"null","","html-keyboard-response","664","762356","0.0-8.0-2.27","","<div style=""font-size:60px;"">+</div>","null","","","","","","",""
"685.2000000029802","","image-keyboard-response","665","763044","0.0-8.0-0.28","","img/pink.png","32","trial","32","true","0.8,0.2","1:go_a","",""
"null","","html-keyboard-response","666","764047","0.0-8.0-1.28","","<img src=""img/pink-r.png"" border=""10"">","null","trial","32","","0.8,0.2","1:go_a","1",""
"null","","html-keyboard-response","667","765054","0.0-8.0-2.28","","<div style=""font-size:60px;"">+</div>","null","","","","","","",""
"829.6000000014901","","image-keyboard-response","668","765884","0.0-8.0-0.29","","img/purple.png","32","trial","32","true","0.8,0.2","3:go_c","",""
"null","","html-keyboard-response","669","766887","0.0-8.0-1.29","","<img src=""img/purple-r.png"" border=""10"">","null","trial","32","","0.8,0.2","3:go_c","1",""
"null","","html-keyboard-response","670","767889","0.0-8.0-2.29","","<div style=""font-size:60px;"">+</div>","null","","","","","","",""
"null","","image-keyboard-response","671","769391","0.0-8.0-0.30","","img/grey.png","null","trial","null","true","0.2,0.8","4:nogo_d","",""
"null","","html-keyboard-response","672","770393","0.0-8.0-1.30","","<img src=""img/grey-r.png"">","null","trial","null","","0.2,0.8","4:nogo_d","1",""
"null","","html-keyboard-response","673","771395","0.0-8.0-2.30","","<div style=""font-size:60px;"">+</div>","null","","","","","","",""
"null","","image-keyboard-response","674","772897","0.0-8.0-0.31","","img/blue.png","null","trial","null","true","0.2,0.8","2:nogo_b","",""
"null","","html-keyboard-response","675","773899","0.0-8.0-1.31","","<img src=""img/blue-n.png"">","null","trial","null","","0.2,0.8","2:nogo_b","0",""
"null","","html-keyboard-response","676","774904","0.0-8.0-2.31","","<div style=""font-size:60px;"">+</div>","null","","","","","","",""
"396.3999999985099","","image-keyboard-response","677","775301","0.0-8.0-0.32","","img/purple.png","32","trial","32","true","0.8,0.2","3:go_c","",""
"null","","html-keyboard-response","678","776316","0.0-8.0-1.32","","<img src=""img/purple-r.png"" border=""10"">","null","trial","32","","0.8,0.2","3:go_c","1",""
"null","","html-keyboard-response","679","777318","0.0-8.0-2.32","","<div style=""font-size:60px;"">+</div>","null","","","","","","",""
"null","","image-keyboard-response","680","778824","0.0-8.0-0.33","","img/pink.png","null","trial","32","false","0.8,0.2","1:go_a","",""
"null","","html-keyboard-response","681","779825","0.0-8.0-1.33","","<img src=""img/pink-n.png"">","null","trial","32","","0.8,0.2","1:go_a","0",""
"null","","html-keyboard-response","682","780827","0.0-8.0-2.33","","<div style=""font-size:60px;"">+</div>","null","","","","","","",""
