"rt","url","trial_type","trial_index","time_elapsed","internal_node_id","view_history","stimulus","key_press","test_part","correct_response","correct","use_rew","which_stim","reward","responses"
"17262.135000084527","consent.html","external-html","0","17327","0.0-0.0","","","","","","","","","",""
"85316.9400000479","","instructions","1","102645","0.0-1.0","[{""page_index"":0,""viewing_time"":2672.3650000058115},{""page_index"":1,""viewing_time"":20813.844999996945},{""page_index"":2,""viewing_time"":4814.075000002049},{""page_index"":3,""viewing_time"":24519.075000076555},{""page_index"":4,""viewing_time"":13256.079999962822},{""page_index"":5,""viewing_time"":7835.115000023507},{""page_index"":6,""viewing_time"":11405.685000005178}]","","","","","","","","",""
"null","","image-keyboard-response","2","104158","0.0-2.0-0.0","","img/test2.PNG","null","practice","null","true","","","",""
"null","","html-keyboard-response","3","105168","0.0-2.0-1.0","","<img src=""img/test2-reward.PNG"">","null","","","","","","",""
"null","","html-keyboard-response","4","106179","0.0-2.0-2.0","","<div style=""font-size:60px;"">+</div>","null","","","","","","",""
"439.63999999687076","","image-keyboard-response","5","106620","0.0-2.0-0.1","","img/test1.PNG","32","practice","32","true","","","",""
"null","","html-keyboard-response","6","107625","0.0-2.0-1.1","","<img src=""img/test1-reward.PNG"" border=""10px; grey"">","null","","","","","","",""
"null","","html-keyboard-response","7","108631","0.0-2.0-2.1","","<div style=""font-size:60px;"">+</div>","null","","","","","","",""
"null","","image-keyboard-response","8","110147","0.0-2.0-0.2","","img/test3.PNG","null","practice","null","true","","","",""
"null","","html-keyboard-response","9","111148","0.0-2.0-1.2","","<img src=""img/test3-reward.PNG"">","null","","","","","","",""
"null","","html-keyboard-response","10","112150","0.0-2.0-2.2","","<div style=""font-size:60px;"">+</div>","null","","","","","","",""
"null","","image-keyboard-response","11","113660","0.0-2.0-0.3","","img/test2.PNG","null","practice","null","true","","","",""
"null","","html-keyboard-response","12","114664","0.0-2.0-1.3","","<img src=""img/test2-reward.PNG"">","null","","","","","","",""
"null","","html-keyboard-response","13","115687","0.0-2.0-2.3","","<div style=""font-size:60px;"">+</div>","null","","","","","","",""
"313.2100000511855","","image-keyboard-response","14","116002","0.0-2.0-0.4","","img/test1.PNG","32","practice","32","true","","","",""
"null","","html-keyboard-response","15","117004","0.0-2.0-1.4","","<img src=""img/test1-reward.PNG"" border=""10px; grey"">","null","","","","","","",""
"null","","html-keyboard-response","16","118020","0.0-2.0-2.4","","<div style=""font-size:60px;"">+</div>","null","","","","","","",""
"null","","image-keyboard-response","17","119522","0.0-2.0-0.5","","img/test3.PNG","null","practice","null","true","","","",""
"null","","html-keyboard-response","18","120533","0.0-2.0-1.5","","<img src=""img/test3-reward.PNG"">","null","","","","","","",""
"null","","html-keyboard-response","19","121547","0.0-2.0-2.5","","<div style=""font-size:60px;"">+</div>","null","","","","","","",""
"346.4200000744313","","image-keyboard-response","20","121895","0.0-2.0-0.6","","img/test1.PNG","32","practice","32","true","","","",""
"null","","html-keyboard-response","21","122902","0.0-2.0-1.6","","<img src=""img/test1-reward.PNG"" border=""10px; grey"">","null","","","","","","",""
"null","","html-keyboard-response","22","123917","0.0-2.0-2.6","","<div style=""font-size:60px;"">+</div>","null","","","","","","",""
"null","","image-keyboard-response","23","125432","0.0-2.0-0.7","","img/test2.PNG","null","practice","null","true","","","",""
"null","","html-keyboard-response","24","126433","0.0-2.0-1.7","","<img src=""img/test2-reward.PNG"">","null","","","","","","",""
"null","","html-keyboard-response","25","127449","0.0-2.0-2.7","","<div style=""font-size:60px;"">+</div>","null","","","","","","",""
"null","","image-keyboard-response","26","128958","0.0-2.0-0.8","","img/test3.PNG","null","practice","null","true","","","",""
"null","","html-keyboard-response","27","129971","0.0-2.0-1.8","","<img src=""img/test3-reward.PNG"">","null","","","","","","",""
"null","","html-keyboard-response","28","130982","0.0-2.0-2.8","","<div style=""font-size:60px;"">+</div>","null","","","","","","",""
"null","","image-keyboard-response","29","132491","0.0-2.0-0.9","","img/test2.PNG","null","practice","null","true","","","",""
"null","","html-keyboard-response","30","133505","0.0-2.0-1.9","","<img src=""img/test2-reward.PNG"">","null","","","","","","",""
"null","","html-keyboard-response","31","134517","0.0-2.0-2.9","","<div style=""font-size:60px;"">+</div>","null","","","","","","",""
"null","","image-keyboard-response","32","136033","0.0-2.0-0.10","","img/test3.PNG","null","practice","null","true","","","",""
"null","","html-keyboard-response","33","137049","0.0-2.0-1.10","","<img src=""img/test3-reward.PNG"">","null","","","","","","",""
"null","","html-keyboard-response","34","138071","0.0-2.0-2.10","","<div style=""font-size:60px;"">+</div>","null","","","","","","",""
"378.2150000333786","","image-keyboard-response","35","138451","0.0-2.0-0.11","","img/test1.PNG","32","practice","32","true","","","",""
"null","","html-keyboard-response","36","139465","0.0-2.0-1.11","","<img src=""img/test1-reward.PNG"" border=""10px; grey"">","null","","","","","","",""
"null","","html-keyboard-response","37","140480","0.0-2.0-2.11","","<div style=""font-size:60px;"">+</div>","null","","","","","","",""
"2247.094999998808","","instructions","38","142728","0.0-3.0","[{""page_index"":0,""viewing_time"":2246.934999944642}]","","","","","","","","",""
"null","","image-keyboard-response","39","144245","0.0-4.0-0.0","","img/grey.png","null","trial","null","true","0.2,0.8","2:nogo_b","",""
"null","","html-keyboard-response","40","145251","0.0-4.0-1.0","","<img src=""img/grey-r.png"">","null","trial","null","","0.2,0.8","2:nogo_b","1",""
"null","","html-keyboard-response","41","146266","0.0-4.0-2.0","","<div style=""font-size:60px;"">+</div>","null","","","","","","",""
"645.0350000523031","","image-keyboard-response","42","146913","0.0-4.0-0.1","","img/blue.png","32","trial","32","true","0.8,0.2","1:go_a","",""
"null","","html-keyboard-response","43","147920","0.0-4.0-1.1","","<img src=""img/blue-r.png"" border=""10"">","null","trial","32","","0.8,0.2","1:go_a","1",""
"null","","html-keyboard-response","44","148937","0.0-4.0-2.1","","<div style=""font-size:60px;"">+</div>","null","","","","","","",""
"460.81499999854714","","image-keyboard-response","45","149399","0.0-4.0-0.2","","img/blue.png","32","trial","32","true","0.8,0.2","1:go_a","",""
"null","","html-keyboard-response","46","150407","0.0-4.0-1.2","","<img src=""img/blue-r.png"" border=""10"">","null","trial","32","","0.8,0.2","1:go_a","1",""
"null","","html-keyboard-response","47","151420","0.0-4.0-2.2","","<div style=""font-size:60px;"">+</div>","null","","","","","","",""
"null","","image-keyboard-response","48","152933","0.0-4.0-0.3","","img/grey.png","null","trial","null","true","0.2,0.8","2:nogo_b","",""
"null","","html-keyboard-response","49","153949","0.0-4.0-1.3","","<img src=""img/grey-r.png"">","null","trial","null","","0.2,0.8","2:nogo_b","1",""
"null","","html-keyboard-response","50","154963","0.0-4.0-2.3","","<div style=""font-size:60px;"">+</div>","null","","","","","","",""
"508.1900000805035","","image-keyboard-response","51","155472","0.0-4.0-0.4","","img/blue.png","32","trial","32","true","0.8,0.2","1:go_a","",""
"null","","html-keyboard-response","52","156486","0.0-4.0-1.4","","<img src=""img/blue-r.png"" border=""10"">","null","trial","32","","0.8,0.2","1:go_a","1",""
"null","","html-keyboard-response","53","157503","0.0-4.0-2.4","","<div style=""font-size:60px;"">+</div>","null","","","","","","",""
"null","","image-keyboard-response","54","159005","0.0-4.0-0.5","","img/grey.png","null","trial","null","true","0.2,0.8","2:nogo_b","",""
"null","","html-keyboard-response","55","160021","0.0-4.0-1.5","","<img src=""img/grey-r.png"">","null","trial","null","","0.2,0.8","2:nogo_b","1",""
"null","","html-keyboard-response","56","161025","0.0-4.0-2.5","","<div style=""font-size:60px;"">+</div>","null","","","","","","",""
"null","","image-keyboard-response","57","162540","0.0-4.0-0.6","","img/grey.png","null","trial","null","true","0.2,0.8","2:nogo_b","",""
"null","","html-keyboard-response","58","163554","0.0-4.0-1.6","","<img src=""img/grey-r.png"">","null","trial","null","","0.2,0.8","2:nogo_b","1",""
"null","","html-keyboard-response","59","164561","0.0-4.0-2.6","","<div style=""font-size:60px;"">+</div>","null","","","","","","",""
"355.1399999996647","","image-keyboard-response","60","164918","0.0-4.0-0.7","","img/blue.png","32","trial","32","true","0.8,0.2","1:go_a","",""
"null","","html-keyboard-response","61","165931","0.0-4.0-1.7","","<img src=""img/blue-r.png"" border=""10"">","null","trial","32","","0.8,0.2","1:go_a","1",""
"null","","html-keyboard-response","62","166945","0.0-4.0-2.7","","<div style=""font-size:60px;"">+</div>","null","","","","","","",""
"null","","image-keyboard-response","63","168453","0.0-4.0-0.8","","img/grey.png","null","trial","null","true","0.2,0.8","2:nogo_b","",""
"null","","html-keyboard-response","64","169464","0.0-4.0-1.8","","<img src=""img/grey-n.png"">","null","trial","null","","0.2,0.8","2:nogo_b","0",""
"null","","html-keyboard-response","65","170470","0.0-4.0-2.8","","<div style=""font-size:60px;"">+</div>","null","","","","","","",""
"514.5950000733137","","image-keyboard-response","66","170985","0.0-4.0-0.9","","img/blue.png","32","trial","32","true","0.8,0.2","1:go_a","",""
"null","","html-keyboard-response","67","171999","0.0-4.0-1.9","","<img src=""img/blue-r.png"" border=""10"">","null","trial","32","","0.8,0.2","1:go_a","1",""
"null","","html-keyboard-response","68","173006","0.0-4.0-2.9","","<div style=""font-size:60px;"">+</div>","null","","","","","","",""
"486.4600000437349","","image-keyboard-response","69","173493","0.0-4.0-0.10","","img/blue.png","32","trial","32","true","0.8,0.2","1:go_a","",""
"null","","html-keyboard-response","70","174502","0.0-4.0-1.10","","<img src=""img/blue-r.png"" border=""10"">","null","trial","32","","0.8,0.2","1:go_a","1",""
"null","","html-keyboard-response","71","175513","0.0-4.0-2.10","","<div style=""font-size:60px;"">+</div>","null","","","","","","",""
"null","","image-keyboard-response","72","177025","0.0-4.0-0.11","","img/grey.png","null","trial","null","true","0.2,0.8","2:nogo_b","",""
"null","","html-keyboard-response","73","178037","0.0-4.0-1.11","","<img src=""img/grey-r.png"">","null","trial","null","","0.2,0.8","2:nogo_b","1",""
"null","","html-keyboard-response","74","179052","0.0-4.0-2.11","","<div style=""font-size:60px;"">+</div>","null","","","","","","",""
"null","","image-keyboard-response","75","180569","0.0-4.0-0.12","","img/grey.png","null","trial","null","true","0.2,0.8","2:nogo_b","",""
"null","","html-keyboard-response","76","181586","0.0-4.0-1.12","","<img src=""img/grey-r.png"">","null","trial","null","","0.2,0.8","2:nogo_b","1",""
"null","","html-keyboard-response","77","182600","0.0-4.0-2.12","","<div style=""font-size:60px;"">+</div>","null","","","","","","",""
"516.2100000306964","","image-keyboard-response","78","183118","0.0-4.0-0.13","","img/blue.png","32","trial","32","true","0.8,0.2","1:go_a","",""
"null","","html-keyboard-response","79","184128","0.0-4.0-1.13","","<img src=""img/blue-n.png"" border=""10"">","null","trial","32","","0.8,0.2","1:go_a","0",""
"null","","html-keyboard-response","80","185140","0.0-4.0-2.13","","<div style=""font-size:60px;"">+</div>","null","","","","","","",""
"397.1450000535697","","image-keyboard-response","81","185538","0.0-4.0-0.14","","img/blue.png","32","trial","32","true","0.8,0.2","1:go_a","",""
"null","","html-keyboard-response","82","186547","0.0-4.0-1.14","","<img src=""img/blue-r.png"" border=""10"">","null","trial","32","","0.8,0.2","1:go_a","1",""
"null","","html-keyboard-response","83","187550","0.0-4.0-2.14","","<div style=""font-size:60px;"">+</div>","null","","","","","","",""
"null","","image-keyboard-response","84","189064","0.0-4.0-0.15","","img/grey.png","null","trial","null","true","0.2,0.8","2:nogo_b","",""
"null","","html-keyboard-response","85","190070","0.0-4.0-1.15","","<img src=""img/grey-r.png"">","null","trial","null","","0.2,0.8","2:nogo_b","1",""
"null","","html-keyboard-response","86","191082","0.0-4.0-2.15","","<div style=""font-size:60px;"">+</div>","null","","","","","","",""
"null","","image-keyboard-response","87","192589","0.0-4.0-0.16","","img/grey.png","null","trial","null","true","0.2,0.8","2:nogo_b","",""
"null","","html-keyboard-response","88","193594","0.0-4.0-1.16","","<img src=""img/grey-r.png"">","null","trial","null","","0.2,0.8","2:nogo_b","1",""
"null","","html-keyboard-response","89","194608","0.0-4.0-2.16","","<div style=""font-size:60px;"">+</div>","null","","","","","","",""
"338.6900000041351","","image-keyboard-response","90","194948","0.0-4.0-0.17","","img/blue.png","32","trial","32","true","0.8,0.2","1:go_a","",""
"null","","html-keyboard-response","91","195964","0.0-4.0-1.17","","<img src=""img/blue-n.png"" border=""10"">","null","trial","32","","0.8,0.2","1:go_a","0",""
"null","","html-keyboard-response","92","196969","0.0-4.0-2.17","","<div style=""font-size:60px;"">+</div>","null","","","","","","",""
"565.6000000890344","","image-keyboard-response","93","197535","0.0-4.0-0.18","","img/blue.png","32","trial","32","true","0.8,0.2","1:go_a","",""
"null","","html-keyboard-response","94","198545","0.0-4.0-1.18","","<img src=""img/blue-n.png"" border=""10"">","null","trial","32","","0.8,0.2","1:go_a","0",""
"null","","html-keyboard-response","95","199558","0.0-4.0-2.18","","<div style=""font-size:60px;"">+</div>","null","","","","","","",""
"null","","image-keyboard-response","96","201072","0.0-4.0-0.19","","img/grey.png","null","trial","null","true","0.2,0.8","2:nogo_b","",""
"null","","html-keyboard-response","97","202089","0.0-4.0-1.19","","<img src=""img/grey-r.png"">","null","trial","null","","0.2,0.8","2:nogo_b","1",""
"null","","html-keyboard-response","98","203092","0.0-4.0-2.19","","<div style=""font-size:60px;"">+</div>","null","","","","","","",""
"354.1599999880418","","image-keyboard-response","99","203447","0.0-4.0-0.20","","img/blue.png","32","trial","32","true","0.8,0.2","1:go_a","",""
"null","","html-keyboard-response","100","204460","0.0-4.0-1.20","","<img src=""img/blue-r.png"" border=""10"">","null","trial","32","","0.8,0.2","1:go_a","1",""
"null","","html-keyboard-response","101","205473","0.0-4.0-2.20","","<div style=""font-size:60px;"">+</div>","null","","","","","","",""
"null","","image-keyboard-response","102","206983","0.0-4.0-0.21","","img/grey.png","null","trial","null","true","0.2,0.8","2:nogo_b","",""
"null","","html-keyboard-response","103","207994","0.0-4.0-1.21","","<img src=""img/grey-r.png"">","null","trial","null","","0.2,0.8","2:nogo_b","1",""
"null","","html-keyboard-response","104","209006","0.0-4.0-2.21","","<div style=""font-size:60px;"">+</div>","null","","","","","","",""
"null","","image-keyboard-response","105","210519","0.0-4.0-0.22","","img/grey.png","null","trial","null","true","0.2,0.8","2:nogo_b","",""
"null","","html-keyboard-response","106","211523","0.0-4.0-1.22","","<img src=""img/grey-r.png"">","null","trial","null","","0.2,0.8","2:nogo_b","1",""
"null","","html-keyboard-response","107","212529","0.0-4.0-2.22","","<div style=""font-size:60px;"">+</div>","null","","","","","","",""
"341.71999990940094","","image-keyboard-response","108","212872","0.0-4.0-0.23","","img/blue.png","32","trial","32","true","0.8,0.2","1:go_a","",""
"null","","html-keyboard-response","109","213877","0.0-4.0-1.23","","<img src=""img/blue-r.png"" border=""10"">","null","trial","32","","0.8,0.2","1:go_a","1",""
"null","","html-keyboard-response","110","214892","0.0-4.0-2.23","","<div style=""font-size:60px;"">+</div>","null","","","","","","",""
"null","","image-keyboard-response","111","216403","0.0-4.0-0.24","","img/grey.png","null","trial","null","true","0.2,0.8","2:nogo_b","",""
"null","","html-keyboard-response","112","217405","0.0-4.0-1.24","","<img src=""img/grey-n.png"">","null","trial","null","","0.2,0.8","2:nogo_b","0",""
"null","","html-keyboard-response","113","218419","0.0-4.0-2.24","","<div style=""font-size:60px;"">+</div>","null","","","","","","",""
"599.8099999269471","","image-keyboard-response","114","219020","0.0-4.0-0.25","","img/blue.png","32","trial","32","true","0.8,0.2","1:go_a","",""
"null","","html-keyboard-response","115","220026","0.0-4.0-1.25","","<img src=""img/blue-r.png"" border=""10"">","null","trial","32","","0.8,0.2","1:go_a","1",""
"null","","html-keyboard-response","116","221042","0.0-4.0-2.25","","<div style=""font-size:60px;"">+</div>","null","","","","","","",""
"501.95499998517334","","image-keyboard-response","117","221545","0.0-4.0-0.26","","img/blue.png","32","trial","32","true","0.8,0.2","1:go_a","",""
"null","","html-keyboard-response","118","222550","0.0-4.0-1.26","","<img src=""img/blue-r.png"" border=""10"">","null","trial","32","","0.8,0.2","1:go_a","1",""
"null","","html-keyboard-response","119","223554","0.0-4.0-2.26","","<div style=""font-size:60px;"">+</div>","null","","","","","","",""
"null","","image-keyboard-response","120","225067","0.0-4.0-0.27","","img/grey.png","null","trial","null","true","0.2,0.8","2:nogo_b","",""
"null","","html-keyboard-response","121","226072","0.0-4.0-1.27","","<img src=""img/grey-n.png"">","null","trial","null","","0.2,0.8","2:nogo_b","0",""
"null","","html-keyboard-response","122","227079","0.0-4.0-2.27","","<div style=""font-size:60px;"">+</div>","null","","","","","","",""
"408.03000004962087","","image-keyboard-response","123","227489","0.0-4.0-0.28","","img/blue.png","32","trial","32","true","0.8,0.2","1:go_a","",""
"null","","html-keyboard-response","124","228504","0.0-4.0-1.28","","<img src=""img/blue-r.png"" border=""10"">","null","trial","32","","0.8,0.2","1:go_a","1",""
"null","","html-keyboard-response","125","229516","0.0-4.0-2.28","","<div style=""font-size:60px;"">+</div>","null","","","","","","",""
"null","","image-keyboard-response","126","231027","0.0-4.0-0.29","","img/grey.png","null","trial","null","true","0.2,0.8","2:nogo_b","",""
"null","","html-keyboard-response","127","232036","0.0-4.0-1.29","","<img src=""img/grey-r.png"">","null","trial","null","","0.2,0.8","2:nogo_b","1",""
"null","","html-keyboard-response","128","233039","0.0-4.0-2.29","","<div style=""font-size:60px;"">+</div>","null","","","","","","",""
"622.1849999856204","","image-keyboard-response","129","233662","0.0-4.0-0.30","","img/blue.png","32","trial","32","true","0.8,0.2","1:go_a","",""
"null","","html-keyboard-response","130","234665","0.0-4.0-1.30","","<img src=""img/blue-n.png"" border=""10"">","null","trial","32","","0.8,0.2","1:go_a","0",""
"null","","html-keyboard-response","131","235666","0.0-4.0-2.30","","<div style=""font-size:60px;"">+</div>","null","","","","","","",""
"null","","image-keyboard-response","132","237168","0.0-4.0-0.31","","img/grey.png","null","trial","null","true","0.2,0.8","2:nogo_b","",""
"null","","html-keyboard-response","133","238170","0.0-4.0-1.31","","<img src=""img/grey-n.png"">","null","trial","null","","0.2,0.8","2:nogo_b","0",""
"null","","html-keyboard-response","134","239172","0.0-4.0-2.31","","<div style=""font-size:60px;"">+</div>","null","","","","","","",""
"601.0450000176206","","image-keyboard-response","135","239774","0.0-4.0-0.32","","img/blue.png","32","trial","32","true","0.8,0.2","1:go_a","",""
"null","","html-keyboard-response","136","240775","0.0-4.0-1.32","","<img src=""img/blue-r.png"" border=""10"">","null","trial","32","","0.8,0.2","1:go_a","1",""
"null","","html-keyboard-response","137","241782","0.0-4.0-2.32","","<div style=""font-size:60px;"">+</div>","null","","","","","","",""
"null","","image-keyboard-response","138","243289","0.0-4.0-0.33","","img/grey.png","null","trial","null","true","0.2,0.8","2:nogo_b","",""
"null","","html-keyboard-response","139","244290","0.0-4.0-1.33","","<img src=""img/grey-r.png"">","null","trial","null","","0.2,0.8","2:nogo_b","1",""
"null","","html-keyboard-response","140","245292","0.0-4.0-2.33","","<div style=""font-size:60px;"">+</div>","null","","","","","","",""
"null","","image-keyboard-response","141","246808","0.0-4.0-0.34","","img/grey.png","null","trial","null","true","0.2,0.8","2:nogo_b","",""
"null","","html-keyboard-response","142","247810","0.0-4.0-1.34","","<img src=""img/grey-r.png"">","null","trial","null","","0.2,0.8","2:nogo_b","1",""
"null","","html-keyboard-response","143","248822","0.0-4.0-2.34","","<div style=""font-size:60px;"">+</div>","null","","","","","","",""
"366.51500000152737","","image-keyboard-response","144","249190","0.0-4.0-0.35","","img/blue.png","32","trial","32","true","0.8,0.2","1:go_a","",""
"null","","html-keyboard-response","145","250195","0.0-4.0-1.35","","<img src=""img/blue-r.png"" border=""10"">","null","trial","32","","0.8,0.2","1:go_a","1",""
"null","","html-keyboard-response","146","251200","0.0-4.0-2.35","","<div style=""font-size:60px;"">+</div>","null","","","","","","",""
"null","","image-keyboard-response","147","252715","0.0-4.0-0.36","","img/grey.png","null","trial","null","true","0.2,0.8","2:nogo_b","",""
"null","","html-keyboard-response","148","253726","0.0-4.0-1.36","","<img src=""img/grey-r.png"">","null","trial","null","","0.2,0.8","2:nogo_b","1",""
"null","","html-keyboard-response","149","254727","0.0-4.0-2.36","","<div style=""font-size:60px;"">+</div>","null","","","","","","",""
"399.86500004306436","","image-keyboard-response","150","255129","0.0-4.0-0.37","","img/blue.png","32","trial","32","true","0.8,0.2","1:go_a","",""
"null","","html-keyboard-response","151","256145","0.0-4.0-1.37","","<img src=""img/blue-r.png"" border=""10"">","null","trial","32","","0.8,0.2","1:go_a","1",""
"null","","html-keyboard-response","152","257156","0.0-4.0-2.37","","<div style=""font-size:60px;"">+</div>","null","","","","","","",""
"392.43999996688217","","image-keyboard-response","153","257549","0.0-4.0-0.38","","img/blue.png","32","trial","32","true","0.8,0.2","1:go_a","",""
"null","","html-keyboard-response","154","258565","0.0-4.0-1.38","","<img src=""img/blue-r.png"" border=""10"">","null","trial","32","","0.8,0.2","1:go_a","1",""
"null","","html-keyboard-response","155","259578","0.0-4.0-2.38","","<div style=""font-size:60px;"">+</div>","null","","","","","","",""
"null","","image-keyboard-response","156","261085","0.0-4.0-0.39","","img/grey.png","null","trial","null","true","0.2,0.8","2:nogo_b","",""
"null","","html-keyboard-response","157","262087","0.0-4.0-1.39","","<img src=""img/grey-r.png"">","null","trial","null","","0.2,0.8","2:nogo_b","1",""
"null","","html-keyboard-response","158","263091","0.0-4.0-2.39","","<div style=""font-size:60px;"">+</div>","null","","","","","","",""
"327.13499991223216","","image-keyboard-response","159","263419","0.0-4.0-0.40","","img/blue.png","32","trial","32","true","0.8,0.2","1:go_a","",""
"null","","html-keyboard-response","160","264428","0.0-4.0-1.40","","<img src=""img/blue-r.png"" border=""10"">","null","trial","32","","0.8,0.2","1:go_a","1",""
"null","","html-keyboard-response","161","265438","0.0-4.0-2.40","","<div style=""font-size:60px;"">+</div>","null","","","","","","",""
"null","","image-keyboard-response","162","266953","0.0-4.0-0.41","","img/grey.png","null","trial","null","true","0.2,0.8","2:nogo_b","",""
"null","","html-keyboard-response","163","267965","0.0-4.0-1.41","","<img src=""img/grey-r.png"">","null","trial","null","","0.2,0.8","2:nogo_b","1",""
"null","","html-keyboard-response","164","268978","0.0-4.0-2.41","","<div style=""font-size:60px;"">+</div>","null","","","","","","",""
"763.0050000734627","","image-keyboard-response","165","269742","0.0-4.0-0.42","","img/blue.png","32","trial","32","true","0.8,0.2","1:go_a","",""
"null","","html-keyboard-response","166","270748","0.0-4.0-1.42","","<img src=""img/blue-r.png"" border=""10"">","null","trial","32","","0.8,0.2","1:go_a","1",""
"null","","html-keyboard-response","167","271753","0.0-4.0-2.42","","<div style=""font-size:60px;"">+</div>","null","","","","","","",""
"null","","image-keyboard-response","168","273261","0.0-4.0-0.43","","img/grey.png","null","trial","null","true","0.2,0.8","2:nogo_b","",""
"null","","html-keyboard-response","169","274270","0.0-4.0-1.43","","<img src=""img/grey-r.png"">","null","trial","null","","0.2,0.8","2:nogo_b","1",""
"null","","html-keyboard-response","170","275284","0.0-4.0-2.43","","<div style=""font-size:60px;"">+</div>","null","","","","","","",""
"null","","image-keyboard-response","171","276803","0.0-4.0-0.44","","img/grey.png","null","trial","null","true","0.2,0.8","2:nogo_b","",""
"null","","html-keyboard-response","172","277810","0.0-4.0-1.44","","<img src=""img/grey-n.png"">","null","trial","null","","0.2,0.8","2:nogo_b","0",""
"null","","html-keyboard-response","173","278827","0.0-4.0-2.44","","<div style=""font-size:60px;"">+</div>","null","","","","","","",""
"703.0449999729171","","image-keyboard-response","174","279531","0.0-4.0-0.45","","img/blue.png","32","trial","32","true","0.8,0.2","1:go_a","",""
"null","","html-keyboard-response","175","280546","0.0-4.0-1.45","","<img src=""img/blue-r.png"" border=""10"">","null","trial","32","","0.8,0.2","1:go_a","1",""
"null","","html-keyboard-response","176","281550","0.0-4.0-2.45","","<div style=""font-size:60px;"">+</div>","null","","","","","","",""
"null","","image-keyboard-response","177","283054","0.0-4.0-0.46","","img/grey.png","null","trial","null","true","0.2,0.8","2:nogo_b","",""
"null","","html-keyboard-response","178","284060","0.0-4.0-1.46","","<img src=""img/grey-r.png"">","null","trial","null","","0.2,0.8","2:nogo_b","1",""
"null","","html-keyboard-response","179","285064","0.0-4.0-2.46","","<div style=""font-size:60px;"">+</div>","null","","","","","","",""
"682.9050000524148","","image-keyboard-response","180","285747","0.0-4.0-0.47","","img/blue.png","32","trial","32","true","0.8,0.2","1:go_a","",""
"null","","html-keyboard-response","181","286749","0.0-4.0-1.47","","<img src=""img/blue-r.png"" border=""10"">","null","trial","32","","0.8,0.2","1:go_a","1",""
"null","","html-keyboard-response","182","287751","0.0-4.0-2.47","","<div style=""font-size:60px;"">+</div>","null","","","","","","",""
"null","","image-keyboard-response","183","289262","0.0-4.0-0.48","","img/grey.png","null","trial","null","true","0.2,0.8","2:nogo_b","",""
"null","","html-keyboard-response","184","290266","0.0-4.0-1.48","","<img src=""img/grey-r.png"">","null","trial","null","","0.2,0.8","2:nogo_b","1",""
"null","","html-keyboard-response","185","291269","0.0-4.0-2.48","","<div style=""font-size:60px;"">+</div>","null","","","","","","",""
"340.2899999637157","","image-keyboard-response","186","291610","0.0-4.0-0.49","","img/blue.png","32","trial","32","true","0.8,0.2","1:go_a","",""
"null","","html-keyboard-response","187","292624","0.0-4.0-1.49","","<img src=""img/blue-r.png"" border=""10"">","null","trial","32","","0.8,0.2","1:go_a","1",""
"null","","html-keyboard-response","188","293638","0.0-4.0-2.49","","<div style=""font-size:60px;"">+</div>","null","","","","","","",""
"490.26500002946705","","image-keyboard-response","189","294129","0.0-4.0-0.50","","img/blue.png","32","trial","32","true","0.8,0.2","1:go_a","",""
"null","","html-keyboard-response","190","295136","0.0-4.0-1.50","","<img src=""img/blue-r.png"" border=""10"">","null","trial","32","","0.8,0.2","1:go_a","1",""
"null","","html-keyboard-response","191","296147","0.0-4.0-2.50","","<div style=""font-size:60px;"">+</div>","null","","","","","","",""
"null","","image-keyboard-response","192","297655","0.0-4.0-0.51","","img/grey.png","null","trial","null","true","0.2,0.8","2:nogo_b","",""
"null","","html-keyboard-response","193","298670","0.0-4.0-1.51","","<img src=""img/grey-n.png"">","null","trial","null","","0.2,0.8","2:nogo_b","0",""
"null","","html-keyboard-response","194","299678","0.0-4.0-2.51","","<div style=""font-size:60px;"">+</div>","null","","","","","","",""
"null","","image-keyboard-response","195","301184","0.0-4.0-0.52","","img/grey.png","null","trial","null","true","0.2,0.8","2:nogo_b","",""
"null","","html-keyboard-response","196","302188","0.0-4.0-1.52","","<img src=""img/grey-r.png"">","null","trial","null","","0.2,0.8","2:nogo_b","1",""
"null","","html-keyboard-response","197","303197","0.0-4.0-2.52","","<div style=""font-size:60px;"">+</div>","null","","","","","","",""
"356.93499993067235","","image-keyboard-response","198","303555","0.0-4.0-0.53","","img/blue.png","32","trial","32","true","0.8,0.2","1:go_a","",""
"null","","html-keyboard-response","199","304561","0.0-4.0-1.53","","<img src=""img/blue-n.png"" border=""10"">","null","trial","32","","0.8,0.2","1:go_a","0",""
"null","","html-keyboard-response","200","305573","0.0-4.0-2.53","","<div style=""font-size:60px;"">+</div>","null","","","","","","",""
"389.6599999861792","","image-keyboard-response","201","305964","0.0-4.0-0.54","","img/blue.png","32","trial","32","true","0.8,0.2","1:go_a","",""
"null","","html-keyboard-response","202","306975","0.0-4.0-1.54","","<img src=""img/blue-r.png"" border=""10"">","null","trial","32","","0.8,0.2","1:go_a","1",""
"null","","html-keyboard-response","203","307988","0.0-4.0-2.54","","<div style=""font-size:60px;"">+</div>","null","","","","","","",""
"null","","image-keyboard-response","204","309492","0.0-4.0-0.55","","img/grey.png","null","trial","null","true","0.2,0.8","2:nogo_b","",""
"null","","html-keyboard-response","205","310507","0.0-4.0-1.55","","<img src=""img/grey-r.png"">","null","trial","null","","0.2,0.8","2:nogo_b","1",""
"null","","html-keyboard-response","206","311512","0.0-4.0-2.55","","<div style=""font-size:60px;"">+</div>","null","","","","","","",""
"null","","image-keyboard-response","207","313021","0.0-4.0-0.56","","img/grey.png","null","trial","null","true","0.2,0.8","2:nogo_b","",""
"null","","html-keyboard-response","208","314024","0.0-4.0-1.56","","<img src=""img/grey-r.png"">","null","trial","null","","0.2,0.8","2:nogo_b","1",""
"null","","html-keyboard-response","209","315036","0.0-4.0-2.56","","<div style=""font-size:60px;"">+</div>","null","","","","","","",""
"332.42500002961606","","image-keyboard-response","210","315370","0.0-4.0-0.57","","img/blue.png","32","trial","32","true","0.8,0.2","1:go_a","",""
"null","","html-keyboard-response","211","316384","0.0-4.0-1.57","","<img src=""img/blue-r.png"" border=""10"">","null","trial","32","","0.8,0.2","1:go_a","1",""
"null","","html-keyboard-response","212","317391","0.0-4.0-2.57","","<div style=""font-size:60px;"">+</div>","null","","","","","","",""
"null","","image-keyboard-response","213","318905","0.0-4.0-0.58","","img/grey.png","null","trial","null","true","0.2,0.8","2:nogo_b","",""
"null","","html-keyboard-response","214","319912","0.0-4.0-1.58","","<img src=""img/grey-n.png"">","null","trial","null","","0.2,0.8","2:nogo_b","0",""
"null","","html-keyboard-response","215","320927","0.0-4.0-2.58","","<div style=""font-size:60px;"">+</div>","null","","","","","","",""
"365.07499997969717","","image-keyboard-response","216","321294","0.0-4.0-0.59","","img/blue.png","32","trial","32","true","0.8,0.2","1:go_a","",""
"null","","html-keyboard-response","217","322310","0.0-4.0-1.59","","<img src=""img/blue-r.png"" border=""10"">","null","trial","32","","0.8,0.2","1:go_a","1",""
"null","","html-keyboard-response","218","323317","0.0-4.0-2.59","","<div style=""font-size:60px;"">+</div>","null","","","","","","",""
"2356.40000004787","","instructions","219","325674","0.0-5.0","[{""page_index"":0,""viewing_time"":2356.2550001079217}]","","","","","","","","",""
"null","","image-keyboard-response","220","327175","0.0-6.0-0.0","","img/grey.png","null","trial","32","false","1,0","3:go_c","",""
"null","","html-keyboard-response","221","328184","0.0-6.0-1.0","","<img src=""img/grey-n.png"">","null","trial","32","","1,0","3:go_c","0",""
"null","","html-keyboard-response","222","329200","0.0-6.0-2.0","","<div style=""font-size:60px;"">+</div>","null","","","","","","",""
"897.1700000111014","","image-keyboard-response","223","330098","0.0-6.0-0.1","","img/green.png","32","trial","null","false","0.2,0.8","2:nogo_b","",""
"null","","html-keyboard-response","224","331109","0.0-6.0-1.1","","<img src=""img/green-n.png"" border=""10"">","null","trial","null","","0.2,0.8","2:nogo_b","0",""
"null","","html-keyboard-response","225","332119","0.0-6.0-2.1","","<div style=""font-size:60px;"">+</div>","null","","","","","","",""
"888.7600000016391","","image-keyboard-response","226","333009","0.0-6.0-0.2","","img/red.png","32","trial","32","true","0.8,0.2","1:go_a","",""
"null","","html-keyboard-response","227","334011","0.0-6.0-1.2","","<img src=""img/red-r.png"" border=""10"">","null","trial","32","","0.8,0.2","1:go_a","1",""
"null","","html-keyboard-response","228","335023","0.0-6.0-2.2","","<div style=""font-size:60px;"">+</div>","null","","","","","","",""
"707.5549999717623","","image-keyboard-response","229","335732","0.0-6.0-0.3","","img/purple.png","32","trial","null","false","0,1","4:nogo_d","",""
"null","","html-keyboard-response","230","336740","0.0-6.0-1.3","","<img src=""img/purple-n.png"" border=""10"">","null","trial","null","","0,1","4:nogo_d","0",""
"null","","html-keyboard-response","231","337742","0.0-6.0-2.3","","<div style=""font-size:60px;"">+</div>","null","","","","","","",""
"null","","image-keyboard-response","232","339246","0.0-6.0-0.4","","img/green.png","null","trial","null","true","0.2,0.8","2:nogo_b","",""
"null","","html-keyboard-response","233","340249","0.0-6.0-1.4","","<img src=""img/green-r.png"">","null","trial","null","","0.2,0.8","2:nogo_b","1",""
"null","","html-keyboard-response","234","341259","0.0-6.0-2.4","","<div style=""font-size:60px;"">+</div>","null","","","","","","",""
"null","","image-keyboard-response","235","342766","0.0-6.0-0.5","","img/grey.png","null","trial","32","false","1,0","3:go_c","",""
"null","","html-keyboard-response","236","343779","0.0-6.0-1.5","","<img src=""img/grey-n.png"">","null","trial","32","","1,0","3:go_c","0",""
"null","","html-keyboard-response","237","344783","0.0-6.0-2.5","","<div style=""font-size:60px;"">+</div>","null","","","","","","",""
"null","","image-keyboard-response","238","346290","0.0-6.0-0.6","","img/purple.png","null","trial","null","true","0,1","4:nogo_d","",""
"null","","html-keyboard-response","239","347305","0.0-6.0-1.6","","<img src=""img/purple-r.png"">","null","trial","null","","0,1","4:nogo_d","1",""
"null","","html-keyboard-response","240","348320","0.0-6.0-2.6","","<div style=""font-size:60px;"">+</div>","null","","","","","","",""
"618.3399999281392","","image-keyboard-response","241","348939","0.0-6.0-0.7","","img/red.png","32","trial","32","true","0.8,0.2","1:go_a","",""
"null","","html-keyboard-response","242","349954","0.0-6.0-1.7","","<img src=""img/red-r.png"" border=""10"">","null","trial","32","","0.8,0.2","1:go_a","1",""
"null","","html-keyboard-response","243","350971","0.0-6.0-2.7","","<div style=""font-size:60px;"">+</div>","null","","","","","","",""
"null","","image-keyboard-response","244","352484","0.0-6.0-0.8","","img/purple.png","null","trial","null","true","0,1","4:nogo_d","",""
"null","","html-keyboard-response","245","353488","0.0-6.0-1.8","","<img src=""img/purple-r.png"">","null","trial","null","","0,1","4:nogo_d","1",""
"null","","html-keyboard-response","246","354501","0.0-6.0-2.8","","<div style=""font-size:60px;"">+</div>","null","","","","","","",""
"511.83500001206994","","image-keyboard-response","247","355014","0.0-6.0-0.9","","img/red.png","32","trial","32","true","0.8,0.2","1:go_a","",""
"null","","html-keyboard-response","248","356017","0.0-6.0-1.9","","<img src=""img/red-r.png"" border=""10"">","null","trial","32","","0.8,0.2","1:go_a","1",""
"null","","html-keyboard-response","249","357018","0.0-6.0-2.9","","<div style=""font-size:60px;"">+</div>","null","","","","","","",""
"405.13999992981553","","image-keyboard-response","250","357425","0.0-6.0-0.10","","img/grey.png","32","trial","32","true","1,0","3:go_c","",""
"null","","html-keyboard-response","251","358437","0.0-6.0-1.10","","<img src=""img/grey-r.png"" border=""10"">","null","trial","32","","1,0","3:go_c","1",""
"null","","html-keyboard-response","252","359445","0.0-6.0-2.10","","<div style=""font-size:60px;"">+</div>","null","","","","","","",""
"null","","image-keyboard-response","253","360953","0.0-6.0-0.11","","img/green.png","null","trial","null","true","0.2,0.8","2:nogo_b","",""
"null","","html-keyboard-response","254","361965","0.0-6.0-1.11","","<img src=""img/green-r.png"">","null","trial","null","","0.2,0.8","2:nogo_b","1",""
"null","","html-keyboard-response","255","362967","0.0-6.0-2.11","","<div style=""font-size:60px;"">+</div>","null","","","","","","",""
"null","","image-keyboard-response","256","364470","0.0-6.0-0.12","","img/green.png","null","trial","null","true","0.2,0.8","2:nogo_b","",""
"null","","html-keyboard-response","257","365472","0.0-6.0-1.12","","<img src=""img/green-r.png"">","null","trial","null","","0.2,0.8","2:nogo_b","1",""
"null","","html-keyboard-response","258","366482","0.0-6.0-2.12","","<div style=""font-size:60px;"">+</div>","null","","","","","","",""
"null","","image-keyboard-response","259","367995","0.0-6.0-0.13","","img/purple.png","null","trial","null","true","0,1","4:nogo_d","",""
"null","","html-keyboard-response","260","369011","0.0-6.0-1.13","","<img src=""img/purple-r.png"">","null","trial","null","","0,1","4:nogo_d","1",""
"null","","html-keyboard-response","261","370019","0.0-6.0-2.13","","<div style=""font-size:60px;"">+</div>","null","","","","","","",""
"857.4899999657646","","image-keyboard-response","262","370878","0.0-6.0-0.14","","img/grey.png","32","trial","32","true","1,0","3:go_c","",""
"null","","html-keyboard-response","263","371882","0.0-6.0-1.14","","<img src=""img/grey-r.png"" border=""10"">","null","trial","32","","1,0","3:go_c","1",""
"null","","html-keyboard-response","264","372897","0.0-6.0-2.14","","<div style=""font-size:60px;"">+</div>","null","","","","","","",""
"344.64999998454005","","image-keyboard-response","265","373243","0.0-6.0-0.15","","img/red.png","32","trial","32","true","0.8,0.2","1:go_a","",""
"null","","html-keyboard-response","266","374253","0.0-6.0-1.15","","<img src=""img/red-r.png"" border=""10"">","null","trial","32","","0.8,0.2","1:go_a","1",""
"null","","html-keyboard-response","267","375254","0.0-6.0-2.15","","<div style=""font-size:60px;"">+</div>","null","","","","","","",""
"443.544999929145","","image-keyboard-response","268","375699","0.0-6.0-0.16","","img/red.png","32","trial","32","true","0.8,0.2","1:go_a","",""
"null","","html-keyboard-response","269","376715","0.0-6.0-1.16","","<img src=""img/red-n.png"" border=""10"">","null","trial","32","","0.8,0.2","1:go_a","0",""
"null","","html-keyboard-response","270","377730","0.0-6.0-2.16","","<div style=""font-size:60px;"">+</div>","null","","","","","","",""
"null","","image-keyboard-response","271","379244","0.0-6.0-0.17","","img/green.png","null","trial","null","true","0.2,0.8","2:nogo_b","",""
"null","","html-keyboard-response","272","380246","0.0-6.0-1.17","","<img src=""img/green-r.png"">","null","trial","null","","0.2,0.8","2:nogo_b","1",""
"null","","html-keyboard-response","273","381248","0.0-6.0-2.17","","<div style=""font-size:60px;"">+</div>","null","","","","","","",""
"467.475000070408","","image-keyboard-response","274","381716","0.0-6.0-0.18","","img/grey.png","32","trial","32","true","1,0","3:go_c","",""
"null","","html-keyboard-response","275","382720","0.0-6.0-1.18","","<img src=""img/grey-r.png"" border=""10"">","null","trial","32","","1,0","3:go_c","1",""
"null","","html-keyboard-response","276","383734","0.0-6.0-2.18","","<div style=""font-size:60px;"">+</div>","null","","","","","","",""
"null","","image-keyboard-response","277","385242","0.0-6.0-0.19","","img/purple.png","null","trial","null","true","0,1","4:nogo_d","",""
"null","","html-keyboard-response","278","386252","0.0-6.0-1.19","","<img src=""img/purple-r.png"">","null","trial","null","","0,1","4:nogo_d","1",""
"null","","html-keyboard-response","279","387265","0.0-6.0-2.19","","<div style=""font-size:60px;"">+</div>","null","","","","","","",""
"null","","image-keyboard-response","280","388774","0.0-6.0-0.20","","img/purple.png","null","trial","null","true","0,1","4:nogo_d","",""
"null","","html-keyboard-response","281","389778","0.0-6.0-1.20","","<img src=""img/purple-r.png"">","null","trial","null","","0,1","4:nogo_d","1",""
"null","","html-keyboard-response","282","390779","0.0-6.0-2.20","","<div style=""font-size:60px;"">+</div>","null","","","","","","",""
"null","","image-keyboard-response","283","392290","0.0-6.0-0.21","","img/green.png","null","trial","null","true","0.2,0.8","2:nogo_b","",""
"null","","html-keyboard-response","284","393301","0.0-6.0-1.21","","<img src=""img/green-n.png"">","null","trial","null","","0.2,0.8","2:nogo_b","0",""
"null","","html-keyboard-response","285","394315","0.0-6.0-2.21","","<div style=""font-size:60px;"">+</div>","null","","","","","","",""
"459.0099999913946","","image-keyboard-response","286","394775","0.0-6.0-0.22","","img/red.png","32","trial","32","true","0.8,0.2","1:go_a","",""
"null","","html-keyboard-response","287","395789","0.0-6.0-1.22","","<img src=""img/red-r.png"" border=""10"">","null","trial","32","","0.8,0.2","1:go_a","1",""
"null","","html-keyboard-response","288","396804","0.0-6.0-2.22","","<div style=""font-size:60px;"">+</div>","null","","","","","","",""
"385.31000004149973","","image-keyboard-response","289","397191","0.0-6.0-0.23","","img/grey.png","32","trial","32","true","1,0","3:go_c","",""
"null","","html-keyboard-response","290","398194","0.0-6.0-1.23","","<img src=""img/grey-r.png"" border=""10"">","null","trial","32","","1,0","3:go_c","1",""
"null","","html-keyboard-response","291","399195","0.0-6.0-2.23","","<div style=""font-size:60px;"">+</div>","null","","","","","","",""
"467.6850000396371","","image-keyboard-response","292","399663","0.0-6.0-0.24","","img/grey.png","32","trial","32","true","1,0","3:go_c","",""
"null","","html-keyboard-response","293","400666","0.0-6.0-1.24","","<img src=""img/grey-r.png"" border=""10"">","null","trial","32","","1,0","3:go_c","1",""
"null","","html-keyboard-response","294","401682","0.0-6.0-2.24","","<div style=""font-size:60px;"">+</div>","null","","","","","","",""
"null","","image-keyboard-response","295","403183","0.0-6.0-0.25","","img/purple.png","null","trial","null","true","0,1","4:nogo_d","",""
"null","","html-keyboard-response","296","404185","0.0-6.0-1.25","","<img src=""img/purple-r.png"">","null","trial","null","","0,1","4:nogo_d","1",""
"null","","html-keyboard-response","297","405195","0.0-6.0-2.25","","<div style=""font-size:60px;"">+</div>","null","","","","","","",""
"null","","image-keyboard-response","298","406705","0.0-6.0-0.26","","img/green.png","null","trial","null","true","0.2,0.8","2:nogo_b","",""
"null","","html-keyboard-response","299","407711","0.0-6.0-1.26","","<img src=""img/green-r.png"">","null","trial","null","","0.2,0.8","2:nogo_b","1",""
"null","","html-keyboard-response","300","408712","0.0-6.0-2.26","","<div style=""font-size:60px;"">+</div>","null","","","","","","",""
"465.1099999900907","","image-keyboard-response","301","409179","0.0-6.0-0.27","","img/red.png","32","trial","32","true","0.8,0.2","1:go_a","",""
"null","","html-keyboard-response","302","410182","0.0-6.0-1.27","","<img src=""img/red-r.png"" border=""10"">","null","trial","32","","0.8,0.2","1:go_a","1",""
"null","","html-keyboard-response","303","411197","0.0-6.0-2.27","","<div style=""font-size:60px;"">+</div>","null","","","","","","",""
"null","","image-keyboard-response","304","412707","0.0-6.0-0.28","","img/green.png","null","trial","null","true","0.2,0.8","2:nogo_b","",""
"null","","html-keyboard-response","305","413715","0.0-6.0-1.28","","<img src=""img/green-r.png"">","null","trial","null","","0.2,0.8","2:nogo_b","1",""
"null","","html-keyboard-response","306","414727","0.0-6.0-2.28","","<div style=""font-size:60px;"">+</div>","null","","","","","","",""
"559.9599999841303","","image-keyboard-response","307","415289","0.0-6.0-0.29","","img/red.png","32","trial","32","true","0.8,0.2","1:go_a","",""
"null","","html-keyboard-response","308","416297","0.0-6.0-1.29","","<img src=""img/red-r.png"" border=""10"">","null","trial","32","","0.8,0.2","1:go_a","1",""
"null","","html-keyboard-response","309","417310","0.0-6.0-2.29","","<div style=""font-size:60px;"">+</div>","null","","","","","","",""
"716.0399999702349","","image-keyboard-response","310","418027","0.0-6.0-0.30","","img/grey.png","32","trial","32","true","1,0","3:go_c","",""
"null","","html-keyboard-response","311","419044","0.0-6.0-1.30","","<img src=""img/grey-r.png"" border=""10"">","null","trial","32","","1,0","3:go_c","1",""
"null","","html-keyboard-response","312","420049","0.0-6.0-2.30","","<div style=""font-size:60px;"">+</div>","null","","","","","","",""
"null","","image-keyboard-response","313","421552","0.0-6.0-0.31","","img/purple.png","null","trial","null","true","0,1","4:nogo_d","",""
"null","","html-keyboard-response","314","422557","0.0-6.0-1.31","","<img src=""img/purple-r.png"">","null","trial","null","","0,1","4:nogo_d","1",""
"null","","html-keyboard-response","315","423565","0.0-6.0-2.31","","<div style=""font-size:60px;"">+</div>","null","","","","","","",""
"978.6650000605732","","image-keyboard-response","316","424545","0.0-6.0-0.32","","img/grey.png","32","trial","32","true","1,0","3:go_c","",""
"null","","html-keyboard-response","317","425560","0.0-6.0-1.32","","<img src=""img/grey-r.png"" border=""10"">","null","trial","32","","1,0","3:go_c","1",""
"null","","html-keyboard-response","318","426571","0.0-6.0-2.32","","<div style=""font-size:60px;"">+</div>","null","","","","","","",""
"null","","image-keyboard-response","319","428079","0.0-6.0-0.33","","img/purple.png","null","trial","null","true","0,1","4:nogo_d","",""
"null","","html-keyboard-response","320","429092","0.0-6.0-1.33","","<img src=""img/purple-r.png"">","null","trial","null","","0,1","4:nogo_d","1",""
"null","","html-keyboard-response","321","430094","0.0-6.0-2.33","","<div style=""font-size:60px;"">+</div>","null","","","","","","",""
"883.4849999984726","","image-keyboard-response","322","430979","0.0-6.0-0.34","","img/red.png","32","trial","32","true","0.8,0.2","1:go_a","",""
"null","","html-keyboard-response","323","431984","0.0-6.0-1.34","","<img src=""img/red-r.png"" border=""10"">","null","trial","32","","0.8,0.2","1:go_a","1",""
"null","","html-keyboard-response","324","432985","0.0-6.0-2.34","","<div style=""font-size:60px;"">+</div>","null","","","","","","",""
"null","","image-keyboard-response","325","434500","0.0-6.0-0.35","","img/green.png","null","trial","null","true","0.2,0.8","2:nogo_b","",""
"null","","html-keyboard-response","326","435507","0.0-6.0-1.35","","<img src=""img/green-r.png"">","null","trial","null","","0.2,0.8","2:nogo_b","1",""
"null","","html-keyboard-response","327","436521","0.0-6.0-2.35","","<div style=""font-size:60px;"">+</div>","null","","","","","","",""
"null","","image-keyboard-response","328","438026","0.0-6.0-0.36","","img/green.png","null","trial","null","true","0.2,0.8","2:nogo_b","",""
"null","","html-keyboard-response","329","439041","0.0-6.0-1.36","","<img src=""img/green-r.png"">","null","trial","null","","0.2,0.8","2:nogo_b","1",""
"null","","html-keyboard-response","330","440042","0.0-6.0-2.36","","<div style=""font-size:60px;"">+</div>","null","","","","","","",""
"null","","image-keyboard-response","331","441554","0.0-6.0-0.37","","img/purple.png","null","trial","null","true","0,1","4:nogo_d","",""
"null","","html-keyboard-response","332","442557","0.0-6.0-1.37","","<img src=""img/purple-r.png"">","null","trial","null","","0,1","4:nogo_d","1",""
"null","","html-keyboard-response","333","443559","0.0-6.0-2.37","","<div style=""font-size:60px;"">+</div>","null","","","","","","",""
"436.0100000631064","","image-keyboard-response","334","443996","0.0-6.0-0.38","","img/red.png","32","trial","32","true","0.8,0.2","1:go_a","",""
"null","","html-keyboard-response","335","444999","0.0-6.0-1.38","","<img src=""img/red-n.png"" border=""10"">","null","trial","32","","0.8,0.2","1:go_a","0",""
"null","","html-keyboard-response","336","446012","0.0-6.0-2.38","","<div style=""font-size:60px;"">+</div>","null","","","","","","",""
"407.79500000644475","","image-keyboard-response","337","446420","0.0-6.0-0.39","","img/grey.png","32","trial","32","true","1,0","3:go_c","",""
"null","","html-keyboard-response","338","447425","0.0-6.0-1.39","","<img src=""img/grey-r.png"" border=""10"">","null","trial","32","","1,0","3:go_c","1",""
"null","","html-keyboard-response","339","448430","0.0-6.0-2.39","","<div style=""font-size:60px;"">+</div>","null","","","","","","",""
"null","","image-keyboard-response","340","449935","0.0-6.0-0.40","","img/green.png","null","trial","null","true","0.2,0.8","2:nogo_b","",""
"null","","html-keyboard-response","341","450946","0.0-6.0-1.40","","<img src=""img/green-r.png"">","null","trial","null","","0.2,0.8","2:nogo_b","1",""
"null","","html-keyboard-response","342","451947","0.0-6.0-2.40","","<div style=""font-size:60px;"">+</div>","null","","","","","","",""
"471.1850000312552","","image-keyboard-response","343","452419","0.0-6.0-0.41","","img/grey.png","32","trial","32","true","1,0","3:go_c","",""
"null","","html-keyboard-response","344","453427","0.0-6.0-1.41","","<img src=""img/grey-r.png"" border=""10"">","null","trial","32","","1,0","3:go_c","1",""
"null","","html-keyboard-response","345","454428","0.0-6.0-2.41","","<div style=""font-size:60px;"">+</div>","null","","","","","","",""
"null","","image-keyboard-response","346","455939","0.0-6.0-0.42","","img/purple.png","null","trial","null","true","0,1","4:nogo_d","",""
"null","","html-keyboard-response","347","456951","0.0-6.0-1.42","","<img src=""img/purple-r.png"">","null","trial","null","","0,1","4:nogo_d","1",""
"null","","html-keyboard-response","348","457962","0.0-6.0-2.42","","<div style=""font-size:60px;"">+</div>","null","","","","","","",""
"420.49500008579344","","image-keyboard-response","349","458383","0.0-6.0-0.43","","img/red.png","32","trial","32","true","0.8,0.2","1:go_a","",""
"null","","html-keyboard-response","350","459397","0.0-6.0-1.43","","<img src=""img/red-r.png"" border=""10"">","null","trial","32","","0.8,0.2","1:go_a","1",""
"null","","html-keyboard-response","351","460413","0.0-6.0-2.43","","<div style=""font-size:60px;"">+</div>","null","","","","","","",""
"null","","image-keyboard-response","352","461925","0.0-6.0-0.44","","img/green.png","null","trial","null","true","0.2,0.8","2:nogo_b","",""
"null","","html-keyboard-response","353","462938","0.0-6.0-1.44","","<img src=""img/green-r.png"">","null","trial","null","","0.2,0.8","2:nogo_b","1",""
"null","","html-keyboard-response","354","463941","0.0-6.0-2.44","","<div style=""font-size:60px;"">+</div>","null","","","","","","",""
"null","","image-keyboard-response","355","465442","0.0-6.0-0.45","","img/purple.png","null","trial","null","true","0,1","4:nogo_d","",""
"null","","html-keyboard-response","356","466448","0.0-6.0-1.45","","<img src=""img/purple-r.png"">","null","trial","null","","0,1","4:nogo_d","1",""
"null","","html-keyboard-response","357","467450","0.0-6.0-2.45","","<div style=""font-size:60px;"">+</div>","null","","","","","","",""
"466.03499993216246","","image-keyboard-response","358","467918","0.0-6.0-0.46","","img/grey.png","32","trial","32","true","1,0","3:go_c","",""
"null","","html-keyboard-response","359","468934","0.0-6.0-1.46","","<img src=""img/grey-r.png"" border=""10"">","null","trial","32","","1,0","3:go_c","1",""
"null","","html-keyboard-response","360","469936","0.0-6.0-2.46","","<div style=""font-size:60px;"">+</div>","null","","","","","","",""
"388.3749999804422","","image-keyboard-response","361","470326","0.0-6.0-0.47","","img/red.png","32","trial","32","true","0.8,0.2","1:go_a","",""
"null","","html-keyboard-response","362","471327","0.0-6.0-1.47","","<img src=""img/red-n.png"" border=""10"">","null","trial","32","","0.8,0.2","1:go_a","0",""
"null","","html-keyboard-response","363","472343","0.0-6.0-2.47","","<div style=""font-size:60px;"">+</div>","null","","","","","","",""
"null","","image-keyboard-response","364","473852","0.0-6.0-0.48","","img/green.png","null","trial","null","true","0.2,0.8","2:nogo_b","",""
"null","","html-keyboard-response","365","474866","0.0-6.0-1.48","","<img src=""img/green-r.png"">","null","trial","null","","0.2,0.8","2:nogo_b","1",""
"null","","html-keyboard-response","366","475877","0.0-6.0-2.48","","<div style=""font-size:60px;"">+</div>","null","","","","","","",""
"372.3450000397861","","image-keyboard-response","367","476251","0.0-6.0-0.49","","img/red.png","32","trial","32","true","0.8,0.2","1:go_a","",""
"null","","html-keyboard-response","368","477266","0.0-6.0-1.49","","<img src=""img/red-r.png"" border=""10"">","null","trial","32","","0.8,0.2","1:go_a","1",""
"null","","html-keyboard-response","369","478270","0.0-6.0-2.49","","<div style=""font-size:60px;"">+</div>","null","","","","","","",""
"459.81999998912215","","image-keyboard-response","370","478731","0.0-6.0-0.50","","img/grey.png","32","trial","32","true","1,0","3:go_c","",""
"null","","html-keyboard-response","371","479734","0.0-6.0-1.50","","<img src=""img/grey-r.png"" border=""10"">","null","trial","32","","1,0","3:go_c","1",""
"null","","html-keyboard-response","372","480749","0.0-6.0-2.50","","<div style=""font-size:60px;"">+</div>","null","","","","","","",""
"null","","image-keyboard-response","373","482252","0.0-6.0-0.51","","img/purple.png","null","trial","null","true","0,1","4:nogo_d","",""
"null","","html-keyboard-response","374","483268","0.0-6.0-1.51","","<img src=""img/purple-r.png"">","null","trial","null","","0,1","4:nogo_d","1",""
"null","","html-keyboard-response","375","484282","0.0-6.0-2.51","","<div style=""font-size:60px;"">+</div>","null","","","","","","",""
"501.89499999396503","","image-keyboard-response","376","484785","0.0-6.0-0.52","","img/red.png","32","trial","32","true","0.8,0.2","1:go_a","",""
"null","","html-keyboard-response","377","485790","0.0-6.0-1.52","","<img src=""img/red-r.png"" border=""10"">","null","trial","32","","0.8,0.2","1:go_a","1",""
"null","","html-keyboard-response","378","486792","0.0-6.0-2.52","","<div style=""font-size:60px;"">+</div>","null","","","","","","",""
"null","","image-keyboard-response","379","488301","0.0-6.0-0.53","","img/purple.png","null","trial","null","true","0,1","4:nogo_d","",""
"null","","html-keyboard-response","380","489316","0.0-6.0-1.53","","<img src=""img/purple-r.png"">","null","trial","null","","0,1","4:nogo_d","1",""
"null","","html-keyboard-response","381","490325","0.0-6.0-2.53","","<div style=""font-size:60px;"">+</div>","null","","","","","","",""
"497.8750000009313","","image-keyboard-response","382","490824","0.0-6.0-0.54","","img/grey.png","32","trial","32","true","1,0","3:go_c","",""
"null","","html-keyboard-response","383","491831","0.0-6.0-1.54","","<img src=""img/grey-r.png"" border=""10"">","null","trial","32","","1,0","3:go_c","1",""
"null","","html-keyboard-response","384","492838","0.0-6.0-2.54","","<div style=""font-size:60px;"">+</div>","null","","","","","","",""
"null","","image-keyboard-response","385","494354","0.0-6.0-0.55","","img/green.png","null","trial","null","true","0.2,0.8","2:nogo_b","",""
"null","","html-keyboard-response","386","495362","0.0-6.0-1.55","","<img src=""img/green-r.png"">","null","trial","null","","0.2,0.8","2:nogo_b","1",""
"null","","html-keyboard-response","387","496367","0.0-6.0-2.55","","<div style=""font-size:60px;"">+</div>","null","","","","","","",""
"null","","image-keyboard-response","388","497881","0.0-6.0-0.56","","img/green.png","null","trial","null","true","0.2,0.8","2:nogo_b","",""
"null","","html-keyboard-response","389","498887","0.0-6.0-1.56","","<img src=""img/green-r.png"">","null","trial","null","","0.2,0.8","2:nogo_b","1",""
"null","","html-keyboard-response","390","499895","0.0-6.0-2.56","","<div style=""font-size:60px;"">+</div>","null","","","","","","",""
"437.3599999817088","","image-keyboard-response","391","500334","0.0-6.0-0.57","","img/red.png","32","trial","32","true","0.8,0.2","1:go_a","",""
"null","","html-keyboard-response","392","501350","0.0-6.0-1.57","","<img src=""img/red-r.png"" border=""10"">","null","trial","32","","0.8,0.2","1:go_a","1",""
"null","","html-keyboard-response","393","502357","0.0-6.0-2.57","","<div style=""font-size:60px;"">+</div>","null","","","","","","",""
"590.85999999661","","image-keyboard-response","394","502949","0.0-6.0-0.58","","img/grey.png","32","trial","32","true","1,0","3:go_c","",""
"null","","html-keyboard-response","395","503964","0.0-6.0-1.58","","<img src=""img/grey-r.png"" border=""10"">","null","trial","32","","1,0","3:go_c","1",""
"null","","html-keyboard-response","396","504979","0.0-6.0-2.58","","<div style=""font-size:60px;"">+</div>","null","","","","","","",""
"null","","image-keyboard-response","397","506495","0.0-6.0-0.59","","img/purple.png","null","trial","null","true","0,1","4:nogo_d","",""
"null","","html-keyboard-response","398","507507","0.0-6.0-1.59","","<img src=""img/purple-r.png"">","null","trial","null","","0,1","4:nogo_d","1",""
"null","","html-keyboard-response","399","508523","0.0-6.0-2.59","","<div style=""font-size:60px;"">+</div>","null","","","","","","",""
"null","","image-keyboard-response","400","510037","0.0-6.0-0.60","","img/purple.png","null","trial","null","true","0,1","4:nogo_d","",""
"null","","html-keyboard-response","401","511053","0.0-6.0-1.60","","<img src=""img/purple-r.png"">","null","trial","null","","0,1","4:nogo_d","1",""
"null","","html-keyboard-response","402","512066","0.0-6.0-2.60","","<div style=""font-size:60px;"">+</div>","null","","","","","","",""
"435.1650000317022","","image-keyboard-response","403","512503","0.0-6.0-0.61","","img/grey.png","32","trial","32","true","1,0","3:go_c","",""
"null","","html-keyboard-response","404","513517","0.0-6.0-1.61","","<img src=""img/grey-r.png"" border=""10"">","null","trial","32","","1,0","3:go_c","1",""
"null","","html-keyboard-response","405","514525","0.0-6.0-2.61","","<div style=""font-size:60px;"">+</div>","null","","","","","","",""
"null","","image-keyboard-response","406","516039","0.0-6.0-0.62","","img/green.png","null","trial","null","true","0.2,0.8","2:nogo_b","",""
"null","","html-keyboard-response","407","517047","0.0-6.0-1.62","","<img src=""img/green-r.png"">","null","trial","null","","0.2,0.8","2:nogo_b","1",""
"null","","html-keyboard-response","408","518063","0.0-6.0-2.62","","<div style=""font-size:60px;"">+</div>","null","","","","","","",""
"477.4400000460446","","image-keyboard-response","409","518542","0.0-6.0-0.63","","img/red.png","32","trial","32","true","0.8,0.2","1:go_a","",""
"null","","html-keyboard-response","410","519552","0.0-6.0-1.63","","<img src=""img/red-r.png"" border=""10"">","null","trial","32","","0.8,0.2","1:go_a","1",""
"null","","html-keyboard-response","411","520553","0.0-6.0-2.63","","<div style=""font-size:60px;"">+</div>","null","","","","","","",""
"null","","image-keyboard-response","412","522067","0.0-6.0-0.64","","img/purple.png","null","trial","null","true","0,1","4:nogo_d","",""
"null","","html-keyboard-response","413","523072","0.0-6.0-1.64","","<img src=""img/purple-r.png"">","null","trial","null","","0,1","4:nogo_d","1",""
"null","","html-keyboard-response","414","524084","0.0-6.0-2.64","","<div style=""font-size:60px;"">+</div>","null","","","","","","",""
"478.5400000400841","","image-keyboard-response","415","524563","0.0-6.0-0.65","","img/grey.png","32","trial","32","true","1,0","3:go_c","",""
"null","","html-keyboard-response","416","525565","0.0-6.0-1.65","","<img src=""img/grey-r.png"" border=""10"">","null","trial","32","","1,0","3:go_c","1",""
"null","","html-keyboard-response","417","526579","0.0-6.0-2.65","","<div style=""font-size:60px;"">+</div>","null","","","","","","",""
"null","","image-keyboard-response","418","528081","0.0-6.0-0.66","","img/green.png","null","trial","null","true","0.2,0.8","2:nogo_b","",""
"null","","html-keyboard-response","419","529096","0.0-6.0-1.66","","<img src=""img/green-n.png"">","null","trial","null","","0.2,0.8","2:nogo_b","0",""
"null","","html-keyboard-response","420","530099","0.0-6.0-2.66","","<div style=""font-size:60px;"">+</div>","null","","","","","","",""
"553.9649999700487","","image-keyboard-response","421","530654","0.0-6.0-0.67","","img/red.png","32","trial","32","true","0.8,0.2","1:go_a","",""
"null","","html-keyboard-response","422","531666","0.0-6.0-1.67","","<img src=""img/red-r.png"" border=""10"">","null","trial","32","","0.8,0.2","1:go_a","1",""
"null","","html-keyboard-response","423","532677","0.0-6.0-2.67","","<div style=""font-size:60px;"">+</div>","null","","","","","","",""
"492.31000000145286","","image-keyboard-response","424","533171","0.0-6.0-0.68","","img/red.png","32","trial","32","true","0.8,0.2","1:go_a","",""
"null","","html-keyboard-response","425","534181","0.0-6.0-1.68","","<img src=""img/red-r.png"" border=""10"">","null","trial","32","","0.8,0.2","1:go_a","1",""
"null","","html-keyboard-response","426","535195","0.0-6.0-2.68","","<div style=""font-size:60px;"">+</div>","null","","","","","","",""
"null","","image-keyboard-response","427","536709","0.0-6.0-0.69","","img/purple.png","null","trial","null","true","0,1","4:nogo_d","",""
"null","","html-keyboard-response","428","537723","0.0-6.0-1.69","","<img src=""img/purple-r.png"">","null","trial","null","","0,1","4:nogo_d","1",""
"null","","html-keyboard-response","429","538733","0.0-6.0-2.69","","<div style=""font-size:60px;"">+</div>","null","","","","","","",""
"null","","image-keyboard-response","430","540248","0.0-6.0-0.70","","img/green.png","null","trial","null","true","0.2,0.8","2:nogo_b","",""
"null","","html-keyboard-response","431","541260","0.0-6.0-1.70","","<img src=""img/green-n.png"">","null","trial","null","","0.2,0.8","2:nogo_b","0",""
"null","","html-keyboard-response","432","542274","0.0-6.0-2.70","","<div style=""font-size:60px;"">+</div>","null","","","","","","",""
"487.0200000004843","","image-keyboard-response","433","542762","0.0-6.0-0.71","","img/grey.png","32","trial","32","true","1,0","3:go_c","",""
"null","","html-keyboard-response","434","543764","0.0-6.0-1.71","","<img src=""img/grey-r.png"" border=""10"">","null","trial","32","","1,0","3:go_c","1",""
"null","","html-keyboard-response","435","544780","0.0-6.0-2.71","","<div style=""font-size:60px;"">+</div>","null","","","","","","",""
"null","","image-keyboard-response","436","546297","0.0-6.0-0.72","","img/green.png","null","trial","null","true","0.2,0.8","2:nogo_b","",""
"null","","html-keyboard-response","437","547299","0.0-6.0-1.72","","<img src=""img/green-r.png"">","null","trial","null","","0.2,0.8","2:nogo_b","1",""
"null","","html-keyboard-response","438","548310","0.0-6.0-2.72","","<div style=""font-size:60px;"">+</div>","null","","","","","","",""
"415.8799999859184","","image-keyboard-response","439","548727","0.0-6.0-0.73","","img/red.png","32","trial","32","true","0.8,0.2","1:go_a","",""
"null","","html-keyboard-response","440","549732","0.0-6.0-1.73","","<img src=""img/red-r.png"" border=""10"">","null","trial","32","","0.8,0.2","1:go_a","1",""
"null","","html-keyboard-response","441","550734","0.0-6.0-2.73","","<div style=""font-size:60px;"">+</div>","null","","","","","","",""
"475.39499995764345","","image-keyboard-response","442","551211","0.0-6.0-0.74","","img/grey.png","32","trial","32","true","1,0","3:go_c","",""
"null","","html-keyboard-response","443","552222","0.0-6.0-1.74","","<img src=""img/grey-r.png"" border=""10"">","null","trial","32","","1,0","3:go_c","1",""
"null","","html-keyboard-response","444","553235","0.0-6.0-2.74","","<div style=""font-size:60px;"">+</div>","null","","","","","","",""
"null","","image-keyboard-response","445","554748","0.0-6.0-0.75","","img/purple.png","null","trial","null","true","0,1","4:nogo_d","",""
"null","","html-keyboard-response","446","555763","0.0-6.0-1.75","","<img src=""img/purple-r.png"">","null","trial","null","","0,1","4:nogo_d","1",""
"null","","html-keyboard-response","447","556766","0.0-6.0-2.75","","<div style=""font-size:60px;"">+</div>","null","","","","","","",""
"null","","image-keyboard-response","448","558270","0.0-6.0-0.76","","img/purple.png","null","trial","null","true","0,1","4:nogo_d","",""
"null","","html-keyboard-response","449","559285","0.0-6.0-1.76","","<img src=""img/purple-r.png"">","null","trial","null","","0,1","4:nogo_d","1",""
"null","","html-keyboard-response","450","560300","0.0-6.0-2.76","","<div style=""font-size:60px;"">+</div>","null","","","","","","",""
"null","","image-keyboard-response","451","561816","0.0-6.0-0.77","","img/green.png","null","trial","null","true","0.2,0.8","2:nogo_b","",""
"null","","html-keyboard-response","452","562821","0.0-6.0-1.77","","<img src=""img/green-r.png"">","null","trial","null","","0.2,0.8","2:nogo_b","1",""
"null","","html-keyboard-response","453","563826","0.0-6.0-2.77","","<div style=""font-size:60px;"">+</div>","null","","","","","","",""
"442.85500003024936","","image-keyboard-response","454","564270","0.0-6.0-0.78","","img/grey.png","32","trial","32","true","1,0","3:go_c","",""
"null","","html-keyboard-response","455","565276","0.0-6.0-1.78","","<img src=""img/grey-r.png"" border=""10"">","null","trial","32","","1,0","3:go_c","1",""
"null","","html-keyboard-response","456","566291","0.0-6.0-2.78","","<div style=""font-size:60px;"">+</div>","null","","","","","","",""
"400.21500003058463","","image-keyboard-response","457","566692","0.0-6.0-0.79","","img/red.png","32","trial","32","true","0.8,0.2","1:go_a","",""
"null","","html-keyboard-response","458","567703","0.0-6.0-1.79","","<img src=""img/red-r.png"" border=""10"">","null","trial","32","","0.8,0.2","1:go_a","1",""
"null","","html-keyboard-response","459","568718","0.0-6.0-2.79","","<div style=""font-size:60px;"">+</div>","null","","","","","","",""
"383.8400000240654","","image-keyboard-response","460","569103","0.0-6.0-0.80","","img/red.png","32","trial","32","true","0.8,0.2","1:go_a","",""
"null","","html-keyboard-response","461","570110","0.0-6.0-1.80","","<img src=""img/red-r.png"" border=""10"">","null","trial","32","","0.8,0.2","1:go_a","1",""
"null","","html-keyboard-response","462","571110","0.0-6.0-2.80","","<div style=""font-size:60px;"">+</div>","null","","","","","","",""
"560.6499999994412","","image-keyboard-response","463","571672","0.0-6.0-0.81","","img/grey.png","32","trial","32","true","1,0","3:go_c","",""
"null","","html-keyboard-response","464","572680","0.0-6.0-1.81","","<img src=""img/grey-r.png"" border=""10"">","null","trial","32","","1,0","3:go_c","1",""
"null","","html-keyboard-response","465","573693","0.0-6.0-2.81","","<div style=""font-size:60px;"">+</div>","null","","","","","","",""
"null","","image-keyboard-response","466","575204","0.0-6.0-0.82","","img/purple.png","null","trial","null","true","0,1","4:nogo_d","",""
"null","","html-keyboard-response","467","576211","0.0-6.0-1.82","","<img src=""img/purple-r.png"">","null","trial","null","","0,1","4:nogo_d","1",""
"null","","html-keyboard-response","468","577226","0.0-6.0-2.82","","<div style=""font-size:60px;"">+</div>","null","","","","","","",""
"null","","image-keyboard-response","469","578739","0.0-6.0-0.83","","img/green.png","null","trial","null","true","0.2,0.8","2:nogo_b","",""
"null","","html-keyboard-response","470","579748","0.0-6.0-1.83","","<img src=""img/green-r.png"">","null","trial","null","","0.2,0.8","2:nogo_b","1",""
"null","","html-keyboard-response","471","580764","0.0-6.0-2.83","","<div style=""font-size:60px;"">+</div>","null","","","","","","",""
"348.46000000834465","","image-keyboard-response","472","581113","0.0-6.0-0.84","","img/red.png","32","trial","32","true","0.8,0.2","1:go_a","",""
"null","","html-keyboard-response","473","582125","0.0-6.0-1.84","","<img src=""img/red-r.png"" border=""10"">","null","trial","32","","0.8,0.2","1:go_a","1",""
"null","","html-keyboard-response","474","583127","0.0-6.0-2.84","","<div style=""font-size:60px;"">+</div>","null","","","","","","",""
"351.86000005342066","","image-keyboard-response","475","583480","0.0-6.0-0.85","","img/grey.png","32","trial","32","true","1,0","3:go_c","",""
"null","","html-keyboard-response","476","584487","0.0-6.0-1.85","","<img src=""img/grey-r.png"" border=""10"">","null","trial","32","","1,0","3:go_c","1",""
"null","","html-keyboard-response","477","585501","0.0-6.0-2.85","","<div style=""font-size:60px;"">+</div>","null","","","","","","",""
"null","","image-keyboard-response","478","587016","0.0-6.0-0.86","","img/green.png","null","trial","null","true","0.2,0.8","2:nogo_b","",""
"null","","html-keyboard-response","479","588024","0.0-6.0-1.86","","<img src=""img/green-r.png"">","null","trial","null","","0.2,0.8","2:nogo_b","1",""
"null","","html-keyboard-response","480","589039","0.0-6.0-2.86","","<div style=""font-size:60px;"">+</div>","null","","","","","","",""
"null","","image-keyboard-response","481","590552","0.0-6.0-0.87","","img/purple.png","null","trial","null","true","0,1","4:nogo_d","",""
"null","","html-keyboard-response","482","591557","0.0-6.0-1.87","","<img src=""img/purple-r.png"">","null","trial","null","","0,1","4:nogo_d","1",""
"null","","html-keyboard-response","483","592564","0.0-6.0-2.87","","<div style=""font-size:60px;"">+</div>","null","","","","","","",""
"405.629999935627","","image-keyboard-response","484","592971","0.0-6.0-0.88","","img/red.png","32","trial","32","true","0.8,0.2","1:go_a","",""
"null","","html-keyboard-response","485","593981","0.0-6.0-1.88","","<img src=""img/red-r.png"" border=""10"">","null","trial","32","","0.8,0.2","1:go_a","1",""
"null","","html-keyboard-response","486","594984","0.0-6.0-2.88","","<div style=""font-size:60px;"">+</div>","null","","","","","","",""
"null","","image-keyboard-response","487","596499","0.0-6.0-0.89","","img/green.png","null","trial","null","true","0.2,0.8","2:nogo_b","",""
"null","","html-keyboard-response","488","597517","0.0-6.0-1.89","","<img src=""img/green-r.png"">","null","trial","null","","0.2,0.8","2:nogo_b","1",""
"null","","html-keyboard-response","489","598519","0.0-6.0-2.89","","<div style=""font-size:60px;"">+</div>","null","","","","","","",""
"407.7999999281019","","image-keyboard-response","490","598928","0.0-6.0-0.90","","img/grey.png","32","trial","32","true","1,0","3:go_c","",""
"null","","html-keyboard-response","491","599939","0.0-6.0-1.90","","<img src=""img/grey-r.png"" border=""10"">","null","trial","32","","1,0","3:go_c","1",""
"null","","html-keyboard-response","492","600942","0.0-6.0-2.90","","<div style=""font-size:60px;"">+</div>","null","","","","","","",""
"null","","image-keyboard-response","493","602445","0.0-6.0-0.91","","img/purple.png","null","trial","null","true","0,1","4:nogo_d","",""
"null","","html-keyboard-response","494","603458","0.0-6.0-1.91","","<img src=""img/purple-r.png"">","null","trial","null","","0,1","4:nogo_d","1",""
"null","","html-keyboard-response","495","604472","0.0-6.0-2.91","","<div style=""font-size:60px;"">+</div>","null","","","","","","",""
"null","","image-keyboard-response","496","605989","0.0-6.0-0.92","","img/green.png","null","trial","null","true","0.2,0.8","2:nogo_b","",""
"null","","html-keyboard-response","497","606991","0.0-6.0-1.92","","<img src=""img/green-r.png"">","null","trial","null","","0.2,0.8","2:nogo_b","1",""
"null","","html-keyboard-response","498","607995","0.0-6.0-2.92","","<div style=""font-size:60px;"">+</div>","null","","","","","","",""
"null","","image-keyboard-response","499","609499","0.0-6.0-0.93","","img/purple.png","null","trial","null","true","0,1","4:nogo_d","",""
"null","","html-keyboard-response","500","610509","0.0-6.0-1.93","","<img src=""img/purple-r.png"">","null","trial","null","","0,1","4:nogo_d","1",""
"null","","html-keyboard-response","501","611522","0.0-6.0-2.93","","<div style=""font-size:60px;"">+</div>","null","","","","","","",""
"428.0649999855086","","image-keyboard-response","502","611951","0.0-6.0-0.94","","img/red.png","32","trial","32","true","0.8,0.2","1:go_a","",""
"null","","html-keyboard-response","503","612967","0.0-6.0-1.94","","<img src=""img/red-r.png"" border=""10"">","null","trial","32","","0.8,0.2","1:go_a","1",""
"null","","html-keyboard-response","504","613976","0.0-6.0-2.94","","<div style=""font-size:60px;"">+</div>","null","","","","","","",""
"848.6900000134483","","image-keyboard-response","505","614826","0.0-6.0-0.95","","img/grey.png","32","trial","32","true","1,0","3:go_c","",""
"null","","html-keyboard-response","506","615835","0.0-6.0-1.95","","<img src=""img/grey-r.png"" border=""10"">","null","trial","32","","1,0","3:go_c","1",""
"null","","html-keyboard-response","507","616849","0.0-6.0-2.95","","<div style=""font-size:60px;"">+</div>","null","","","","","","",""
"null","","image-keyboard-response","508","618356","0.0-6.0-0.96","","img/green.png","null","trial","null","true","0.2,0.8","2:nogo_b","",""
"null","","html-keyboard-response","509","619371","0.0-6.0-1.96","","<img src=""img/green-r.png"">","null","trial","null","","0.2,0.8","2:nogo_b","1",""
"null","","html-keyboard-response","510","620385","0.0-6.0-2.96","","<div style=""font-size:60px;"">+</div>","null","","","","","","",""
"466.6300000390038","","image-keyboard-response","511","620852","0.0-6.0-0.97","","img/grey.png","32","trial","32","true","1,0","3:go_c","",""
"null","","html-keyboard-response","512","621869","0.0-6.0-1.97","","<img src=""img/grey-r.png"" border=""10"">","null","trial","32","","1,0","3:go_c","1",""
"null","","html-keyboard-response","513","622885","0.0-6.0-2.97","","<div style=""font-size:60px;"">+</div>","null","","","","","","",""
"420.3099999576807","","image-keyboard-response","514","623307","0.0-6.0-0.98","","img/red.png","32","trial","32","true","0.8,0.2","1:go_a","",""
"null","","html-keyboard-response","515","624323","0.0-6.0-1.98","","<img src=""img/red-r.png"" border=""10"">","null","trial","32","","0.8,0.2","1:go_a","1",""
"null","","html-keyboard-response","516","625340","0.0-6.0-2.98","","<div style=""font-size:60px;"">+</div>","null","","","","","","",""
"null","","image-keyboard-response","517","626853","0.0-6.0-0.99","","img/purple.png","null","trial","null","true","0,1","4:nogo_d","",""
"null","","html-keyboard-response","518","627870","0.0-6.0-1.99","","<img src=""img/purple-r.png"">","null","trial","null","","0,1","4:nogo_d","1",""
"null","","html-keyboard-response","519","628880","0.0-6.0-2.99","","<div style=""font-size:60px;"">+</div>","null","","","","","","",""
"376.74500001594424","","image-keyboard-response","520","629258","0.0-6.0-0.100","","img/grey.png","32","trial","32","true","1,0","3:go_c","",""
"null","","html-keyboard-response","521","630274","0.0-6.0-1.100","","<img src=""img/grey-r.png"" border=""10"">","null","trial","32","","1,0","3:go_c","1",""
"null","","html-keyboard-response","522","631275","0.0-6.0-2.100","","<div style=""font-size:60px;"">+</div>","null","","","","","","",""
"null","","image-keyboard-response","523","632784","0.0-6.0-0.101","","img/purple.png","null","trial","null","true","0,1","4:nogo_d","",""
"null","","html-keyboard-response","524","633794","0.0-6.0-1.101","","<img src=""img/purple-r.png"">","null","trial","null","","0,1","4:nogo_d","1",""
"null","","html-keyboard-response","525","634806","0.0-6.0-2.101","","<div style=""font-size:60px;"">+</div>","null","","","","","","",""
"445.4550000373274","","image-keyboard-response","526","635252","0.0-6.0-0.102","","img/red.png","32","trial","32","true","0.8,0.2","1:go_a","",""
"null","","html-keyboard-response","527","636259","0.0-6.0-1.102","","<img src=""img/red-r.png"" border=""10"">","null","trial","32","","0.8,0.2","1:go_a","1",""
"null","","html-keyboard-response","528","637272","0.0-6.0-2.102","","<div style=""font-size:60px;"">+</div>","null","","","","","","",""
"null","","image-keyboard-response","529","638781","0.0-6.0-0.103","","img/green.png","null","trial","null","true","0.2,0.8","2:nogo_b","",""
"null","","html-keyboard-response","530","639798","0.0-6.0-1.103","","<img src=""img/green-r.png"">","null","trial","null","","0.2,0.8","2:nogo_b","1",""
"null","","html-keyboard-response","531","640799","0.0-6.0-2.103","","<div style=""font-size:60px;"">+</div>","null","","","","","","",""
"478.0599999940023","","image-keyboard-response","532","641279","0.0-6.0-0.104","","img/grey.png","32","trial","32","true","1,0","3:go_c","",""
"null","","html-keyboard-response","533","642284","0.0-6.0-1.104","","<img src=""img/grey-r.png"" border=""10"">","null","trial","32","","1,0","3:go_c","1",""
"null","","html-keyboard-response","534","643286","0.0-6.0-2.104","","<div style=""font-size:60px;"">+</div>","null","","","","","","",""
"397.6999999722466","","image-keyboard-response","535","643685","0.0-6.0-0.105","","img/red.png","32","trial","32","true","0.8,0.2","1:go_a","",""
"null","","html-keyboard-response","536","644700","0.0-6.0-1.105","","<img src=""img/red-r.png"" border=""10"">","null","trial","32","","0.8,0.2","1:go_a","1",""
"null","","html-keyboard-response","537","645713","0.0-6.0-2.105","","<div style=""font-size:60px;"">+</div>","null","","","","","","",""
"null","","image-keyboard-response","538","647227","0.0-6.0-0.106","","img/purple.png","null","trial","null","true","0,1","4:nogo_d","",""
"null","","html-keyboard-response","539","648248","0.0-6.0-1.106","","<img src=""img/purple-r.png"">","null","trial","null","","0,1","4:nogo_d","1",""
"null","","html-keyboard-response","540","649251","0.0-6.0-2.106","","<div style=""font-size:60px;"">+</div>","null","","","","","","",""
"null","","image-keyboard-response","541","650763","0.0-6.0-0.107","","img/green.png","null","trial","null","true","0.2,0.8","2:nogo_b","",""
"null","","html-keyboard-response","542","651765","0.0-6.0-1.107","","<img src=""img/green-n.png"">","null","trial","null","","0.2,0.8","2:nogo_b","0",""
"null","","html-keyboard-response","543","652771","0.0-6.0-2.107","","<div style=""font-size:60px;"">+</div>","null","","","","","","",""
"398.3550000702962","","image-keyboard-response","544","653170","0.0-6.0-0.108","","img/red.png","32","trial","32","true","0.8,0.2","1:go_a","",""
"null","","html-keyboard-response","545","654172","0.0-6.0-1.108","","<img src=""img/red-r.png"" border=""10"">","null","trial","32","","0.8,0.2","1:go_a","1",""
"null","","html-keyboard-response","546","655184","0.0-6.0-2.108","","<div style=""font-size:60px;"">+</div>","null","","","","","","",""
"null","","image-keyboard-response","547","656696","0.0-6.0-0.109","","img/green.png","null","trial","null","true","0.2,0.8","2:nogo_b","",""
"null","","html-keyboard-response","548","657708","0.0-6.0-1.109","","<img src=""img/green-r.png"">","null","trial","null","","0.2,0.8","2:nogo_b","1",""
"null","","html-keyboard-response","549","658720","0.0-6.0-2.109","","<div style=""font-size:60px;"">+</div>","null","","","","","","",""
"null","","image-keyboard-response","550","660233","0.0-6.0-0.110","","img/purple.png","null","trial","null","true","0,1","4:nogo_d","",""
"null","","html-keyboard-response","551","661247","0.0-6.0-1.110","","<img src=""img/purple-r.png"">","null","trial","null","","0,1","4:nogo_d","1",""
"null","","html-keyboard-response","552","662250","0.0-6.0-2.110","","<div style=""font-size:60px;"">+</div>","null","","","","","","",""
"600.0749999657273","","image-keyboard-response","553","662852","0.0-6.0-0.111","","img/grey.png","32","trial","32","true","1,0","3:go_c","",""
"null","","html-keyboard-response","554","663857","0.0-6.0-1.111","","<img src=""img/grey-r.png"" border=""10"">","null","trial","32","","1,0","3:go_c","1",""
"null","","html-keyboard-response","555","664872","0.0-6.0-2.111","","<div style=""font-size:60px;"">+</div>","null","","","","","","",""
"null","","image-keyboard-response","556","666387","0.0-6.0-0.112","","img/green.png","null","trial","null","true","0.2,0.8","2:nogo_b","",""
"null","","html-keyboard-response","557","667399","0.0-6.0-1.112","","<img src=""img/green-r.png"">","null","trial","null","","0.2,0.8","2:nogo_b","1",""
"null","","html-keyboard-response","558","668401","0.0-6.0-2.112","","<div style=""font-size:60px;"">+</div>","null","","","","","","",""
"587.0400000130758","","image-keyboard-response","559","668990","0.0-6.0-0.113","","img/grey.png","32","trial","32","true","1,0","3:go_c","",""
"null","","html-keyboard-response","560","669998","0.0-6.0-1.113","","<img src=""img/grey-r.png"" border=""10"">","null","trial","32","","1,0","3:go_c","1",""
"null","","html-keyboard-response","561","671007","0.0-6.0-2.113","","<div style=""font-size:60px;"">+</div>","null","","","","","","",""
"622.1649999497458","","image-keyboard-response","562","671631","0.0-6.0-0.114","","img/red.png","32","trial","32","true","0.8,0.2","1:go_a","",""
"null","","html-keyboard-response","563","672635","0.0-6.0-1.114","","<img src=""img/red-r.png"" border=""10"">","null","trial","32","","0.8,0.2","1:go_a","1",""
"null","","html-keyboard-response","564","673644","0.0-6.0-2.114","","<div style=""font-size:60px;"">+</div>","null","","","","","","",""
"null","","image-keyboard-response","565","675156","0.0-6.0-0.115","","img/purple.png","null","trial","null","true","0,1","4:nogo_d","",""
"null","","html-keyboard-response","566","676170","0.0-6.0-1.115","","<img src=""img/purple-r.png"">","null","trial","null","","0,1","4:nogo_d","1",""
"null","","html-keyboard-response","567","677185","0.0-6.0-2.115","","<div style=""font-size:60px;"">+</div>","null","","","","","","",""
"null","","image-keyboard-response","568","678695","0.0-6.0-0.116","","img/green.png","null","trial","null","true","0.2,0.8","2:nogo_b","",""
"null","","html-keyboard-response","569","679699","0.0-6.0-1.116","","<img src=""img/green-r.png"">","null","trial","null","","0.2,0.8","2:nogo_b","1",""
"null","","html-keyboard-response","570","680702","0.0-6.0-2.116","","<div style=""font-size:60px;"">+</div>","null","","","","","","",""
"428.5999999847263","","image-keyboard-response","571","681132","0.0-6.0-0.117","","img/red.png","32","trial","32","true","0.8,0.2","1:go_a","",""
"null","","html-keyboard-response","572","682148","0.0-6.0-1.117","","<img src=""img/red-r.png"" border=""10"">","null","trial","32","","0.8,0.2","1:go_a","1",""
"null","","html-keyboard-response","573","683150","0.0-6.0-2.117","","<div style=""font-size:60px;"">+</div>","null","","","","","","",""
"335.5349999619648","","image-keyboard-response","574","683486","0.0-6.0-0.118","","img/grey.png","32","trial","32","true","1,0","3:go_c","",""
"null","","html-keyboard-response","575","684499","0.0-6.0-1.118","","<img src=""img/grey-r.png"" border=""10"">","null","trial","32","","1,0","3:go_c","1",""
"null","","html-keyboard-response","576","685503","0.0-6.0-2.118","","<div style=""font-size:60px;"">+</div>","null","","","","","","",""
"null","","image-keyboard-response","577","687005","0.0-6.0-0.119","","img/purple.png","null","trial","null","true","0,1","4:nogo_d","",""
"null","","html-keyboard-response","578","688018","0.0-6.0-1.119","","<img src=""img/purple-r.png"">","null","trial","null","","0,1","4:nogo_d","1",""
"null","","html-keyboard-response","579","689020","0.0-6.0-2.119","","<div style=""font-size:60px;"">+</div>","null","","","","","","",""
"3828.6999999545515","","instructions","580","692850","0.0-7.0","[{""page_index"":0,""viewing_time"":3828.3400000073016}]","","","","","","","","",""
"965.0100000435486","","image-keyboard-response","581","693816","0.0-8.0-0.0","","img/orange.png","32","trial","32","true","0.8,0.2","3:go_c","",""
"null","","html-keyboard-response","582","694818","0.0-8.0-1.0","","<img src=""img/orange-r.png"" border=""10"">","null","trial","32","","0.8,0.2","3:go_c","1",""
"null","","html-keyboard-response","583","695834","0.0-8.0-2.0","","<div style=""font-size:60px;"">+</div>","null","","","","","","",""
"540.7650000415742","","image-keyboard-response","584","696375","0.0-8.0-0.1","","img/red.png","32","trial","null","false","0.2,0.8","2:nogo_b","",""
"null","","html-keyboard-response","585","697392","0.0-8.0-1.1","","<img src=""img/red-n.png"" border=""10"">","null","trial","null","","0.2,0.8","2:nogo_b","0",""
"null","","html-keyboard-response","586","698407","0.0-8.0-2.1","","<div style=""font-size:60px;"">+</div>","null","","","","","","",""
"674.0699999500066","","image-keyboard-response","587","699082","0.0-8.0-0.2","","img/green.png","32","trial","32","true","0.8,0.2","1:go_a","",""
"null","","html-keyboard-response","588","700088","0.0-8.0-1.2","","<img src=""img/green-r.png"" border=""10"">","null","trial","32","","0.8,0.2","1:go_a","1",""
"null","","html-keyboard-response","589","701099","0.0-8.0-2.2","","<div style=""font-size:60px;"">+</div>","null","","","","","","",""
"729.0049999719486","","image-keyboard-response","590","701829","0.0-8.0-0.3","","img/blue.png","32","trial","null","false","0.2,0.8","4:nogo_d","",""
"null","","html-keyboard-response","591","702836","0.0-8.0-1.3","","<img src=""img/blue-n.png"" border=""10"">","null","trial","null","","0.2,0.8","4:nogo_d","0",""
"null","","html-keyboard-response","592","703837","0.0-8.0-2.3","","<div style=""font-size:60px;"">+</div>","null","","","","","","",""
"null","","image-keyboard-response","593","705353","0.0-8.0-0.4","","img/red.png","null","trial","null","true","0.2,0.8","2:nogo_b","",""
"null","","html-keyboard-response","594","706367","0.0-8.0-1.4","","<img src=""img/red-r.png"">","null","trial","null","","0.2,0.8","2:nogo_b","1",""
"null","","html-keyboard-response","595","707382","0.0-8.0-2.4","","<div style=""font-size:60px;"">+</div>","null","","","","","","",""
"416.55500000342727","","image-keyboard-response","596","707799","0.0-8.0-0.5","","img/orange.png","32","trial","32","true","0.8,0.2","3:go_c","",""
"null","","html-keyboard-response","597","708815","0.0-8.0-1.5","","<img src=""img/orange-r.png"" border=""10"">","null","trial","32","","0.8,0.2","3:go_c","1",""
"null","","html-keyboard-response","598","709831","0.0-8.0-2.5","","<div style=""font-size:60px;"">+</div>","null","","","","","","",""
"null","","image-keyboard-response","599","711346","0.0-8.0-0.6","","img/blue.png","null","trial","null","true","0.2,0.8","4:nogo_d","",""
"null","","html-keyboard-response","600","712364","0.0-8.0-1.6","","<img src=""img/blue-r.png"">","null","trial","null","","0.2,0.8","4:nogo_d","1",""
"null","","html-keyboard-response","601","713379","0.0-8.0-2.6","","<div style=""font-size:60px;"">+</div>","null","","","","","","",""
"389.3949999473989","","image-keyboard-response","602","713769","0.0-8.0-0.7","","img/green.png","32","trial","32","true","0.8,0.2","1:go_a","",""
"null","","html-keyboard-response","603","714778","0.0-8.0-1.7","","<img src=""img/green-n.png"" border=""10"">","null","trial","32","","0.8,0.2","1:go_a","0",""
"null","","html-keyboard-response","604","715793","0.0-8.0-2.7","","<div style=""font-size:60px;"">+</div>","null","","","","","","",""
"null","","image-keyboard-response","605","717300","0.0-8.0-0.8","","img/blue.png","null","trial","null","true","0.2,0.8","4:nogo_d","",""
"null","","html-keyboard-response","606","718302","0.0-8.0-1.8","","<img src=""img/blue-n.png"">","null","trial","null","","0.2,0.8","4:nogo_d","0",""
"null","","html-keyboard-response","607","719310","0.0-8.0-2.8","","<div style=""font-size:60px;"">+</div>","null","","","","","","",""
"462.7799999434501","","image-keyboard-response","608","719773","0.0-8.0-0.9","","img/orange.png","32","trial","32","true","0.8,0.2","3:go_c","",""
"null","","html-keyboard-response","609","720778","0.0-8.0-1.9","","<img src=""img/orange-r.png"" border=""10"">","null","trial","32","","0.8,0.2","3:go_c","1",""
"null","","html-keyboard-response","610","721793","0.0-8.0-2.9","","<div style=""font-size:60px;"">+</div>","null","","","","","","",""
"null","","image-keyboard-response","611","723312","0.0-8.0-0.10","","img/red.png","null","trial","null","true","0.2,0.8","2:nogo_b","",""
"null","","html-keyboard-response","612","724334","0.0-8.0-1.10","","<img src=""img/red-r.png"">","null","trial","null","","0.2,0.8","2:nogo_b","1",""
"null","","html-keyboard-response","613","725348","0.0-8.0-2.10","","<div style=""font-size:60px;"">+</div>","null","","","","","","",""
"530.5149999912828","","image-keyboard-response","614","725880","0.0-8.0-0.11","","img/green.png","32","trial","32","true","0.8,0.2","1:go_a","",""
"null","","html-keyboard-response","615","726887","0.0-8.0-1.11","","<img src=""img/green-r.png"" border=""10"">","null","trial","32","","0.8,0.2","1:go_a","1",""
"null","","html-keyboard-response","616","727898","0.0-8.0-2.11","","<div style=""font-size:60px;"">+</div>","null","","","","","","",""
"478.15999994054437","","image-keyboard-response","617","728378","0.0-8.0-0.12","","img/orange.png","32","trial","32","true","0.8,0.2","3:go_c","",""
"null","","html-keyboard-response","618","729391","0.0-8.0-1.12","","<img src=""img/orange-r.png"" border=""10"">","null","trial","32","","0.8,0.2","3:go_c","1",""
"null","","html-keyboard-response","619","730406","0.0-8.0-2.12","","<div style=""font-size:60px;"">+</div>","null","","","","","","",""
"null","","image-keyboard-response","620","731919","0.0-8.0-0.13","","img/red.png","null","trial","null","true","0.2,0.8","2:nogo_b","",""
"null","","html-keyboard-response","621","732930","0.0-8.0-1.13","","<img src=""img/red-r.png"">","null","trial","null","","0.2,0.8","2:nogo_b","1",""
"null","","html-keyboard-response","622","733944","0.0-8.0-2.13","","<div style=""font-size:60px;"">+</div>","null","","","","","","",""
"null","","image-keyboard-response","623","735458","0.0-8.0-0.14","","img/blue.png","null","trial","null","true","0.2,0.8","4:nogo_d","",""
"null","","html-keyboard-response","624","736475","0.0-8.0-1.14","","<img src=""img/blue-r.png"">","null","trial","null","","0.2,0.8","4:nogo_d","1",""
"null","","html-keyboard-response","625","737483","0.0-8.0-2.14","","<div style=""font-size:60px;"">+</div>","null","","","","","","",""
"411.9799999753013","","image-keyboard-response","626","737896","0.0-8.0-0.15","","img/green.png","32","trial","32","true","0.8,0.2","1:go_a","",""
"null","","html-keyboard-response","627","738903","0.0-8.0-1.15","","<img src=""img/green-n.png"" border=""10"">","null","trial","32","","0.8,0.2","1:go_a","0",""
"null","","html-keyboard-response","628","739910","0.0-8.0-2.15","","<div style=""font-size:60px;"">+</div>","null","","","","","","",""
"null","","image-keyboard-response","629","741416","0.0-8.0-0.16","","img/blue.png","null","trial","null","true","0.2,0.8","4:nogo_d","",""
"null","","html-keyboard-response","630","742421","0.0-8.0-1.16","","<img src=""img/blue-n.png"">","null","trial","null","","0.2,0.8","4:nogo_d","0",""
"null","","html-keyboard-response","631","743427","0.0-8.0-2.16","","<div style=""font-size:60px;"">+</div>","null","","","","","","",""
"null","","image-keyboard-response","632","744932","0.0-8.0-0.17","","img/red.png","null","trial","null","true","0.2,0.8","2:nogo_b","",""
"null","","html-keyboard-response","633","745937","0.0-8.0-1.17","","<img src=""img/red-r.png"">","null","trial","null","","0.2,0.8","2:nogo_b","1",""
"null","","html-keyboard-response","634","746948","0.0-8.0-2.17","","<div style=""font-size:60px;"">+</div>","null","","","","","","",""
"904.795000096783","","image-keyboard-response","635","747854","0.0-8.0-0.18","","img/green.png","32","trial","32","true","0.8,0.2","1:go_a","",""
"null","","html-keyboard-response","636","748859","0.0-8.0-1.18","","<img src=""img/green-r.png"" border=""10"">","null","trial","32","","0.8,0.2","1:go_a","1",""
"null","","html-keyboard-response","637","749861","0.0-8.0-2.18","","<div style=""font-size:60px;"">+</div>","null","","","","","","",""
"371.93999998271465","","image-keyboard-response","638","750234","0.0-8.0-0.19","","img/orange.png","32","trial","32","true","0.8,0.2","3:go_c","",""
"null","","html-keyboard-response","639","751250","0.0-8.0-1.19","","<img src=""img/orange-r.png"" border=""10"">","null","trial","32","","0.8,0.2","3:go_c","1",""
"null","","html-keyboard-response","640","752259","0.0-8.0-2.19","","<div style=""font-size:60px;"">+</div>","null","","","","","","",""
"621.8850000295788","","image-keyboard-response","641","752882","0.0-8.0-0.20","","img/orange.png","32","trial","32","true","0.8,0.2","3:go_c","",""
"null","","html-keyboard-response","642","753893","0.0-8.0-1.20","","<img src=""img/orange-r.png"" border=""10"">","null","trial","32","","0.8,0.2","3:go_c","1",""
"null","","html-keyboard-response","643","754905","0.0-8.0-2.20","","<div style=""font-size:60px;"">+</div>","null","","","","","","",""
"593.4200000483543","","image-keyboard-response","644","755500","0.0-8.0-0.21","","img/green.png","32","trial","32","true","0.8,0.2","1:go_a","",""
"null","","html-keyboard-response","645","756513","0.0-8.0-1.21","","<img src=""img/green-r.png"" border=""10"">","null","trial","32","","0.8,0.2","1:go_a","1",""
"null","","html-keyboard-response","646","757516","0.0-8.0-2.21","","<div style=""font-size:60px;"">+</div>","null","","","","","","",""
"null","","image-keyboard-response","647","759030","0.0-8.0-0.22","","img/red.png","null","trial","null","true","0.2,0.8","2:nogo_b","",""
"null","","html-keyboard-response","648","760046","0.0-8.0-1.22","","<img src=""img/red-r.png"">","null","trial","null","","0.2,0.8","2:nogo_b","1",""
"null","","html-keyboard-response","649","761060","0.0-8.0-2.22","","<div style=""font-size:60px;"">+</div>","null","","","","","","",""
"null","","image-keyboard-response","650","762575","0.0-8.0-0.23","","img/blue.png","null","trial","null","true","0.2,0.8","4:nogo_d","",""
"null","","html-keyboard-response","651","763592","0.0-8.0-1.23","","<img src=""img/blue-r.png"">","null","trial","null","","0.2,0.8","4:nogo_d","1",""
"null","","html-keyboard-response","652","764606","0.0-8.0-2.23","","<div style=""font-size:60px;"">+</div>","null","","","","","","",""
"null","","image-keyboard-response","653","766122","0.0-8.0-0.24","","img/red.png","null","trial","null","true","0.2,0.8","2:nogo_b","",""
"null","","html-keyboard-response","654","767129","0.0-8.0-1.24","","<img src=""img/red-r.png"">","null","trial","null","","0.2,0.8","2:nogo_b","1",""
"null","","html-keyboard-response","655","768144","0.0-8.0-2.24","","<div style=""font-size:60px;"">+</div>","null","","","","","","",""
"null","","image-keyboard-response","656","769661","0.0-8.0-0.25","","img/blue.png","null","trial","null","true","0.2,0.8","4:nogo_d","",""
"null","","html-keyboard-response","657","770676","0.0-8.0-1.25","","<img src=""img/blue-r.png"">","null","trial","null","","0.2,0.8","4:nogo_d","1",""
"null","","html-keyboard-response","658","771689","0.0-8.0-2.25","","<div style=""font-size:60px;"">+</div>","null","","","","","","",""
"473.1049999827519","","image-keyboard-response","659","772163","0.0-8.0-0.26","","img/orange.png","32","trial","32","true","0.8,0.2","3:go_c","",""
"null","","html-keyboard-response","660","773169","0.0-8.0-1.26","","<img src=""img/orange-r.png"" border=""10"">","null","trial","32","","0.8,0.2","3:go_c","1",""
"null","","html-keyboard-response","661","774176","0.0-8.0-2.26","","<div style=""font-size:60px;"">+</div>","null","","","","","","",""
"554.1250000242144","","image-keyboard-response","662","774731","0.0-8.0-0.27","","img/green.png","32","trial","32","true","0.8,0.2","1:go_a","",""
"null","","html-keyboard-response","663","775738","0.0-8.0-1.27","","<img src=""img/green-r.png"" border=""10"">","null","trial","32","","0.8,0.2","1:go_a","1",""
"null","","html-keyboard-response","664","776741","0.0-8.0-2.27","","<div style=""font-size:60px;"">+</div>","null","","","","","","",""
"431.9050000049174","","image-keyboard-response","665","777176","0.0-8.0-0.28","","img/green.png","32","trial","32","true","0.8,0.2","1:go_a","",""
"null","","html-keyboard-response","666","778187","0.0-8.0-1.28","","<img src=""img/green-r.png"" border=""10"">","null","trial","32","","0.8,0.2","1:go_a","1",""
"null","","html-keyboard-response","667","779203","0.0-8.0-2.28","","<div style=""font-size:60px;"">+</div>","null","","","","","","",""
"null","","image-keyboard-response","668","780719","0.0-8.0-0.29","","img/blue.png","null","trial","null","true","0.2,0.8","4:nogo_d","",""
"null","","html-keyboard-response","669","781734","0.0-8.0-1.29","","<img src=""img/blue-r.png"">","null","trial","null","","0.2,0.8","4:nogo_d","1",""
"null","","html-keyboard-response","670","782744","0.0-8.0-2.29","","<div style=""font-size:60px;"">+</div>","null","","","","","","",""
"null","","image-keyboard-response","671","784246","0.0-8.0-0.30","","img/red.png","null","trial","null","true","0.2,0.8","2:nogo_b","",""
"null","","html-keyboard-response","672","785264","0.0-8.0-1.30","","<img src=""img/red-r.png"">","null","trial","null","","0.2,0.8","2:nogo_b","1",""
"null","","html-keyboard-response","673","786279","0.0-8.0-2.30","","<div style=""font-size:60px;"">+</div>","null","","","","","","",""
"773.4199999831617","","image-keyboard-response","674","787053","0.0-8.0-0.31","","img/orange.png","32","trial","32","true","0.8,0.2","3:go_c","",""
"null","","html-keyboard-response","675","788057","0.0-8.0-1.31","","<img src=""img/orange-r.png"" border=""10"">","null","trial","32","","0.8,0.2","3:go_c","1",""
"null","","html-keyboard-response","676","789068","0.0-8.0-2.31","","<div style=""font-size:60px;"">+</div>","null","","","","","","",""
"435.66000007558614","","image-keyboard-response","677","789504","0.0-8.0-0.32","","img/green.png","32","trial","32","true","0.8,0.2","1:go_a","",""
"null","","html-keyboard-response","678","790521","0.0-8.0-1.32","","<img src=""img/green-n.png"" border=""10"">","null","trial","32","","0.8,0.2","1:go_a","0",""
"null","","html-keyboard-response","679","791530","0.0-8.0-2.32","","<div style=""font-size:60px;"">+</div>","null","","","","","","",""
"null","","image-keyboard-response","680","793035","0.0-8.0-0.33","","img/red.png","null","trial","null","true","0.2,0.8","2:nogo_b","",""
"null","","html-keyboard-response","681","794042","0.0-8.0-1.33","","<img src=""img/red-r.png"">","null","trial","null","","0.2,0.8","2:nogo_b","1",""
"null","","html-keyboard-response","682","795054","0.0-8.0-2.33","","<div style=""font-size:60px;"">+</div>","null","","","","","","",""
"null","","image-keyboard-response","683","796570","0.0-8.0-0.34","","img/blue.png","null","trial","null","true","0.2,0.8","4:nogo_d","",""
"null","","html-keyboard-response","684","797585","0.0-8.0-1.34","","<img src=""img/blue-r.png"">","null","trial","null","","0.2,0.8","4:nogo_d","1",""
"null","","html-keyboard-response","685","798596","0.0-8.0-2.34","","<div style=""font-size:60px;"">+</div>","null","","","","","","",""
"425.5350000457838","","image-keyboard-response","686","799022","0.0-8.0-0.35","","img/orange.png","32","trial","32","true","0.8,0.2","3:go_c","",""
