"rt","url","trial_type","trial_index","time_elapsed","internal_node_id","view_history","stimulus","key_press","test_part","correct_response","correct","use_rew","which_stim","reward","responses"
"18058.085000142455","consent.html","external-html","0","18172","0.0-0.0","","","","","","","","","",""
"163807.3499999009","","instructions","1","181984","0.0-1.0","[{""page_index"":0,""viewing_time"":7984.584999969229},{""page_index"":1,""viewing_time"":32841.07999992557},{""page_index"":2,""viewing_time"":13531.644999980927},{""page_index"":3,""viewing_time"":43620.78500003554},{""page_index"":4,""viewing_time"":34699.685000116006},{""page_index"":5,""viewing_time"":10072.17499986291},{""page_index"":6,""viewing_time"":21056.030000094324}]","","","","","","","","",""
"null","","image-keyboard-response","2","183496","0.0-2.0-0.0","","img/test3.PNG","null","practice","null","true","","","",""
"null","","html-keyboard-response","3","184507","0.0-2.0-1.0","","<img src=""img/test3-reward.PNG"">","null","","","","","","",""
"null","","html-keyboard-response","4","185509","0.0-2.0-2.0","","<div style=""font-size:60px;"">+</div>","null","","","","","","",""
"null","","image-keyboard-response","5","187022","0.0-2.0-0.1","","img/test2.PNG","null","practice","null","true","","","",""
"null","","html-keyboard-response","6","188025","0.0-2.0-1.1","","<img src=""img/test2-reward.PNG"">","null","","","","","","",""
"null","","html-keyboard-response","7","189042","0.0-2.0-2.1","","<div style=""font-size:60px;"">+</div>","null","","","","","","",""
"382.9600000753999","","image-keyboard-response","8","189426","0.0-2.0-0.2","","img/test1.PNG","32","practice","32","true","","","",""
"null","","html-keyboard-response","9","190436","0.0-2.0-1.2","","<img src=""img/test1-reward.PNG"" border=""10px; grey"">","null","","","","","","",""
"null","","html-keyboard-response","10","191443","0.0-2.0-2.2","","<div style=""font-size:60px;"">+</div>","null","","","","","","",""
"null","","image-keyboard-response","11","192955","0.0-2.0-0.3","","img/test2.PNG","null","practice","null","true","","","",""
"null","","html-keyboard-response","12","193971","0.0-2.0-1.3","","<img src=""img/test2-reward.PNG"">","null","","","","","","",""
"null","","html-keyboard-response","13","194983","0.0-2.0-2.3","","<div style=""font-size:60px;"">+</div>","null","","","","","","",""
"760.5700001586229","","image-keyboard-response","14","195746","0.0-2.0-0.4","","img/test1.PNG","32","practice","32","true","","","",""
"null","","html-keyboard-response","15","196769","0.0-2.0-1.4","","<img src=""img/test1-reward.PNG"" border=""10px; grey"">","null","","","","","","",""
"null","","html-keyboard-response","16","197774","0.0-2.0-2.4","","<div style=""font-size:60px;"">+</div>","null","","","","","","",""
"null","","image-keyboard-response","17","199291","0.0-2.0-0.5","","img/test3.PNG","null","practice","null","true","","","",""
"null","","html-keyboard-response","18","200302","0.0-2.0-1.5","","<img src=""img/test3-reward.PNG"">","null","","","","","","",""
"null","","html-keyboard-response","19","201307","0.0-2.0-2.5","","<div style=""font-size:60px;"">+</div>","null","","","","","","",""
"null","","image-keyboard-response","20","202818","0.0-2.0-0.6","","img/test3.PNG","null","practice","null","true","","","",""
"null","","html-keyboard-response","21","203832","0.0-2.0-1.6","","<img src=""img/test3-reward.PNG"">","null","","","","","","",""
"null","","html-keyboard-response","22","204841","0.0-2.0-2.6","","<div style=""font-size:60px;"">+</div>","null","","","","","","",""
"561.2300001084805","","image-keyboard-response","23","205404","0.0-2.0-0.7","","img/test1.PNG","32","practice","32","true","","","",""
"null","","html-keyboard-response","24","206417","0.0-2.0-1.7","","<img src=""img/test1-reward.PNG"" border=""10px; grey"">","null","","","","","","",""
"null","","html-keyboard-response","25","207433","0.0-2.0-2.7","","<div style=""font-size:60px;"">+</div>","null","","","","","","",""
"null","","image-keyboard-response","26","208943","0.0-2.0-0.8","","img/test2.PNG","null","practice","null","true","","","",""
"null","","html-keyboard-response","27","209959","0.0-2.0-1.8","","<img src=""img/test2-reward.PNG"">","null","","","","","","",""
"null","","html-keyboard-response","28","210970","0.0-2.0-2.8","","<div style=""font-size:60px;"">+</div>","null","","","","","","",""
"null","","image-keyboard-response","29","212481","0.0-2.0-0.9","","img/test3.PNG","null","practice","null","true","","","",""
"null","","html-keyboard-response","30","213491","0.0-2.0-1.9","","<img src=""img/test3-reward.PNG"">","null","","","","","","",""
"null","","html-keyboard-response","31","214497","0.0-2.0-2.9","","<div style=""font-size:60px;"">+</div>","null","","","","","","",""
"null","","image-keyboard-response","32","216015","0.0-2.0-0.10","","img/test2.PNG","null","practice","null","true","","","",""
"null","","html-keyboard-response","33","217024","0.0-2.0-1.10","","<img src=""img/test2-reward.PNG"">","null","","","","","","",""
"null","","html-keyboard-response","34","218036","0.0-2.0-2.10","","<div style=""font-size:60px;"">+</div>","null","","","","","","",""
"521.6200000140816","","image-keyboard-response","35","218559","0.0-2.0-0.11","","img/test1.PNG","32","practice","32","true","","","",""
"null","","html-keyboard-response","36","219565","0.0-2.0-1.11","","<img src=""img/test1-reward.PNG"" border=""10px; grey"">","null","","","","","","",""
"null","","html-keyboard-response","37","220575","0.0-2.0-2.11","","<div style=""font-size:60px;"">+</div>","null","","","","","","",""
"5844.980000052601","","instructions","38","226420","0.0-3.0","[{""page_index"":0,""viewing_time"":5844.479999970645}]","","","","","","","","",""
"743.904999922961","","image-keyboard-response","39","227166","0.0-4.0-0.0","","img/purple.png","32","trial","null","false","0.2,0.8","2:nogo_b","",""
"null","","html-keyboard-response","40","228180","0.0-4.0-1.0","","<img src=""img/purple-n.png"" border=""10"">","null","trial","null","","0.2,0.8","2:nogo_b","0",""
"null","","html-keyboard-response","41","229191","0.0-4.0-2.0","","<div style=""font-size:60px;"">+</div>","null","","","","","","",""
"null","","image-keyboard-response","42","230697","0.0-4.0-0.1","","img/blue.png","null","trial","32","false","0.8,0.2","1:go_a","",""
"null","","html-keyboard-response","43","231707","0.0-4.0-1.1","","<img src=""img/blue-r.png"">","null","trial","32","","0.8,0.2","1:go_a","1",""
"null","","html-keyboard-response","44","232709","0.0-4.0-2.1","","<div style=""font-size:60px;"">+</div>","null","","","","","","",""
"null","","image-keyboard-response","45","234224","0.0-4.0-0.2","","img/blue.png","null","trial","32","false","0.8,0.2","1:go_a","",""
"null","","html-keyboard-response","46","235233","0.0-4.0-1.2","","<img src=""img/blue-r.png"">","null","trial","32","","0.8,0.2","1:go_a","1",""
"null","","html-keyboard-response","47","236241","0.0-4.0-2.2","","<div style=""font-size:60px;"">+</div>","null","","","","","","",""
"612.8050000406802","","image-keyboard-response","48","236855","0.0-4.0-0.3","","img/purple.png","32","trial","null","false","0.2,0.8","2:nogo_b","",""
"null","","html-keyboard-response","49","237869","0.0-4.0-1.3","","<img src=""img/purple-n.png"" border=""10"">","null","trial","null","","0.2,0.8","2:nogo_b","0",""
"null","","html-keyboard-response","50","238879","0.0-4.0-2.3","","<div style=""font-size:60px;"">+</div>","null","","","","","","",""
"null","","image-keyboard-response","51","240384","0.0-4.0-0.4","","img/blue.png","null","trial","32","false","0.8,0.2","1:go_a","",""
"null","","html-keyboard-response","52","241392","0.0-4.0-1.4","","<img src=""img/blue-n.png"">","null","trial","32","","0.8,0.2","1:go_a","0",""
"null","","html-keyboard-response","53","242397","0.0-4.0-2.4","","<div style=""font-size:60px;"">+</div>","null","","","","","","",""
"null","","image-keyboard-response","54","243916","0.0-4.0-0.5","","img/purple.png","null","trial","null","true","0.2,0.8","2:nogo_b","",""
"null","","html-keyboard-response","55","244923","0.0-4.0-1.5","","<img src=""img/purple-r.png"">","null","trial","null","","0.2,0.8","2:nogo_b","1",""
"null","","html-keyboard-response","56","245935","0.0-4.0-2.5","","<div style=""font-size:60px;"">+</div>","null","","","","","","",""
"null","","image-keyboard-response","57","247449","0.0-4.0-0.6","","img/purple.png","null","trial","null","true","0.2,0.8","2:nogo_b","",""
"null","","html-keyboard-response","58","248460","0.0-4.0-1.6","","<img src=""img/purple-n.png"">","null","trial","null","","0.2,0.8","2:nogo_b","0",""
"null","","html-keyboard-response","59","249461","0.0-4.0-2.6","","<div style=""font-size:60px;"">+</div>","null","","","","","","",""
"null","","image-keyboard-response","60","250973","0.0-4.0-0.7","","img/blue.png","null","trial","32","false","0.8,0.2","1:go_a","",""
"null","","html-keyboard-response","61","251989","0.0-4.0-1.7","","<img src=""img/blue-n.png"">","null","trial","32","","0.8,0.2","1:go_a","0",""
"null","","html-keyboard-response","62","252991","0.0-4.0-2.7","","<div style=""font-size:60px;"">+</div>","null","","","","","","",""
"440.4249999206513","","image-keyboard-response","63","253432","0.0-4.0-0.8","","img/blue.png","32","trial","32","true","0.8,0.2","1:go_a","",""
"null","","html-keyboard-response","64","254444","0.0-4.0-1.8","","<img src=""img/blue-r.png"" border=""10"">","null","trial","32","","0.8,0.2","1:go_a","1",""
"null","","html-keyboard-response","65","255448","0.0-4.0-2.8","","<div style=""font-size:60px;"">+</div>","null","","","","","","",""
"null","","image-keyboard-response","66","256954","0.0-4.0-0.9","","img/purple.png","null","trial","null","true","0.2,0.8","2:nogo_b","",""
"null","","html-keyboard-response","67","257973","0.0-4.0-1.9","","<img src=""img/purple-n.png"">","null","trial","null","","0.2,0.8","2:nogo_b","0",""
"null","","html-keyboard-response","68","258983","0.0-4.0-2.9","","<div style=""font-size:60px;"">+</div>","null","","","","","","",""
"721.2099998723716","","image-keyboard-response","69","259705","0.0-4.0-0.10","","img/purple.png","32","trial","null","false","0.2,0.8","2:nogo_b","",""
"null","","html-keyboard-response","70","260718","0.0-4.0-1.10","","<img src=""img/purple-n.png"" border=""10"">","null","trial","null","","0.2,0.8","2:nogo_b","0",""
"null","","html-keyboard-response","71","261735","0.0-4.0-2.10","","<div style=""font-size:60px;"">+</div>","null","","","","","","",""
"495.57500006631017","","image-keyboard-response","72","262232","0.0-4.0-0.11","","img/blue.png","32","trial","32","true","0.8,0.2","1:go_a","",""
"null","","html-keyboard-response","73","263247","0.0-4.0-1.11","","<img src=""img/blue-r.png"" border=""10"">","null","trial","32","","0.8,0.2","1:go_a","1",""
"null","","html-keyboard-response","74","264262","0.0-4.0-2.11","","<div style=""font-size:60px;"">+</div>","null","","","","","","",""
"null","","image-keyboard-response","75","265769","0.0-4.0-0.12","","img/purple.png","null","trial","null","true","0.2,0.8","2:nogo_b","",""
"null","","html-keyboard-response","76","266772","0.0-4.0-1.12","","<img src=""img/purple-r.png"">","null","trial","null","","0.2,0.8","2:nogo_b","1",""
"null","","html-keyboard-response","77","267792","0.0-4.0-2.12","","<div style=""font-size:60px;"">+</div>","null","","","","","","",""
"508.68999981321394","","image-keyboard-response","78","268302","0.0-4.0-0.13","","img/blue.png","32","trial","32","true","0.8,0.2","1:go_a","",""
"null","","html-keyboard-response","79","269306","0.0-4.0-1.13","","<img src=""img/blue-r.png"" border=""10"">","null","trial","32","","0.8,0.2","1:go_a","1",""
"null","","html-keyboard-response","80","270314","0.0-4.0-2.13","","<div style=""font-size:60px;"">+</div>","null","","","","","","",""
"872.6299998816103","","image-keyboard-response","81","271188","0.0-4.0-0.14","","img/blue.png","32","trial","32","true","0.8,0.2","1:go_a","",""
"null","","html-keyboard-response","82","272205","0.0-4.0-1.14","","<img src=""img/blue-r.png"" border=""10"">","null","trial","32","","0.8,0.2","1:go_a","1",""
"null","","html-keyboard-response","83","273222","0.0-4.0-2.14","","<div style=""font-size:60px;"">+</div>","null","","","","","","",""
"null","","image-keyboard-response","84","274739","0.0-4.0-0.15","","img/purple.png","null","trial","null","true","0.2,0.8","2:nogo_b","",""
"null","","html-keyboard-response","85","275757","0.0-4.0-1.15","","<img src=""img/purple-n.png"">","null","trial","null","","0.2,0.8","2:nogo_b","0",""
"null","","html-keyboard-response","86","276763","0.0-4.0-2.15","","<div style=""font-size:60px;"">+</div>","null","","","","","","",""
"null","","image-keyboard-response","87","278275","0.0-4.0-0.16","","img/purple.png","null","trial","null","true","0.2,0.8","2:nogo_b","",""
"null","","html-keyboard-response","88","279286","0.0-4.0-1.16","","<img src=""img/purple-r.png"">","null","trial","null","","0.2,0.8","2:nogo_b","1",""
"null","","html-keyboard-response","89","280301","0.0-4.0-2.16","","<div style=""font-size:60px;"">+</div>","null","","","","","","",""
"399.48999998159707","","image-keyboard-response","90","280702","0.0-4.0-0.17","","img/blue.png","32","trial","32","true","0.8,0.2","1:go_a","",""
"null","","html-keyboard-response","91","281719","0.0-4.0-1.17","","<img src=""img/blue-r.png"" border=""10"">","null","trial","32","","0.8,0.2","1:go_a","1",""
"null","","html-keyboard-response","92","282726","0.0-4.0-2.17","","<div style=""font-size:60px;"">+</div>","null","","","","","","",""
"459.68500012531877","","image-keyboard-response","93","283187","0.0-4.0-0.18","","img/blue.png","32","trial","32","true","0.8,0.2","1:go_a","",""
"null","","html-keyboard-response","94","284193","0.0-4.0-1.18","","<img src=""img/blue-r.png"" border=""10"">","null","trial","32","","0.8,0.2","1:go_a","1",""
"null","","html-keyboard-response","95","285210","0.0-4.0-2.18","","<div style=""font-size:60px;"">+</div>","null","","","","","","",""
"null","","image-keyboard-response","96","286714","0.0-4.0-0.19","","img/purple.png","null","trial","null","true","0.2,0.8","2:nogo_b","",""
"null","","html-keyboard-response","97","287730","0.0-4.0-1.19","","<img src=""img/purple-r.png"">","null","trial","null","","0.2,0.8","2:nogo_b","1",""
"null","","html-keyboard-response","98","288734","0.0-4.0-2.19","","<div style=""font-size:60px;"">+</div>","null","","","","","","",""
"454.9650000408292","","image-keyboard-response","99","289190","0.0-4.0-0.20","","img/blue.png","32","trial","32","true","0.8,0.2","1:go_a","",""
"null","","html-keyboard-response","100","290198","0.0-4.0-1.20","","<img src=""img/blue-r.png"" border=""10"">","null","trial","32","","0.8,0.2","1:go_a","1",""
"null","","html-keyboard-response","101","291205","0.0-4.0-2.20","","<div style=""font-size:60px;"">+</div>","null","","","","","","",""
"null","","image-keyboard-response","102","292710","0.0-4.0-0.21","","img/purple.png","null","trial","null","true","0.2,0.8","2:nogo_b","",""
"null","","html-keyboard-response","103","293716","0.0-4.0-1.21","","<img src=""img/purple-r.png"">","null","trial","null","","0.2,0.8","2:nogo_b","1",""
"null","","html-keyboard-response","104","294726","0.0-4.0-2.21","","<div style=""font-size:60px;"">+</div>","null","","","","","","",""
"null","","image-keyboard-response","105","296234","0.0-4.0-0.22","","img/purple.png","null","trial","null","true","0.2,0.8","2:nogo_b","",""
"null","","html-keyboard-response","106","297251","0.0-4.0-1.22","","<img src=""img/purple-r.png"">","null","trial","null","","0.2,0.8","2:nogo_b","1",""
"null","","html-keyboard-response","107","298261","0.0-4.0-2.22","","<div style=""font-size:60px;"">+</div>","null","","","","","","",""
"430.350000038743","","image-keyboard-response","108","298692","0.0-4.0-0.23","","img/blue.png","32","trial","32","true","0.8,0.2","1:go_a","",""
"null","","html-keyboard-response","109","299696","0.0-4.0-1.23","","<img src=""img/blue-r.png"" border=""10"">","null","trial","32","","0.8,0.2","1:go_a","1",""
"null","","html-keyboard-response","110","300710","0.0-4.0-2.23","","<div style=""font-size:60px;"">+</div>","null","","","","","","",""
"606.4699999988079","","image-keyboard-response","111","301318","0.0-4.0-0.24","","img/blue.png","32","trial","32","true","0.8,0.2","1:go_a","",""
"null","","html-keyboard-response","112","302336","0.0-4.0-1.24","","<img src=""img/blue-r.png"" border=""10"">","null","trial","32","","0.8,0.2","1:go_a","1",""
"null","","html-keyboard-response","113","303349","0.0-4.0-2.24","","<div style=""font-size:60px;"">+</div>","null","","","","","","",""
"null","","image-keyboard-response","114","304853","0.0-4.0-0.25","","img/purple.png","null","trial","null","true","0.2,0.8","2:nogo_b","",""
"null","","html-keyboard-response","115","305860","0.0-4.0-1.25","","<img src=""img/purple-n.png"">","null","trial","null","","0.2,0.8","2:nogo_b","0",""
"null","","html-keyboard-response","116","306867","0.0-4.0-2.25","","<div style=""font-size:60px;"">+</div>","null","","","","","","",""
"440.35000004805624","","image-keyboard-response","117","307309","0.0-4.0-0.26","","img/blue.png","32","trial","32","true","0.8,0.2","1:go_a","",""
"null","","html-keyboard-response","118","308316","0.0-4.0-1.26","","<img src=""img/blue-r.png"" border=""10"">","null","trial","32","","0.8,0.2","1:go_a","1",""
"null","","html-keyboard-response","119","309328","0.0-4.0-2.26","","<div style=""font-size:60px;"">+</div>","null","","","","","","",""
"null","","image-keyboard-response","120","310841","0.0-4.0-0.27","","img/purple.png","null","trial","null","true","0.2,0.8","2:nogo_b","",""
"null","","html-keyboard-response","121","311857","0.0-4.0-1.27","","<img src=""img/purple-r.png"">","null","trial","null","","0.2,0.8","2:nogo_b","1",""
"null","","html-keyboard-response","122","312868","0.0-4.0-2.27","","<div style=""font-size:60px;"">+</div>","null","","","","","","",""
"487.53500008024275","","image-keyboard-response","123","313357","0.0-4.0-0.28","","img/blue.png","32","trial","32","true","0.8,0.2","1:go_a","",""
"null","","html-keyboard-response","124","314367","0.0-4.0-1.28","","<img src=""img/blue-r.png"" border=""10"">","null","trial","32","","0.8,0.2","1:go_a","1",""
"null","","html-keyboard-response","125","315372","0.0-4.0-2.28","","<div style=""font-size:60px;"">+</div>","null","","","","","","",""
"null","","image-keyboard-response","126","316876","0.0-4.0-0.29","","img/purple.png","null","trial","null","true","0.2,0.8","2:nogo_b","",""
"null","","html-keyboard-response","127","317888","0.0-4.0-1.29","","<img src=""img/purple-r.png"">","null","trial","null","","0.2,0.8","2:nogo_b","1",""
"null","","html-keyboard-response","128","318892","0.0-4.0-2.29","","<div style=""font-size:60px;"">+</div>","null","","","","","","",""
"663.3949999231845","","image-keyboard-response","129","319557","0.0-4.0-0.30","","img/blue.png","32","trial","32","true","0.8,0.2","1:go_a","",""
"null","","html-keyboard-response","130","320566","0.0-4.0-1.30","","<img src=""img/blue-r.png"" border=""10"">","null","trial","32","","0.8,0.2","1:go_a","1",""
"null","","html-keyboard-response","131","321570","0.0-4.0-2.30","","<div style=""font-size:60px;"">+</div>","null","","","","","","",""
"null","","image-keyboard-response","132","323076","0.0-4.0-0.31","","img/purple.png","null","trial","null","true","0.2,0.8","2:nogo_b","",""
"null","","html-keyboard-response","133","324079","0.0-4.0-1.31","","<img src=""img/purple-r.png"">","null","trial","null","","0.2,0.8","2:nogo_b","1",""
"null","","html-keyboard-response","134","325087","0.0-4.0-2.31","","<div style=""font-size:60px;"">+</div>","null","","","","","","",""
"576.4950001612306","","image-keyboard-response","135","325665","0.0-4.0-0.32","","img/blue.png","32","trial","32","true","0.8,0.2","1:go_a","",""
"null","","html-keyboard-response","136","326668","0.0-4.0-1.32","","<img src=""img/blue-r.png"" border=""10"">","null","trial","32","","0.8,0.2","1:go_a","1",""
"null","","html-keyboard-response","137","327681","0.0-4.0-2.32","","<div style=""font-size:60px;"">+</div>","null","","","","","","",""
"null","","image-keyboard-response","138","329192","0.0-4.0-0.33","","img/purple.png","null","trial","null","true","0.2,0.8","2:nogo_b","",""
"null","","html-keyboard-response","139","330206","0.0-4.0-1.33","","<img src=""img/purple-r.png"">","null","trial","null","","0.2,0.8","2:nogo_b","1",""
"null","","html-keyboard-response","140","331220","0.0-4.0-2.33","","<div style=""font-size:60px;"">+</div>","null","","","","","","",""
"null","","image-keyboard-response","141","332722","0.0-4.0-0.34","","img/purple.png","null","trial","null","true","0.2,0.8","2:nogo_b","",""
"null","","html-keyboard-response","142","333725","0.0-4.0-1.34","","<img src=""img/purple-r.png"">","null","trial","null","","0.2,0.8","2:nogo_b","1",""
"null","","html-keyboard-response","143","334739","0.0-4.0-2.34","","<div style=""font-size:60px;"">+</div>","null","","","","","","",""
"607.4649998918176","","image-keyboard-response","144","335348","0.0-4.0-0.35","","img/blue.png","32","trial","32","true","0.8,0.2","1:go_a","",""
"null","","html-keyboard-response","145","336364","0.0-4.0-1.35","","<img src=""img/blue-r.png"" border=""10"">","null","trial","32","","0.8,0.2","1:go_a","1",""
"null","","html-keyboard-response","146","337368","0.0-4.0-2.35","","<div style=""font-size:60px;"">+</div>","null","","","","","","",""
"449.9000001233071","","image-keyboard-response","147","337820","0.0-4.0-0.36","","img/blue.png","32","trial","32","true","0.8,0.2","1:go_a","",""
"null","","html-keyboard-response","148","338829","0.0-4.0-1.36","","<img src=""img/blue-r.png"" border=""10"">","null","trial","32","","0.8,0.2","1:go_a","1",""
"null","","html-keyboard-response","149","339846","0.0-4.0-2.36","","<div style=""font-size:60px;"">+</div>","null","","","","","","",""
"null","","image-keyboard-response","150","341359","0.0-4.0-0.37","","img/purple.png","null","trial","null","true","0.2,0.8","2:nogo_b","",""
"null","","html-keyboard-response","151","342376","0.0-4.0-1.37","","<img src=""img/purple-r.png"">","null","trial","null","","0.2,0.8","2:nogo_b","1",""
"null","","html-keyboard-response","152","343381","0.0-4.0-2.37","","<div style=""font-size:60px;"">+</div>","null","","","","","","",""
"null","","image-keyboard-response","153","344895","0.0-4.0-0.38","","img/purple.png","null","trial","null","true","0.2,0.8","2:nogo_b","",""
"null","","html-keyboard-response","154","345904","0.0-4.0-1.38","","<img src=""img/purple-r.png"">","null","trial","null","","0.2,0.8","2:nogo_b","1",""
"null","","html-keyboard-response","155","346907","0.0-4.0-2.38","","<div style=""font-size:60px;"">+</div>","null","","","","","","",""
"630.6699998676777","","image-keyboard-response","156","347539","0.0-4.0-0.39","","img/blue.png","32","trial","32","true","0.8,0.2","1:go_a","",""
"null","","html-keyboard-response","157","348546","0.0-4.0-1.39","","<img src=""img/blue-n.png"" border=""10"">","null","trial","32","","0.8,0.2","1:go_a","0",""
"null","","html-keyboard-response","158","349553","0.0-4.0-2.39","","<div style=""font-size:60px;"">+</div>","null","","","","","","",""
"null","","image-keyboard-response","159","351058","0.0-4.0-0.40","","img/purple.png","null","trial","null","true","0.2,0.8","2:nogo_b","",""
"null","","html-keyboard-response","160","352076","0.0-4.0-1.40","","<img src=""img/purple-r.png"">","null","trial","null","","0.2,0.8","2:nogo_b","1",""
"null","","html-keyboard-response","161","353088","0.0-4.0-2.40","","<div style=""font-size:60px;"">+</div>","null","","","","","","",""
"391.3149998988956","","image-keyboard-response","162","353480","0.0-4.0-0.41","","img/blue.png","32","trial","32","true","0.8,0.2","1:go_a","",""
"null","","html-keyboard-response","163","354495","0.0-4.0-1.41","","<img src=""img/blue-r.png"" border=""10"">","null","trial","32","","0.8,0.2","1:go_a","1",""
"null","","html-keyboard-response","164","355506","0.0-4.0-2.41","","<div style=""font-size:60px;"">+</div>","null","","","","","","",""
"null","","image-keyboard-response","165","357024","0.0-4.0-0.42","","img/purple.png","null","trial","null","true","0.2,0.8","2:nogo_b","",""
"null","","html-keyboard-response","166","358036","0.0-4.0-1.42","","<img src=""img/purple-r.png"">","null","trial","null","","0.2,0.8","2:nogo_b","1",""
"null","","html-keyboard-response","167","359040","0.0-4.0-2.42","","<div style=""font-size:60px;"">+</div>","null","","","","","","",""
"437.45499989017844","","image-keyboard-response","168","359479","0.0-4.0-0.43","","img/blue.png","32","trial","32","true","0.8,0.2","1:go_a","",""
"null","","html-keyboard-response","169","360492","0.0-4.0-1.43","","<img src=""img/blue-r.png"" border=""10"">","null","trial","32","","0.8,0.2","1:go_a","1",""
"null","","html-keyboard-response","170","361495","0.0-4.0-2.43","","<div style=""font-size:60px;"">+</div>","null","","","","","","",""
"468.349999981001","","image-keyboard-response","171","361965","0.0-4.0-0.44","","img/blue.png","32","trial","32","true","0.8,0.2","1:go_a","",""
"null","","html-keyboard-response","172","362973","0.0-4.0-1.44","","<img src=""img/blue-r.png"" border=""10"">","null","trial","32","","0.8,0.2","1:go_a","1",""
"null","","html-keyboard-response","173","363987","0.0-4.0-2.44","","<div style=""font-size:60px;"">+</div>","null","","","","","","",""
"null","","image-keyboard-response","174","365489","0.0-4.0-0.45","","img/purple.png","null","trial","null","true","0.2,0.8","2:nogo_b","",""
"null","","html-keyboard-response","175","366500","0.0-4.0-1.45","","<img src=""img/purple-r.png"">","null","trial","null","","0.2,0.8","2:nogo_b","1",""
"null","","html-keyboard-response","176","367511","0.0-4.0-2.45","","<div style=""font-size:60px;"">+</div>","null","","","","","","",""
"null","","image-keyboard-response","177","369016","0.0-4.0-0.46","","img/purple.png","null","trial","null","true","0.2,0.8","2:nogo_b","",""
"null","","html-keyboard-response","178","370025","0.0-4.0-1.46","","<img src=""img/purple-r.png"">","null","trial","null","","0.2,0.8","2:nogo_b","1",""
"null","","html-keyboard-response","179","371030","0.0-4.0-2.46","","<div style=""font-size:60px;"">+</div>","null","","","","","","",""
"467.27999998256564","","image-keyboard-response","180","371498","0.0-4.0-0.47","","img/blue.png","32","trial","32","true","0.8,0.2","1:go_a","",""
"null","","html-keyboard-response","181","372502","0.0-4.0-1.47","","<img src=""img/blue-r.png"" border=""10"">","null","trial","32","","0.8,0.2","1:go_a","1",""
"null","","html-keyboard-response","182","373511","0.0-4.0-2.47","","<div style=""font-size:60px;"">+</div>","null","","","","","","",""
"407.00500016100705","","image-keyboard-response","183","373920","0.0-4.0-0.48","","img/blue.png","32","trial","32","true","0.8,0.2","1:go_a","",""
"null","","html-keyboard-response","184","374936","0.0-4.0-1.48","","<img src=""img/blue-r.png"" border=""10"">","null","trial","32","","0.8,0.2","1:go_a","1",""
"null","","html-keyboard-response","185","375946","0.0-4.0-2.48","","<div style=""font-size:60px;"">+</div>","null","","","","","","",""
"null","","image-keyboard-response","186","377457","0.0-4.0-0.49","","img/purple.png","null","trial","null","true","0.2,0.8","2:nogo_b","",""
"null","","html-keyboard-response","187","378465","0.0-4.0-1.49","","<img src=""img/purple-r.png"">","null","trial","null","","0.2,0.8","2:nogo_b","1",""
"null","","html-keyboard-response","188","379481","0.0-4.0-2.49","","<div style=""font-size:60px;"">+</div>","null","","","","","","",""
"null","","image-keyboard-response","189","380992","0.0-4.0-0.50","","img/purple.png","null","trial","null","true","0.2,0.8","2:nogo_b","",""
"null","","html-keyboard-response","190","381997","0.0-4.0-1.50","","<img src=""img/purple-r.png"">","null","trial","null","","0.2,0.8","2:nogo_b","1",""
"null","","html-keyboard-response","191","383004","0.0-4.0-2.50","","<div style=""font-size:60px;"">+</div>","null","","","","","","",""
"468.98000012151897","","image-keyboard-response","192","383474","0.0-4.0-0.51","","img/blue.png","32","trial","32","true","0.8,0.2","1:go_a","",""
"null","","html-keyboard-response","193","384488","0.0-4.0-1.51","","<img src=""img/blue-n.png"" border=""10"">","null","trial","32","","0.8,0.2","1:go_a","0",""
"null","","html-keyboard-response","194","385503","0.0-4.0-2.51","","<div style=""font-size:60px;"">+</div>","null","","","","","","",""
"null","","image-keyboard-response","195","387017","0.0-4.0-0.52","","img/purple.png","null","trial","null","true","0.2,0.8","2:nogo_b","",""
"null","","html-keyboard-response","196","388029","0.0-4.0-1.52","","<img src=""img/purple-n.png"">","null","trial","null","","0.2,0.8","2:nogo_b","0",""
"null","","html-keyboard-response","197","389043","0.0-4.0-2.52","","<div style=""font-size:60px;"">+</div>","null","","","","","","",""
"471.61500016227365","","image-keyboard-response","198","389516","0.0-4.0-0.53","","img/blue.png","32","trial","32","true","0.8,0.2","1:go_a","",""
"null","","html-keyboard-response","199","390520","0.0-4.0-1.53","","<img src=""img/blue-n.png"" border=""10"">","null","trial","32","","0.8,0.2","1:go_a","0",""
"null","","html-keyboard-response","200","391528","0.0-4.0-2.53","","<div style=""font-size:60px;"">+</div>","null","","","","","","",""
"601.784999947995","","image-keyboard-response","201","392132","0.0-4.0-0.54","","img/purple.png","32","trial","null","false","0.2,0.8","2:nogo_b","",""
"null","","html-keyboard-response","202","393142","0.0-4.0-1.54","","<img src=""img/purple-r.png"" border=""10"">","null","trial","null","","0.2,0.8","2:nogo_b","1",""
"null","","html-keyboard-response","203","394146","0.0-4.0-2.54","","<div style=""font-size:60px;"">+</div>","null","","","","","","",""
"null","","image-keyboard-response","204","395650","0.0-4.0-0.55","","img/blue.png","null","trial","32","false","0.8,0.2","1:go_a","",""
"null","","html-keyboard-response","205","396653","0.0-4.0-1.55","","<img src=""img/blue-n.png"">","null","trial","32","","0.8,0.2","1:go_a","0",""
"null","","html-keyboard-response","206","397656","0.0-4.0-2.55","","<div style=""font-size:60px;"">+</div>","null","","","","","","",""
"388.7749998830259","","image-keyboard-response","207","398046","0.0-4.0-0.56","","img/blue.png","32","trial","32","true","0.8,0.2","1:go_a","",""
"null","","html-keyboard-response","208","399056","0.0-4.0-1.56","","<img src=""img/blue-r.png"" border=""10"">","null","trial","32","","0.8,0.2","1:go_a","1",""
"null","","html-keyboard-response","209","400058","0.0-4.0-2.56","","<div style=""font-size:60px;"">+</div>","null","","","","","","",""
"null","","image-keyboard-response","210","401565","0.0-4.0-0.57","","img/purple.png","null","trial","null","true","0.2,0.8","2:nogo_b","",""
"null","","html-keyboard-response","211","402583","0.0-4.0-1.57","","<img src=""img/purple-r.png"">","null","trial","null","","0.2,0.8","2:nogo_b","1",""
"null","","html-keyboard-response","212","403592","0.0-4.0-2.57","","<div style=""font-size:60px;"">+</div>","null","","","","","","",""
"410.4799998458475","","image-keyboard-response","213","404005","0.0-4.0-0.58","","img/blue.png","32","trial","32","true","0.8,0.2","1:go_a","",""
"null","","html-keyboard-response","214","405008","0.0-4.0-1.58","","<img src=""img/blue-r.png"" border=""10"">","null","trial","32","","0.8,0.2","1:go_a","1",""
"null","","html-keyboard-response","215","406019","0.0-4.0-2.58","","<div style=""font-size:60px;"">+</div>","null","","","","","","",""
"null","","image-keyboard-response","216","407523","0.0-4.0-0.59","","img/purple.png","null","trial","null","true","0.2,0.8","2:nogo_b","",""
"null","","html-keyboard-response","217","408535","0.0-4.0-1.59","","<img src=""img/purple-r.png"">","null","trial","null","","0.2,0.8","2:nogo_b","1",""
"null","","html-keyboard-response","218","409538","0.0-4.0-2.59","","<div style=""font-size:60px;"">+</div>","null","","","","","","",""
"4726.550000021234","","instructions","219","414266","0.0-5.0","[{""page_index"":0,""viewing_time"":4726.100000087172}]","","","","","","","","",""
"941.12000009045","","image-keyboard-response","220","415209","0.0-6.0-0.0","","img/grey.png","32","trial","null","false","0,1","4:nogo_d","",""
"null","","html-keyboard-response","221","416216","0.0-6.0-1.0","","<img src=""img/grey-n.png"" border=""10"">","null","trial","null","","0,1","4:nogo_d","0",""
"null","","html-keyboard-response","222","417228","0.0-6.0-2.0","","<div style=""font-size:60px;"">+</div>","null","","","","","","",""
"470.5850000027567","","image-keyboard-response","223","417700","0.0-6.0-0.1","","img/yellow.png","32","trial","null","false","0.2,0.8","2:nogo_b","",""
"null","","html-keyboard-response","224","418710","0.0-6.0-1.1","","<img src=""img/yellow-n.png"" border=""10"">","null","trial","null","","0.2,0.8","2:nogo_b","0",""
"null","","html-keyboard-response","225","419722","0.0-6.0-2.1","","<div style=""font-size:60px;"">+</div>","null","","","","","","",""
"685.3300000075251","","image-keyboard-response","226","420409","0.0-6.0-0.2","","img/orange.png","32","trial","32","true","1,0","3:go_c","",""
"null","","html-keyboard-response","227","421411","0.0-6.0-1.2","","<img src=""img/orange-r.png"" border=""10"">","null","trial","32","","1,0","3:go_c","1",""
"null","","html-keyboard-response","228","422417","0.0-6.0-2.2","","<div style=""font-size:60px;"">+</div>","null","","","","","","",""
"null","","image-keyboard-response","229","423927","0.0-6.0-0.3","","img/green.png","null","trial","32","false","0.8,0.2","1:go_a","",""
"null","","html-keyboard-response","230","424932","0.0-6.0-1.3","","<img src=""img/green-n.png"">","null","trial","32","","0.8,0.2","1:go_a","0",""
"null","","html-keyboard-response","231","425946","0.0-6.0-2.3","","<div style=""font-size:60px;"">+</div>","null","","","","","","",""
"566.4150000084192","","image-keyboard-response","232","426513","0.0-6.0-0.4","","img/green.png","32","trial","32","true","0.8,0.2","1:go_a","",""
"null","","html-keyboard-response","233","427527","0.0-6.0-1.4","","<img src=""img/green-r.png"" border=""10"">","null","trial","32","","0.8,0.2","1:go_a","1",""
"null","","html-keyboard-response","234","428537","0.0-6.0-2.4","","<div style=""font-size:60px;"">+</div>","null","","","","","","",""
"410.4149998165667","","image-keyboard-response","235","428949","0.0-6.0-0.5","","img/orange.png","32","trial","32","true","1,0","3:go_c","",""
"null","","html-keyboard-response","236","429954","0.0-6.0-1.5","","<img src=""img/orange-r.png"" border=""10"">","null","trial","32","","1,0","3:go_c","1",""
"null","","html-keyboard-response","237","430969","0.0-6.0-2.5","","<div style=""font-size:60px;"">+</div>","null","","","","","","",""
"null","","image-keyboard-response","238","432484","0.0-6.0-0.6","","img/grey.png","null","trial","null","true","0,1","4:nogo_d","",""
"null","","html-keyboard-response","239","433491","0.0-6.0-1.6","","<img src=""img/grey-r.png"">","null","trial","null","","0,1","4:nogo_d","1",""
"null","","html-keyboard-response","240","434501","0.0-6.0-2.6","","<div style=""font-size:60px;"">+</div>","null","","","","","","",""
"null","","image-keyboard-response","241","436006","0.0-6.0-0.7","","img/yellow.png","null","trial","null","true","0.2,0.8","2:nogo_b","",""
"null","","html-keyboard-response","242","437010","0.0-6.0-1.7","","<img src=""img/yellow-r.png"">","null","trial","null","","0.2,0.8","2:nogo_b","1",""
"null","","html-keyboard-response","243","438023","0.0-6.0-2.7","","<div style=""font-size:60px;"">+</div>","null","","","","","","",""
"409.9749999586493","","image-keyboard-response","244","438434","0.0-6.0-0.8","","img/green.png","32","trial","32","true","0.8,0.2","1:go_a","",""
"null","","html-keyboard-response","245","439444","0.0-6.0-1.8","","<img src=""img/green-n.png"" border=""10"">","null","trial","32","","0.8,0.2","1:go_a","0",""
"null","","html-keyboard-response","246","440446","0.0-6.0-2.8","","<div style=""font-size:60px;"">+</div>","null","","","","","","",""
"424.485000083223","","image-keyboard-response","247","440873","0.0-6.0-0.9","","img/orange.png","32","trial","32","true","1,0","3:go_c","",""
"null","","html-keyboard-response","248","441877","0.0-6.0-1.9","","<img src=""img/orange-r.png"" border=""10"">","null","trial","32","","1,0","3:go_c","1",""
"null","","html-keyboard-response","249","442884","0.0-6.0-2.9","","<div style=""font-size:60px;"">+</div>","null","","","","","","",""
"null","","image-keyboard-response","250","444390","0.0-6.0-0.10","","img/yellow.png","null","trial","null","true","0.2,0.8","2:nogo_b","",""
"null","","html-keyboard-response","251","445393","0.0-6.0-1.10","","<img src=""img/yellow-r.png"">","null","trial","null","","0.2,0.8","2:nogo_b","1",""
"null","","html-keyboard-response","252","446398","0.0-6.0-2.10","","<div style=""font-size:60px;"">+</div>","null","","","","","","",""
"null","","image-keyboard-response","253","447912","0.0-6.0-0.11","","img/grey.png","null","trial","null","true","0,1","4:nogo_d","",""
"null","","html-keyboard-response","254","448919","0.0-6.0-1.11","","<img src=""img/grey-r.png"">","null","trial","null","","0,1","4:nogo_d","1",""
"null","","html-keyboard-response","255","449924","0.0-6.0-2.11","","<div style=""font-size:60px;"">+</div>","null","","","","","","",""
"542.3099999316037","","image-keyboard-response","256","450470","0.0-6.0-0.12","","img/orange.png","32","trial","32","true","1,0","3:go_c","",""
"null","","html-keyboard-response","257","451475","0.0-6.0-1.12","","<img src=""img/orange-r.png"" border=""10"">","null","trial","32","","1,0","3:go_c","1",""
"null","","html-keyboard-response","258","452486","0.0-6.0-2.12","","<div style=""font-size:60px;"">+</div>","null","","","","","","",""
"null","","image-keyboard-response","259","453992","0.0-6.0-0.13","","img/yellow.png","null","trial","null","true","0.2,0.8","2:nogo_b","",""
"null","","html-keyboard-response","260","455002","0.0-6.0-1.13","","<img src=""img/yellow-n.png"">","null","trial","null","","0.2,0.8","2:nogo_b","0",""
"null","","html-keyboard-response","261","456005","0.0-6.0-2.13","","<div style=""font-size:60px;"">+</div>","null","","","","","","",""
"null","","image-keyboard-response","262","457512","0.0-6.0-0.14","","img/grey.png","null","trial","null","true","0,1","4:nogo_d","",""
"null","","html-keyboard-response","263","458528","0.0-6.0-1.14","","<img src=""img/grey-r.png"">","null","trial","null","","0,1","4:nogo_d","1",""
"null","","html-keyboard-response","264","459531","0.0-6.0-2.14","","<div style=""font-size:60px;"">+</div>","null","","","","","","",""
"479.72499998286366","","image-keyboard-response","265","460012","0.0-6.0-0.15","","img/green.png","32","trial","32","true","0.8,0.2","1:go_a","",""
"null","","html-keyboard-response","266","461019","0.0-6.0-1.15","","<img src=""img/green-r.png"" border=""10"">","null","trial","32","","0.8,0.2","1:go_a","1",""
"null","","html-keyboard-response","267","462025","0.0-6.0-2.15","","<div style=""font-size:60px;"">+</div>","null","","","","","","",""
"null","","image-keyboard-response","268","463531","0.0-6.0-0.16","","img/grey.png","null","trial","null","true","0,1","4:nogo_d","",""
"null","","html-keyboard-response","269","464546","0.0-6.0-1.16","","<img src=""img/grey-r.png"">","null","trial","null","","0,1","4:nogo_d","1",""
"null","","html-keyboard-response","270","465553","0.0-6.0-2.16","","<div style=""font-size:60px;"">+</div>","null","","","","","","",""
"null","","image-keyboard-response","271","467064","0.0-6.0-0.17","","img/yellow.png","null","trial","null","true","0.2,0.8","2:nogo_b","",""
"null","","html-keyboard-response","272","468074","0.0-6.0-1.17","","<img src=""img/yellow-r.png"">","null","trial","null","","0.2,0.8","2:nogo_b","1",""
"null","","html-keyboard-response","273","469088","0.0-6.0-2.17","","<div style=""font-size:60px;"">+</div>","null","","","","","","",""
"452.59499992243946","","image-keyboard-response","274","469542","0.0-6.0-0.18","","img/orange.png","32","trial","32","true","1,0","3:go_c","",""
"null","","html-keyboard-response","275","470556","0.0-6.0-1.18","","<img src=""img/orange-r.png"" border=""10"">","null","trial","32","","1,0","3:go_c","1",""
"null","","html-keyboard-response","276","471564","0.0-6.0-2.18","","<div style=""font-size:60px;"">+</div>","null","","","","","","",""
"547.5149999838322","","image-keyboard-response","277","472113","0.0-6.0-0.19","","img/green.png","32","trial","32","true","0.8,0.2","1:go_a","",""
"null","","html-keyboard-response","278","473126","0.0-6.0-1.19","","<img src=""img/green-n.png"" border=""10"">","null","trial","32","","0.8,0.2","1:go_a","0",""
"null","","html-keyboard-response","279","474141","0.0-6.0-2.19","","<div style=""font-size:60px;"">+</div>","null","","","","","","",""
"null","","image-keyboard-response","280","475649","0.0-6.0-0.20","","img/grey.png","null","trial","null","true","0,1","4:nogo_d","",""
"null","","html-keyboard-response","281","476653","0.0-6.0-1.20","","<img src=""img/grey-r.png"">","null","trial","null","","0,1","4:nogo_d","1",""
"null","","html-keyboard-response","282","477678","0.0-6.0-2.20","","<div style=""font-size:60px;"">+</div>","null","","","","","","",""
"640.6300000380725","","image-keyboard-response","283","478320","0.0-6.0-0.21","","img/green.png","32","trial","32","true","0.8,0.2","1:go_a","",""
"null","","html-keyboard-response","284","479326","0.0-6.0-1.21","","<img src=""img/green-r.png"" border=""10"">","null","trial","32","","0.8,0.2","1:go_a","1",""
"null","","html-keyboard-response","285","480339","0.0-6.0-2.21","","<div style=""font-size:60px;"">+</div>","null","","","","","","",""
"635.9949999023229","","image-keyboard-response","286","480977","0.0-6.0-0.22","","img/orange.png","32","trial","32","true","1,0","3:go_c","",""
"null","","html-keyboard-response","287","481985","0.0-6.0-1.22","","<img src=""img/orange-r.png"" border=""10"">","null","trial","32","","1,0","3:go_c","1",""
"null","","html-keyboard-response","288","482995","0.0-6.0-2.22","","<div style=""font-size:60px;"">+</div>","null","","","","","","",""
"null","","image-keyboard-response","289","484503","0.0-6.0-0.23","","img/yellow.png","null","trial","null","true","0.2,0.8","2:nogo_b","",""
"null","","html-keyboard-response","290","485522","0.0-6.0-1.23","","<img src=""img/yellow-n.png"">","null","trial","null","","0.2,0.8","2:nogo_b","0",""
"null","","html-keyboard-response","291","486529","0.0-6.0-2.23","","<div style=""font-size:60px;"">+</div>","null","","","","","","",""
"null","","image-keyboard-response","292","488036","0.0-6.0-0.24","","img/grey.png","null","trial","null","true","0,1","4:nogo_d","",""
"null","","html-keyboard-response","293","489051","0.0-6.0-1.24","","<img src=""img/grey-r.png"">","null","trial","null","","0,1","4:nogo_d","1",""
"null","","html-keyboard-response","294","490055","0.0-6.0-2.24","","<div style=""font-size:60px;"">+</div>","null","","","","","","",""
"null","","image-keyboard-response","295","491570","0.0-6.0-0.25","","img/yellow.png","null","trial","null","true","0.2,0.8","2:nogo_b","",""
"null","","html-keyboard-response","296","492573","0.0-6.0-1.25","","<img src=""img/yellow-r.png"">","null","trial","null","","0.2,0.8","2:nogo_b","1",""
"null","","html-keyboard-response","297","493590","0.0-6.0-2.25","","<div style=""font-size:60px;"">+</div>","null","","","","","","",""
"501.17500009946525","","image-keyboard-response","298","494093","0.0-6.0-0.26","","img/orange.png","32","trial","32","true","1,0","3:go_c","",""
"null","","html-keyboard-response","299","495099","0.0-6.0-1.26","","<img src=""img/orange-r.png"" border=""10"">","null","trial","32","","1,0","3:go_c","1",""
"null","","html-keyboard-response","300","496103","0.0-6.0-2.26","","<div style=""font-size:60px;"">+</div>","null","","","","","","",""
"444.11000004038215","","image-keyboard-response","301","496549","0.0-6.0-0.27","","img/green.png","32","trial","32","true","0.8,0.2","1:go_a","",""
"null","","html-keyboard-response","302","497559","0.0-6.0-1.27","","<img src=""img/green-r.png"" border=""10"">","null","trial","32","","0.8,0.2","1:go_a","1",""
"null","","html-keyboard-response","303","498566","0.0-6.0-2.27","","<div style=""font-size:60px;"">+</div>","null","","","","","","",""
"null","","image-keyboard-response","304","500069","0.0-6.0-0.28","","img/yellow.png","null","trial","null","true","0.2,0.8","2:nogo_b","",""
"null","","html-keyboard-response","305","501073","0.0-6.0-1.28","","<img src=""img/yellow-r.png"">","null","trial","null","","0.2,0.8","2:nogo_b","1",""
"null","","html-keyboard-response","306","502089","0.0-6.0-2.28","","<div style=""font-size:60px;"">+</div>","null","","","","","","",""
"781.3150000292808","","image-keyboard-response","307","502872","0.0-6.0-0.29","","img/green.png","32","trial","32","true","0.8,0.2","1:go_a","",""
"null","","html-keyboard-response","308","503880","0.0-6.0-1.29","","<img src=""img/green-r.png"" border=""10"">","null","trial","32","","0.8,0.2","1:go_a","1",""
"null","","html-keyboard-response","309","504896","0.0-6.0-2.29","","<div style=""font-size:60px;"">+</div>","null","","","","","","",""
"null","","image-keyboard-response","310","506400","0.0-6.0-0.30","","img/grey.png","null","trial","null","true","0,1","4:nogo_d","",""
"null","","html-keyboard-response","311","507412","0.0-6.0-1.30","","<img src=""img/grey-r.png"">","null","trial","null","","0,1","4:nogo_d","1",""
"null","","html-keyboard-response","312","508414","0.0-6.0-2.30","","<div style=""font-size:60px;"">+</div>","null","","","","","","",""
"445.33499982208014","","image-keyboard-response","313","508861","0.0-6.0-0.31","","img/orange.png","32","trial","32","true","1,0","3:go_c","",""
"null","","html-keyboard-response","314","509874","0.0-6.0-1.31","","<img src=""img/orange-r.png"" border=""10"">","null","trial","32","","1,0","3:go_c","1",""
"null","","html-keyboard-response","315","510890","0.0-6.0-2.31","","<div style=""font-size:60px;"">+</div>","null","","","","","","",""
"null","","image-keyboard-response","316","512392","0.0-6.0-0.32","","img/grey.png","null","trial","null","true","0,1","4:nogo_d","",""
"null","","html-keyboard-response","317","513408","0.0-6.0-1.32","","<img src=""img/grey-r.png"">","null","trial","null","","0,1","4:nogo_d","1",""
"null","","html-keyboard-response","318","514412","0.0-6.0-2.32","","<div style=""font-size:60px;"">+</div>","null","","","","","","",""
"null","","image-keyboard-response","319","515916","0.0-6.0-0.33","","img/yellow.png","null","trial","null","true","0.2,0.8","2:nogo_b","",""
"null","","html-keyboard-response","320","516924","0.0-6.0-1.33","","<img src=""img/yellow-r.png"">","null","trial","null","","0.2,0.8","2:nogo_b","1",""
"null","","html-keyboard-response","321","517932","0.0-6.0-2.33","","<div style=""font-size:60px;"">+</div>","null","","","","","","",""
"620.1299999374896","","image-keyboard-response","322","518554","0.0-6.0-0.34","","img/orange.png","32","trial","32","true","1,0","3:go_c","",""
"null","","html-keyboard-response","323","519558","0.0-6.0-1.34","","<img src=""img/orange-r.png"" border=""10"">","null","trial","32","","1,0","3:go_c","1",""
"null","","html-keyboard-response","324","520564","0.0-6.0-2.34","","<div style=""font-size:60px;"">+</div>","null","","","","","","",""
"484.6000000834465","","image-keyboard-response","325","521050","0.0-6.0-0.35","","img/green.png","32","trial","32","true","0.8,0.2","1:go_a","",""
"null","","html-keyboard-response","326","522065","0.0-6.0-1.35","","<img src=""img/green-r.png"" border=""10"">","null","trial","32","","0.8,0.2","1:go_a","1",""
"null","","html-keyboard-response","327","523070","0.0-6.0-2.35","","<div style=""font-size:60px;"">+</div>","null","","","","","","",""
"488.81000000983477","","image-keyboard-response","328","523560","0.0-6.0-0.36","","img/green.png","32","trial","32","true","0.8,0.2","1:go_a","",""
"null","","html-keyboard-response","329","524569","0.0-6.0-1.36","","<img src=""img/green-n.png"" border=""10"">","null","trial","32","","0.8,0.2","1:go_a","0",""
"null","","html-keyboard-response","330","525578","0.0-6.0-2.36","","<div style=""font-size:60px;"">+</div>","null","","","","","","",""
"null","","image-keyboard-response","331","527084","0.0-6.0-0.37","","img/yellow.png","null","trial","null","true","0.2,0.8","2:nogo_b","",""
"null","","html-keyboard-response","332","528090","0.0-6.0-1.37","","<img src=""img/yellow-r.png"">","null","trial","null","","0.2,0.8","2:nogo_b","1",""
"null","","html-keyboard-response","333","529096","0.0-6.0-2.37","","<div style=""font-size:60px;"">+</div>","null","","","","","","",""
"null","","image-keyboard-response","334","530603","0.0-6.0-0.38","","img/grey.png","null","trial","null","true","0,1","4:nogo_d","",""
"null","","html-keyboard-response","335","531617","0.0-6.0-1.38","","<img src=""img/grey-r.png"">","null","trial","null","","0,1","4:nogo_d","1",""
"null","","html-keyboard-response","336","532623","0.0-6.0-2.38","","<div style=""font-size:60px;"">+</div>","null","","","","","","",""
"444.06999996863306","","image-keyboard-response","337","533068","0.0-6.0-0.39","","img/orange.png","32","trial","32","true","1,0","3:go_c","",""
"null","","html-keyboard-response","338","534071","0.0-6.0-1.39","","<img src=""img/orange-r.png"" border=""10"">","null","trial","32","","1,0","3:go_c","1",""
"null","","html-keyboard-response","339","535086","0.0-6.0-2.39","","<div style=""font-size:60px;"">+</div>","null","","","","","","",""
"785.4899999219924","","image-keyboard-response","340","535873","0.0-6.0-0.40","","img/orange.png","32","trial","32","true","1,0","3:go_c","",""
"null","","html-keyboard-response","341","536880","0.0-6.0-1.40","","<img src=""img/orange-r.png"" border=""10"">","null","trial","32","","1,0","3:go_c","1",""
"null","","html-keyboard-response","342","537887","0.0-6.0-2.40","","<div style=""font-size:60px;"">+</div>","null","","","","","","",""
"543.8149999827147","","image-keyboard-response","343","538432","0.0-6.0-0.41","","img/green.png","32","trial","32","true","0.8,0.2","1:go_a","",""
"null","","html-keyboard-response","344","539443","0.0-6.0-1.41","","<img src=""img/green-n.png"" border=""10"">","null","trial","32","","0.8,0.2","1:go_a","0",""
"null","","html-keyboard-response","345","540454","0.0-6.0-2.41","","<div style=""font-size:60px;"">+</div>","null","","","","","","",""
"null","","image-keyboard-response","346","541961","0.0-6.0-0.42","","img/grey.png","null","trial","null","true","0,1","4:nogo_d","",""
"null","","html-keyboard-response","347","542968","0.0-6.0-1.42","","<img src=""img/grey-r.png"">","null","trial","null","","0,1","4:nogo_d","1",""
"null","","html-keyboard-response","348","543973","0.0-6.0-2.42","","<div style=""font-size:60px;"">+</div>","null","","","","","","",""
"null","","image-keyboard-response","349","545474","0.0-6.0-0.43","","img/yellow.png","null","trial","null","true","0.2,0.8","2:nogo_b","",""
"null","","html-keyboard-response","350","546488","0.0-6.0-1.43","","<img src=""img/yellow-r.png"">","null","trial","null","","0.2,0.8","2:nogo_b","1",""
"null","","html-keyboard-response","351","547502","0.0-6.0-2.43","","<div style=""font-size:60px;"">+</div>","null","","","","","","",""
"534.0749998576939","","image-keyboard-response","352","548037","0.0-6.0-0.44","","img/green.png","32","trial","32","true","0.8,0.2","1:go_a","",""
"null","","html-keyboard-response","353","549041","0.0-6.0-1.44","","<img src=""img/green-r.png"" border=""10"">","null","trial","32","","0.8,0.2","1:go_a","1",""
"null","","html-keyboard-response","354","550058","0.0-6.0-2.44","","<div style=""font-size:60px;"">+</div>","null","","","","","","",""
"394.48999986052513","","image-keyboard-response","355","550454","0.0-6.0-0.45","","img/orange.png","32","trial","32","true","1,0","3:go_c","",""
"null","","html-keyboard-response","356","551460","0.0-6.0-1.45","","<img src=""img/orange-r.png"" border=""10"">","null","trial","32","","1,0","3:go_c","1",""
"null","","html-keyboard-response","357","552466","0.0-6.0-2.45","","<div style=""font-size:60px;"">+</div>","null","","","","","","",""
"null","","image-keyboard-response","358","553975","0.0-6.0-0.46","","img/yellow.png","null","trial","null","true","0.2,0.8","2:nogo_b","",""
"null","","html-keyboard-response","359","554987","0.0-6.0-1.46","","<img src=""img/yellow-n.png"">","null","trial","null","","0.2,0.8","2:nogo_b","0",""
"null","","html-keyboard-response","360","556004","0.0-6.0-2.46","","<div style=""font-size:60px;"">+</div>","null","","","","","","",""
"null","","image-keyboard-response","361","557515","0.0-6.0-0.47","","img/grey.png","null","trial","null","true","0,1","4:nogo_d","",""
"null","","html-keyboard-response","362","558528","0.0-6.0-1.47","","<img src=""img/grey-r.png"">","null","trial","null","","0,1","4:nogo_d","1",""
"null","","html-keyboard-response","363","559530","0.0-6.0-2.47","","<div style=""font-size:60px;"">+</div>","null","","","","","","",""
"null","","image-keyboard-response","364","561033","0.0-6.0-0.48","","img/grey.png","null","trial","null","true","0,1","4:nogo_d","",""
"null","","html-keyboard-response","365","562043","0.0-6.0-1.48","","<img src=""img/grey-r.png"">","null","trial","null","","0,1","4:nogo_d","1",""
"null","","html-keyboard-response","366","563046","0.0-6.0-2.48","","<div style=""font-size:60px;"">+</div>","null","","","","","","",""
"523.0749999172986","","image-keyboard-response","367","563570","0.0-6.0-0.49","","img/green.png","32","trial","32","true","0.8,0.2","1:go_a","",""
"null","","html-keyboard-response","368","564588","0.0-6.0-1.49","","<img src=""img/green-r.png"" border=""10"">","null","trial","32","","0.8,0.2","1:go_a","1",""
"null","","html-keyboard-response","369","565596","0.0-6.0-2.49","","<div style=""font-size:60px;"">+</div>","null","","","","","","",""
"null","","image-keyboard-response","370","567110","0.0-6.0-0.50","","img/yellow.png","null","trial","null","true","0.2,0.8","2:nogo_b","",""
"null","","html-keyboard-response","371","568126","0.0-6.0-1.50","","<img src=""img/yellow-r.png"">","null","trial","null","","0.2,0.8","2:nogo_b","1",""
"null","","html-keyboard-response","372","569136","0.0-6.0-2.50","","<div style=""font-size:60px;"">+</div>","null","","","","","","",""
"484.775000018999","","image-keyboard-response","373","569622","0.0-6.0-0.51","","img/orange.png","32","trial","32","true","1,0","3:go_c","",""
"null","","html-keyboard-response","374","570629","0.0-6.0-1.51","","<img src=""img/orange-r.png"" border=""10"">","null","trial","32","","1,0","3:go_c","1",""
"null","","html-keyboard-response","375","571635","0.0-6.0-2.51","","<div style=""font-size:60px;"">+</div>","null","","","","","","",""
"null","","image-keyboard-response","376","573151","0.0-6.0-0.52","","img/grey.png","null","trial","null","true","0,1","4:nogo_d","",""
"null","","html-keyboard-response","377","574164","0.0-6.0-1.52","","<img src=""img/grey-r.png"">","null","trial","null","","0,1","4:nogo_d","1",""
"null","","html-keyboard-response","378","575178","0.0-6.0-2.52","","<div style=""font-size:60px;"">+</div>","null","","","","","","",""
"null","","image-keyboard-response","379","576694","0.0-6.0-0.53","","img/yellow.png","null","trial","null","true","0.2,0.8","2:nogo_b","",""
"null","","html-keyboard-response","380","577709","0.0-6.0-1.53","","<img src=""img/yellow-r.png"">","null","trial","null","","0.2,0.8","2:nogo_b","1",""
"null","","html-keyboard-response","381","578717","0.0-6.0-2.53","","<div style=""font-size:60px;"">+</div>","null","","","","","","",""
"464.4850001204759","","image-keyboard-response","382","579183","0.0-6.0-0.54","","img/green.png","32","trial","32","true","0.8,0.2","1:go_a","",""
"null","","html-keyboard-response","383","580197","0.0-6.0-1.54","","<img src=""img/green-n.png"" border=""10"">","null","trial","32","","0.8,0.2","1:go_a","0",""
"null","","html-keyboard-response","384","581208","0.0-6.0-2.54","","<div style=""font-size:60px;"">+</div>","null","","","","","","",""
"446.3100000284612","","image-keyboard-response","385","581655","0.0-6.0-0.55","","img/orange.png","32","trial","32","true","1,0","3:go_c","",""
"null","","html-keyboard-response","386","582662","0.0-6.0-1.55","","<img src=""img/orange-r.png"" border=""10"">","null","trial","32","","1,0","3:go_c","1",""
"null","","html-keyboard-response","387","583664","0.0-6.0-2.55","","<div style=""font-size:60px;"">+</div>","null","","","","","","",""
"null","","image-keyboard-response","388","585174","0.0-6.0-0.56","","img/grey.png","null","trial","null","true","0,1","4:nogo_d","",""
"null","","html-keyboard-response","389","586182","0.0-6.0-1.56","","<img src=""img/grey-r.png"">","null","trial","null","","0,1","4:nogo_d","1",""
"null","","html-keyboard-response","390","587185","0.0-6.0-2.56","","<div style=""font-size:60px;"">+</div>","null","","","","","","",""
"564.0700000803918","","image-keyboard-response","391","587751","0.0-6.0-0.57","","img/green.png","32","trial","32","true","0.8,0.2","1:go_a","",""
"null","","html-keyboard-response","392","588767","0.0-6.0-1.57","","<img src=""img/green-r.png"" border=""10"">","null","trial","32","","0.8,0.2","1:go_a","1",""
"null","","html-keyboard-response","393","589780","0.0-6.0-2.57","","<div style=""font-size:60px;"">+</div>","null","","","","","","",""
"497.68500006757677","","image-keyboard-response","394","590279","0.0-6.0-0.58","","img/orange.png","32","trial","32","true","1,0","3:go_c","",""
"null","","html-keyboard-response","395","591288","0.0-6.0-1.58","","<img src=""img/orange-r.png"" border=""10"">","null","trial","32","","1,0","3:go_c","1",""
"null","","html-keyboard-response","396","592300","0.0-6.0-2.58","","<div style=""font-size:60px;"">+</div>","null","","","","","","",""
"null","","image-keyboard-response","397","593805","0.0-6.0-0.59","","img/yellow.png","null","trial","null","true","0.2,0.8","2:nogo_b","",""
"null","","html-keyboard-response","398","594821","0.0-6.0-1.59","","<img src=""img/yellow-r.png"">","null","trial","null","","0.2,0.8","2:nogo_b","1",""
"null","","html-keyboard-response","399","595832","0.0-6.0-2.59","","<div style=""font-size:60px;"">+</div>","null","","","","","","",""
"null","","image-keyboard-response","400","597348","0.0-6.0-0.60","","img/grey.png","null","trial","null","true","0,1","4:nogo_d","",""
"null","","html-keyboard-response","401","598362","0.0-6.0-1.60","","<img src=""img/grey-r.png"">","null","trial","null","","0,1","4:nogo_d","1",""
"null","","html-keyboard-response","402","599364","0.0-6.0-2.60","","<div style=""font-size:60px;"">+</div>","null","","","","","","",""
"null","","image-keyboard-response","403","600877","0.0-6.0-0.61","","img/yellow.png","null","trial","null","true","0.2,0.8","2:nogo_b","",""
"null","","html-keyboard-response","404","601881","0.0-6.0-1.61","","<img src=""img/yellow-r.png"">","null","trial","null","","0.2,0.8","2:nogo_b","1",""
"null","","html-keyboard-response","405","602893","0.0-6.0-2.61","","<div style=""font-size:60px;"">+</div>","null","","","","","","",""
"572.4200000986457","","image-keyboard-response","406","603467","0.0-6.0-0.62","","img/orange.png","32","trial","32","true","1,0","3:go_c","",""
"null","","html-keyboard-response","407","604469","0.0-6.0-1.62","","<img src=""img/orange-r.png"" border=""10"">","null","trial","32","","1,0","3:go_c","1",""
"null","","html-keyboard-response","408","605481","0.0-6.0-2.62","","<div style=""font-size:60px;"">+</div>","null","","","","","","",""
"526.2899999506772","","image-keyboard-response","409","606009","0.0-6.0-0.63","","img/green.png","32","trial","32","true","0.8,0.2","1:go_a","",""
"null","","html-keyboard-response","410","607015","0.0-6.0-1.63","","<img src=""img/green-r.png"" border=""10"">","null","trial","32","","0.8,0.2","1:go_a","1",""
"null","","html-keyboard-response","411","608022","0.0-6.0-2.63","","<div style=""font-size:60px;"">+</div>","null","","","","","","",""
"null","","image-keyboard-response","412","609535","0.0-6.0-0.64","","img/yellow.png","null","trial","null","true","0.2,0.8","2:nogo_b","",""
"null","","html-keyboard-response","413","610547","0.0-6.0-1.64","","<img src=""img/yellow-r.png"">","null","trial","null","","0.2,0.8","2:nogo_b","1",""
"null","","html-keyboard-response","414","611565","0.0-6.0-2.64","","<div style=""font-size:60px;"">+</div>","null","","","","","","",""
"529.3650000821799","","image-keyboard-response","415","612096","0.0-6.0-0.65","","img/green.png","32","trial","32","true","0.8,0.2","1:go_a","",""
"null","","html-keyboard-response","416","613113","0.0-6.0-1.65","","<img src=""img/green-r.png"" border=""10"">","null","trial","32","","0.8,0.2","1:go_a","1",""
"null","","html-keyboard-response","417","614124","0.0-6.0-2.65","","<div style=""font-size:60px;"">+</div>","null","","","","","","",""
"null","","image-keyboard-response","418","615630","0.0-6.0-0.66","","img/grey.png","null","trial","null","true","0,1","4:nogo_d","",""
"null","","html-keyboard-response","419","616642","0.0-6.0-1.66","","<img src=""img/grey-r.png"">","null","trial","null","","0,1","4:nogo_d","1",""
"null","","html-keyboard-response","420","617646","0.0-6.0-2.66","","<div style=""font-size:60px;"">+</div>","null","","","","","","",""
"677.8200000990182","","image-keyboard-response","421","618325","0.0-6.0-0.67","","img/orange.png","32","trial","32","true","1,0","3:go_c","",""
"null","","html-keyboard-response","422","619343","0.0-6.0-1.67","","<img src=""img/orange-r.png"" border=""10"">","null","trial","32","","1,0","3:go_c","1",""
"null","","html-keyboard-response","423","620358","0.0-6.0-2.67","","<div style=""font-size:60px;"">+</div>","null","","","","","","",""
"null","","image-keyboard-response","424","621862","0.0-6.0-0.68","","img/yellow.png","null","trial","null","true","0.2,0.8","2:nogo_b","",""
"null","","html-keyboard-response","425","622877","0.0-6.0-1.68","","<img src=""img/yellow-r.png"">","null","trial","null","","0.2,0.8","2:nogo_b","1",""
"null","","html-keyboard-response","426","623886","0.0-6.0-2.68","","<div style=""font-size:60px;"">+</div>","null","","","","","","",""
"null","","image-keyboard-response","427","625388","0.0-6.0-0.69","","img/grey.png","null","trial","null","true","0,1","4:nogo_d","",""
"null","","html-keyboard-response","428","626395","0.0-6.0-1.69","","<img src=""img/grey-r.png"">","null","trial","null","","0,1","4:nogo_d","1",""
"null","","html-keyboard-response","429","627405","0.0-6.0-2.69","","<div style=""font-size:60px;"">+</div>","null","","","","","","",""
"508.41000000946224","","image-keyboard-response","430","627916","0.0-6.0-0.70","","img/green.png","32","trial","32","true","0.8,0.2","1:go_a","",""
"null","","html-keyboard-response","431","628921","0.0-6.0-1.70","","<img src=""img/green-r.png"" border=""10"">","null","trial","32","","0.8,0.2","1:go_a","1",""
"null","","html-keyboard-response","432","629934","0.0-6.0-2.70","","<div style=""font-size:60px;"">+</div>","null","","","","","","",""
"530.8250000234693","","image-keyboard-response","433","630466","0.0-6.0-0.71","","img/orange.png","32","trial","32","true","1,0","3:go_c","",""
"null","","html-keyboard-response","434","631472","0.0-6.0-1.71","","<img src=""img/orange-r.png"" border=""10"">","null","trial","32","","1,0","3:go_c","1",""
"null","","html-keyboard-response","435","632477","0.0-6.0-2.71","","<div style=""font-size:60px;"">+</div>","null","","","","","","",""
"460.31000022776425","","image-keyboard-response","436","632939","0.0-6.0-0.72","","img/green.png","32","trial","32","true","0.8,0.2","1:go_a","",""
"null","","html-keyboard-response","437","633956","0.0-6.0-1.72","","<img src=""img/green-r.png"" border=""10"">","null","trial","32","","0.8,0.2","1:go_a","1",""
"null","","html-keyboard-response","438","634959","0.0-6.0-2.72","","<div style=""font-size:60px;"">+</div>","null","","","","","","",""
"null","","image-keyboard-response","439","636467","0.0-6.0-0.73","","img/grey.png","null","trial","null","true","0,1","4:nogo_d","",""
"null","","html-keyboard-response","440","637474","0.0-6.0-1.73","","<img src=""img/grey-r.png"">","null","trial","null","","0,1","4:nogo_d","1",""
"null","","html-keyboard-response","441","638485","0.0-6.0-2.73","","<div style=""font-size:60px;"">+</div>","null","","","","","","",""
"572.4750000517815","","image-keyboard-response","442","639059","0.0-6.0-0.74","","img/orange.png","32","trial","32","true","1,0","3:go_c","",""
"null","","html-keyboard-response","443","640074","0.0-6.0-1.74","","<img src=""img/orange-r.png"" border=""10"">","null","trial","32","","1,0","3:go_c","1",""
"null","","html-keyboard-response","444","641089","0.0-6.0-2.74","","<div style=""font-size:60px;"">+</div>","null","","","","","","",""
"null","","image-keyboard-response","445","642605","0.0-6.0-0.75","","img/yellow.png","null","trial","null","true","0.2,0.8","2:nogo_b","",""
"null","","html-keyboard-response","446","643612","0.0-6.0-1.75","","<img src=""img/yellow-r.png"">","null","trial","null","","0.2,0.8","2:nogo_b","1",""
"null","","html-keyboard-response","447","644619","0.0-6.0-2.75","","<div style=""font-size:60px;"">+</div>","null","","","","","","",""
"null","","image-keyboard-response","448","646123","0.0-6.0-0.76","","img/grey.png","null","trial","null","true","0,1","4:nogo_d","",""
"null","","html-keyboard-response","449","647131","0.0-6.0-1.76","","<img src=""img/grey-r.png"">","null","trial","null","","0,1","4:nogo_d","1",""
"null","","html-keyboard-response","450","648140","0.0-6.0-2.76","","<div style=""font-size:60px;"">+</div>","null","","","","","","",""
"665.7300000078976","","image-keyboard-response","451","648807","0.0-6.0-0.77","","img/orange.png","32","trial","32","true","1,0","3:go_c","",""
"null","","html-keyboard-response","452","649814","0.0-6.0-1.77","","<img src=""img/orange-r.png"" border=""10"">","null","trial","32","","1,0","3:go_c","1",""
"null","","html-keyboard-response","453","650828","0.0-6.0-2.77","","<div style=""font-size:60px;"">+</div>","null","","","","","","",""
"null","","image-keyboard-response","454","652334","0.0-6.0-0.78","","img/yellow.png","null","trial","null","true","0.2,0.8","2:nogo_b","",""
"null","","html-keyboard-response","455","653349","0.0-6.0-1.78","","<img src=""img/yellow-r.png"">","null","trial","null","","0.2,0.8","2:nogo_b","1",""
"null","","html-keyboard-response","456","654351","0.0-6.0-2.78","","<div style=""font-size:60px;"">+</div>","null","","","","","","",""
"427.10500000976026","","image-keyboard-response","457","654779","0.0-6.0-0.79","","img/green.png","32","trial","32","true","0.8,0.2","1:go_a","",""
"null","","html-keyboard-response","458","655791","0.0-6.0-1.79","","<img src=""img/green-r.png"" border=""10"">","null","trial","32","","0.8,0.2","1:go_a","1",""
"null","","html-keyboard-response","459","656804","0.0-6.0-2.79","","<div style=""font-size:60px;"">+</div>","null","","","","","","",""
"556.1900001484901","","image-keyboard-response","460","657362","0.0-6.0-0.80","","img/green.png","32","trial","32","true","0.8,0.2","1:go_a","",""
"null","","html-keyboard-response","461","658376","0.0-6.0-1.80","","<img src=""img/green-r.png"" border=""10"">","null","trial","32","","0.8,0.2","1:go_a","1",""
"null","","html-keyboard-response","462","659393","0.0-6.0-2.80","","<div style=""font-size:60px;"">+</div>","null","","","","","","",""
"null","","image-keyboard-response","463","660905","0.0-6.0-0.81","","img/yellow.png","null","trial","null","true","0.2,0.8","2:nogo_b","",""
"null","","html-keyboard-response","464","661914","0.0-6.0-1.81","","<img src=""img/yellow-n.png"">","null","trial","null","","0.2,0.8","2:nogo_b","0",""
"null","","html-keyboard-response","465","662924","0.0-6.0-2.81","","<div style=""font-size:60px;"">+</div>","null","","","","","","",""
"null","","image-keyboard-response","466","664427","0.0-6.0-0.82","","img/grey.png","null","trial","null","true","0,1","4:nogo_d","",""
"null","","html-keyboard-response","467","665444","0.0-6.0-1.82","","<img src=""img/grey-r.png"">","null","trial","null","","0,1","4:nogo_d","1",""
"null","","html-keyboard-response","468","666448","0.0-6.0-2.82","","<div style=""font-size:60px;"">+</div>","null","","","","","","",""
"595.560000045225","","image-keyboard-response","469","667046","0.0-6.0-0.83","","img/orange.png","32","trial","32","true","1,0","3:go_c","",""
"null","","html-keyboard-response","470","668052","0.0-6.0-1.83","","<img src=""img/orange-r.png"" border=""10"">","null","trial","32","","1,0","3:go_c","1",""
"null","","html-keyboard-response","471","669062","0.0-6.0-2.83","","<div style=""font-size:60px;"">+</div>","null","","","","","","",""
"637.4099999666214","","image-keyboard-response","472","669701","0.0-6.0-0.84","","img/orange.png","32","trial","32","true","1,0","3:go_c","",""
"null","","html-keyboard-response","473","670716","0.0-6.0-1.84","","<img src=""img/orange-r.png"" border=""10"">","null","trial","32","","1,0","3:go_c","1",""
"null","","html-keyboard-response","474","671723","0.0-6.0-2.84","","<div style=""font-size:60px;"">+</div>","null","","","","","","",""
"null","","image-keyboard-response","475","673237","0.0-6.0-0.85","","img/grey.png","null","trial","null","true","0,1","4:nogo_d","",""
"null","","html-keyboard-response","476","674255","0.0-6.0-1.85","","<img src=""img/grey-r.png"">","null","trial","null","","0,1","4:nogo_d","1",""
"null","","html-keyboard-response","477","675271","0.0-6.0-2.85","","<div style=""font-size:60px;"">+</div>","null","","","","","","",""
"null","","image-keyboard-response","478","676784","0.0-6.0-0.86","","img/yellow.png","null","trial","null","true","0.2,0.8","2:nogo_b","",""
"null","","html-keyboard-response","479","677798","0.0-6.0-1.86","","<img src=""img/yellow-r.png"">","null","trial","null","","0.2,0.8","2:nogo_b","1",""
"null","","html-keyboard-response","480","678811","0.0-6.0-2.86","","<div style=""font-size:60px;"">+</div>","null","","","","","","",""
"432.6599999330938","","image-keyboard-response","481","679246","0.0-6.0-0.87","","img/green.png","32","trial","32","true","0.8,0.2","1:go_a","",""
"null","","html-keyboard-response","482","680255","0.0-6.0-1.87","","<img src=""img/green-n.png"" border=""10"">","null","trial","32","","0.8,0.2","1:go_a","0",""
"null","","html-keyboard-response","483","681270","0.0-6.0-2.87","","<div style=""font-size:60px;"">+</div>","null","","","","","","",""
"394.7150001768023","","image-keyboard-response","484","681666","0.0-6.0-0.88","","img/orange.png","32","trial","32","true","1,0","3:go_c","",""
"null","","html-keyboard-response","485","682683","0.0-6.0-1.88","","<img src=""img/orange-r.png"" border=""10"">","null","trial","32","","1,0","3:go_c","1",""
"null","","html-keyboard-response","486","683689","0.0-6.0-2.88","","<div style=""font-size:60px;"">+</div>","null","","","","","","",""
"null","","image-keyboard-response","487","685201","0.0-6.0-0.89","","img/grey.png","null","trial","null","true","0,1","4:nogo_d","",""
"null","","html-keyboard-response","488","686204","0.0-6.0-1.89","","<img src=""img/grey-r.png"">","null","trial","null","","0,1","4:nogo_d","1",""
"null","","html-keyboard-response","489","687209","0.0-6.0-2.89","","<div style=""font-size:60px;"">+</div>","null","","","","","","",""
"null","","image-keyboard-response","490","688720","0.0-6.0-0.90","","img/yellow.png","null","trial","null","true","0.2,0.8","2:nogo_b","",""
"null","","html-keyboard-response","491","689738","0.0-6.0-1.90","","<img src=""img/yellow-r.png"">","null","trial","null","","0.2,0.8","2:nogo_b","1",""
"null","","html-keyboard-response","492","690754","0.0-6.0-2.90","","<div style=""font-size:60px;"">+</div>","null","","","","","","",""
"656.2949998769909","","image-keyboard-response","493","691412","0.0-6.0-0.91","","img/green.png","32","trial","32","true","0.8,0.2","1:go_a","",""
"null","","html-keyboard-response","494","692415","0.0-6.0-1.91","","<img src=""img/green-r.png"" border=""10"">","null","trial","32","","0.8,0.2","1:go_a","1",""
"null","","html-keyboard-response","495","693427","0.0-6.0-2.91","","<div style=""font-size:60px;"">+</div>","null","","","","","","",""
"528.7250000983477","","image-keyboard-response","496","693958","0.0-6.0-0.92","","img/orange.png","32","trial","32","true","1,0","3:go_c","",""
"null","","html-keyboard-response","497","694974","0.0-6.0-1.92","","<img src=""img/orange-r.png"" border=""10"">","null","trial","32","","1,0","3:go_c","1",""
"null","","html-keyboard-response","498","695983","0.0-6.0-2.92","","<div style=""font-size:60px;"">+</div>","null","","","","","","",""
"null","","image-keyboard-response","499","697491","0.0-6.0-0.93","","img/yellow.png","null","trial","null","true","0.2,0.8","2:nogo_b","",""
"null","","html-keyboard-response","500","698507","0.0-6.0-1.93","","<img src=""img/yellow-n.png"">","null","trial","null","","0.2,0.8","2:nogo_b","0",""
"null","","html-keyboard-response","501","699517","0.0-6.0-2.93","","<div style=""font-size:60px;"">+</div>","null","","","","","","",""
"null","","image-keyboard-response","502","701031","0.0-6.0-0.94","","img/grey.png","null","trial","null","true","0,1","4:nogo_d","",""
"null","","html-keyboard-response","503","702038","0.0-6.0-1.94","","<img src=""img/grey-r.png"">","null","trial","null","","0,1","4:nogo_d","1",""
"null","","html-keyboard-response","504","703053","0.0-6.0-2.94","","<div style=""font-size:60px;"">+</div>","null","","","","","","",""
"452.90499995462596","","image-keyboard-response","505","703507","0.0-6.0-0.95","","img/green.png","32","trial","32","true","0.8,0.2","1:go_a","",""
"null","","html-keyboard-response","506","704515","0.0-6.0-1.95","","<img src=""img/green-r.png"" border=""10"">","null","trial","32","","0.8,0.2","1:go_a","1",""
"null","","html-keyboard-response","507","705529","0.0-6.0-2.95","","<div style=""font-size:60px;"">+</div>","null","","","","","","",""
"598.2649999205023","","image-keyboard-response","508","706129","0.0-6.0-0.96","","img/green.png","32","trial","32","true","0.8,0.2","1:go_a","",""
"null","","html-keyboard-response","509","707132","0.0-6.0-1.96","","<img src=""img/green-r.png"" border=""10"">","null","trial","32","","0.8,0.2","1:go_a","1",""
"null","","html-keyboard-response","510","708145","0.0-6.0-2.96","","<div style=""font-size:60px;"">+</div>","null","","","","","","",""
"null","","image-keyboard-response","511","709662","0.0-6.0-0.97","","img/grey.png","null","trial","null","true","0,1","4:nogo_d","",""
"null","","html-keyboard-response","512","710678","0.0-6.0-1.97","","<img src=""img/grey-r.png"">","null","trial","null","","0,1","4:nogo_d","1",""
"null","","html-keyboard-response","513","711681","0.0-6.0-2.97","","<div style=""font-size:60px;"">+</div>","null","","","","","","",""
"null","","image-keyboard-response","514","713189","0.0-6.0-0.98","","img/yellow.png","null","trial","null","true","0.2,0.8","2:nogo_b","",""
"null","","html-keyboard-response","515","714198","0.0-6.0-1.98","","<img src=""img/yellow-r.png"">","null","trial","null","","0.2,0.8","2:nogo_b","1",""
"null","","html-keyboard-response","516","715201","0.0-6.0-2.98","","<div style=""font-size:60px;"">+</div>","null","","","","","","",""
"725.6650000344962","","image-keyboard-response","517","715926","0.0-6.0-0.99","","img/orange.png","32","trial","32","true","1,0","3:go_c","",""
"null","","html-keyboard-response","518","716928","0.0-6.0-1.99","","<img src=""img/orange-r.png"" border=""10"">","null","trial","32","","1,0","3:go_c","1",""
"null","","html-keyboard-response","519","717934","0.0-6.0-2.99","","<div style=""font-size:60px;"">+</div>","null","","","","","","",""
"null","","image-keyboard-response","520","719445","0.0-6.0-0.100","","img/yellow.png","null","trial","null","true","0.2,0.8","2:nogo_b","",""
"null","","html-keyboard-response","521","720459","0.0-6.0-1.100","","<img src=""img/yellow-r.png"">","null","trial","null","","0.2,0.8","2:nogo_b","1",""
"null","","html-keyboard-response","522","721475","0.0-6.0-2.100","","<div style=""font-size:60px;"">+</div>","null","","","","","","",""
"586.600000038743","","image-keyboard-response","523","722063","0.0-6.0-0.101","","img/green.png","32","trial","32","true","0.8,0.2","1:go_a","",""
"null","","html-keyboard-response","524","723083","0.0-6.0-1.101","","<img src=""img/green-r.png"" border=""10"">","null","trial","32","","0.8,0.2","1:go_a","1",""
"null","","html-keyboard-response","525","724095","0.0-6.0-2.101","","<div style=""font-size:60px;"">+</div>","null","","","","","","",""
"null","","image-keyboard-response","526","725598","0.0-6.0-0.102","","img/grey.png","null","trial","null","true","0,1","4:nogo_d","",""
"null","","html-keyboard-response","527","726605","0.0-6.0-1.102","","<img src=""img/grey-r.png"">","null","trial","null","","0,1","4:nogo_d","1",""
"null","","html-keyboard-response","528","727610","0.0-6.0-2.102","","<div style=""font-size:60px;"">+</div>","null","","","","","","",""
"721.5799998957664","","image-keyboard-response","529","728333","0.0-6.0-0.103","","img/orange.png","32","trial","32","true","1,0","3:go_c","",""
"null","","html-keyboard-response","530","729348","0.0-6.0-1.103","","<img src=""img/orange-r.png"" border=""10"">","null","trial","32","","1,0","3:go_c","1",""
"null","","html-keyboard-response","531","730360","0.0-6.0-2.103","","<div style=""font-size:60px;"">+</div>","null","","","","","","",""
"664.3749999348074","","image-keyboard-response","532","731026","0.0-6.0-0.104","","img/orange.png","32","trial","32","true","1,0","3:go_c","",""
"null","","html-keyboard-response","533","732035","0.0-6.0-1.104","","<img src=""img/orange-r.png"" border=""10"">","null","trial","32","","1,0","3:go_c","1",""
"null","","html-keyboard-response","534","733038","0.0-6.0-2.104","","<div style=""font-size:60px;"">+</div>","null","","","","","","",""
"452.1350001450628","","image-keyboard-response","535","733492","0.0-6.0-0.105","","img/green.png","32","trial","32","true","0.8,0.2","1:go_a","",""
"null","","html-keyboard-response","536","734512","0.0-6.0-1.105","","<img src=""img/green-r.png"" border=""10"">","null","trial","32","","0.8,0.2","1:go_a","1",""
"null","","html-keyboard-response","537","735528","0.0-6.0-2.105","","<div style=""font-size:60px;"">+</div>","null","","","","","","",""
"null","","image-keyboard-response","538","737037","0.0-6.0-0.106","","img/grey.png","null","trial","null","true","0,1","4:nogo_d","",""
"null","","html-keyboard-response","539","738051","0.0-6.0-1.106","","<img src=""img/grey-r.png"">","null","trial","null","","0,1","4:nogo_d","1",""
"null","","html-keyboard-response","540","739065","0.0-6.0-2.106","","<div style=""font-size:60px;"">+</div>","null","","","","","","",""
"null","","image-keyboard-response","541","740570","0.0-6.0-0.107","","img/yellow.png","null","trial","null","true","0.2,0.8","2:nogo_b","",""
"null","","html-keyboard-response","542","741582","0.0-6.0-1.107","","<img src=""img/yellow-n.png"">","null","trial","null","","0.2,0.8","2:nogo_b","0",""
"null","","html-keyboard-response","543","742599","0.0-6.0-2.107","","<div style=""font-size:60px;"">+</div>","null","","","","","","",""
"null","","image-keyboard-response","544","744105","0.0-6.0-0.108","","img/yellow.png","null","trial","null","true","0.2,0.8","2:nogo_b","",""
"null","","html-keyboard-response","545","745114","0.0-6.0-1.108","","<img src=""img/yellow-r.png"">","null","trial","null","","0.2,0.8","2:nogo_b","1",""
"null","","html-keyboard-response","546","746124","0.0-6.0-2.108","","<div style=""font-size:60px;"">+</div>","null","","","","","","",""
"403.5100000910461","","image-keyboard-response","547","746528","0.0-6.0-0.109","","img/green.png","32","trial","32","true","0.8,0.2","1:go_a","",""
"null","","html-keyboard-response","548","747538","0.0-6.0-1.109","","<img src=""img/green-r.png"" border=""10"">","null","trial","32","","0.8,0.2","1:go_a","1",""
"null","","html-keyboard-response","549","748552","0.0-6.0-2.109","","<div style=""font-size:60px;"">+</div>","null","","","","","","",""
"521.9199999701232","","image-keyboard-response","550","749075","0.0-6.0-0.110","","img/orange.png","32","trial","32","true","1,0","3:go_c","",""
"null","","html-keyboard-response","551","750080","0.0-6.0-1.110","","<img src=""img/orange-r.png"" border=""10"">","null","trial","32","","1,0","3:go_c","1",""
"null","","html-keyboard-response","552","751093","0.0-6.0-2.110","","<div style=""font-size:60px;"">+</div>","null","","","","","","",""
"null","","image-keyboard-response","553","752611","0.0-6.0-0.111","","img/grey.png","null","trial","null","true","0,1","4:nogo_d","",""
"null","","html-keyboard-response","554","753619","0.0-6.0-1.111","","<img src=""img/grey-r.png"">","null","trial","null","","0,1","4:nogo_d","1",""
"null","","html-keyboard-response","555","754635","0.0-6.0-2.111","","<div style=""font-size:60px;"">+</div>","null","","","","","","",""
"704.2149999178946","","image-keyboard-response","556","755341","0.0-6.0-0.112","","img/orange.png","32","trial","32","true","1,0","3:go_c","",""
"null","","html-keyboard-response","557","756353","0.0-6.0-1.112","","<img src=""img/orange-r.png"" border=""10"">","null","trial","32","","1,0","3:go_c","1",""
"null","","html-keyboard-response","558","757364","0.0-6.0-2.112","","<div style=""font-size:60px;"">+</div>","null","","","","","","",""
"null","","image-keyboard-response","559","758865","0.0-6.0-0.113","","img/yellow.png","null","trial","null","true","0.2,0.8","2:nogo_b","",""
"null","","html-keyboard-response","560","759882","0.0-6.0-1.113","","<img src=""img/yellow-r.png"">","null","trial","null","","0.2,0.8","2:nogo_b","1",""
"null","","html-keyboard-response","561","760890","0.0-6.0-2.113","","<div style=""font-size:60px;"">+</div>","null","","","","","","",""
"545.3850000631064","","image-keyboard-response","562","761437","0.0-6.0-0.114","","img/green.png","32","trial","32","true","0.8,0.2","1:go_a","",""
"null","","html-keyboard-response","563","762454","0.0-6.0-1.114","","<img src=""img/green-n.png"" border=""10"">","null","trial","32","","0.8,0.2","1:go_a","0",""
"null","","html-keyboard-response","564","763467","0.0-6.0-2.114","","<div style=""font-size:60px;"">+</div>","null","","","","","","",""
"null","","image-keyboard-response","565","764978","0.0-6.0-0.115","","img/grey.png","null","trial","null","true","0,1","4:nogo_d","",""
"null","","html-keyboard-response","566","765992","0.0-6.0-1.115","","<img src=""img/grey-r.png"">","null","trial","null","","0,1","4:nogo_d","1",""
"null","","html-keyboard-response","567","767008","0.0-6.0-2.115","","<div style=""font-size:60px;"">+</div>","null","","","","","","",""
"null","","image-keyboard-response","568","768516","0.0-6.0-0.116","","img/grey.png","null","trial","null","true","0,1","4:nogo_d","",""
"null","","html-keyboard-response","569","769519","0.0-6.0-1.116","","<img src=""img/grey-r.png"">","null","trial","null","","0,1","4:nogo_d","1",""
"null","","html-keyboard-response","570","770526","0.0-6.0-2.116","","<div style=""font-size:60px;"">+</div>","null","","","","","","",""
"null","","image-keyboard-response","571","772037","0.0-6.0-0.117","","img/yellow.png","null","trial","null","true","0.2,0.8","2:nogo_b","",""
"null","","html-keyboard-response","572","773043","0.0-6.0-1.117","","<img src=""img/yellow-r.png"">","null","trial","null","","0.2,0.8","2:nogo_b","1",""
"null","","html-keyboard-response","573","774053","0.0-6.0-2.117","","<div style=""font-size:60px;"">+</div>","null","","","","","","",""
"435.3949998039752","","image-keyboard-response","574","774491","0.0-6.0-0.118","","img/green.png","32","trial","32","true","0.8,0.2","1:go_a","",""
"null","","html-keyboard-response","575","775493","0.0-6.0-1.118","","<img src=""img/green-r.png"" border=""10"">","null","trial","32","","0.8,0.2","1:go_a","1",""
"null","","html-keyboard-response","576","776510","0.0-6.0-2.118","","<div style=""font-size:60px;"">+</div>","null","","","","","","",""
"378.9450000040233","","image-keyboard-response","577","776890","0.0-6.0-0.119","","img/orange.png","32","trial","32","true","1,0","3:go_c","",""
"null","","html-keyboard-response","578","777896","0.0-6.0-1.119","","<img src=""img/orange-r.png"" border=""10"">","null","trial","32","","1,0","3:go_c","1",""
"null","","html-keyboard-response","579","778899","0.0-6.0-2.119","","<div style=""font-size:60px;"">+</div>","null","","","","","","",""
"4563.090000068769","","instructions","580","783463","0.0-7.0","[{""page_index"":0,""viewing_time"":4562.7950001508}]","","","","","","","","",""
"1040.335000026971","","image-keyboard-response","581","784505","0.0-8.0-0.0","","img/pink.png","32","trial","null","false","0.4,0.6","4:nogo_d","",""
"null","","html-keyboard-response","582","785512","0.0-8.0-1.0","","<img src=""img/pink-n.png"" border=""10"">","null","trial","null","","0.4,0.6","4:nogo_d","0",""
"null","","html-keyboard-response","583","786522","0.0-8.0-2.0","","<div style=""font-size:60px;"">+</div>","null","","","","","","",""
"null","","image-keyboard-response","584","788031","0.0-8.0-0.1","","img/grey.png","null","trial","32","false","0.6,0.4","3:go_c","",""
"null","","html-keyboard-response","585","789045","0.0-8.0-1.1","","<img src=""img/grey-n.png"">","null","trial","32","","0.6,0.4","3:go_c","0",""
"null","","html-keyboard-response","586","790061","0.0-8.0-2.1","","<div style=""font-size:60px;"">+</div>","null","","","","","","",""
"519.6599999908358","","image-keyboard-response","587","790582","0.0-8.0-0.2","","img/blue.png","32","trial","null","false","0.4,0.6","2:nogo_b","",""
"null","","html-keyboard-response","588","791598","0.0-8.0-1.2","","<img src=""img/blue-n.png"" border=""10"">","null","trial","null","","0.4,0.6","2:nogo_b","0",""
"null","","html-keyboard-response","589","792623","0.0-8.0-2.2","","<div style=""font-size:60px;"">+</div>","null","","","","","","",""
"493.0650000460446","","image-keyboard-response","590","793118","0.0-8.0-0.3","","img/orange.png","32","trial","32","true","0.6,0.4","1:go_a","",""
"null","","html-keyboard-response","591","794136","0.0-8.0-1.3","","<img src=""img/orange-r.png"" border=""10"">","null","trial","32","","0.6,0.4","1:go_a","1",""
"null","","html-keyboard-response","592","795151","0.0-8.0-2.3","","<div style=""font-size:60px;"">+</div>","null","","","","","","",""
"null","","image-keyboard-response","593","796655","0.0-8.0-0.4","","img/pink.png","null","trial","null","true","0.4,0.6","4:nogo_d","",""
"null","","html-keyboard-response","594","797664","0.0-8.0-1.4","","<img src=""img/pink-r.png"">","null","trial","null","","0.4,0.6","4:nogo_d","1",""
"null","","html-keyboard-response","595","798666","0.0-8.0-2.4","","<div style=""font-size:60px;"">+</div>","null","","","","","","",""
"602.9000000562519","","image-keyboard-response","596","799270","0.0-8.0-0.5","","img/grey.png","32","trial","32","true","0.6,0.4","3:go_c","",""
"null","","html-keyboard-response","597","800285","0.0-8.0-1.5","","<img src=""img/grey-n.png"" border=""10"">","null","trial","32","","0.6,0.4","3:go_c","0",""
"null","","html-keyboard-response","598","801290","0.0-8.0-2.5","","<div style=""font-size:60px;"">+</div>","null","","","","","","",""
"846.0249998606741","","image-keyboard-response","599","802138","0.0-8.0-0.6","","img/orange.png","32","trial","32","true","0.6,0.4","1:go_a","",""
"null","","html-keyboard-response","600","803149","0.0-8.0-1.6","","<img src=""img/orange-n.png"" border=""10"">","null","trial","32","","0.6,0.4","1:go_a","0",""
"null","","html-keyboard-response","601","804154","0.0-8.0-2.6","","<div style=""font-size:60px;"">+</div>","null","","","","","","",""
"821.2949999142438","","image-keyboard-response","602","804977","0.0-8.0-0.7","","img/blue.png","32","trial","null","false","0.4,0.6","2:nogo_b","",""
"null","","html-keyboard-response","603","805988","0.0-8.0-1.7","","<img src=""img/blue-n.png"" border=""10"">","null","trial","null","","0.4,0.6","2:nogo_b","0",""
"null","","html-keyboard-response","604","807004","0.0-8.0-2.7","","<div style=""font-size:60px;"">+</div>","null","","","","","","",""
"null","","image-keyboard-response","605","808512","0.0-8.0-0.8","","img/orange.png","null","trial","32","false","0.6,0.4","1:go_a","",""
"null","","html-keyboard-response","606","809523","0.0-8.0-1.8","","<img src=""img/orange-n.png"">","null","trial","32","","0.6,0.4","1:go_a","0",""
"null","","html-keyboard-response","607","810539","0.0-8.0-2.8","","<div style=""font-size:60px;"">+</div>","null","","","","","","",""
"null","","image-keyboard-response","608","812050","0.0-8.0-0.9","","img/pink.png","null","trial","null","true","0.4,0.6","4:nogo_d","",""
"null","","html-keyboard-response","609","813063","0.0-8.0-1.9","","<img src=""img/pink-r.png"">","null","trial","null","","0.4,0.6","4:nogo_d","1",""
"null","","html-keyboard-response","610","814069","0.0-8.0-2.9","","<div style=""font-size:60px;"">+</div>","null","","","","","","",""
"739.8949998896569","","image-keyboard-response","611","814810","0.0-8.0-0.10","","img/grey.png","32","trial","32","true","0.6,0.4","3:go_c","",""
"null","","html-keyboard-response","612","815828","0.0-8.0-1.10","","<img src=""img/grey-n.png"" border=""10"">","null","trial","32","","0.6,0.4","3:go_c","0",""
"null","","html-keyboard-response","613","816832","0.0-8.0-2.10","","<div style=""font-size:60px;"">+</div>","null","","","","","","",""
"null","","image-keyboard-response","614","818344","0.0-8.0-0.11","","img/blue.png","null","trial","null","true","0.4,0.6","2:nogo_b","",""
"null","","html-keyboard-response","615","819354","0.0-8.0-1.11","","<img src=""img/blue-n.png"">","null","trial","null","","0.4,0.6","2:nogo_b","0",""
"null","","html-keyboard-response","616","820360","0.0-8.0-2.11","","<div style=""font-size:60px;"">+</div>","null","","","","","","",""
"560.7199999503791","","image-keyboard-response","617","820922","0.0-8.0-0.12","","img/blue.png","32","trial","null","false","0.4,0.6","2:nogo_b","",""
"null","","html-keyboard-response","618","821926","0.0-8.0-1.12","","<img src=""img/blue-r.png"" border=""10"">","null","trial","null","","0.4,0.6","2:nogo_b","1",""
"null","","html-keyboard-response","619","822940","0.0-8.0-2.12","","<div style=""font-size:60px;"">+</div>","null","","","","","","",""
"492.3300000373274","","image-keyboard-response","620","823434","0.0-8.0-0.13","","img/orange.png","32","trial","32","true","0.6,0.4","1:go_a","",""
"null","","html-keyboard-response","621","824440","0.0-8.0-1.13","","<img src=""img/orange-n.png"" border=""10"">","null","trial","32","","0.6,0.4","1:go_a","0",""
"null","","html-keyboard-response","622","825449","0.0-8.0-2.13","","<div style=""font-size:60px;"">+</div>","null","","","","","","",""
"null","","image-keyboard-response","623","826955","0.0-8.0-0.14","","img/grey.png","null","trial","32","false","0.6,0.4","3:go_c","",""
"null","","html-keyboard-response","624","827970","0.0-8.0-1.14","","<img src=""img/grey-n.png"">","null","trial","32","","0.6,0.4","3:go_c","0",""
"null","","html-keyboard-response","625","828975","0.0-8.0-2.14","","<div style=""font-size:60px;"">+</div>","null","","","","","","",""
"null","","image-keyboard-response","626","830490","0.0-8.0-0.15","","img/pink.png","null","trial","null","true","0.4,0.6","4:nogo_d","",""
"null","","html-keyboard-response","627","831504","0.0-8.0-1.15","","<img src=""img/pink-n.png"">","null","trial","null","","0.4,0.6","4:nogo_d","0",""
"null","","html-keyboard-response","628","832520","0.0-8.0-2.15","","<div style=""font-size:60px;"">+</div>","null","","","","","","",""
"494.24999998882413","","image-keyboard-response","629","833016","0.0-8.0-0.16","","img/blue.png","32","trial","null","false","0.4,0.6","2:nogo_b","",""
"null","","html-keyboard-response","630","834031","0.0-8.0-1.16","","<img src=""img/blue-r.png"" border=""10"">","null","trial","null","","0.4,0.6","2:nogo_b","1",""
"null","","html-keyboard-response","631","835039","0.0-8.0-2.16","","<div style=""font-size:60px;"">+</div>","null","","","","","","",""
"null","","image-keyboard-response","632","836557","0.0-8.0-0.17","","img/pink.png","null","trial","null","true","0.4,0.6","4:nogo_d","",""
"null","","html-keyboard-response","633","837564","0.0-8.0-1.17","","<img src=""img/pink-n.png"">","null","trial","null","","0.4,0.6","4:nogo_d","0",""
"null","","html-keyboard-response","634","838578","0.0-8.0-2.17","","<div style=""font-size:60px;"">+</div>","null","","","","","","",""
"524.1900000255555","","image-keyboard-response","635","839104","0.0-8.0-0.18","","img/grey.png","32","trial","32","true","0.6,0.4","3:go_c","",""
"null","","html-keyboard-response","636","840116","0.0-8.0-1.18","","<img src=""img/grey-r.png"" border=""10"">","null","trial","32","","0.6,0.4","3:go_c","1",""
"null","","html-keyboard-response","637","841133","0.0-8.0-2.18","","<div style=""font-size:60px;"">+</div>","null","","","","","","",""
"null","","image-keyboard-response","638","842648","0.0-8.0-0.19","","img/orange.png","null","trial","32","false","0.6,0.4","1:go_a","",""
"null","","html-keyboard-response","639","843657","0.0-8.0-1.19","","<img src=""img/orange-r.png"">","null","trial","32","","0.6,0.4","1:go_a","1",""
"null","","html-keyboard-response","640","844671","0.0-8.0-2.19","","<div style=""font-size:60px;"">+</div>","null","","","","","","",""
"null","","image-keyboard-response","641","846187","0.0-8.0-0.20","","img/grey.png","null","trial","32","false","0.6,0.4","3:go_c","",""
"null","","html-keyboard-response","642","847198","0.0-8.0-1.20","","<img src=""img/grey-r.png"">","null","trial","32","","0.6,0.4","3:go_c","1",""
"null","","html-keyboard-response","643","848201","0.0-8.0-2.20","","<div style=""font-size:60px;"">+</div>","null","","","","","","",""
"null","","image-keyboard-response","644","849716","0.0-8.0-0.21","","img/orange.png","null","trial","32","false","0.6,0.4","1:go_a","",""
"null","","html-keyboard-response","645","850732","0.0-8.0-1.21","","<img src=""img/orange-r.png"">","null","trial","32","","0.6,0.4","1:go_a","1",""
"null","","html-keyboard-response","646","851741","0.0-8.0-2.21","","<div style=""font-size:60px;"">+</div>","null","","","","","","",""
"null","","image-keyboard-response","647","853254","0.0-8.0-0.22","","img/pink.png","null","trial","null","true","0.4,0.6","4:nogo_d","",""
"null","","html-keyboard-response","648","854264","0.0-8.0-1.22","","<img src=""img/pink-n.png"">","null","trial","null","","0.4,0.6","4:nogo_d","0",""
"null","","html-keyboard-response","649","855269","0.0-8.0-2.22","","<div style=""font-size:60px;"">+</div>","null","","","","","","",""
"628.6849998869002","","image-keyboard-response","650","855900","0.0-8.0-0.23","","img/blue.png","32","trial","null","false","0.4,0.6","2:nogo_b","",""
"null","","html-keyboard-response","651","856910","0.0-8.0-1.23","","<img src=""img/blue-n.png"" border=""10"">","null","trial","null","","0.4,0.6","2:nogo_b","0",""
"null","","html-keyboard-response","652","857922","0.0-8.0-2.23","","<div style=""font-size:60px;"">+</div>","null","","","","","","",""
"941.944999853149","","image-keyboard-response","653","858865","0.0-8.0-0.24","","img/blue.png","32","trial","null","false","0.4,0.6","2:nogo_b","",""
"null","","html-keyboard-response","654","859883","0.0-8.0-1.24","","<img src=""img/blue-n.png"" border=""10"">","null","trial","null","","0.4,0.6","2:nogo_b","0",""
"null","","html-keyboard-response","655","860896","0.0-8.0-2.24","","<div style=""font-size:60px;"">+</div>","null","","","","","","",""
"878.9450000040233","","image-keyboard-response","656","861776","0.0-8.0-0.25","","img/orange.png","32","trial","32","true","0.6,0.4","1:go_a","",""
"null","","html-keyboard-response","657","862786","0.0-8.0-1.25","","<img src=""img/orange-r.png"" border=""10"">","null","trial","32","","0.6,0.4","1:go_a","1",""
"null","","html-keyboard-response","658","863796","0.0-8.0-2.25","","<div style=""font-size:60px;"">+</div>","null","","","","","","",""
"638.1649998947978","","image-keyboard-response","659","864435","0.0-8.0-0.26","","img/pink.png","32","trial","null","false","0.4,0.6","4:nogo_d","",""
"null","","html-keyboard-response","660","865449","0.0-8.0-1.26","","<img src=""img/pink-r.png"" border=""10"">","null","trial","null","","0.4,0.6","4:nogo_d","1",""
"null","","html-keyboard-response","661","866457","0.0-8.0-2.26","","<div style=""font-size:60px;"">+</div>","null","","","","","","",""
"null","","image-keyboard-response","662","867961","0.0-8.0-0.27","","img/grey.png","null","trial","32","false","0.6,0.4","3:go_c","",""
"null","","html-keyboard-response","663","868974","0.0-8.0-1.27","","<img src=""img/grey-n.png"">","null","trial","32","","0.6,0.4","3:go_c","0",""
"null","","html-keyboard-response","664","869983","0.0-8.0-2.27","","<div style=""font-size:60px;"">+</div>","null","","","","","","",""
"null","","image-keyboard-response","665","871485","0.0-8.0-0.28","","img/blue.png","null","trial","null","true","0.4,0.6","2:nogo_b","",""
"null","","html-keyboard-response","666","872497","0.0-8.0-1.28","","<img src=""img/blue-r.png"">","null","trial","null","","0.4,0.6","2:nogo_b","1",""
"null","","html-keyboard-response","667","873506","0.0-8.0-2.28","","<div style=""font-size:60px;"">+</div>","null","","","","","","",""
"942.2400000039488","","image-keyboard-response","668","874449","0.0-8.0-0.29","","img/pink.png","32","trial","null","false","0.4,0.6","4:nogo_d","",""
"null","","html-keyboard-response","669","875452","0.0-8.0-1.29","","<img src=""img/pink-n.png"" border=""10"">","null","trial","null","","0.4,0.6","4:nogo_d","0",""
"null","","html-keyboard-response","670","876458","0.0-8.0-2.29","","<div style=""font-size:60px;"">+</div>","null","","","","","","",""
"769.1249998752028","","image-keyboard-response","671","877228","0.0-8.0-0.30","","img/orange.png","32","trial","32","true","0.6,0.4","1:go_a","",""
"null","","html-keyboard-response","672","878235","0.0-8.0-1.30","","<img src=""img/orange-r.png"" border=""10"">","null","trial","32","","0.6,0.4","1:go_a","1",""
"null","","html-keyboard-response","673","879246","0.0-8.0-2.30","","<div style=""font-size:60px;"">+</div>","null","","","","","","",""
"440.42500015348196","","image-keyboard-response","674","879688","0.0-8.0-0.31","","img/grey.png","32","trial","32","true","0.6,0.4","3:go_c","",""
"null","","html-keyboard-response","675","880700","0.0-8.0-1.31","","<img src=""img/grey-n.png"" border=""10"">","null","trial","32","","0.6,0.4","3:go_c","0",""
"null","","html-keyboard-response","676","881712","0.0-8.0-2.31","","<div style=""font-size:60px;"">+</div>","null","","","","","","",""
"null","","image-keyboard-response","677","883222","0.0-8.0-0.32","","img/blue.png","null","trial","null","true","0.4,0.6","2:nogo_b","",""
"null","","html-keyboard-response","678","884230","0.0-8.0-1.32","","<img src=""img/blue-r.png"">","null","trial","null","","0.4,0.6","2:nogo_b","1",""
"null","","html-keyboard-response","679","885243","0.0-8.0-2.32","","<div style=""font-size:60px;"">+</div>","null","","","","","","",""
"902.8100001160055","","image-keyboard-response","680","886147","0.0-8.0-0.33","","img/pink.png","32","trial","null","false","0.4,0.6","4:nogo_d","",""
"null","","html-keyboard-response","681","887162","0.0-8.0-1.33","","<img src=""img/pink-n.png"" border=""10"">","null","trial","null","","0.4,0.6","4:nogo_d","0",""
"null","","html-keyboard-response","682","888175","0.0-8.0-2.33","","<div style=""font-size:60px;"">+</div>","null","","","","","","",""
"867.8299998864532","","image-keyboard-response","683","889044","0.0-8.0-0.34","","img/grey.png","32","trial","32","true","0.6,0.4","3:go_c","",""
"null","","html-keyboard-response","684","890061","0.0-8.0-1.34","","<img src=""img/grey-n.png"" border=""10"">","null","trial","32","","0.6,0.4","3:go_c","0",""
