"rt","url","trial_type","trial_index","time_elapsed","internal_node_id","view_history","stimulus","key_press","test_part","correct_response","correct","use_rew","which_stim","reward","responses"
"1898.5","consent.html","external-html","0","1949","0.0-0.0","","","","","","","","","",""
"62255.40000009537","","instructions","1","64208","0.0-1.0","[{""page_index"":0,""viewing_time"":2581.100000143051},{""page_index"":1,""viewing_time"":16099.799999952316},{""page_index"":2,""viewing_time"":4096.099999904633},{""page_index"":3,""viewing_time"":19198},{""page_index"":4,""viewing_time"":9799.900000095367},{""page_index"":5,""viewing_time"":1962},{""page_index"":4,""viewing_time"":1861.8999998569489},{""page_index"":5,""viewing_time"":3232.100000143051},{""page_index"":6,""viewing_time"":3423.899999856949}]","","","","","","","","",""
"822.9000000953674","","image-keyboard-response","2","65032","0.0-2.0-0.0","","img/test2.PNG","32","practice","null","false","","","",""
"null","","html-keyboard-response","3","66033","0.0-2.0-1.0","","<img src=""img/test2-neutral.PNG"" border=""10px; grey"">","null","","","","","","",""
"null","","html-keyboard-response","4","67034","0.0-2.0-2.0","","<div style=""font-size:60px;"">+</div>","null","","","","","","",""
"390.90000009536743","","image-keyboard-response","5","67425","0.0-2.0-0.1","","img/test3.PNG","32","practice","null","false","","","",""
"null","","html-keyboard-response","6","68427","0.0-2.0-1.1","","<img src=""img/test3-neutral.PNG"" border=""10px; grey"">","null","","","","","","",""
"null","","html-keyboard-response","7","69428","0.0-2.0-2.1","","<div style=""font-size:60px;"">+</div>","null","","","","","","",""
"358.7000000476837","","image-keyboard-response","8","69787","0.0-2.0-0.2","","img/test1.PNG","32","practice","32","true","","","",""
"null","","html-keyboard-response","9","70788","0.0-2.0-1.2","","<img src=""img/test1-reward.PNG"" border=""10px; grey"">","null","","","","","","",""
"null","","html-keyboard-response","10","71790","0.0-2.0-2.2","","<div style=""font-size:60px;"">+</div>","null","","","","","","",""
"531.7000000476837","","image-keyboard-response","11","72322","0.0-2.0-0.3","","img/test1.PNG","32","practice","32","true","","","",""
"null","","html-keyboard-response","12","73324","0.0-2.0-1.3","","<img src=""img/test1-reward.PNG"" border=""10px; grey"">","null","","","","","","",""
"null","","html-keyboard-response","13","74326","0.0-2.0-2.3","","<div style=""font-size:60px;"">+</div>","null","","","","","","",""
"406.59999990463257","","image-keyboard-response","14","74733","0.0-2.0-0.4","","img/test3.PNG","32","practice","null","false","","","",""
"null","","html-keyboard-response","15","75735","0.0-2.0-1.4","","<img src=""img/test3-neutral.PNG"" border=""10px; grey"">","null","","","","","","",""
"null","","html-keyboard-response","16","76736","0.0-2.0-2.4","","<div style=""font-size:60px;"">+</div>","null","","","","","","",""
"null","","image-keyboard-response","17","78237","0.0-2.0-0.5","","img/test2.PNG","null","practice","null","true","","","",""
"null","","html-keyboard-response","18","79238","0.0-2.0-1.5","","<img src=""img/test2-reward.PNG"">","null","","","","","","",""
"null","","html-keyboard-response","19","80239","0.0-2.0-2.5","","<div style=""font-size:60px;"">+</div>","null","","","","","","",""
"null","","image-keyboard-response","20","81740","0.0-2.0-0.6","","img/test2.PNG","null","practice","null","true","","","",""
"null","","html-keyboard-response","21","82741","0.0-2.0-1.6","","<img src=""img/test2-reward.PNG"">","null","","","","","","",""
"null","","html-keyboard-response","22","83743","0.0-2.0-2.6","","<div style=""font-size:60px;"">+</div>","null","","","","","","",""
"null","","image-keyboard-response","23","85245","0.0-2.0-0.7","","img/test3.PNG","null","practice","null","true","","","",""
"null","","html-keyboard-response","24","86246","0.0-2.0-1.7","","<img src=""img/test3-reward.PNG"">","null","","","","","","",""
"null","","html-keyboard-response","25","87248","0.0-2.0-2.7","","<div style=""font-size:60px;"">+</div>","null","","","","","","",""
"338.7000000476837","","image-keyboard-response","26","87587","0.0-2.0-0.8","","img/test1.PNG","32","practice","32","true","","","",""
"null","","html-keyboard-response","27","88590","0.0-2.0-1.8","","<img src=""img/test1-reward.PNG"" border=""10px; grey"">","null","","","","","","",""
"null","","html-keyboard-response","28","89592","0.0-2.0-2.8","","<div style=""font-size:60px;"">+</div>","null","","","","","","",""
"532.8000001907349","","image-keyboard-response","29","90125","0.0-2.0-0.9","","img/test1.PNG","32","practice","32","true","","","",""
"null","","html-keyboard-response","30","91127","0.0-2.0-1.9","","<img src=""img/test1-reward.PNG"" border=""10px; grey"">","null","","","","","","",""
"null","","html-keyboard-response","31","92128","0.0-2.0-2.9","","<div style=""font-size:60px;"">+</div>","null","","","","","","",""
"null","","image-keyboard-response","32","93630","0.0-2.0-0.10","","img/test3.PNG","null","practice","null","true","","","",""
"null","","html-keyboard-response","33","94631","0.0-2.0-1.10","","<img src=""img/test3-reward.PNG"">","null","","","","","","",""
"null","","html-keyboard-response","34","95633","0.0-2.0-2.10","","<div style=""font-size:60px;"">+</div>","null","","","","","","",""
"null","","image-keyboard-response","35","97135","0.0-2.0-0.11","","img/test2.PNG","null","practice","null","true","","","",""
"null","","html-keyboard-response","36","98136","0.0-2.0-1.11","","<img src=""img/test2-reward.PNG"">","null","","","","","","",""
"null","","html-keyboard-response","37","99137","0.0-2.0-2.11","","<div style=""font-size:60px;"">+</div>","null","","","","","","",""
"1762","","instructions","38","100899","0.0-3.0","[{""page_index"":0,""viewing_time"":1761.7999999523163}]","","","","","","","","",""
"734.2000000476837","","image-keyboard-response","39","101634","0.0-4.0-0.0","","img/grey.png","32","trial","null","false","0.2,0.8","2:nogo_b","",""
"null","","html-keyboard-response","40","102636","0.0-4.0-1.0","","<img src=""img/grey-n.png"" border=""10"">","null","trial","null","","0.2,0.8","2:nogo_b","0",""
"null","","html-keyboard-response","41","103637","0.0-4.0-2.0","","<div style=""font-size:60px;"">+</div>","null","","","","","","",""
"443.7000000476837","","image-keyboard-response","42","104081","0.0-4.0-0.1","","img/purple.png","32","trial","32","true","0.8,0.2","1:go_a","",""
"null","","html-keyboard-response","43","105083","0.0-4.0-1.1","","<img src=""img/purple-n.png"" border=""10"">","null","trial","32","","0.8,0.2","1:go_a","0",""
"null","","html-keyboard-response","44","106084","0.0-4.0-2.1","","<div style=""font-size:60px;"">+</div>","null","","","","","","",""
"475.7000000476837","","image-keyboard-response","45","106560","0.0-4.0-0.2","","img/purple.png","32","trial","32","true","0.8,0.2","1:go_a","",""
"null","","html-keyboard-response","46","107562","0.0-4.0-1.2","","<img src=""img/purple-r.png"" border=""10"">","null","trial","32","","0.8,0.2","1:go_a","1",""
"null","","html-keyboard-response","47","108563","0.0-4.0-2.2","","<div style=""font-size:60px;"">+</div>","null","","","","","","",""
"859.7999999523163","","image-keyboard-response","48","109423","0.0-4.0-0.3","","img/grey.png","32","trial","null","false","0.2,0.8","2:nogo_b","",""
"null","","html-keyboard-response","49","110425","0.0-4.0-1.3","","<img src=""img/grey-n.png"" border=""10"">","null","trial","null","","0.2,0.8","2:nogo_b","0",""
"null","","html-keyboard-response","50","111427","0.0-4.0-2.3","","<div style=""font-size:60px;"">+</div>","null","","","","","","",""
"573.7999999523163","","image-keyboard-response","51","112001","0.0-4.0-0.4","","img/purple.png","32","trial","32","true","0.8,0.2","1:go_a","",""
"null","","html-keyboard-response","52","113004","0.0-4.0-1.4","","<img src=""img/purple-r.png"" border=""10"">","null","trial","32","","0.8,0.2","1:go_a","1",""
"null","","html-keyboard-response","53","114005","0.0-4.0-2.4","","<div style=""font-size:60px;"">+</div>","null","","","","","","",""
"null","","image-keyboard-response","54","115507","0.0-4.0-0.5","","img/grey.png","null","trial","null","true","0.2,0.8","2:nogo_b","",""
"null","","html-keyboard-response","55","116508","0.0-4.0-1.5","","<img src=""img/grey-r.png"">","null","trial","null","","0.2,0.8","2:nogo_b","1",""
"null","","html-keyboard-response","56","117510","0.0-4.0-2.5","","<div style=""font-size:60px;"">+</div>","null","","","","","","",""
"null","","image-keyboard-response","57","119012","0.0-4.0-0.6","","img/grey.png","null","trial","null","true","0.2,0.8","2:nogo_b","",""
"null","","html-keyboard-response","58","120015","0.0-4.0-1.6","","<img src=""img/grey-r.png"">","null","trial","null","","0.2,0.8","2:nogo_b","1",""
"null","","html-keyboard-response","59","121016","0.0-4.0-2.6","","<div style=""font-size:60px;"">+</div>","null","","","","","","",""
"429.60000014305115","","image-keyboard-response","60","121446","0.0-4.0-0.7","","img/purple.png","32","trial","32","true","0.8,0.2","1:go_a","",""
"null","","html-keyboard-response","61","122447","0.0-4.0-1.7","","<img src=""img/purple-r.png"" border=""10"">","null","trial","32","","0.8,0.2","1:go_a","1",""
"null","","html-keyboard-response","62","123449","0.0-4.0-2.7","","<div style=""font-size:60px;"">+</div>","null","","","","","","",""
"null","","image-keyboard-response","63","124949","0.0-4.0-0.8","","img/grey.png","null","trial","null","true","0.2,0.8","2:nogo_b","",""
"null","","html-keyboard-response","64","125959","0.0-4.0-1.8","","<img src=""img/grey-n.png"">","null","trial","null","","0.2,0.8","2:nogo_b","0",""
"null","","html-keyboard-response","65","126962","0.0-4.0-2.8","","<div style=""font-size:60px;"">+</div>","null","","","","","","",""
"347.7999999523163","","image-keyboard-response","66","127310","0.0-4.0-0.9","","img/purple.png","32","trial","32","true","0.8,0.2","1:go_a","",""
"null","","html-keyboard-response","67","128312","0.0-4.0-1.9","","<img src=""img/purple-r.png"" border=""10"">","null","trial","32","","0.8,0.2","1:go_a","1",""
"null","","html-keyboard-response","68","129315","0.0-4.0-2.9","","<div style=""font-size:60px;"">+</div>","null","","","","","","",""
"null","","image-keyboard-response","69","130816","0.0-4.0-0.10","","img/grey.png","null","trial","null","true","0.2,0.8","2:nogo_b","",""
"null","","html-keyboard-response","70","131820","0.0-4.0-1.10","","<img src=""img/grey-r.png"">","null","trial","null","","0.2,0.8","2:nogo_b","1",""
"null","","html-keyboard-response","71","132821","0.0-4.0-2.10","","<div style=""font-size:60px;"">+</div>","null","","","","","","",""
"376.7000000476837","","image-keyboard-response","72","133198","0.0-4.0-0.11","","img/purple.png","32","trial","32","true","0.8,0.2","1:go_a","",""
"null","","html-keyboard-response","73","134201","0.0-4.0-1.11","","<img src=""img/purple-n.png"" border=""10"">","null","trial","32","","0.8,0.2","1:go_a","0",""
"null","","html-keyboard-response","74","135203","0.0-4.0-2.11","","<div style=""font-size:60px;"">+</div>","null","","","","","","",""
"392.59999990463257","","image-keyboard-response","75","135596","0.0-4.0-0.12","","img/purple.png","32","trial","32","true","0.8,0.2","1:go_a","",""
"null","","html-keyboard-response","76","136598","0.0-4.0-1.12","","<img src=""img/purple-n.png"" border=""10"">","null","trial","32","","0.8,0.2","1:go_a","0",""
"null","","html-keyboard-response","77","137599","0.0-4.0-2.12","","<div style=""font-size:60px;"">+</div>","null","","","","","","",""
"null","","image-keyboard-response","78","139100","0.0-4.0-0.13","","img/grey.png","null","trial","null","true","0.2,0.8","2:nogo_b","",""
"null","","html-keyboard-response","79","140101","0.0-4.0-1.13","","<img src=""img/grey-n.png"">","null","trial","null","","0.2,0.8","2:nogo_b","0",""
"null","","html-keyboard-response","80","141103","0.0-4.0-2.13","","<div style=""font-size:60px;"">+</div>","null","","","","","","",""
"null","","image-keyboard-response","81","142603","0.0-4.0-0.14","","img/grey.png","null","trial","null","true","0.2,0.8","2:nogo_b","",""
"null","","html-keyboard-response","82","143605","0.0-4.0-1.14","","<img src=""img/grey-r.png"">","null","trial","null","","0.2,0.8","2:nogo_b","1",""
"null","","html-keyboard-response","83","144607","0.0-4.0-2.14","","<div style=""font-size:60px;"">+</div>","null","","","","","","",""
"359.7000000476837","","image-keyboard-response","84","144967","0.0-4.0-0.15","","img/purple.png","32","trial","32","true","0.8,0.2","1:go_a","",""
"null","","html-keyboard-response","85","145968","0.0-4.0-1.15","","<img src=""img/purple-r.png"" border=""10"">","null","trial","32","","0.8,0.2","1:go_a","1",""
"null","","html-keyboard-response","86","146971","0.0-4.0-2.15","","<div style=""font-size:60px;"">+</div>","null","","","","","","",""
"354.5","","image-keyboard-response","87","147326","0.0-4.0-0.16","","img/purple.png","32","trial","32","true","0.8,0.2","1:go_a","",""
"null","","html-keyboard-response","88","148328","0.0-4.0-1.16","","<img src=""img/purple-n.png"" border=""10"">","null","trial","32","","0.8,0.2","1:go_a","0",""
"null","","html-keyboard-response","89","149331","0.0-4.0-2.16","","<div style=""font-size:60px;"">+</div>","null","","","","","","",""
"null","","image-keyboard-response","90","150832","0.0-4.0-0.17","","img/grey.png","null","trial","null","true","0.2,0.8","2:nogo_b","",""
"null","","html-keyboard-response","91","151834","0.0-4.0-1.17","","<img src=""img/grey-r.png"">","null","trial","null","","0.2,0.8","2:nogo_b","1",""
"null","","html-keyboard-response","92","152836","0.0-4.0-2.17","","<div style=""font-size:60px;"">+</div>","null","","","","","","",""
"null","","image-keyboard-response","93","154336","0.0-4.0-0.18","","img/grey.png","null","trial","null","true","0.2,0.8","2:nogo_b","",""
"null","","html-keyboard-response","94","155339","0.0-4.0-1.18","","<img src=""img/grey-r.png"">","null","trial","null","","0.2,0.8","2:nogo_b","1",""
"null","","html-keyboard-response","95","156340","0.0-4.0-2.18","","<div style=""font-size:60px;"">+</div>","null","","","","","","",""
"474.5","","image-keyboard-response","96","156815","0.0-4.0-0.19","","img/purple.png","32","trial","32","true","0.8,0.2","1:go_a","",""
"null","","html-keyboard-response","97","157817","0.0-4.0-1.19","","<img src=""img/purple-r.png"" border=""10"">","null","trial","32","","0.8,0.2","1:go_a","1",""
"null","","html-keyboard-response","98","158818","0.0-4.0-2.19","","<div style=""font-size:60px;"">+</div>","null","","","","","","",""
"null","","image-keyboard-response","99","160319","0.0-4.0-0.20","","img/grey.png","null","trial","null","true","0.2,0.8","2:nogo_b","",""
"null","","html-keyboard-response","100","161321","0.0-4.0-1.20","","<img src=""img/grey-n.png"">","null","trial","null","","0.2,0.8","2:nogo_b","0",""
"null","","html-keyboard-response","101","162322","0.0-4.0-2.20","","<div style=""font-size:60px;"">+</div>","null","","","","","","",""
"436.2999999523163","","image-keyboard-response","102","162759","0.0-4.0-0.21","","img/purple.png","32","trial","32","true","0.8,0.2","1:go_a","",""
"null","","html-keyboard-response","103","163761","0.0-4.0-1.21","","<img src=""img/purple-n.png"" border=""10"">","null","trial","32","","0.8,0.2","1:go_a","0",""
"null","","html-keyboard-response","104","164763","0.0-4.0-2.21","","<div style=""font-size:60px;"">+</div>","null","","","","","","",""
"null","","image-keyboard-response","105","166265","0.0-4.0-0.22","","img/grey.png","null","trial","null","true","0.2,0.8","2:nogo_b","",""
"null","","html-keyboard-response","106","167266","0.0-4.0-1.22","","<img src=""img/grey-r.png"">","null","trial","null","","0.2,0.8","2:nogo_b","1",""
"null","","html-keyboard-response","107","168268","0.0-4.0-2.22","","<div style=""font-size:60px;"">+</div>","null","","","","","","",""
"null","","image-keyboard-response","108","169769","0.0-4.0-0.23","","img/purple.png","null","trial","32","false","0.8,0.2","1:go_a","",""
"null","","html-keyboard-response","109","170771","0.0-4.0-1.23","","<img src=""img/purple-r.png"">","null","trial","32","","0.8,0.2","1:go_a","1",""
"null","","html-keyboard-response","110","171772","0.0-4.0-2.23","","<div style=""font-size:60px;"">+</div>","null","","","","","","",""
"null","","image-keyboard-response","111","173273","0.0-4.0-0.24","","img/grey.png","null","trial","null","true","0.2,0.8","2:nogo_b","",""
"null","","html-keyboard-response","112","174275","0.0-4.0-1.24","","<img src=""img/grey-r.png"">","null","trial","null","","0.2,0.8","2:nogo_b","1",""
"null","","html-keyboard-response","113","175277","0.0-4.0-2.24","","<div style=""font-size:60px;"">+</div>","null","","","","","","",""
"null","","image-keyboard-response","114","176777","0.0-4.0-0.25","","img/purple.png","null","trial","32","false","0.8,0.2","1:go_a","",""
"null","","html-keyboard-response","115","177780","0.0-4.0-1.25","","<img src=""img/purple-n.png"">","null","trial","32","","0.8,0.2","1:go_a","0",""
"null","","html-keyboard-response","116","178780","0.0-4.0-2.25","","<div style=""font-size:60px;"">+</div>","null","","","","","","",""
"null","","image-keyboard-response","117","180282","0.0-4.0-0.26","","img/grey.png","null","trial","null","true","0.2,0.8","2:nogo_b","",""
"null","","html-keyboard-response","118","181285","0.0-4.0-1.26","","<img src=""img/grey-r.png"">","null","trial","null","","0.2,0.8","2:nogo_b","1",""
"null","","html-keyboard-response","119","182286","0.0-4.0-2.26","","<div style=""font-size:60px;"">+</div>","null","","","","","","",""
"554.6999998092651","","image-keyboard-response","120","182841","0.0-4.0-0.27","","img/purple.png","32","trial","32","true","0.8,0.2","1:go_a","",""
"null","","html-keyboard-response","121","183844","0.0-4.0-1.27","","<img src=""img/purple-r.png"" border=""10"">","null","trial","32","","0.8,0.2","1:go_a","1",""
"null","","html-keyboard-response","122","184846","0.0-4.0-2.27","","<div style=""font-size:60px;"">+</div>","null","","","","","","",""
"380.5","","image-keyboard-response","123","185227","0.0-4.0-0.28","","img/purple.png","32","trial","32","true","0.8,0.2","1:go_a","",""
"null","","html-keyboard-response","124","186228","0.0-4.0-1.28","","<img src=""img/purple-r.png"" border=""10"">","null","trial","32","","0.8,0.2","1:go_a","1",""
"null","","html-keyboard-response","125","187231","0.0-4.0-2.28","","<div style=""font-size:60px;"">+</div>","null","","","","","","",""
"null","","image-keyboard-response","126","188733","0.0-4.0-0.29","","img/grey.png","null","trial","null","true","0.2,0.8","2:nogo_b","",""
"null","","html-keyboard-response","127","189735","0.0-4.0-1.29","","<img src=""img/grey-r.png"">","null","trial","null","","0.2,0.8","2:nogo_b","1",""
"null","","html-keyboard-response","128","190736","0.0-4.0-2.29","","<div style=""font-size:60px;"">+</div>","null","","","","","","",""
"null","","image-keyboard-response","129","192236","0.0-4.0-0.30","","img/grey.png","null","trial","null","true","0.2,0.8","2:nogo_b","",""
"null","","html-keyboard-response","130","193238","0.0-4.0-1.30","","<img src=""img/grey-r.png"">","null","trial","null","","0.2,0.8","2:nogo_b","1",""
"null","","html-keyboard-response","131","194239","0.0-4.0-2.30","","<div style=""font-size:60px;"">+</div>","null","","","","","","",""
"347.69999980926514","","image-keyboard-response","132","194587","0.0-4.0-0.31","","img/purple.png","32","trial","32","true","0.8,0.2","1:go_a","",""
"null","","html-keyboard-response","133","195589","0.0-4.0-1.31","","<img src=""img/purple-r.png"" border=""10"">","null","trial","32","","0.8,0.2","1:go_a","1",""
"null","","html-keyboard-response","134","196591","0.0-4.0-2.31","","<div style=""font-size:60px;"">+</div>","null","","","","","","",""
"null","","image-keyboard-response","135","198092","0.0-4.0-0.32","","img/grey.png","null","trial","null","true","0.2,0.8","2:nogo_b","",""
"null","","html-keyboard-response","136","199094","0.0-4.0-1.32","","<img src=""img/grey-n.png"">","null","trial","null","","0.2,0.8","2:nogo_b","0",""
"null","","html-keyboard-response","137","200096","0.0-4.0-2.32","","<div style=""font-size:60px;"">+</div>","null","","","","","","",""
"307.5","","image-keyboard-response","138","200404","0.0-4.0-0.33","","img/purple.png","32","trial","32","true","0.8,0.2","1:go_a","",""
"null","","html-keyboard-response","139","201406","0.0-4.0-1.33","","<img src=""img/purple-n.png"" border=""10"">","null","trial","32","","0.8,0.2","1:go_a","0",""
"null","","html-keyboard-response","140","202407","0.0-4.0-2.33","","<div style=""font-size:60px;"">+</div>","null","","","","","","",""
"null","","image-keyboard-response","141","203908","0.0-4.0-0.34","","img/grey.png","null","trial","null","true","0.2,0.8","2:nogo_b","",""
"null","","html-keyboard-response","142","204909","0.0-4.0-1.34","","<img src=""img/grey-n.png"">","null","trial","null","","0.2,0.8","2:nogo_b","0",""
"null","","html-keyboard-response","143","205911","0.0-4.0-2.34","","<div style=""font-size:60px;"">+</div>","null","","","","","","",""
"359.59999990463257","","image-keyboard-response","144","206271","0.0-4.0-0.35","","img/purple.png","32","trial","32","true","0.8,0.2","1:go_a","",""
"null","","html-keyboard-response","145","207272","0.0-4.0-1.35","","<img src=""img/purple-r.png"" border=""10"">","null","trial","32","","0.8,0.2","1:go_a","1",""
"null","","html-keyboard-response","146","208274","0.0-4.0-2.35","","<div style=""font-size:60px;"">+</div>","null","","","","","","",""
"405.39999985694885","","image-keyboard-response","147","208680","0.0-4.0-0.36","","img/purple.png","32","trial","32","true","0.8,0.2","1:go_a","",""
"null","","html-keyboard-response","148","209680","0.0-4.0-1.36","","<img src=""img/purple-r.png"" border=""10"">","null","trial","32","","0.8,0.2","1:go_a","1",""
"null","","html-keyboard-response","149","210681","0.0-4.0-2.36","","<div style=""font-size:60px;"">+</div>","null","","","","","","",""
"null","","image-keyboard-response","150","212183","0.0-4.0-0.37","","img/grey.png","null","trial","null","true","0.2,0.8","2:nogo_b","",""
"null","","html-keyboard-response","151","213184","0.0-4.0-1.37","","<img src=""img/grey-r.png"">","null","trial","null","","0.2,0.8","2:nogo_b","1",""
"null","","html-keyboard-response","152","214185","0.0-4.0-2.37","","<div style=""font-size:60px;"">+</div>","null","","","","","","",""
"null","","image-keyboard-response","153","215686","0.0-4.0-0.38","","img/grey.png","null","trial","null","true","0.2,0.8","2:nogo_b","",""
"null","","html-keyboard-response","154","216688","0.0-4.0-1.38","","<img src=""img/grey-r.png"">","null","trial","null","","0.2,0.8","2:nogo_b","1",""
"null","","html-keyboard-response","155","217689","0.0-4.0-2.38","","<div style=""font-size:60px;"">+</div>","null","","","","","","",""
"402.5","","image-keyboard-response","156","218092","0.0-4.0-0.39","","img/purple.png","32","trial","32","true","0.8,0.2","1:go_a","",""
"null","","html-keyboard-response","157","219095","0.0-4.0-1.39","","<img src=""img/purple-r.png"" border=""10"">","null","trial","32","","0.8,0.2","1:go_a","1",""
"null","","html-keyboard-response","158","220097","0.0-4.0-2.39","","<div style=""font-size:60px;"">+</div>","null","","","","","","",""
"null","","image-keyboard-response","159","221598","0.0-4.0-0.40","","img/grey.png","null","trial","null","true","0.2,0.8","2:nogo_b","",""
"null","","html-keyboard-response","160","222599","0.0-4.0-1.40","","<img src=""img/grey-r.png"">","null","trial","null","","0.2,0.8","2:nogo_b","1",""
"null","","html-keyboard-response","161","223601","0.0-4.0-2.40","","<div style=""font-size:60px;"">+</div>","null","","","","","","",""
"382.2000000476837","","image-keyboard-response","162","223984","0.0-4.0-0.41","","img/purple.png","32","trial","32","true","0.8,0.2","1:go_a","",""
"null","","html-keyboard-response","163","224985","0.0-4.0-1.41","","<img src=""img/purple-n.png"" border=""10"">","null","trial","32","","0.8,0.2","1:go_a","0",""
"null","","html-keyboard-response","164","225987","0.0-4.0-2.41","","<div style=""font-size:60px;"">+</div>","null","","","","","","",""
"467.40000009536743","","image-keyboard-response","165","226455","0.0-4.0-0.42","","img/purple.png","32","trial","32","true","0.8,0.2","1:go_a","",""
"null","","html-keyboard-response","166","227456","0.0-4.0-1.42","","<img src=""img/purple-r.png"" border=""10"">","null","trial","32","","0.8,0.2","1:go_a","1",""
"null","","html-keyboard-response","167","228458","0.0-4.0-2.42","","<div style=""font-size:60px;"">+</div>","null","","","","","","",""
"null","","image-keyboard-response","168","229959","0.0-4.0-0.43","","img/grey.png","null","trial","null","true","0.2,0.8","2:nogo_b","",""
"null","","html-keyboard-response","169","230960","0.0-4.0-1.43","","<img src=""img/grey-n.png"">","null","trial","null","","0.2,0.8","2:nogo_b","0",""
"null","","html-keyboard-response","170","231962","0.0-4.0-2.43","","<div style=""font-size:60px;"">+</div>","null","","","","","","",""
"330.69999980926514","","image-keyboard-response","171","232293","0.0-4.0-0.44","","img/purple.png","32","trial","32","true","0.8,0.2","1:go_a","",""
"null","","html-keyboard-response","172","233295","0.0-4.0-1.44","","<img src=""img/purple-r.png"" border=""10"">","null","trial","32","","0.8,0.2","1:go_a","1",""
"null","","html-keyboard-response","173","234297","0.0-4.0-2.44","","<div style=""font-size:60px;"">+</div>","null","","","","","","",""
"null","","image-keyboard-response","174","235798","0.0-4.0-0.45","","img/grey.png","null","trial","null","true","0.2,0.8","2:nogo_b","",""
"null","","html-keyboard-response","175","236799","0.0-4.0-1.45","","<img src=""img/grey-r.png"">","null","trial","null","","0.2,0.8","2:nogo_b","1",""
"null","","html-keyboard-response","176","237801","0.0-4.0-2.45","","<div style=""font-size:60px;"">+</div>","null","","","","","","",""
"null","","image-keyboard-response","177","239302","0.0-4.0-0.46","","img/grey.png","null","trial","null","true","0.2,0.8","2:nogo_b","",""
"null","","html-keyboard-response","178","240303","0.0-4.0-1.46","","<img src=""img/grey-r.png"">","null","trial","null","","0.2,0.8","2:nogo_b","1",""
"null","","html-keyboard-response","179","241305","0.0-4.0-2.46","","<div style=""font-size:60px;"">+</div>","null","","","","","","",""
"332.60000014305115","","image-keyboard-response","180","241638","0.0-4.0-0.47","","img/purple.png","32","trial","32","true","0.8,0.2","1:go_a","",""
"null","","html-keyboard-response","181","242640","0.0-4.0-1.47","","<img src=""img/purple-r.png"" border=""10"">","null","trial","32","","0.8,0.2","1:go_a","1",""
"null","","html-keyboard-response","182","243641","0.0-4.0-2.47","","<div style=""font-size:60px;"">+</div>","null","","","","","","",""
"430.59999990463257","","image-keyboard-response","183","244073","0.0-4.0-0.48","","img/purple.png","32","trial","32","true","0.8,0.2","1:go_a","",""
"null","","html-keyboard-response","184","245075","0.0-4.0-1.48","","<img src=""img/purple-r.png"" border=""10"">","null","trial","32","","0.8,0.2","1:go_a","1",""
"null","","html-keyboard-response","185","246077","0.0-4.0-2.48","","<div style=""font-size:60px;"">+</div>","null","","","","","","",""
"null","","image-keyboard-response","186","247577","0.0-4.0-0.49","","img/grey.png","null","trial","null","true","0.2,0.8","2:nogo_b","",""
"null","","html-keyboard-response","187","248579","0.0-4.0-1.49","","<img src=""img/grey-r.png"">","null","trial","null","","0.2,0.8","2:nogo_b","1",""
"null","","html-keyboard-response","188","249580","0.0-4.0-2.49","","<div style=""font-size:60px;"">+</div>","null","","","","","","",""
"338.5","","image-keyboard-response","189","249919","0.0-4.0-0.50","","img/purple.png","32","trial","32","true","0.8,0.2","1:go_a","",""
"null","","html-keyboard-response","190","250921","0.0-4.0-1.50","","<img src=""img/purple-r.png"" border=""10"">","null","trial","32","","0.8,0.2","1:go_a","1",""
"null","","html-keyboard-response","191","251922","0.0-4.0-2.50","","<div style=""font-size:60px;"">+</div>","null","","","","","","",""
"null","","image-keyboard-response","192","253424","0.0-4.0-0.51","","img/grey.png","null","trial","null","true","0.2,0.8","2:nogo_b","",""
"null","","html-keyboard-response","193","254425","0.0-4.0-1.51","","<img src=""img/grey-r.png"">","null","trial","null","","0.2,0.8","2:nogo_b","1",""
"null","","html-keyboard-response","194","255427","0.0-4.0-2.51","","<div style=""font-size:60px;"">+</div>","null","","","","","","",""
"370.5","","image-keyboard-response","195","255799","0.0-4.0-0.52","","img/purple.png","32","trial","32","true","0.8,0.2","1:go_a","",""
"null","","html-keyboard-response","196","256801","0.0-4.0-1.52","","<img src=""img/purple-r.png"" border=""10"">","null","trial","32","","0.8,0.2","1:go_a","1",""
"null","","html-keyboard-response","197","257803","0.0-4.0-2.52","","<div style=""font-size:60px;"">+</div>","null","","","","","","",""
"null","","image-keyboard-response","198","259304","0.0-4.0-0.53","","img/grey.png","null","trial","null","true","0.2,0.8","2:nogo_b","",""
"null","","html-keyboard-response","199","260306","0.0-4.0-1.53","","<img src=""img/grey-r.png"">","null","trial","null","","0.2,0.8","2:nogo_b","1",""
"null","","html-keyboard-response","200","261308","0.0-4.0-2.53","","<div style=""font-size:60px;"">+</div>","null","","","","","","",""
"310.2000000476837","","image-keyboard-response","201","261619","0.0-4.0-0.54","","img/purple.png","32","trial","32","true","0.8,0.2","1:go_a","",""
"null","","html-keyboard-response","202","262621","0.0-4.0-1.54","","<img src=""img/purple-r.png"" border=""10"">","null","trial","32","","0.8,0.2","1:go_a","1",""
"null","","html-keyboard-response","203","263622","0.0-4.0-2.54","","<div style=""font-size:60px;"">+</div>","null","","","","","","",""
"null","","image-keyboard-response","204","265124","0.0-4.0-0.55","","img/grey.png","null","trial","null","true","0.2,0.8","2:nogo_b","",""
"null","","html-keyboard-response","205","266126","0.0-4.0-1.55","","<img src=""img/grey-r.png"">","null","trial","null","","0.2,0.8","2:nogo_b","1",""
"null","","html-keyboard-response","206","267127","0.0-4.0-2.55","","<div style=""font-size:60px;"">+</div>","null","","","","","","",""
"361.5","","image-keyboard-response","207","267490","0.0-4.0-0.56","","img/purple.png","32","trial","32","true","0.8,0.2","1:go_a","",""
"null","","html-keyboard-response","208","268491","0.0-4.0-1.56","","<img src=""img/purple-r.png"" border=""10"">","null","trial","32","","0.8,0.2","1:go_a","1",""
"null","","html-keyboard-response","209","269492","0.0-4.0-2.56","","<div style=""font-size:60px;"">+</div>","null","","","","","","",""
"null","","image-keyboard-response","210","270994","0.0-4.0-0.57","","img/grey.png","null","trial","null","true","0.2,0.8","2:nogo_b","",""
"null","","html-keyboard-response","211","271995","0.0-4.0-1.57","","<img src=""img/grey-r.png"">","null","trial","null","","0.2,0.8","2:nogo_b","1",""
"null","","html-keyboard-response","212","272997","0.0-4.0-2.57","","<div style=""font-size:60px;"">+</div>","null","","","","","","",""
"571.2000000476837","","image-keyboard-response","213","273568","0.0-4.0-0.58","","img/purple.png","32","trial","32","true","0.8,0.2","1:go_a","",""
"null","","html-keyboard-response","214","274570","0.0-4.0-1.58","","<img src=""img/purple-r.png"" border=""10"">","null","trial","32","","0.8,0.2","1:go_a","1",""
"null","","html-keyboard-response","215","275571","0.0-4.0-2.58","","<div style=""font-size:60px;"">+</div>","null","","","","","","",""
"null","","image-keyboard-response","216","277072","0.0-4.0-0.59","","img/grey.png","null","trial","null","true","0.2,0.8","2:nogo_b","",""
"null","","html-keyboard-response","217","278075","0.0-4.0-1.59","","<img src=""img/grey-r.png"">","null","trial","null","","0.2,0.8","2:nogo_b","1",""
"null","","html-keyboard-response","218","279077","0.0-4.0-2.59","","<div style=""font-size:60px;"">+</div>","null","","","","","","",""
"1850.5","","instructions","219","280927","0.0-5.0","[{""page_index"":0,""viewing_time"":1850.2000000476837}]","","","","","","","","",""
"766.1000001430511","","image-keyboard-response","220","281694","0.0-6.0-0.0","","img/blue.png","32","trial","32","true","0.6,0.4","3:go_c","",""
"null","","html-keyboard-response","221","282695","0.0-6.0-1.0","","<img src=""img/blue-r.png"" border=""10"">","null","trial","32","","0.6,0.4","3:go_c","1",""
"null","","html-keyboard-response","222","283697","0.0-6.0-2.0","","<div style=""font-size:60px;"">+</div>","null","","","","","","",""
"852.2999999523163","","image-keyboard-response","223","284550","0.0-6.0-0.1","","img/grey.png","32","trial","null","false","0.4,0.6","4:nogo_d","",""
"null","","html-keyboard-response","224","285551","0.0-6.0-1.1","","<img src=""img/grey-r.png"" border=""10"">","null","trial","null","","0.4,0.6","4:nogo_d","1",""
"null","","html-keyboard-response","225","286553","0.0-6.0-2.1","","<div style=""font-size:60px;"">+</div>","null","","","","","","",""
"604.2000000476837","","image-keyboard-response","226","287157","0.0-6.0-0.2","","img/pink.png","32","trial","null","false","0.2,0.8","2:nogo_b","",""
"null","","html-keyboard-response","227","288159","0.0-6.0-1.2","","<img src=""img/pink-n.png"" border=""10"">","null","trial","null","","0.2,0.8","2:nogo_b","0",""
"null","","html-keyboard-response","228","289160","0.0-6.0-2.2","","<div style=""font-size:60px;"">+</div>","null","","","","","","",""
"687.1999998092651","","image-keyboard-response","229","289848","0.0-6.0-0.3","","img/orange.png","32","trial","32","true","0.8,0.2","1:go_a","",""
"null","","html-keyboard-response","230","290850","0.0-6.0-1.3","","<img src=""img/orange-n.png"" border=""10"">","null","trial","32","","0.8,0.2","1:go_a","0",""
"null","","html-keyboard-response","231","291852","0.0-6.0-2.3","","<div style=""font-size:60px;"">+</div>","null","","","","","","",""
"890.6000001430511","","image-keyboard-response","232","292744","0.0-6.0-0.4","","img/grey.png","32","trial","null","false","0.4,0.6","4:nogo_d","",""
"null","","html-keyboard-response","233","293746","0.0-6.0-1.4","","<img src=""img/grey-r.png"" border=""10"">","null","trial","null","","0.4,0.6","4:nogo_d","1",""
"null","","html-keyboard-response","234","294747","0.0-6.0-2.4","","<div style=""font-size:60px;"">+</div>","null","","","","","","",""
"null","","image-keyboard-response","235","296248","0.0-6.0-0.5","","img/orange.png","null","trial","32","false","0.8,0.2","1:go_a","",""
"null","","html-keyboard-response","236","297249","0.0-6.0-1.5","","<img src=""img/orange-n.png"">","null","trial","32","","0.8,0.2","1:go_a","0",""
"null","","html-keyboard-response","237","298250","0.0-6.0-2.5","","<div style=""font-size:60px;"">+</div>","null","","","","","","",""
"null","","image-keyboard-response","238","299751","0.0-6.0-0.6","","img/pink.png","null","trial","null","true","0.2,0.8","2:nogo_b","",""
"null","","html-keyboard-response","239","300752","0.0-6.0-1.6","","<img src=""img/pink-r.png"">","null","trial","null","","0.2,0.8","2:nogo_b","1",""
"null","","html-keyboard-response","240","301754","0.0-6.0-2.6","","<div style=""font-size:60px;"">+</div>","null","","","","","","",""
"729.4000000953674","","image-keyboard-response","241","302484","0.0-6.0-0.7","","img/blue.png","32","trial","32","true","0.6,0.4","3:go_c","",""
"null","","html-keyboard-response","242","303486","0.0-6.0-1.7","","<img src=""img/blue-r.png"" border=""10"">","null","trial","32","","0.6,0.4","3:go_c","1",""
"null","","html-keyboard-response","243","304487","0.0-6.0-2.7","","<div style=""font-size:60px;"">+</div>","null","","","","","","",""
"null","","image-keyboard-response","244","305988","0.0-6.0-0.8","","img/orange.png","null","trial","32","false","0.8,0.2","1:go_a","",""
"null","","html-keyboard-response","245","306990","0.0-6.0-1.8","","<img src=""img/orange-r.png"">","null","trial","32","","0.8,0.2","1:go_a","1",""
"null","","html-keyboard-response","246","307992","0.0-6.0-2.8","","<div style=""font-size:60px;"">+</div>","null","","","","","","",""
"454.60000014305115","","image-keyboard-response","247","308447","0.0-6.0-0.9","","img/blue.png","32","trial","32","true","0.6,0.4","3:go_c","",""
"null","","html-keyboard-response","248","309449","0.0-6.0-1.9","","<img src=""img/blue-r.png"" border=""10"">","null","trial","32","","0.6,0.4","3:go_c","1",""
"null","","html-keyboard-response","249","310452","0.0-6.0-2.9","","<div style=""font-size:60px;"">+</div>","null","","","","","","",""
"413.09999990463257","","image-keyboard-response","250","310865","0.0-6.0-0.10","","img/grey.png","32","trial","null","false","0.4,0.6","4:nogo_d","",""
"null","","html-keyboard-response","251","311866","0.0-6.0-1.10","","<img src=""img/grey-n.png"" border=""10"">","null","trial","null","","0.4,0.6","4:nogo_d","0",""
"null","","html-keyboard-response","252","312869","0.0-6.0-2.10","","<div style=""font-size:60px;"">+</div>","null","","","","","","",""
"null","","image-keyboard-response","253","314369","0.0-6.0-0.11","","img/pink.png","null","trial","null","true","0.2,0.8","2:nogo_b","",""
"null","","html-keyboard-response","254","315371","0.0-6.0-1.11","","<img src=""img/pink-r.png"">","null","trial","null","","0.2,0.8","2:nogo_b","1",""
"null","","html-keyboard-response","255","316373","0.0-6.0-2.11","","<div style=""font-size:60px;"">+</div>","null","","","","","","",""
"579.2000000476837","","image-keyboard-response","256","316952","0.0-6.0-0.12","","img/blue.png","32","trial","32","true","0.6,0.4","3:go_c","",""
"null","","html-keyboard-response","257","317954","0.0-6.0-1.12","","<img src=""img/blue-n.png"" border=""10"">","null","trial","32","","0.6,0.4","3:go_c","0",""
"null","","html-keyboard-response","258","318955","0.0-6.0-2.12","","<div style=""font-size:60px;"">+</div>","null","","","","","","",""
"425.2999999523163","","image-keyboard-response","259","319380","0.0-6.0-0.13","","img/grey.png","32","trial","null","false","0.4,0.6","4:nogo_d","",""
"null","","html-keyboard-response","260","320382","0.0-6.0-1.13","","<img src=""img/grey-r.png"" border=""10"">","null","trial","null","","0.4,0.6","4:nogo_d","1",""
"null","","html-keyboard-response","261","321384","0.0-6.0-2.13","","<div style=""font-size:60px;"">+</div>","null","","","","","","",""
"null","","image-keyboard-response","262","322885","0.0-6.0-0.14","","img/orange.png","null","trial","32","false","0.8,0.2","1:go_a","",""
"null","","html-keyboard-response","263","323887","0.0-6.0-1.14","","<img src=""img/orange-n.png"">","null","trial","32","","0.8,0.2","1:go_a","0",""
"null","","html-keyboard-response","264","324889","0.0-6.0-2.14","","<div style=""font-size:60px;"">+</div>","null","","","","","","",""
"null","","image-keyboard-response","265","326389","0.0-6.0-0.15","","img/pink.png","null","trial","null","true","0.2,0.8","2:nogo_b","",""
"null","","html-keyboard-response","266","327391","0.0-6.0-1.15","","<img src=""img/pink-r.png"">","null","trial","null","","0.2,0.8","2:nogo_b","1",""
"null","","html-keyboard-response","267","328391","0.0-6.0-2.15","","<div style=""font-size:60px;"">+</div>","null","","","","","","",""
"583.0999999046326","","image-keyboard-response","268","328975","0.0-6.0-0.16","","img/grey.png","32","trial","null","false","0.4,0.6","4:nogo_d","",""
"null","","html-keyboard-response","269","329977","0.0-6.0-1.16","","<img src=""img/grey-n.png"" border=""10"">","null","trial","null","","0.4,0.6","4:nogo_d","0",""
"null","","html-keyboard-response","270","330980","0.0-6.0-2.16","","<div style=""font-size:60px;"">+</div>","null","","","","","","",""
"702.3999998569489","","image-keyboard-response","271","331682","0.0-6.0-0.17","","img/orange.png","32","trial","32","true","0.8,0.2","1:go_a","",""
"null","","html-keyboard-response","272","332684","0.0-6.0-1.17","","<img src=""img/orange-n.png"" border=""10"">","null","trial","32","","0.8,0.2","1:go_a","0",""
"null","","html-keyboard-response","273","333686","0.0-6.0-2.17","","<div style=""font-size:60px;"">+</div>","null","","","","","","",""
"431.09999990463257","","image-keyboard-response","274","334117","0.0-6.0-0.18","","img/blue.png","32","trial","32","true","0.6,0.4","3:go_c","",""
"null","","html-keyboard-response","275","335119","0.0-6.0-1.18","","<img src=""img/blue-n.png"" border=""10"">","null","trial","32","","0.6,0.4","3:go_c","0",""
"null","","html-keyboard-response","276","336121","0.0-6.0-2.18","","<div style=""font-size:60px;"">+</div>","null","","","","","","",""
"null","","image-keyboard-response","277","337622","0.0-6.0-0.19","","img/pink.png","null","trial","null","true","0.2,0.8","2:nogo_b","",""
"null","","html-keyboard-response","278","338624","0.0-6.0-1.19","","<img src=""img/pink-r.png"">","null","trial","null","","0.2,0.8","2:nogo_b","1",""
"null","","html-keyboard-response","279","339624","0.0-6.0-2.19","","<div style=""font-size:60px;"">+</div>","null","","","","","","",""
"611.3999998569489","","image-keyboard-response","280","340236","0.0-6.0-0.20","","img/grey.png","32","trial","null","false","0.4,0.6","4:nogo_d","",""
"null","","html-keyboard-response","281","341238","0.0-6.0-1.20","","<img src=""img/grey-r.png"" border=""10"">","null","trial","null","","0.4,0.6","4:nogo_d","1",""
"null","","html-keyboard-response","282","342240","0.0-6.0-2.20","","<div style=""font-size:60px;"">+</div>","null","","","","","","",""
"418.09999990463257","","image-keyboard-response","283","342659","0.0-6.0-0.21","","img/blue.png","32","trial","32","true","0.6,0.4","3:go_c","",""
"null","","html-keyboard-response","284","343660","0.0-6.0-1.21","","<img src=""img/blue-n.png"" border=""10"">","null","trial","32","","0.6,0.4","3:go_c","0",""
"null","","html-keyboard-response","285","344662","0.0-6.0-2.21","","<div style=""font-size:60px;"">+</div>","null","","","","","","",""
"null","","image-keyboard-response","286","346163","0.0-6.0-0.22","","img/orange.png","null","trial","32","false","0.8,0.2","1:go_a","",""
"null","","html-keyboard-response","287","347165","0.0-6.0-1.22","","<img src=""img/orange-n.png"">","null","trial","32","","0.8,0.2","1:go_a","0",""
"null","","html-keyboard-response","288","348168","0.0-6.0-2.22","","<div style=""font-size:60px;"">+</div>","null","","","","","","",""
"null","","image-keyboard-response","289","349668","0.0-6.0-0.23","","img/pink.png","null","trial","null","true","0.2,0.8","2:nogo_b","",""
"null","","html-keyboard-response","290","350670","0.0-6.0-1.23","","<img src=""img/pink-r.png"">","null","trial","null","","0.2,0.8","2:nogo_b","1",""
"null","","html-keyboard-response","291","351671","0.0-6.0-2.23","","<div style=""font-size:60px;"">+</div>","null","","","","","","",""
"null","","image-keyboard-response","292","353173","0.0-6.0-0.24","","img/pink.png","null","trial","null","true","0.2,0.8","2:nogo_b","",""
"null","","html-keyboard-response","293","354175","0.0-6.0-1.24","","<img src=""img/pink-r.png"">","null","trial","null","","0.2,0.8","2:nogo_b","1",""
"null","","html-keyboard-response","294","355177","0.0-6.0-2.24","","<div style=""font-size:60px;"">+</div>","null","","","","","","",""
"1147.0999999046326","","image-keyboard-response","295","356324","0.0-6.0-0.25","","img/orange.png","32","trial","32","true","0.8,0.2","1:go_a","",""
"null","","html-keyboard-response","296","357326","0.0-6.0-1.25","","<img src=""img/orange-r.png"" border=""10"">","null","trial","32","","0.8,0.2","1:go_a","1",""
"null","","html-keyboard-response","297","358328","0.0-6.0-2.25","","<div style=""font-size:60px;"">+</div>","null","","","","","","",""
"594.0999999046326","","image-keyboard-response","298","358922","0.0-6.0-0.26","","img/blue.png","32","trial","32","true","0.6,0.4","3:go_c","",""
"null","","html-keyboard-response","299","359924","0.0-6.0-1.26","","<img src=""img/blue-n.png"" border=""10"">","null","trial","32","","0.6,0.4","3:go_c","0",""
"null","","html-keyboard-response","300","360925","0.0-6.0-2.26","","<div style=""font-size:60px;"">+</div>","null","","","","","","",""
"551.2000000476837","","image-keyboard-response","301","361477","0.0-6.0-0.27","","img/grey.png","32","trial","null","false","0.4,0.6","4:nogo_d","",""
"null","","html-keyboard-response","302","362479","0.0-6.0-1.27","","<img src=""img/grey-n.png"" border=""10"">","null","trial","null","","0.4,0.6","4:nogo_d","0",""
"null","","html-keyboard-response","303","363480","0.0-6.0-2.27","","<div style=""font-size:60px;"">+</div>","null","","","","","","",""
"null","","image-keyboard-response","304","364982","0.0-6.0-0.28","","img/pink.png","null","trial","null","true","0.2,0.8","2:nogo_b","",""
"null","","html-keyboard-response","305","365983","0.0-6.0-1.28","","<img src=""img/pink-r.png"">","null","trial","null","","0.2,0.8","2:nogo_b","1",""
"null","","html-keyboard-response","306","366984","0.0-6.0-2.28","","<div style=""font-size:60px;"">+</div>","null","","","","","","",""
"735.3999998569489","","image-keyboard-response","307","367720","0.0-6.0-0.29","","img/grey.png","32","trial","null","false","0.4,0.6","4:nogo_d","",""
"null","","html-keyboard-response","308","368722","0.0-6.0-1.29","","<img src=""img/grey-n.png"" border=""10"">","null","trial","null","","0.4,0.6","4:nogo_d","0",""
"null","","html-keyboard-response","309","369723","0.0-6.0-2.29","","<div style=""font-size:60px;"">+</div>","null","","","","","","",""
"672","","image-keyboard-response","310","370395","0.0-6.0-0.30","","img/orange.png","32","trial","32","true","0.8,0.2","1:go_a","",""
"null","","html-keyboard-response","311","371396","0.0-6.0-1.30","","<img src=""img/orange-r.png"" border=""10"">","null","trial","32","","0.8,0.2","1:go_a","1",""
"null","","html-keyboard-response","312","372398","0.0-6.0-2.30","","<div style=""font-size:60px;"">+</div>","null","","","","","","",""
"996","","image-keyboard-response","313","373394","0.0-6.0-0.31","","img/blue.png","32","trial","32","true","0.6,0.4","3:go_c","",""
"null","","html-keyboard-response","314","374396","0.0-6.0-1.31","","<img src=""img/blue-r.png"" border=""10"">","null","trial","32","","0.6,0.4","3:go_c","1",""
"null","","html-keyboard-response","315","375398","0.0-6.0-2.31","","<div style=""font-size:60px;"">+</div>","null","","","","","","",""
"null","","image-keyboard-response","316","376898","0.0-6.0-0.32","","img/pink.png","null","trial","null","true","0.2,0.8","2:nogo_b","",""
"null","","html-keyboard-response","317","377901","0.0-6.0-1.32","","<img src=""img/pink-r.png"">","null","trial","null","","0.2,0.8","2:nogo_b","1",""
"null","","html-keyboard-response","318","378901","0.0-6.0-2.32","","<div style=""font-size:60px;"">+</div>","null","","","","","","",""
"null","","image-keyboard-response","319","380403","0.0-6.0-0.33","","img/grey.png","null","trial","null","true","0.4,0.6","4:nogo_d","",""
"null","","html-keyboard-response","320","381405","0.0-6.0-1.33","","<img src=""img/grey-n.png"">","null","trial","null","","0.4,0.6","4:nogo_d","0",""
"null","","html-keyboard-response","321","382407","0.0-6.0-2.33","","<div style=""font-size:60px;"">+</div>","null","","","","","","",""
"574.3999998569489","","image-keyboard-response","322","382981","0.0-6.0-0.34","","img/orange.png","32","trial","32","true","0.8,0.2","1:go_a","",""
"null","","html-keyboard-response","323","383983","0.0-6.0-1.34","","<img src=""img/orange-r.png"" border=""10"">","null","trial","32","","0.8,0.2","1:go_a","1",""
"null","","html-keyboard-response","324","384984","0.0-6.0-2.34","","<div style=""font-size:60px;"">+</div>","null","","","","","","",""
"511.2999999523163","","image-keyboard-response","325","385496","0.0-6.0-0.35","","img/blue.png","32","trial","32","true","0.6,0.4","3:go_c","",""
"null","","html-keyboard-response","326","386497","0.0-6.0-1.35","","<img src=""img/blue-r.png"" border=""10"">","null","trial","32","","0.6,0.4","3:go_c","1",""
"null","","html-keyboard-response","327","387500","0.0-6.0-2.35","","<div style=""font-size:60px;"">+</div>","null","","","","","","",""
"null","","image-keyboard-response","328","389001","0.0-6.0-0.36","","img/grey.png","null","trial","null","true","0.4,0.6","4:nogo_d","",""
"null","","html-keyboard-response","329","390003","0.0-6.0-1.36","","<img src=""img/grey-r.png"">","null","trial","null","","0.4,0.6","4:nogo_d","1",""
"null","","html-keyboard-response","330","391006","0.0-6.0-2.36","","<div style=""font-size:60px;"">+</div>","null","","","","","","",""
"633","","image-keyboard-response","331","391639","0.0-6.0-0.37","","img/blue.png","32","trial","32","true","0.6,0.4","3:go_c","",""
"null","","html-keyboard-response","332","392641","0.0-6.0-1.37","","<img src=""img/blue-r.png"" border=""10"">","null","trial","32","","0.6,0.4","3:go_c","1",""
"null","","html-keyboard-response","333","393642","0.0-6.0-2.37","","<div style=""font-size:60px;"">+</div>","null","","","","","","",""
"484.5","","image-keyboard-response","334","394127","0.0-6.0-0.38","","img/orange.png","32","trial","32","true","0.8,0.2","1:go_a","",""
"null","","html-keyboard-response","335","395128","0.0-6.0-1.38","","<img src=""img/orange-r.png"" border=""10"">","null","trial","32","","0.8,0.2","1:go_a","1",""
"null","","html-keyboard-response","336","396129","0.0-6.0-2.38","","<div style=""font-size:60px;"">+</div>","null","","","","","","",""
"null","","image-keyboard-response","337","397630","0.0-6.0-0.39","","img/pink.png","null","trial","null","true","0.2,0.8","2:nogo_b","",""
"null","","html-keyboard-response","338","398632","0.0-6.0-1.39","","<img src=""img/pink-r.png"">","null","trial","null","","0.2,0.8","2:nogo_b","1",""
"null","","html-keyboard-response","339","399634","0.0-6.0-2.39","","<div style=""font-size:60px;"">+</div>","null","","","","","","",""
"827.3000001907349","","image-keyboard-response","340","400462","0.0-6.0-0.40","","img/orange.png","32","trial","32","true","0.8,0.2","1:go_a","",""
"null","","html-keyboard-response","341","401464","0.0-6.0-1.40","","<img src=""img/orange-r.png"" border=""10"">","null","trial","32","","0.8,0.2","1:go_a","1",""
"null","","html-keyboard-response","342","402466","0.0-6.0-2.40","","<div style=""font-size:60px;"">+</div>","null","","","","","","",""
"null","","image-keyboard-response","343","403967","0.0-6.0-0.41","","img/grey.png","null","trial","null","true","0.4,0.6","4:nogo_d","",""
"null","","html-keyboard-response","344","404969","0.0-6.0-1.41","","<img src=""img/grey-n.png"">","null","trial","null","","0.4,0.6","4:nogo_d","0",""
"null","","html-keyboard-response","345","405971","0.0-6.0-2.41","","<div style=""font-size:60px;"">+</div>","null","","","","","","",""
"null","","image-keyboard-response","346","407472","0.0-6.0-0.42","","img/pink.png","null","trial","null","true","0.2,0.8","2:nogo_b","",""
"null","","html-keyboard-response","347","408474","0.0-6.0-1.42","","<img src=""img/pink-n.png"">","null","trial","null","","0.2,0.8","2:nogo_b","0",""
"null","","html-keyboard-response","348","409476","0.0-6.0-2.42","","<div style=""font-size:60px;"">+</div>","null","","","","","","",""
"382.19999980926514","","image-keyboard-response","349","409858","0.0-6.0-0.43","","img/blue.png","32","trial","32","true","0.6,0.4","3:go_c","",""
"null","","html-keyboard-response","350","410859","0.0-6.0-1.43","","<img src=""img/blue-n.png"" border=""10"">","null","trial","32","","0.6,0.4","3:go_c","0",""
"null","","html-keyboard-response","351","411861","0.0-6.0-2.43","","<div style=""font-size:60px;"">+</div>","null","","","","","","",""
"949","","image-keyboard-response","352","412810","0.0-6.0-0.44","","img/grey.png","32","trial","null","false","0.4,0.6","4:nogo_d","",""
"null","","html-keyboard-response","353","413811","0.0-6.0-1.44","","<img src=""img/grey-n.png"" border=""10"">","null","trial","null","","0.4,0.6","4:nogo_d","0",""
"null","","html-keyboard-response","354","414813","0.0-6.0-2.44","","<div style=""font-size:60px;"">+</div>","null","","","","","","",""
"431.90000009536743","","image-keyboard-response","355","415245","0.0-6.0-0.45","","img/orange.png","32","trial","32","true","0.8,0.2","1:go_a","",""
"null","","html-keyboard-response","356","416247","0.0-6.0-1.45","","<img src=""img/orange-n.png"" border=""10"">","null","trial","32","","0.8,0.2","1:go_a","0",""
"null","","html-keyboard-response","357","417249","0.0-6.0-2.45","","<div style=""font-size:60px;"">+</div>","null","","","","","","",""
"678.7999999523163","","image-keyboard-response","358","417928","0.0-6.0-0.46","","img/blue.png","32","trial","32","true","0.6,0.4","3:go_c","",""
"null","","html-keyboard-response","359","418930","0.0-6.0-1.46","","<img src=""img/blue-r.png"" border=""10"">","null","trial","32","","0.6,0.4","3:go_c","1",""
"null","","html-keyboard-response","360","419932","0.0-6.0-2.46","","<div style=""font-size:60px;"">+</div>","null","","","","","","",""
"null","","image-keyboard-response","361","421433","0.0-6.0-0.47","","img/pink.png","null","trial","null","true","0.2,0.8","2:nogo_b","",""
"null","","html-keyboard-response","362","422435","0.0-6.0-1.47","","<img src=""img/pink-r.png"">","null","trial","null","","0.2,0.8","2:nogo_b","1",""
"null","","html-keyboard-response","363","423435","0.0-6.0-2.47","","<div style=""font-size:60px;"">+</div>","null","","","","","","",""
"603.5999999046326","","image-keyboard-response","364","424039","0.0-6.0-0.48","","img/orange.png","32","trial","32","true","0.8,0.2","1:go_a","",""
"null","","html-keyboard-response","365","425041","0.0-6.0-1.48","","<img src=""img/orange-r.png"" border=""10"">","null","trial","32","","0.8,0.2","1:go_a","1",""
"null","","html-keyboard-response","366","426043","0.0-6.0-2.48","","<div style=""font-size:60px;"">+</div>","null","","","","","","",""
"609.2000000476837","","image-keyboard-response","367","426653","0.0-6.0-0.49","","img/blue.png","32","trial","32","true","0.6,0.4","3:go_c","",""
"null","","html-keyboard-response","368","427655","0.0-6.0-1.49","","<img src=""img/blue-r.png"" border=""10"">","null","trial","32","","0.6,0.4","3:go_c","1",""
"null","","html-keyboard-response","369","428656","0.0-6.0-2.49","","<div style=""font-size:60px;"">+</div>","null","","","","","","",""
"null","","image-keyboard-response","370","430158","0.0-6.0-0.50","","img/pink.png","null","trial","null","true","0.2,0.8","2:nogo_b","",""
"null","","html-keyboard-response","371","431160","0.0-6.0-1.50","","<img src=""img/pink-r.png"">","null","trial","null","","0.2,0.8","2:nogo_b","1",""
"null","","html-keyboard-response","372","432161","0.0-6.0-2.50","","<div style=""font-size:60px;"">+</div>","null","","","","","","",""
"null","","image-keyboard-response","373","433663","0.0-6.0-0.51","","img/grey.png","null","trial","null","true","0.4,0.6","4:nogo_d","",""
"null","","html-keyboard-response","374","434665","0.0-6.0-1.51","","<img src=""img/grey-n.png"">","null","trial","null","","0.4,0.6","4:nogo_d","0",""
"null","","html-keyboard-response","375","435667","0.0-6.0-2.51","","<div style=""font-size:60px;"">+</div>","null","","","","","","",""
"403","","image-keyboard-response","376","436070","0.0-6.0-0.52","","img/blue.png","32","trial","32","true","0.6,0.4","3:go_c","",""
"null","","html-keyboard-response","377","437072","0.0-6.0-1.52","","<img src=""img/blue-r.png"" border=""10"">","null","trial","32","","0.6,0.4","3:go_c","1",""
"null","","html-keyboard-response","378","438074","0.0-6.0-2.52","","<div style=""font-size:60px;"">+</div>","null","","","","","","",""
"413.7999999523163","","image-keyboard-response","379","438488","0.0-6.0-0.53","","img/grey.png","32","trial","null","false","0.4,0.6","4:nogo_d","",""
"null","","html-keyboard-response","380","439489","0.0-6.0-1.53","","<img src=""img/grey-r.png"" border=""10"">","null","trial","null","","0.4,0.6","4:nogo_d","1",""
"null","","html-keyboard-response","381","440492","0.0-6.0-2.53","","<div style=""font-size:60px;"">+</div>","null","","","","","","",""
"374.7000000476837","","image-keyboard-response","382","440867","0.0-6.0-0.54","","img/orange.png","32","trial","32","true","0.8,0.2","1:go_a","",""
"null","","html-keyboard-response","383","441868","0.0-6.0-1.54","","<img src=""img/orange-r.png"" border=""10"">","null","trial","32","","0.8,0.2","1:go_a","1",""
"null","","html-keyboard-response","384","442871","0.0-6.0-2.54","","<div style=""font-size:60px;"">+</div>","null","","","","","","",""
"null","","image-keyboard-response","385","444372","0.0-6.0-0.55","","img/pink.png","null","trial","null","true","0.2,0.8","2:nogo_b","",""
"null","","html-keyboard-response","386","445373","0.0-6.0-1.55","","<img src=""img/pink-r.png"">","null","trial","null","","0.2,0.8","2:nogo_b","1",""
"null","","html-keyboard-response","387","446374","0.0-6.0-2.55","","<div style=""font-size:60px;"">+</div>","null","","","","","","",""
"null","","image-keyboard-response","388","447875","0.0-6.0-0.56","","img/pink.png","null","trial","null","true","0.2,0.8","2:nogo_b","",""
"null","","html-keyboard-response","389","448877","0.0-6.0-1.56","","<img src=""img/pink-n.png"">","null","trial","null","","0.2,0.8","2:nogo_b","0",""
"null","","html-keyboard-response","390","449878","0.0-6.0-2.56","","<div style=""font-size:60px;"">+</div>","null","","","","","","",""
"629.3000001907349","","image-keyboard-response","391","450508","0.0-6.0-0.57","","img/grey.png","32","trial","null","false","0.4,0.6","4:nogo_d","",""
"null","","html-keyboard-response","392","451510","0.0-6.0-1.57","","<img src=""img/grey-n.png"" border=""10"">","null","trial","null","","0.4,0.6","4:nogo_d","0",""
"null","","html-keyboard-response","393","452511","0.0-6.0-2.57","","<div style=""font-size:60px;"">+</div>","null","","","","","","",""
"443.7000000476837","","image-keyboard-response","394","452955","0.0-6.0-0.58","","img/orange.png","32","trial","32","true","0.8,0.2","1:go_a","",""
"null","","html-keyboard-response","395","453957","0.0-6.0-1.58","","<img src=""img/orange-r.png"" border=""10"">","null","trial","32","","0.8,0.2","1:go_a","1",""
"null","","html-keyboard-response","396","454958","0.0-6.0-2.58","","<div style=""font-size:60px;"">+</div>","null","","","","","","",""
"380.59999990463257","","image-keyboard-response","397","455339","0.0-6.0-0.59","","img/blue.png","32","trial","32","true","0.6,0.4","3:go_c","",""
"null","","html-keyboard-response","398","456341","0.0-6.0-1.59","","<img src=""img/blue-n.png"" border=""10"">","null","trial","32","","0.6,0.4","3:go_c","0",""
"null","","html-keyboard-response","399","457343","0.0-6.0-2.59","","<div style=""font-size:60px;"">+</div>","null","","","","","","",""
"591.5","","image-keyboard-response","400","457935","0.0-6.0-0.60","","img/orange.png","32","trial","32","true","0.8,0.2","1:go_a","",""
"null","","html-keyboard-response","401","458938","0.0-6.0-1.60","","<img src=""img/orange-r.png"" border=""10"">","null","trial","32","","0.8,0.2","1:go_a","1",""
"null","","html-keyboard-response","402","459939","0.0-6.0-2.60","","<div style=""font-size:60px;"">+</div>","null","","","","","","",""
"455","","image-keyboard-response","403","460394","0.0-6.0-0.61","","img/grey.png","32","trial","null","false","0.4,0.6","4:nogo_d","",""
"null","","html-keyboard-response","404","461396","0.0-6.0-1.61","","<img src=""img/grey-n.png"" border=""10"">","null","trial","null","","0.4,0.6","4:nogo_d","0",""
"null","","html-keyboard-response","405","462397","0.0-6.0-2.61","","<div style=""font-size:60px;"">+</div>","null","","","","","","",""
"null","","image-keyboard-response","406","463898","0.0-6.0-0.62","","img/pink.png","null","trial","null","true","0.2,0.8","2:nogo_b","",""
"null","","html-keyboard-response","407","464901","0.0-6.0-1.62","","<img src=""img/pink-r.png"">","null","trial","null","","0.2,0.8","2:nogo_b","1",""
"null","","html-keyboard-response","408","465917","0.0-6.0-2.62","","<div style=""font-size:60px;"">+</div>","null","","","","","","",""
"386.80000019073486","","image-keyboard-response","409","466304","0.0-6.0-0.63","","img/blue.png","32","trial","32","true","0.6,0.4","3:go_c","",""
"null","","html-keyboard-response","410","467307","0.0-6.0-1.63","","<img src=""img/blue-r.png"" border=""10"">","null","trial","32","","0.6,0.4","3:go_c","1",""
"null","","html-keyboard-response","411","468309","0.0-6.0-2.63","","<div style=""font-size:60px;"">+</div>","null","","","","","","",""
"580.7999999523163","","image-keyboard-response","412","468890","0.0-6.0-0.64","","img/grey.png","32","trial","null","false","0.4,0.6","4:nogo_d","",""
"null","","html-keyboard-response","413","469891","0.0-6.0-1.64","","<img src=""img/grey-n.png"" border=""10"">","null","trial","null","","0.4,0.6","4:nogo_d","0",""
"null","","html-keyboard-response","414","470893","0.0-6.0-2.64","","<div style=""font-size:60px;"">+</div>","null","","","","","","",""
"402.7000000476837","","image-keyboard-response","415","471296","0.0-6.0-0.65","","img/orange.png","32","trial","32","true","0.8,0.2","1:go_a","",""
"null","","html-keyboard-response","416","472298","0.0-6.0-1.65","","<img src=""img/orange-r.png"" border=""10"">","null","trial","32","","0.8,0.2","1:go_a","1",""
"null","","html-keyboard-response","417","473301","0.0-6.0-2.65","","<div style=""font-size:60px;"">+</div>","null","","","","","","",""
"460.7999999523163","","image-keyboard-response","418","473762","0.0-6.0-0.66","","img/blue.png","32","trial","32","true","0.6,0.4","3:go_c","",""
"null","","html-keyboard-response","419","474765","0.0-6.0-1.66","","<img src=""img/blue-n.png"" border=""10"">","null","trial","32","","0.6,0.4","3:go_c","0",""
"null","","html-keyboard-response","420","475767","0.0-6.0-2.66","","<div style=""font-size:60px;"">+</div>","null","","","","","","",""
"null","","image-keyboard-response","421","477268","0.0-6.0-0.67","","img/pink.png","null","trial","null","true","0.2,0.8","2:nogo_b","",""
"null","","html-keyboard-response","422","478271","0.0-6.0-1.67","","<img src=""img/pink-r.png"">","null","trial","null","","0.2,0.8","2:nogo_b","1",""
"null","","html-keyboard-response","423","479272","0.0-6.0-2.67","","<div style=""font-size:60px;"">+</div>","null","","","","","","",""
"620.7999999523163","","image-keyboard-response","424","479893","0.0-6.0-0.68","","img/blue.png","32","trial","32","true","0.6,0.4","3:go_c","",""
"null","","html-keyboard-response","425","480896","0.0-6.0-1.68","","<img src=""img/blue-n.png"" border=""10"">","null","trial","32","","0.6,0.4","3:go_c","0",""
"null","","html-keyboard-response","426","481897","0.0-6.0-2.68","","<div style=""font-size:60px;"">+</div>","null","","","","","","",""
"null","","image-keyboard-response","427","483399","0.0-6.0-0.69","","img/pink.png","null","trial","null","true","0.2,0.8","2:nogo_b","",""
"null","","html-keyboard-response","428","484400","0.0-6.0-1.69","","<img src=""img/pink-r.png"">","null","trial","null","","0.2,0.8","2:nogo_b","1",""
"null","","html-keyboard-response","429","485402","0.0-6.0-2.69","","<div style=""font-size:60px;"">+</div>","null","","","","","","",""
"null","","image-keyboard-response","430","486902","0.0-6.0-0.70","","img/grey.png","null","trial","null","true","0.4,0.6","4:nogo_d","",""
"null","","html-keyboard-response","431","487905","0.0-6.0-1.70","","<img src=""img/grey-r.png"">","null","trial","null","","0.4,0.6","4:nogo_d","1",""
"null","","html-keyboard-response","432","488905","0.0-6.0-2.70","","<div style=""font-size:60px;"">+</div>","null","","","","","","",""
"424.7999999523163","","image-keyboard-response","433","489331","0.0-6.0-0.71","","img/orange.png","32","trial","32","true","0.8,0.2","1:go_a","",""
"null","","html-keyboard-response","434","490333","0.0-6.0-1.71","","<img src=""img/orange-n.png"" border=""10"">","null","trial","32","","0.8,0.2","1:go_a","0",""
"null","","html-keyboard-response","435","491334","0.0-6.0-2.71","","<div style=""font-size:60px;"">+</div>","null","","","","","","",""
"830.9000000953674","","image-keyboard-response","436","492166","0.0-6.0-0.72","","img/orange.png","32","trial","32","true","0.8,0.2","1:go_a","",""
"null","","html-keyboard-response","437","493168","0.0-6.0-1.72","","<img src=""img/orange-r.png"" border=""10"">","null","trial","32","","0.8,0.2","1:go_a","1",""
"null","","html-keyboard-response","438","494169","0.0-6.0-2.72","","<div style=""font-size:60px;"">+</div>","null","","","","","","",""
"null","","image-keyboard-response","439","495670","0.0-6.0-0.73","","img/pink.png","null","trial","null","true","0.2,0.8","2:nogo_b","",""
"null","","html-keyboard-response","440","496672","0.0-6.0-1.73","","<img src=""img/pink-n.png"">","null","trial","null","","0.2,0.8","2:nogo_b","0",""
"null","","html-keyboard-response","441","497674","0.0-6.0-2.73","","<div style=""font-size:60px;"">+</div>","null","","","","","","",""
"904.2999999523163","","image-keyboard-response","442","498579","0.0-6.0-0.74","","img/grey.png","32","trial","null","false","0.4,0.6","4:nogo_d","",""
"null","","html-keyboard-response","443","499581","0.0-6.0-1.74","","<img src=""img/grey-r.png"" border=""10"">","null","trial","null","","0.4,0.6","4:nogo_d","1",""
"null","","html-keyboard-response","444","500582","0.0-6.0-2.74","","<div style=""font-size:60px;"">+</div>","null","","","","","","",""
"430.7000000476837","","image-keyboard-response","445","501014","0.0-6.0-0.75","","img/blue.png","32","trial","32","true","0.6,0.4","3:go_c","",""
"null","","html-keyboard-response","446","502016","0.0-6.0-1.75","","<img src=""img/blue-n.png"" border=""10"">","null","trial","32","","0.6,0.4","3:go_c","0",""
"null","","html-keyboard-response","447","503018","0.0-6.0-2.75","","<div style=""font-size:60px;"">+</div>","null","","","","","","",""
"781.5","","image-keyboard-response","448","503800","0.0-6.0-0.76","","img/grey.png","32","trial","null","false","0.4,0.6","4:nogo_d","",""
"null","","html-keyboard-response","449","504802","0.0-6.0-1.76","","<img src=""img/grey-r.png"" border=""10"">","null","trial","null","","0.4,0.6","4:nogo_d","1",""
"null","","html-keyboard-response","450","505803","0.0-6.0-2.76","","<div style=""font-size:60px;"">+</div>","null","","","","","","",""
"374.2999999523163","","image-keyboard-response","451","506178","0.0-6.0-0.77","","img/orange.png","32","trial","32","true","0.8,0.2","1:go_a","",""
"null","","html-keyboard-response","452","507179","0.0-6.0-1.77","","<img src=""img/orange-n.png"" border=""10"">","null","trial","32","","0.8,0.2","1:go_a","0",""
"null","","html-keyboard-response","453","508181","0.0-6.0-2.77","","<div style=""font-size:60px;"">+</div>","null","","","","","","",""
"521.5999999046326","","image-keyboard-response","454","508704","0.0-6.0-0.78","","img/blue.png","32","trial","32","true","0.6,0.4","3:go_c","",""
"null","","html-keyboard-response","455","509705","0.0-6.0-1.78","","<img src=""img/blue-r.png"" border=""10"">","null","trial","32","","0.6,0.4","3:go_c","1",""
"null","","html-keyboard-response","456","510707","0.0-6.0-2.78","","<div style=""font-size:60px;"">+</div>","null","","","","","","",""
"null","","image-keyboard-response","457","512209","0.0-6.0-0.79","","img/pink.png","null","trial","null","true","0.2,0.8","2:nogo_b","",""
"null","","html-keyboard-response","458","513212","0.0-6.0-1.79","","<img src=""img/pink-n.png"">","null","trial","null","","0.2,0.8","2:nogo_b","0",""
"null","","html-keyboard-response","459","514213","0.0-6.0-2.79","","<div style=""font-size:60px;"">+</div>","null","","","","","","",""
"null","","image-keyboard-response","460","515714","0.0-6.0-0.80","","img/pink.png","null","trial","null","true","0.2,0.8","2:nogo_b","",""
"null","","html-keyboard-response","461","516715","0.0-6.0-1.80","","<img src=""img/pink-r.png"">","null","trial","null","","0.2,0.8","2:nogo_b","1",""
"null","","html-keyboard-response","462","517717","0.0-6.0-2.80","","<div style=""font-size:60px;"">+</div>","null","","","","","","",""
"538.5999999046326","","image-keyboard-response","463","518256","0.0-6.0-0.81","","img/blue.png","32","trial","32","true","0.6,0.4","3:go_c","",""
"null","","html-keyboard-response","464","519257","0.0-6.0-1.81","","<img src=""img/blue-r.png"" border=""10"">","null","trial","32","","0.6,0.4","3:go_c","1",""
"null","","html-keyboard-response","465","520258","0.0-6.0-2.81","","<div style=""font-size:60px;"">+</div>","null","","","","","","",""
"547.7000000476837","","image-keyboard-response","466","520807","0.0-6.0-0.82","","img/orange.png","32","trial","32","true","0.8,0.2","1:go_a","",""
"null","","html-keyboard-response","467","521808","0.0-6.0-1.82","","<img src=""img/orange-n.png"" border=""10"">","null","trial","32","","0.8,0.2","1:go_a","0",""
"null","","html-keyboard-response","468","522810","0.0-6.0-2.82","","<div style=""font-size:60px;"">+</div>","null","","","","","","",""
"750.7999999523163","","image-keyboard-response","469","523562","0.0-6.0-0.83","","img/grey.png","32","trial","null","false","0.4,0.6","4:nogo_d","",""
"null","","html-keyboard-response","470","524564","0.0-6.0-1.83","","<img src=""img/grey-n.png"" border=""10"">","null","trial","null","","0.4,0.6","4:nogo_d","0",""
"null","","html-keyboard-response","471","525566","0.0-6.0-2.83","","<div style=""font-size:60px;"">+</div>","null","","","","","","",""
"null","","image-keyboard-response","472","527067","0.0-6.0-0.84","","img/grey.png","null","trial","null","true","0.4,0.6","4:nogo_d","",""
"null","","html-keyboard-response","473","528069","0.0-6.0-1.84","","<img src=""img/grey-n.png"">","null","trial","null","","0.4,0.6","4:nogo_d","0",""
"null","","html-keyboard-response","474","529071","0.0-6.0-2.84","","<div style=""font-size:60px;"">+</div>","null","","","","","","",""
"null","","image-keyboard-response","475","530572","0.0-6.0-0.85","","img/pink.png","null","trial","null","true","0.2,0.8","2:nogo_b","",""
"null","","html-keyboard-response","476","531573","0.0-6.0-1.85","","<img src=""img/pink-r.png"">","null","trial","null","","0.2,0.8","2:nogo_b","1",""
"null","","html-keyboard-response","477","532575","0.0-6.0-2.85","","<div style=""font-size:60px;"">+</div>","null","","","","","","",""
"580.8999998569489","","image-keyboard-response","478","533156","0.0-6.0-0.86","","img/blue.png","32","trial","32","true","0.6,0.4","3:go_c","",""
"null","","html-keyboard-response","479","534158","0.0-6.0-1.86","","<img src=""img/blue-n.png"" border=""10"">","null","trial","32","","0.6,0.4","3:go_c","0",""
"null","","html-keyboard-response","480","535167","0.0-6.0-2.86","","<div style=""font-size:60px;"">+</div>","null","","","","","","",""
"364.5","","image-keyboard-response","481","535532","0.0-6.0-0.87","","img/orange.png","32","trial","32","true","0.8,0.2","1:go_a","",""
"null","","html-keyboard-response","482","536534","0.0-6.0-1.87","","<img src=""img/orange-r.png"" border=""10"">","null","trial","32","","0.8,0.2","1:go_a","1",""
"null","","html-keyboard-response","483","537536","0.0-6.0-2.87","","<div style=""font-size:60px;"">+</div>","null","","","","","","",""
"null","","image-keyboard-response","484","539037","0.0-6.0-0.88","","img/pink.png","null","trial","null","true","0.2,0.8","2:nogo_b","",""
"null","","html-keyboard-response","485","540038","0.0-6.0-1.88","","<img src=""img/pink-r.png"">","null","trial","null","","0.2,0.8","2:nogo_b","1",""
"null","","html-keyboard-response","486","541039","0.0-6.0-2.88","","<div style=""font-size:60px;"">+</div>","null","","","","","","",""
"614.5999999046326","","image-keyboard-response","487","541655","0.0-6.0-0.89","","img/orange.png","32","trial","32","true","0.8,0.2","1:go_a","",""
"null","","html-keyboard-response","488","542657","0.0-6.0-1.89","","<img src=""img/orange-r.png"" border=""10"">","null","trial","32","","0.8,0.2","1:go_a","1",""
"null","","html-keyboard-response","489","543670","0.0-6.0-2.89","","<div style=""font-size:60px;"">+</div>","null","","","","","","",""
"614.8999998569489","","image-keyboard-response","490","544286","0.0-6.0-0.90","","img/grey.png","32","trial","null","false","0.4,0.6","4:nogo_d","",""
"null","","html-keyboard-response","491","545288","0.0-6.0-1.90","","<img src=""img/grey-r.png"" border=""10"">","null","trial","null","","0.4,0.6","4:nogo_d","1",""
"null","","html-keyboard-response","492","546290","0.0-6.0-2.90","","<div style=""font-size:60px;"">+</div>","null","","","","","","",""
"430.59999990463257","","image-keyboard-response","493","546721","0.0-6.0-0.91","","img/blue.png","32","trial","32","true","0.6,0.4","3:go_c","",""
"null","","html-keyboard-response","494","547722","0.0-6.0-1.91","","<img src=""img/blue-r.png"" border=""10"">","null","trial","32","","0.6,0.4","3:go_c","1",""
"null","","html-keyboard-response","495","548722","0.0-6.0-2.91","","<div style=""font-size:60px;"">+</div>","null","","","","","","",""
"496.5","","image-keyboard-response","496","549220","0.0-6.0-0.92","","img/blue.png","32","trial","32","true","0.6,0.4","3:go_c","",""
"null","","html-keyboard-response","497","550222","0.0-6.0-1.92","","<img src=""img/blue-n.png"" border=""10"">","null","trial","32","","0.6,0.4","3:go_c","0",""
"null","","html-keyboard-response","498","551224","0.0-6.0-2.92","","<div style=""font-size:60px;"">+</div>","null","","","","","","",""
"null","","image-keyboard-response","499","552725","0.0-6.0-0.93","","img/pink.png","null","trial","null","true","0.2,0.8","2:nogo_b","",""
"null","","html-keyboard-response","500","553727","0.0-6.0-1.93","","<img src=""img/pink-r.png"">","null","trial","null","","0.2,0.8","2:nogo_b","1",""
"null","","html-keyboard-response","501","554729","0.0-6.0-2.93","","<div style=""font-size:60px;"">+</div>","null","","","","","","",""
"528.7000000476837","","image-keyboard-response","502","555259","0.0-6.0-0.94","","img/orange.png","32","trial","32","true","0.8,0.2","1:go_a","",""
"null","","html-keyboard-response","503","556261","0.0-6.0-1.94","","<img src=""img/orange-r.png"" border=""10"">","null","trial","32","","0.8,0.2","1:go_a","1",""
"null","","html-keyboard-response","504","557263","0.0-6.0-2.94","","<div style=""font-size:60px;"">+</div>","null","","","","","","",""
"429.09999990463257","","image-keyboard-response","505","557693","0.0-6.0-0.95","","img/grey.png","32","trial","null","false","0.4,0.6","4:nogo_d","",""
"null","","html-keyboard-response","506","558694","0.0-6.0-1.95","","<img src=""img/grey-n.png"" border=""10"">","null","trial","null","","0.4,0.6","4:nogo_d","0",""
"null","","html-keyboard-response","507","559696","0.0-6.0-2.95","","<div style=""font-size:60px;"">+</div>","null","","","","","","",""
"402.69999980926514","","image-keyboard-response","508","560100","0.0-6.0-0.96","","img/blue.png","32","trial","32","true","0.6,0.4","3:go_c","",""
"null","","html-keyboard-response","509","561102","0.0-6.0-1.96","","<img src=""img/blue-n.png"" border=""10"">","null","trial","32","","0.6,0.4","3:go_c","0",""
"null","","html-keyboard-response","510","562103","0.0-6.0-2.96","","<div style=""font-size:60px;"">+</div>","null","","","","","","",""
"426.5","","image-keyboard-response","511","562531","0.0-6.0-0.97","","img/grey.png","32","trial","null","false","0.4,0.6","4:nogo_d","",""
"null","","html-keyboard-response","512","563532","0.0-6.0-1.97","","<img src=""img/grey-n.png"" border=""10"">","null","trial","null","","0.4,0.6","4:nogo_d","0",""
"null","","html-keyboard-response","513","564533","0.0-6.0-2.97","","<div style=""font-size:60px;"">+</div>","null","","","","","","",""
"null","","image-keyboard-response","514","566034","0.0-6.0-0.98","","img/pink.png","null","trial","null","true","0.2,0.8","2:nogo_b","",""
"null","","html-keyboard-response","515","567035","0.0-6.0-1.98","","<img src=""img/pink-r.png"">","null","trial","null","","0.2,0.8","2:nogo_b","1",""
"null","","html-keyboard-response","516","568037","0.0-6.0-2.98","","<div style=""font-size:60px;"">+</div>","null","","","","","","",""
"591.7999999523163","","image-keyboard-response","517","568630","0.0-6.0-0.99","","img/orange.png","32","trial","32","true","0.8,0.2","1:go_a","",""
"null","","html-keyboard-response","518","569632","0.0-6.0-1.99","","<img src=""img/orange-n.png"" border=""10"">","null","trial","32","","0.8,0.2","1:go_a","0",""
"null","","html-keyboard-response","519","570632","0.0-6.0-2.99","","<div style=""font-size:60px;"">+</div>","null","","","","","","",""
"null","","image-keyboard-response","520","572134","0.0-6.0-0.100","","img/pink.png","null","trial","null","true","0.2,0.8","2:nogo_b","",""
"null","","html-keyboard-response","521","573136","0.0-6.0-1.100","","<img src=""img/pink-n.png"">","null","trial","null","","0.2,0.8","2:nogo_b","0",""
"null","","html-keyboard-response","522","574138","0.0-6.0-2.100","","<div style=""font-size:60px;"">+</div>","null","","","","","","",""
"394.2999999523163","","image-keyboard-response","523","574533","0.0-6.0-0.101","","img/blue.png","32","trial","32","true","0.6,0.4","3:go_c","",""
"null","","html-keyboard-response","524","575535","0.0-6.0-1.101","","<img src=""img/blue-r.png"" border=""10"">","null","trial","32","","0.6,0.4","3:go_c","1",""
"null","","html-keyboard-response","525","576535","0.0-6.0-2.101","","<div style=""font-size:60px;"">+</div>","null","","","","","","",""
"567.5","","image-keyboard-response","526","577104","0.0-6.0-0.102","","img/orange.png","32","trial","32","true","0.8,0.2","1:go_a","",""
"null","","html-keyboard-response","527","578106","0.0-6.0-1.102","","<img src=""img/orange-n.png"" border=""10"">","null","trial","32","","0.8,0.2","1:go_a","0",""
"null","","html-keyboard-response","528","579108","0.0-6.0-2.102","","<div style=""font-size:60px;"">+</div>","null","","","","","","",""
"null","","image-keyboard-response","529","580609","0.0-6.0-0.103","","img/grey.png","null","trial","null","true","0.4,0.6","4:nogo_d","",""
"null","","html-keyboard-response","530","581611","0.0-6.0-1.103","","<img src=""img/grey-r.png"">","null","trial","null","","0.4,0.6","4:nogo_d","1",""
"null","","html-keyboard-response","531","582612","0.0-6.0-2.103","","<div style=""font-size:60px;"">+</div>","null","","","","","","",""
"829.7999999523163","","image-keyboard-response","532","583443","0.0-6.0-0.104","","img/orange.png","32","trial","32","true","0.8,0.2","1:go_a","",""
"null","","html-keyboard-response","533","584444","0.0-6.0-1.104","","<img src=""img/orange-r.png"" border=""10"">","null","trial","32","","0.8,0.2","1:go_a","1",""
"null","","html-keyboard-response","534","585445","0.0-6.0-2.104","","<div style=""font-size:60px;"">+</div>","null","","","","","","",""
"679.5","","image-keyboard-response","535","586126","0.0-6.0-0.105","","img/blue.png","32","trial","32","true","0.6,0.4","3:go_c","",""
"null","","html-keyboard-response","536","587127","0.0-6.0-1.105","","<img src=""img/blue-r.png"" border=""10"">","null","trial","32","","0.6,0.4","3:go_c","1",""
"null","","html-keyboard-response","537","588129","0.0-6.0-2.105","","<div style=""font-size:60px;"">+</div>","null","","","","","","",""
"null","","image-keyboard-response","538","589631","0.0-6.0-0.106","","img/pink.png","null","trial","null","true","0.2,0.8","2:nogo_b","",""
"null","","html-keyboard-response","539","590634","0.0-6.0-1.106","","<img src=""img/pink-r.png"">","null","trial","null","","0.2,0.8","2:nogo_b","1",""
"null","","html-keyboard-response","540","591636","0.0-6.0-2.106","","<div style=""font-size:60px;"">+</div>","null","","","","","","",""
"null","","image-keyboard-response","541","593137","0.0-6.0-0.107","","img/grey.png","null","trial","null","true","0.4,0.6","4:nogo_d","",""
"null","","html-keyboard-response","542","594140","0.0-6.0-1.107","","<img src=""img/grey-r.png"">","null","trial","null","","0.4,0.6","4:nogo_d","1",""
"null","","html-keyboard-response","543","595140","0.0-6.0-2.107","","<div style=""font-size:60px;"">+</div>","null","","","","","","",""
"null","","image-keyboard-response","544","596641","0.0-6.0-0.108","","img/grey.png","null","trial","null","true","0.4,0.6","4:nogo_d","",""
"null","","html-keyboard-response","545","597643","0.0-6.0-1.108","","<img src=""img/grey-r.png"">","null","trial","null","","0.4,0.6","4:nogo_d","1",""
"null","","html-keyboard-response","546","598645","0.0-6.0-2.108","","<div style=""font-size:60px;"">+</div>","null","","","","","","",""
"598.4000000953674","","image-keyboard-response","547","599244","0.0-6.0-0.109","","img/orange.png","32","trial","32","true","0.8,0.2","1:go_a","",""
"null","","html-keyboard-response","548","600246","0.0-6.0-1.109","","<img src=""img/orange-r.png"" border=""10"">","null","trial","32","","0.8,0.2","1:go_a","1",""
"null","","html-keyboard-response","549","601247","0.0-6.0-2.109","","<div style=""font-size:60px;"">+</div>","null","","","","","","",""
"381.5","","image-keyboard-response","550","601630","0.0-6.0-0.110","","img/blue.png","32","trial","32","true","0.6,0.4","3:go_c","",""
"null","","html-keyboard-response","551","602631","0.0-6.0-1.110","","<img src=""img/blue-r.png"" border=""10"">","null","trial","32","","0.6,0.4","3:go_c","1",""
"null","","html-keyboard-response","552","603633","0.0-6.0-2.110","","<div style=""font-size:60px;"">+</div>","null","","","","","","",""
"null","","image-keyboard-response","553","605134","0.0-6.0-0.111","","img/pink.png","null","trial","null","true","0.2,0.8","2:nogo_b","",""
"null","","html-keyboard-response","554","606136","0.0-6.0-1.111","","<img src=""img/pink-r.png"">","null","trial","null","","0.2,0.8","2:nogo_b","1",""
"null","","html-keyboard-response","555","607137","0.0-6.0-2.111","","<div style=""font-size:60px;"">+</div>","null","","","","","","",""
"null","","image-keyboard-response","556","608638","0.0-6.0-0.112","","img/grey.png","null","trial","null","true","0.4,0.6","4:nogo_d","",""
"null","","html-keyboard-response","557","609639","0.0-6.0-1.112","","<img src=""img/grey-r.png"">","null","trial","null","","0.4,0.6","4:nogo_d","1",""
"null","","html-keyboard-response","558","610641","0.0-6.0-2.112","","<div style=""font-size:60px;"">+</div>","null","","","","","","",""
"381.59999990463257","","image-keyboard-response","559","611023","0.0-6.0-0.113","","img/blue.png","32","trial","32","true","0.6,0.4","3:go_c","",""
"null","","html-keyboard-response","560","612025","0.0-6.0-1.113","","<img src=""img/blue-r.png"" border=""10"">","null","trial","32","","0.6,0.4","3:go_c","1",""
"null","","html-keyboard-response","561","613027","0.0-6.0-2.113","","<div style=""font-size:60px;"">+</div>","null","","","","","","",""
"383.30000019073486","","image-keyboard-response","562","613410","0.0-6.0-0.114","","img/orange.png","32","trial","32","true","0.8,0.2","1:go_a","",""
"null","","html-keyboard-response","563","614412","0.0-6.0-1.114","","<img src=""img/orange-r.png"" border=""10"">","null","trial","32","","0.8,0.2","1:go_a","1",""
"null","","html-keyboard-response","564","615415","0.0-6.0-2.114","","<div style=""font-size:60px;"">+</div>","null","","","","","","",""
"null","","image-keyboard-response","565","616916","0.0-6.0-0.115","","img/pink.png","null","trial","null","true","0.2,0.8","2:nogo_b","",""
"null","","html-keyboard-response","566","617918","0.0-6.0-1.115","","<img src=""img/pink-r.png"">","null","trial","null","","0.2,0.8","2:nogo_b","1",""
"null","","html-keyboard-response","567","618920","0.0-6.0-2.115","","<div style=""font-size:60px;"">+</div>","null","","","","","","",""
"null","","image-keyboard-response","568","620422","0.0-6.0-0.116","","img/pink.png","null","trial","null","true","0.2,0.8","2:nogo_b","",""
"null","","html-keyboard-response","569","621423","0.0-6.0-1.116","","<img src=""img/pink-r.png"">","null","trial","null","","0.2,0.8","2:nogo_b","1",""
"null","","html-keyboard-response","570","622425","0.0-6.0-2.116","","<div style=""font-size:60px;"">+</div>","null","","","","","","",""
"399.5","","image-keyboard-response","571","622825","0.0-6.0-0.117","","img/blue.png","32","trial","32","true","0.6,0.4","3:go_c","",""
"null","","html-keyboard-response","572","623827","0.0-6.0-1.117","","<img src=""img/blue-r.png"" border=""10"">","null","trial","32","","0.6,0.4","3:go_c","1",""
"null","","html-keyboard-response","573","624828","0.0-6.0-2.117","","<div style=""font-size:60px;"">+</div>","null","","","","","","",""
"354.2999999523163","","image-keyboard-response","574","625183","0.0-6.0-0.118","","img/orange.png","32","trial","32","true","0.8,0.2","1:go_a","",""
"null","","html-keyboard-response","575","626185","0.0-6.0-1.118","","<img src=""img/orange-r.png"" border=""10"">","null","trial","32","","0.8,0.2","1:go_a","1",""
"null","","html-keyboard-response","576","627186","0.0-6.0-2.118","","<div style=""font-size:60px;"">+</div>","null","","","","","","",""
"null","","image-keyboard-response","577","628686","0.0-6.0-0.119","","img/grey.png","null","trial","null","true","0.4,0.6","4:nogo_d","",""
"null","","html-keyboard-response","578","629688","0.0-6.0-1.119","","<img src=""img/grey-r.png"">","null","trial","null","","0.4,0.6","4:nogo_d","1",""
"null","","html-keyboard-response","579","630690","0.0-6.0-2.119","","<div style=""font-size:60px;"">+</div>","null","","","","","","",""
"1956.7000000476837","","instructions","580","632646","0.0-7.0","[{""page_index"":0,""viewing_time"":1956.3999998569489}]","","","","","","","","",""
"531.4000000953674","","image-keyboard-response","581","633179","0.0-8.0-0.0","","img/orange.png","32","trial","32","true","1,0","3:go_c","",""
"null","","html-keyboard-response","582","634181","0.0-8.0-1.0","","<img src=""img/orange-r.png"" border=""10"">","null","trial","32","","1,0","3:go_c","1",""
"null","","html-keyboard-response","583","635182","0.0-8.0-2.0","","<div style=""font-size:60px;"">+</div>","null","","","","","","",""
"323.2999999523163","","image-keyboard-response","584","635505","0.0-8.0-0.1","","img/pink.png","32","trial","32","true","0.8,0.2","1:go_a","",""
"null","","html-keyboard-response","585","636507","0.0-8.0-1.1","","<img src=""img/pink-r.png"" border=""10"">","null","trial","32","","0.8,0.2","1:go_a","1",""
"null","","html-keyboard-response","586","637507","0.0-8.0-2.1","","<div style=""font-size:60px;"">+</div>","null","","","","","","",""
"551.5","","image-keyboard-response","587","638059","0.0-8.0-0.2","","img/grey.png","32","trial","null","false","0.2,0.8","2:nogo_b","",""
"null","","html-keyboard-response","588","639062","0.0-8.0-1.2","","<img src=""img/grey-n.png"" border=""10"">","null","trial","null","","0.2,0.8","2:nogo_b","0",""
"null","","html-keyboard-response","589","640064","0.0-8.0-2.2","","<div style=""font-size:60px;"">+</div>","null","","","","","","",""
"410.39999985694885","","image-keyboard-response","590","640474","0.0-8.0-0.3","","img/red.png","32","trial","null","false","0,1","4:nogo_d","",""
"null","","html-keyboard-response","591","641476","0.0-8.0-1.3","","<img src=""img/red-n.png"" border=""10"">","null","trial","null","","0,1","4:nogo_d","0",""
"null","","html-keyboard-response","592","642479","0.0-8.0-2.3","","<div style=""font-size:60px;"">+</div>","null","","","","","","",""
"null","","image-keyboard-response","593","643981","0.0-8.0-0.4","","img/red.png","null","trial","null","true","0,1","4:nogo_d","",""
"null","","html-keyboard-response","594","644982","0.0-8.0-1.4","","<img src=""img/red-r.png"">","null","trial","null","","0,1","4:nogo_d","1",""
"null","","html-keyboard-response","595","645983","0.0-8.0-2.4","","<div style=""font-size:60px;"">+</div>","null","","","","","","",""
"628.5999999046326","","image-keyboard-response","596","646612","0.0-8.0-0.5","","img/orange.png","32","trial","32","true","1,0","3:go_c","",""
"null","","html-keyboard-response","597","647614","0.0-8.0-1.5","","<img src=""img/orange-r.png"" border=""10"">","null","trial","32","","1,0","3:go_c","1",""
"null","","html-keyboard-response","598","648617","0.0-8.0-2.5","","<div style=""font-size:60px;"">+</div>","null","","","","","","",""
"442.40000009536743","","image-keyboard-response","599","649060","0.0-8.0-0.6","","img/pink.png","32","trial","32","true","0.8,0.2","1:go_a","",""
"null","","html-keyboard-response","600","650061","0.0-8.0-1.6","","<img src=""img/pink-r.png"" border=""10"">","null","trial","32","","0.8,0.2","1:go_a","1",""
"null","","html-keyboard-response","601","651063","0.0-8.0-2.6","","<div style=""font-size:60px;"">+</div>","null","","","","","","",""
"null","","image-keyboard-response","602","652565","0.0-8.0-0.7","","img/grey.png","null","trial","null","true","0.2,0.8","2:nogo_b","",""
"null","","html-keyboard-response","603","653567","0.0-8.0-1.7","","<img src=""img/grey-r.png"">","null","trial","null","","0.2,0.8","2:nogo_b","1",""
"null","","html-keyboard-response","604","654569","0.0-8.0-2.7","","<div style=""font-size:60px;"">+</div>","null","","","","","","",""
"567.3999998569489","","image-keyboard-response","605","655136","0.0-8.0-0.8","","img/orange.png","32","trial","32","true","1,0","3:go_c","",""
"null","","html-keyboard-response","606","656138","0.0-8.0-1.8","","<img src=""img/orange-r.png"" border=""10"">","null","trial","32","","1,0","3:go_c","1",""
"null","","html-keyboard-response","607","657139","0.0-8.0-2.8","","<div style=""font-size:60px;"">+</div>","null","","","","","","",""
"null","","image-keyboard-response","608","658640","0.0-8.0-0.9","","img/pink.png","null","trial","32","false","0.8,0.2","1:go_a","",""
"null","","html-keyboard-response","609","659642","0.0-8.0-1.9","","<img src=""img/pink-r.png"">","null","trial","32","","0.8,0.2","1:go_a","1",""
"null","","html-keyboard-response","610","660643","0.0-8.0-2.9","","<div style=""font-size:60px;"">+</div>","null","","","","","","",""
"null","","image-keyboard-response","611","662144","0.0-8.0-0.10","","img/red.png","null","trial","null","true","0,1","4:nogo_d","",""
"null","","html-keyboard-response","612","663145","0.0-8.0-1.10","","<img src=""img/red-r.png"">","null","trial","null","","0,1","4:nogo_d","1",""
"null","","html-keyboard-response","613","664146","0.0-8.0-2.10","","<div style=""font-size:60px;"">+</div>","null","","","","","","",""
"null","","image-keyboard-response","614","665648","0.0-8.0-0.11","","img/grey.png","null","trial","null","true","0.2,0.8","2:nogo_b","",""
"null","","html-keyboard-response","615","666649","0.0-8.0-1.11","","<img src=""img/grey-n.png"">","null","trial","null","","0.2,0.8","2:nogo_b","0",""
"null","","html-keyboard-response","616","667650","0.0-8.0-2.11","","<div style=""font-size:60px;"">+</div>","null","","","","","","",""
"960.1000001430511","","image-keyboard-response","617","668611","0.0-8.0-0.12","","img/grey.png","32","trial","null","false","0.2,0.8","2:nogo_b","",""
"null","","html-keyboard-response","618","669613","0.0-8.0-1.12","","<img src=""img/grey-n.png"" border=""10"">","null","trial","null","","0.2,0.8","2:nogo_b","0",""
"null","","html-keyboard-response","619","670615","0.0-8.0-2.12","","<div style=""font-size:60px;"">+</div>","null","","","","","","",""
"null","","image-keyboard-response","620","672117","0.0-8.0-0.13","","img/red.png","null","trial","null","true","0,1","4:nogo_d","",""
"null","","html-keyboard-response","621","673118","0.0-8.0-1.13","","<img src=""img/red-r.png"">","null","trial","null","","0,1","4:nogo_d","1",""
"null","","html-keyboard-response","622","674119","0.0-8.0-2.13","","<div style=""font-size:60px;"">+</div>","null","","","","","","",""
"570.2000000476837","","image-keyboard-response","623","674690","0.0-8.0-0.14","","img/orange.png","32","trial","32","true","1,0","3:go_c","",""
"null","","html-keyboard-response","624","675691","0.0-8.0-1.14","","<img src=""img/orange-r.png"" border=""10"">","null","trial","32","","1,0","3:go_c","1",""
"null","","html-keyboard-response","625","676692","0.0-8.0-2.14","","<div style=""font-size:60px;"">+</div>","null","","","","","","",""
"965.2999999523163","","image-keyboard-response","626","677658","0.0-8.0-0.15","","img/pink.png","32","trial","32","true","0.8,0.2","1:go_a","",""
"null","","html-keyboard-response","627","678661","0.0-8.0-1.15","","<img src=""img/pink-r.png"" border=""10"">","null","trial","32","","0.8,0.2","1:go_a","1",""
"null","","html-keyboard-response","628","679665","0.0-8.0-2.15","","<div style=""font-size:60px;"">+</div>","null","","","","","","",""
"null","","image-keyboard-response","629","681166","0.0-8.0-0.16","","img/red.png","null","trial","null","true","0,1","4:nogo_d","",""
"null","","html-keyboard-response","630","682168","0.0-8.0-1.16","","<img src=""img/red-r.png"">","null","trial","null","","0,1","4:nogo_d","1",""
"null","","html-keyboard-response","631","683170","0.0-8.0-2.16","","<div style=""font-size:60px;"">+</div>","null","","","","","","",""
"677.2000000476837","","image-keyboard-response","632","683848","0.0-8.0-0.17","","img/orange.png","32","trial","32","true","1,0","3:go_c","",""
"null","","html-keyboard-response","633","684849","0.0-8.0-1.17","","<img src=""img/orange-r.png"" border=""10"">","null","trial","32","","1,0","3:go_c","1",""
"null","","html-keyboard-response","634","685851","0.0-8.0-2.17","","<div style=""font-size:60px;"">+</div>","null","","","","","","",""
"null","","image-keyboard-response","635","687353","0.0-8.0-0.18","","img/grey.png","null","trial","null","true","0.2,0.8","2:nogo_b","",""
"null","","html-keyboard-response","636","688355","0.0-8.0-1.18","","<img src=""img/grey-r.png"">","null","trial","null","","0.2,0.8","2:nogo_b","1",""
"null","","html-keyboard-response","637","689357","0.0-8.0-2.18","","<div style=""font-size:60px;"">+</div>","null","","","","","","",""
"1088.2000000476837","","image-keyboard-response","638","690446","0.0-8.0-0.19","","img/pink.png","32","trial","32","true","0.8,0.2","1:go_a","",""
"null","","html-keyboard-response","639","691447","0.0-8.0-1.19","","<img src=""img/pink-r.png"" border=""10"">","null","trial","32","","0.8,0.2","1:go_a","1",""
"null","","html-keyboard-response","640","692448","0.0-8.0-2.19","","<div style=""font-size:60px;"">+</div>","null","","","","","","",""
"638.2000000476837","","image-keyboard-response","641","693087","0.0-8.0-0.20","","img/orange.png","32","trial","32","true","1,0","3:go_c","",""
"null","","html-keyboard-response","642","694089","0.0-8.0-1.20","","<img src=""img/orange-r.png"" border=""10"">","null","trial","32","","1,0","3:go_c","1",""
"null","","html-keyboard-response","643","695091","0.0-8.0-2.20","","<div style=""font-size:60px;"">+</div>","null","","","","","","",""
"921.0999999046326","","image-keyboard-response","644","696013","0.0-8.0-0.21","","img/pink.png","32","trial","32","true","0.8,0.2","1:go_a","",""
"null","","html-keyboard-response","645","697014","0.0-8.0-1.21","","<img src=""img/pink-r.png"" border=""10"">","null","trial","32","","0.8,0.2","1:go_a","1",""
"null","","html-keyboard-response","646","698015","0.0-8.0-2.21","","<div style=""font-size:60px;"">+</div>","null","","","","","","",""
"null","","image-keyboard-response","647","699516","0.0-8.0-0.22","","img/grey.png","null","trial","null","true","0.2,0.8","2:nogo_b","",""
"null","","html-keyboard-response","648","700518","0.0-8.0-1.22","","<img src=""img/grey-r.png"">","null","trial","null","","0.2,0.8","2:nogo_b","1",""
"null","","html-keyboard-response","649","701520","0.0-8.0-2.22","","<div style=""font-size:60px;"">+</div>","null","","","","","","",""
"null","","image-keyboard-response","650","703022","0.0-8.0-0.23","","img/red.png","null","trial","null","true","0,1","4:nogo_d","",""
"null","","html-keyboard-response","651","704023","0.0-8.0-1.23","","<img src=""img/red-r.png"">","null","trial","null","","0,1","4:nogo_d","1",""
"null","","html-keyboard-response","652","705024","0.0-8.0-2.23","","<div style=""font-size:60px;"">+</div>","null","","","","","","",""
"793.2999999523163","","image-keyboard-response","653","705818","0.0-8.0-0.24","","img/pink.png","32","trial","32","true","0.8,0.2","1:go_a","",""
"null","","html-keyboard-response","654","706819","0.0-8.0-1.24","","<img src=""img/pink-r.png"" border=""10"">","null","trial","32","","0.8,0.2","1:go_a","1",""
"null","","html-keyboard-response","655","707821","0.0-8.0-2.24","","<div style=""font-size:60px;"">+</div>","null","","","","","","",""
"358","","image-keyboard-response","656","708180","0.0-8.0-0.25","","img/orange.png","32","trial","32","true","1,0","3:go_c","",""
"null","","html-keyboard-response","657","709182","0.0-8.0-1.25","","<img src=""img/orange-r.png"" border=""10"">","null","trial","32","","1,0","3:go_c","1",""
"null","","html-keyboard-response","658","710183","0.0-8.0-2.25","","<div style=""font-size:60px;"">+</div>","null","","","","","","",""
"null","","image-keyboard-response","659","711684","0.0-8.0-0.26","","img/red.png","null","trial","null","true","0,1","4:nogo_d","",""
"null","","html-keyboard-response","660","712686","0.0-8.0-1.26","","<img src=""img/red-r.png"">","null","trial","null","","0,1","4:nogo_d","1",""
"null","","html-keyboard-response","661","713687","0.0-8.0-2.26","","<div style=""font-size:60px;"">+</div>","null","","","","","","",""
"null","","image-keyboard-response","662","715188","0.0-8.0-0.27","","img/grey.png","null","trial","null","true","0.2,0.8","2:nogo_b","",""
"null","","html-keyboard-response","663","716190","0.0-8.0-1.27","","<img src=""img/grey-n.png"">","null","trial","null","","0.2,0.8","2:nogo_b","0",""
"null","","html-keyboard-response","664","717192","0.0-8.0-2.27","","<div style=""font-size:60px;"">+</div>","null","","","","","","",""
"null","","image-keyboard-response","665","718693","0.0-8.0-0.28","","img/grey.png","null","trial","null","true","0.2,0.8","2:nogo_b","",""
"null","","html-keyboard-response","666","719694","0.0-8.0-1.28","","<img src=""img/grey-r.png"">","null","trial","null","","0.2,0.8","2:nogo_b","1",""
"null","","html-keyboard-response","667","720696","0.0-8.0-2.28","","<div style=""font-size:60px;"">+</div>","null","","","","","","",""
"null","","image-keyboard-response","668","722197","0.0-8.0-0.29","","img/red.png","null","trial","null","true","0,1","4:nogo_d","",""
"null","","html-keyboard-response","669","723199","0.0-8.0-1.29","","<img src=""img/red-r.png"">","null","trial","null","","0,1","4:nogo_d","1",""
"null","","html-keyboard-response","670","724202","0.0-8.0-2.29","","<div style=""font-size:60px;"">+</div>","null","","","","","","",""
"650.2000000476837","","image-keyboard-response","671","724852","0.0-8.0-0.30","","img/pink.png","32","trial","32","true","0.8,0.2","1:go_a","",""
"null","","html-keyboard-response","672","725854","0.0-8.0-1.30","","<img src=""img/pink-r.png"" border=""10"">","null","trial","32","","0.8,0.2","1:go_a","1",""
"null","","html-keyboard-response","673","726855","0.0-8.0-2.30","","<div style=""font-size:60px;"">+</div>","null","","","","","","",""
"408.09999990463257","","image-keyboard-response","674","727264","0.0-8.0-0.31","","img/orange.png","32","trial","32","true","1,0","3:go_c","",""
"null","","html-keyboard-response","675","728266","0.0-8.0-1.31","","<img src=""img/orange-r.png"" border=""10"">","null","trial","32","","1,0","3:go_c","1",""
"null","","html-keyboard-response","676","729268","0.0-8.0-2.31","","<div style=""font-size:60px;"">+</div>","null","","","","","","",""
"1008","","image-keyboard-response","677","730277","0.0-8.0-0.32","","img/pink.png","32","trial","32","true","0.8,0.2","1:go_a","",""
"null","","html-keyboard-response","678","731278","0.0-8.0-1.32","","<img src=""img/pink-n.png"" border=""10"">","null","trial","32","","0.8,0.2","1:go_a","0",""
"null","","html-keyboard-response","679","732280","0.0-8.0-2.32","","<div style=""font-size:60px;"">+</div>","null","","","","","","",""
"null","","image-keyboard-response","680","733781","0.0-8.0-0.33","","img/grey.png","null","trial","null","true","0.2,0.8","2:nogo_b","",""
"null","","html-keyboard-response","681","734783","0.0-8.0-1.33","","<img src=""img/grey-r.png"">","null","trial","null","","0.2,0.8","2:nogo_b","1",""
