"rt","url","trial_type","trial_index","time_elapsed","internal_node_id","view_history","stimulus","key_press","test_part","correct_response","correct","use_rew","which_stim","reward","responses"
"70888.50000011735","consent.html","external-html","0","70983","0.0-0.0","","","","","","","","","",""
"153220.25999985635","","instructions","1","224208","0.0-1.0","[{""page_index"":0,""viewing_time"":8028.719999827445},{""page_index"":1,""viewing_time"":31619.775000028312},{""page_index"":2,""viewing_time"":6054.910000180826},{""page_index"":3,""viewing_time"":74321.78499992006},{""page_index"":4,""viewing_time"":14236.444999929518},{""page_index"":5,""viewing_time"":8448.540000012144},{""page_index"":6,""viewing_time"":10509.455000050366}]","","","","","","","","",""
"null","","image-keyboard-response","2","225710","0.0-2.0-0.0","","img/test1.PNG","null","practice","32","false","","","",""
"null","","html-keyboard-response","3","226713","0.0-2.0-1.0","","<img src=""img/test1-neutral.PNG"">","null","","","","","","",""
"null","","html-keyboard-response","4","227714","0.0-2.0-2.0","","<div style=""font-size:60px;"">+</div>","null","","","","","","",""
"481.25499999150634","","image-keyboard-response","5","228196","0.0-2.0-0.1","","img/test2.PNG","32","practice","null","false","","","",""
"null","","html-keyboard-response","6","229199","0.0-2.0-1.1","","<img src=""img/test2-neutral.PNG"" border=""10px; grey"">","null","","","","","","",""
"null","","html-keyboard-response","7","230200","0.0-2.0-2.1","","<div style=""font-size:60px;"">+</div>","null","","","","","","",""
"null","","image-keyboard-response","8","231702","0.0-2.0-0.2","","img/test3.PNG","null","practice","null","true","","","",""
"null","","html-keyboard-response","9","232703","0.0-2.0-1.2","","<img src=""img/test3-reward.PNG"">","null","","","","","","",""
"null","","html-keyboard-response","10","233704","0.0-2.0-2.2","","<div style=""font-size:60px;"">+</div>","null","","","","","","",""
"515.8349999692291","","image-keyboard-response","11","234221","0.0-2.0-0.3","","img/test1.PNG","32","practice","32","true","","","",""
"null","","html-keyboard-response","12","235222","0.0-2.0-1.3","","<img src=""img/test1-reward.PNG"" border=""10px; grey"">","null","","","","","","",""
"null","","html-keyboard-response","13","236223","0.0-2.0-2.3","","<div style=""font-size:60px;"">+</div>","null","","","","","","",""
"null","","image-keyboard-response","14","237725","0.0-2.0-0.4","","img/test3.PNG","null","practice","null","true","","","",""
"null","","html-keyboard-response","15","238726","0.0-2.0-1.4","","<img src=""img/test3-reward.PNG"">","null","","","","","","",""
"null","","html-keyboard-response","16","239726","0.0-2.0-2.4","","<div style=""font-size:60px;"">+</div>","null","","","","","","",""
"null","","image-keyboard-response","17","241227","0.0-2.0-0.5","","img/test2.PNG","null","practice","null","true","","","",""
"null","","html-keyboard-response","18","242229","0.0-2.0-1.5","","<img src=""img/test2-reward.PNG"">","null","","","","","","",""
"null","","html-keyboard-response","19","243229","0.0-2.0-2.5","","<div style=""font-size:60px;"">+</div>","null","","","","","","",""
"null","","image-keyboard-response","20","244731","0.0-2.0-0.6","","img/test3.PNG","null","practice","null","true","","","",""
"null","","html-keyboard-response","21","245732","0.0-2.0-1.6","","<img src=""img/test3-reward.PNG"">","null","","","","","","",""
"null","","html-keyboard-response","22","246734","0.0-2.0-2.6","","<div style=""font-size:60px;"">+</div>","null","","","","","","",""
"1182.4749999213964","","image-keyboard-response","23","247917","0.0-2.0-0.7","","img/test1.PNG","32","practice","32","true","","","",""
"null","","html-keyboard-response","24","248918","0.0-2.0-1.7","","<img src=""img/test1-reward.PNG"" border=""10px; grey"">","null","","","","","","",""
"null","","html-keyboard-response","25","249919","0.0-2.0-2.7","","<div style=""font-size:60px;"">+</div>","null","","","","","","",""
"null","","image-keyboard-response","26","251421","0.0-2.0-0.8","","img/test2.PNG","null","practice","null","true","","","",""
"null","","html-keyboard-response","27","252422","0.0-2.0-1.8","","<img src=""img/test2-reward.PNG"">","null","","","","","","",""
"null","","html-keyboard-response","28","253423","0.0-2.0-2.8","","<div style=""font-size:60px;"">+</div>","null","","","","","","",""
"851.3899999670684","","image-keyboard-response","29","254276","0.0-2.0-0.9","","img/test1.PNG","32","practice","32","true","","","",""
"null","","html-keyboard-response","30","255279","0.0-2.0-1.9","","<img src=""img/test1-reward.PNG"" border=""10px; grey"">","null","","","","","","",""
"null","","html-keyboard-response","31","256280","0.0-2.0-2.9","","<div style=""font-size:60px;"">+</div>","null","","","","","","",""
"null","","image-keyboard-response","32","257781","0.0-2.0-0.10","","img/test3.PNG","null","practice","null","true","","","",""
"null","","html-keyboard-response","33","258783","0.0-2.0-1.10","","<img src=""img/test3-reward.PNG"">","null","","","","","","",""
"null","","html-keyboard-response","34","259784","0.0-2.0-2.10","","<div style=""font-size:60px;"">+</div>","null","","","","","","",""
"null","","image-keyboard-response","35","261286","0.0-2.0-0.11","","img/test2.PNG","null","practice","null","true","","","",""
"null","","html-keyboard-response","36","262287","0.0-2.0-1.11","","<img src=""img/test2-reward.PNG"">","null","","","","","","",""
"null","","html-keyboard-response","37","263289","0.0-2.0-2.11","","<div style=""font-size:60px;"">+</div>","null","","","","","","",""
"2232.3249999899417","","instructions","38","265521","0.0-3.0","[{""page_index"":0,""viewing_time"":2232.164999935776}]","","","","","","","","",""
"957.9150001518428","","image-keyboard-response","39","266480","0.0-4.0-0.0","","img/red.png","32","trial","null","false","0.2,0.8","2:nogo_b","",""
"null","","html-keyboard-response","40","267483","0.0-4.0-1.0","","<img src=""img/red-n.png"" border=""10"">","null","trial","null","","0.2,0.8","2:nogo_b","0",""
"null","","html-keyboard-response","41","268485","0.0-4.0-2.0","","<div style=""font-size:60px;"">+</div>","null","","","","","","",""
"895.8199999760836","","image-keyboard-response","42","269382","0.0-4.0-0.1","","img/orange.png","32","trial","32","true","0.8,0.2","1:go_a","",""
"null","","html-keyboard-response","43","270384","0.0-4.0-1.1","","<img src=""img/orange-r.png"" border=""10"">","null","trial","32","","0.8,0.2","1:go_a","1",""
"null","","html-keyboard-response","44","271385","0.0-4.0-2.1","","<div style=""font-size:60px;"">+</div>","null","","","","","","",""
"null","","image-keyboard-response","45","272886","0.0-4.0-0.2","","img/red.png","null","trial","null","true","0.2,0.8","2:nogo_b","",""
"null","","html-keyboard-response","46","273889","0.0-4.0-1.2","","<img src=""img/red-r.png"">","null","trial","null","","0.2,0.8","2:nogo_b","1",""
"null","","html-keyboard-response","47","274890","0.0-4.0-2.2","","<div style=""font-size:60px;"">+</div>","null","","","","","","",""
"1185.3049998171628","","image-keyboard-response","48","276076","0.0-4.0-0.3","","img/orange.png","32","trial","32","true","0.8,0.2","1:go_a","",""
"null","","html-keyboard-response","49","277077","0.0-4.0-1.3","","<img src=""img/orange-r.png"" border=""10"">","null","trial","32","","0.8,0.2","1:go_a","1",""
"null","","html-keyboard-response","50","278078","0.0-4.0-2.3","","<div style=""font-size:60px;"">+</div>","null","","","","","","",""
"545.3049999196082","","image-keyboard-response","51","278625","0.0-4.0-0.4","","img/orange.png","32","trial","32","true","0.8,0.2","1:go_a","",""
"null","","html-keyboard-response","52","279627","0.0-4.0-1.4","","<img src=""img/orange-r.png"" border=""10"">","null","trial","32","","0.8,0.2","1:go_a","1",""
"null","","html-keyboard-response","53","280629","0.0-4.0-2.4","","<div style=""font-size:60px;"">+</div>","null","","","","","","",""
"null","","image-keyboard-response","54","282130","0.0-4.0-0.5","","img/red.png","null","trial","null","true","0.2,0.8","2:nogo_b","",""
"null","","html-keyboard-response","55","283131","0.0-4.0-1.5","","<img src=""img/red-r.png"">","null","trial","null","","0.2,0.8","2:nogo_b","1",""
"null","","html-keyboard-response","56","284131","0.0-4.0-2.5","","<div style=""font-size:60px;"">+</div>","null","","","","","","",""
"null","","image-keyboard-response","57","285633","0.0-4.0-0.6","","img/red.png","null","trial","null","true","0.2,0.8","2:nogo_b","",""
"null","","html-keyboard-response","58","286635","0.0-4.0-1.6","","<img src=""img/red-r.png"">","null","trial","null","","0.2,0.8","2:nogo_b","1",""
"null","","html-keyboard-response","59","287636","0.0-4.0-2.6","","<div style=""font-size:60px;"">+</div>","null","","","","","","",""
"333.43999995850027","","image-keyboard-response","60","287970","0.0-4.0-0.7","","img/orange.png","32","trial","32","true","0.8,0.2","1:go_a","",""
"null","","html-keyboard-response","61","288972","0.0-4.0-1.7","","<img src=""img/orange-n.png"" border=""10"">","null","trial","32","","0.8,0.2","1:go_a","0",""
"null","","html-keyboard-response","62","289974","0.0-4.0-2.7","","<div style=""font-size:60px;"">+</div>","null","","","","","","",""
"289.09000009298325","","image-keyboard-response","63","290263","0.0-4.0-0.8","","img/orange.png","32","trial","32","true","0.8,0.2","1:go_a","",""
"null","","html-keyboard-response","64","291265","0.0-4.0-1.8","","<img src=""img/orange-n.png"" border=""10"">","null","trial","32","","0.8,0.2","1:go_a","0",""
"null","","html-keyboard-response","65","292266","0.0-4.0-2.8","","<div style=""font-size:60px;"">+</div>","null","","","","","","",""
"null","","image-keyboard-response","66","293767","0.0-4.0-0.9","","img/red.png","null","trial","null","true","0.2,0.8","2:nogo_b","",""
"null","","html-keyboard-response","67","294769","0.0-4.0-1.9","","<img src=""img/red-r.png"">","null","trial","null","","0.2,0.8","2:nogo_b","1",""
"null","","html-keyboard-response","68","295770","0.0-4.0-2.9","","<div style=""font-size:60px;"">+</div>","null","","","","","","",""
"null","","image-keyboard-response","69","297271","0.0-4.0-0.10","","img/orange.png","null","trial","32","false","0.8,0.2","1:go_a","",""
"null","","html-keyboard-response","70","298274","0.0-4.0-1.10","","<img src=""img/orange-n.png"">","null","trial","32","","0.8,0.2","1:go_a","0",""
"null","","html-keyboard-response","71","299275","0.0-4.0-2.10","","<div style=""font-size:60px;"">+</div>","null","","","","","","",""
"null","","image-keyboard-response","72","300777","0.0-4.0-0.11","","img/red.png","null","trial","null","true","0.2,0.8","2:nogo_b","",""
"null","","html-keyboard-response","73","301779","0.0-4.0-1.11","","<img src=""img/red-r.png"">","null","trial","null","","0.2,0.8","2:nogo_b","1",""
"null","","html-keyboard-response","74","302781","0.0-4.0-2.11","","<div style=""font-size:60px;"">+</div>","null","","","","","","",""
"null","","image-keyboard-response","75","304281","0.0-4.0-0.12","","img/red.png","null","trial","null","true","0.2,0.8","2:nogo_b","",""
"null","","html-keyboard-response","76","305283","0.0-4.0-1.12","","<img src=""img/red-r.png"">","null","trial","null","","0.2,0.8","2:nogo_b","1",""
"null","","html-keyboard-response","77","306284","0.0-4.0-2.12","","<div style=""font-size:60px;"">+</div>","null","","","","","","",""
"640.54000005126","","image-keyboard-response","78","306925","0.0-4.0-0.13","","img/orange.png","32","trial","32","true","0.8,0.2","1:go_a","",""
"null","","html-keyboard-response","79","307927","0.0-4.0-1.13","","<img src=""img/orange-r.png"" border=""10"">","null","trial","32","","0.8,0.2","1:go_a","1",""
"null","","html-keyboard-response","80","308928","0.0-4.0-2.13","","<div style=""font-size:60px;"">+</div>","null","","","","","","",""
"null","","image-keyboard-response","81","310429","0.0-4.0-0.14","","img/red.png","null","trial","null","true","0.2,0.8","2:nogo_b","",""
"null","","html-keyboard-response","82","311431","0.0-4.0-1.14","","<img src=""img/red-r.png"">","null","trial","null","","0.2,0.8","2:nogo_b","1",""
"null","","html-keyboard-response","83","312432","0.0-4.0-2.14","","<div style=""font-size:60px;"">+</div>","null","","","","","","",""
"367.195000173524","","image-keyboard-response","84","312800","0.0-4.0-0.15","","img/orange.png","32","trial","32","true","0.8,0.2","1:go_a","",""
"null","","html-keyboard-response","85","313802","0.0-4.0-1.15","","<img src=""img/orange-r.png"" border=""10"">","null","trial","32","","0.8,0.2","1:go_a","1",""
"null","","html-keyboard-response","86","314804","0.0-4.0-2.15","","<div style=""font-size:60px;"">+</div>","null","","","","","","",""
"null","","image-keyboard-response","87","316305","0.0-4.0-0.16","","img/red.png","null","trial","null","true","0.2,0.8","2:nogo_b","",""
"null","","html-keyboard-response","88","317313","0.0-4.0-1.16","","<img src=""img/red-r.png"">","null","trial","null","","0.2,0.8","2:nogo_b","1",""
"null","","html-keyboard-response","89","318314","0.0-4.0-2.16","","<div style=""font-size:60px;"">+</div>","null","","","","","","",""
"374.6050000190735","","image-keyboard-response","90","318690","0.0-4.0-0.17","","img/orange.png","32","trial","32","true","0.8,0.2","1:go_a","",""
"null","","html-keyboard-response","91","319691","0.0-4.0-1.17","","<img src=""img/orange-r.png"" border=""10"">","null","trial","32","","0.8,0.2","1:go_a","1",""
"null","","html-keyboard-response","92","320693","0.0-4.0-2.17","","<div style=""font-size:60px;"">+</div>","null","","","","","","",""
"679.7700000461191","","image-keyboard-response","93","321373","0.0-4.0-0.18","","img/orange.png","32","trial","32","true","0.8,0.2","1:go_a","",""
"null","","html-keyboard-response","94","322375","0.0-4.0-1.18","","<img src=""img/orange-r.png"" border=""10"">","null","trial","32","","0.8,0.2","1:go_a","1",""
"null","","html-keyboard-response","95","323377","0.0-4.0-2.18","","<div style=""font-size:60px;"">+</div>","null","","","","","","",""
"null","","image-keyboard-response","96","324878","0.0-4.0-0.19","","img/red.png","null","trial","null","true","0.2,0.8","2:nogo_b","",""
"null","","html-keyboard-response","97","325880","0.0-4.0-1.19","","<img src=""img/red-n.png"">","null","trial","null","","0.2,0.8","2:nogo_b","0",""
"null","","html-keyboard-response","98","326881","0.0-4.0-2.19","","<div style=""font-size:60px;"">+</div>","null","","","","","","",""
"null","","image-keyboard-response","99","328382","0.0-4.0-0.20","","img/red.png","null","trial","null","true","0.2,0.8","2:nogo_b","",""
"null","","html-keyboard-response","100","329383","0.0-4.0-1.20","","<img src=""img/red-r.png"">","null","trial","null","","0.2,0.8","2:nogo_b","1",""
"null","","html-keyboard-response","101","330395","0.0-4.0-2.20","","<div style=""font-size:60px;"">+</div>","null","","","","","","",""
"426.5999998897314","","image-keyboard-response","102","330822","0.0-4.0-0.21","","img/orange.png","32","trial","32","true","0.8,0.2","1:go_a","",""
"null","","html-keyboard-response","103","331825","0.0-4.0-1.21","","<img src=""img/orange-n.png"" border=""10"">","null","trial","32","","0.8,0.2","1:go_a","0",""
"null","","html-keyboard-response","104","332826","0.0-4.0-2.21","","<div style=""font-size:60px;"">+</div>","null","","","","","","",""
"null","","image-keyboard-response","105","334328","0.0-4.0-0.22","","img/red.png","null","trial","null","true","0.2,0.8","2:nogo_b","",""
"null","","html-keyboard-response","106","335329","0.0-4.0-1.22","","<img src=""img/red-r.png"">","null","trial","null","","0.2,0.8","2:nogo_b","1",""
"null","","html-keyboard-response","107","336330","0.0-4.0-2.22","","<div style=""font-size:60px;"">+</div>","null","","","","","","",""
"773.8100001588464","","image-keyboard-response","108","337105","0.0-4.0-0.23","","img/orange.png","32","trial","32","true","0.8,0.2","1:go_a","",""
"null","","html-keyboard-response","109","338107","0.0-4.0-1.23","","<img src=""img/orange-r.png"" border=""10"">","null","trial","32","","0.8,0.2","1:go_a","1",""
"null","","html-keyboard-response","110","339109","0.0-4.0-2.23","","<div style=""font-size:60px;"">+</div>","null","","","","","","",""
"732.029999839142","","image-keyboard-response","111","339842","0.0-4.0-0.24","","img/orange.png","32","trial","32","true","0.8,0.2","1:go_a","",""
"null","","html-keyboard-response","112","340844","0.0-4.0-1.24","","<img src=""img/orange-n.png"" border=""10"">","null","trial","32","","0.8,0.2","1:go_a","0",""
"null","","html-keyboard-response","113","341846","0.0-4.0-2.24","","<div style=""font-size:60px;"">+</div>","null","","","","","","",""
"null","","image-keyboard-response","114","343346","0.0-4.0-0.25","","img/red.png","null","trial","null","true","0.2,0.8","2:nogo_b","",""
"null","","html-keyboard-response","115","344348","0.0-4.0-1.25","","<img src=""img/red-r.png"">","null","trial","null","","0.2,0.8","2:nogo_b","1",""
"null","","html-keyboard-response","116","345356","0.0-4.0-2.25","","<div style=""font-size:60px;"">+</div>","null","","","","","","",""
"null","","image-keyboard-response","117","346857","0.0-4.0-0.26","","img/red.png","null","trial","null","true","0.2,0.8","2:nogo_b","",""
"null","","html-keyboard-response","118","347859","0.0-4.0-1.26","","<img src=""img/red-n.png"">","null","trial","null","","0.2,0.8","2:nogo_b","0",""
"null","","html-keyboard-response","119","348861","0.0-4.0-2.26","","<div style=""font-size:60px;"">+</div>","null","","","","","","",""
"765.1450000703335","","image-keyboard-response","120","349627","0.0-4.0-0.27","","img/orange.png","32","trial","32","true","0.8,0.2","1:go_a","",""
"null","","html-keyboard-response","121","350628","0.0-4.0-1.27","","<img src=""img/orange-r.png"" border=""10"">","null","trial","32","","0.8,0.2","1:go_a","1",""
"null","","html-keyboard-response","122","351630","0.0-4.0-2.27","","<div style=""font-size:60px;"">+</div>","null","","","","","","",""
"null","","image-keyboard-response","123","353131","0.0-4.0-0.28","","img/red.png","null","trial","null","true","0.2,0.8","2:nogo_b","",""
"null","","html-keyboard-response","124","354132","0.0-4.0-1.28","","<img src=""img/red-r.png"">","null","trial","null","","0.2,0.8","2:nogo_b","1",""
"null","","html-keyboard-response","125","355134","0.0-4.0-2.28","","<div style=""font-size:60px;"">+</div>","null","","","","","","",""
"1094.7699998505414","","image-keyboard-response","126","356230","0.0-4.0-0.29","","img/orange.png","32","trial","32","true","0.8,0.2","1:go_a","",""
"null","","html-keyboard-response","127","357231","0.0-4.0-1.29","","<img src=""img/orange-r.png"" border=""10"">","null","trial","32","","0.8,0.2","1:go_a","1",""
"null","","html-keyboard-response","128","358248","0.0-4.0-2.29","","<div style=""font-size:60px;"">+</div>","null","","","","","","",""
"null","","image-keyboard-response","129","359750","0.0-4.0-0.30","","img/red.png","null","trial","null","true","0.2,0.8","2:nogo_b","",""
"null","","html-keyboard-response","130","360752","0.0-4.0-1.30","","<img src=""img/red-n.png"">","null","trial","null","","0.2,0.8","2:nogo_b","0",""
"null","","html-keyboard-response","131","361753","0.0-4.0-2.30","","<div style=""font-size:60px;"">+</div>","null","","","","","","",""
"1081.599999917671","","image-keyboard-response","132","362835","0.0-4.0-0.31","","img/orange.png","32","trial","32","true","0.8,0.2","1:go_a","",""
"null","","html-keyboard-response","133","363838","0.0-4.0-1.31","","<img src=""img/orange-r.png"" border=""10"">","null","trial","32","","0.8,0.2","1:go_a","1",""
"null","","html-keyboard-response","134","364839","0.0-4.0-2.31","","<div style=""font-size:60px;"">+</div>","null","","","","","","",""
"602.445000084117","","image-keyboard-response","135","365442","0.0-4.0-0.32","","img/orange.png","32","trial","32","true","0.8,0.2","1:go_a","",""
"null","","html-keyboard-response","136","366445","0.0-4.0-1.32","","<img src=""img/orange-n.png"" border=""10"">","null","trial","32","","0.8,0.2","1:go_a","0",""
"null","","html-keyboard-response","137","367446","0.0-4.0-2.32","","<div style=""font-size:60px;"">+</div>","null","","","","","","",""
"null","","image-keyboard-response","138","368946","0.0-4.0-0.33","","img/red.png","null","trial","null","true","0.2,0.8","2:nogo_b","",""
"null","","html-keyboard-response","139","369948","0.0-4.0-1.33","","<img src=""img/red-r.png"">","null","trial","null","","0.2,0.8","2:nogo_b","1",""
"null","","html-keyboard-response","140","370949","0.0-4.0-2.33","","<div style=""font-size:60px;"">+</div>","null","","","","","","",""
"1210.6900000944734","","image-keyboard-response","141","372160","0.0-4.0-0.34","","img/orange.png","32","trial","32","true","0.8,0.2","1:go_a","",""
"null","","html-keyboard-response","142","373162","0.0-4.0-1.34","","<img src=""img/orange-r.png"" border=""10"">","null","trial","32","","0.8,0.2","1:go_a","1",""
"null","","html-keyboard-response","143","374162","0.0-4.0-2.34","","<div style=""font-size:60px;"">+</div>","null","","","","","","",""
"null","","image-keyboard-response","144","375664","0.0-4.0-0.35","","img/red.png","null","trial","null","true","0.2,0.8","2:nogo_b","",""
"null","","html-keyboard-response","145","376665","0.0-4.0-1.35","","<img src=""img/red-r.png"">","null","trial","null","","0.2,0.8","2:nogo_b","1",""
"null","","html-keyboard-response","146","377666","0.0-4.0-2.35","","<div style=""font-size:60px;"">+</div>","null","","","","","","",""
"942.795000039041","","image-keyboard-response","147","378610","0.0-4.0-0.36","","img/orange.png","32","trial","32","true","0.8,0.2","1:go_a","",""
"null","","html-keyboard-response","148","379612","0.0-4.0-1.36","","<img src=""img/orange-r.png"" border=""10"">","null","trial","32","","0.8,0.2","1:go_a","1",""
"null","","html-keyboard-response","149","380614","0.0-4.0-2.36","","<div style=""font-size:60px;"">+</div>","null","","","","","","",""
"null","","image-keyboard-response","150","382115","0.0-4.0-0.37","","img/red.png","null","trial","null","true","0.2,0.8","2:nogo_b","",""
"null","","html-keyboard-response","151","383116","0.0-4.0-1.37","","<img src=""img/red-r.png"">","null","trial","null","","0.2,0.8","2:nogo_b","1",""
"null","","html-keyboard-response","152","384117","0.0-4.0-2.37","","<div style=""font-size:60px;"">+</div>","null","","","","","","",""
"358.52500004693866","","image-keyboard-response","153","384476","0.0-4.0-0.38","","img/orange.png","32","trial","32","true","0.8,0.2","1:go_a","",""
"null","","html-keyboard-response","154","385479","0.0-4.0-1.38","","<img src=""img/orange-r.png"" border=""10"">","null","trial","32","","0.8,0.2","1:go_a","1",""
"null","","html-keyboard-response","155","386481","0.0-4.0-2.38","","<div style=""font-size:60px;"">+</div>","null","","","","","","",""
"null","","image-keyboard-response","156","387989","0.0-4.0-0.39","","img/red.png","null","trial","null","true","0.2,0.8","2:nogo_b","",""
"null","","html-keyboard-response","157","388990","0.0-4.0-1.39","","<img src=""img/red-n.png"">","null","trial","null","","0.2,0.8","2:nogo_b","0",""
"null","","html-keyboard-response","158","389991","0.0-4.0-2.39","","<div style=""font-size:60px;"">+</div>","null","","","","","","",""
"null","","image-keyboard-response","159","391493","0.0-4.0-0.40","","img/red.png","null","trial","null","true","0.2,0.8","2:nogo_b","",""
"null","","html-keyboard-response","160","392494","0.0-4.0-1.40","","<img src=""img/red-r.png"">","null","trial","null","","0.2,0.8","2:nogo_b","1",""
"null","","html-keyboard-response","161","393495","0.0-4.0-2.40","","<div style=""font-size:60px;"">+</div>","null","","","","","","",""
"707.4599999468774","","image-keyboard-response","162","394203","0.0-4.0-0.41","","img/orange.png","32","trial","32","true","0.8,0.2","1:go_a","",""
"null","","html-keyboard-response","163","395204","0.0-4.0-1.41","","<img src=""img/orange-r.png"" border=""10"">","null","trial","32","","0.8,0.2","1:go_a","1",""
"null","","html-keyboard-response","164","396205","0.0-4.0-2.41","","<div style=""font-size:60px;"">+</div>","null","","","","","","",""
"null","","image-keyboard-response","165","397707","0.0-4.0-0.42","","img/red.png","null","trial","null","true","0.2,0.8","2:nogo_b","",""
"null","","html-keyboard-response","166","398708","0.0-4.0-1.42","","<img src=""img/red-r.png"">","null","trial","null","","0.2,0.8","2:nogo_b","1",""
"null","","html-keyboard-response","167","399710","0.0-4.0-2.42","","<div style=""font-size:60px;"">+</div>","null","","","","","","",""
"527.1300000604242","","image-keyboard-response","168","400238","0.0-4.0-0.43","","img/orange.png","32","trial","32","true","0.8,0.2","1:go_a","",""
"null","","html-keyboard-response","169","401240","0.0-4.0-1.43","","<img src=""img/orange-r.png"" border=""10"">","null","trial","32","","0.8,0.2","1:go_a","1",""
"null","","html-keyboard-response","170","402241","0.0-4.0-2.43","","<div style=""font-size:60px;"">+</div>","null","","","","","","",""
"678.7950000725687","","image-keyboard-response","171","402920","0.0-4.0-0.44","","img/orange.png","32","trial","32","true","0.8,0.2","1:go_a","",""
"null","","html-keyboard-response","172","403922","0.0-4.0-1.44","","<img src=""img/orange-r.png"" border=""10"">","null","trial","32","","0.8,0.2","1:go_a","1",""
"null","","html-keyboard-response","173","404923","0.0-4.0-2.44","","<div style=""font-size:60px;"">+</div>","null","","","","","","",""
"null","","image-keyboard-response","174","406427","0.0-4.0-0.45","","img/red.png","null","trial","null","true","0.2,0.8","2:nogo_b","",""
"null","","html-keyboard-response","175","407428","0.0-4.0-1.45","","<img src=""img/red-n.png"">","null","trial","null","","0.2,0.8","2:nogo_b","0",""
"null","","html-keyboard-response","176","408430","0.0-4.0-2.45","","<div style=""font-size:60px;"">+</div>","null","","","","","","",""
"854.469999903813","","image-keyboard-response","177","409285","0.0-4.0-0.46","","img/orange.png","32","trial","32","true","0.8,0.2","1:go_a","",""
"null","","html-keyboard-response","178","410287","0.0-4.0-1.46","","<img src=""img/orange-r.png"" border=""10"">","null","trial","32","","0.8,0.2","1:go_a","1",""
"null","","html-keyboard-response","179","411288","0.0-4.0-2.46","","<div style=""font-size:60px;"">+</div>","null","","","","","","",""
"null","","image-keyboard-response","180","412789","0.0-4.0-0.47","","img/red.png","null","trial","null","true","0.2,0.8","2:nogo_b","",""
"null","","html-keyboard-response","181","413791","0.0-4.0-1.47","","<img src=""img/red-r.png"">","null","trial","null","","0.2,0.8","2:nogo_b","1",""
"null","","html-keyboard-response","182","414791","0.0-4.0-2.47","","<div style=""font-size:60px;"">+</div>","null","","","","","","",""
"null","","image-keyboard-response","183","416293","0.0-4.0-0.48","","img/red.png","null","trial","null","true","0.2,0.8","2:nogo_b","",""
"null","","html-keyboard-response","184","417294","0.0-4.0-1.48","","<img src=""img/red-r.png"">","null","trial","null","","0.2,0.8","2:nogo_b","1",""
"null","","html-keyboard-response","185","418296","0.0-4.0-2.48","","<div style=""font-size:60px;"">+</div>","null","","","","","","",""
"651.4200000092387","","image-keyboard-response","186","418948","0.0-4.0-0.49","","img/orange.png","32","trial","32","true","0.8,0.2","1:go_a","",""
"null","","html-keyboard-response","187","419950","0.0-4.0-1.49","","<img src=""img/orange-r.png"" border=""10"">","null","trial","32","","0.8,0.2","1:go_a","1",""
"null","","html-keyboard-response","188","420951","0.0-4.0-2.49","","<div style=""font-size:60px;"">+</div>","null","","","","","","",""
"null","","image-keyboard-response","189","422455","0.0-4.0-0.50","","img/red.png","null","trial","null","true","0.2,0.8","2:nogo_b","",""
"null","","html-keyboard-response","190","423457","0.0-4.0-1.50","","<img src=""img/red-r.png"">","null","trial","null","","0.2,0.8","2:nogo_b","1",""
"null","","html-keyboard-response","191","424458","0.0-4.0-2.50","","<div style=""font-size:60px;"">+</div>","null","","","","","","",""
"614.229999948293","","image-keyboard-response","192","425073","0.0-4.0-0.51","","img/orange.png","32","trial","32","true","0.8,0.2","1:go_a","",""
"null","","html-keyboard-response","193","426073","0.0-4.0-1.51","","<img src=""img/orange-r.png"" border=""10"">","null","trial","32","","0.8,0.2","1:go_a","1",""
"null","","html-keyboard-response","194","427075","0.0-4.0-2.51","","<div style=""font-size:60px;"">+</div>","null","","","","","","",""
"414.7450001910329","","image-keyboard-response","195","427491","0.0-4.0-0.52","","img/orange.png","32","trial","32","true","0.8,0.2","1:go_a","",""
"null","","html-keyboard-response","196","428492","0.0-4.0-1.52","","<img src=""img/orange-r.png"" border=""10"">","null","trial","32","","0.8,0.2","1:go_a","1",""
"null","","html-keyboard-response","197","429493","0.0-4.0-2.52","","<div style=""font-size:60px;"">+</div>","null","","","","","","",""
"null","","image-keyboard-response","198","430995","0.0-4.0-0.53","","img/red.png","null","trial","null","true","0.2,0.8","2:nogo_b","",""
"null","","html-keyboard-response","199","431996","0.0-4.0-1.53","","<img src=""img/red-r.png"">","null","trial","null","","0.2,0.8","2:nogo_b","1",""
"null","","html-keyboard-response","200","432997","0.0-4.0-2.53","","<div style=""font-size:60px;"">+</div>","null","","","","","","",""
"865.7200001180172","","image-keyboard-response","201","433863","0.0-4.0-0.54","","img/orange.png","32","trial","32","true","0.8,0.2","1:go_a","",""
"null","","html-keyboard-response","202","434865","0.0-4.0-1.54","","<img src=""img/orange-r.png"" border=""10"">","null","trial","32","","0.8,0.2","1:go_a","1",""
"null","","html-keyboard-response","203","435866","0.0-4.0-2.54","","<div style=""font-size:60px;"">+</div>","null","","","","","","",""
"null","","image-keyboard-response","204","437367","0.0-4.0-0.55","","img/red.png","null","trial","null","true","0.2,0.8","2:nogo_b","",""
"null","","html-keyboard-response","205","438369","0.0-4.0-1.55","","<img src=""img/red-r.png"">","null","trial","null","","0.2,0.8","2:nogo_b","1",""
"null","","html-keyboard-response","206","439371","0.0-4.0-2.55","","<div style=""font-size:60px;"">+</div>","null","","","","","","",""
"356.6199999768287","","image-keyboard-response","207","439728","0.0-4.0-0.56","","img/orange.png","32","trial","32","true","0.8,0.2","1:go_a","",""
"null","","html-keyboard-response","208","440730","0.0-4.0-1.56","","<img src=""img/orange-r.png"" border=""10"">","null","trial","32","","0.8,0.2","1:go_a","1",""
"null","","html-keyboard-response","209","441731","0.0-4.0-2.56","","<div style=""font-size:60px;"">+</div>","null","","","","","","",""
"null","","image-keyboard-response","210","443233","0.0-4.0-0.57","","img/red.png","null","trial","null","true","0.2,0.8","2:nogo_b","",""
"null","","html-keyboard-response","211","444235","0.0-4.0-1.57","","<img src=""img/red-n.png"">","null","trial","null","","0.2,0.8","2:nogo_b","0",""
"null","","html-keyboard-response","212","445236","0.0-4.0-2.57","","<div style=""font-size:60px;"">+</div>","null","","","","","","",""
"null","","image-keyboard-response","213","446737","0.0-4.0-0.58","","img/red.png","null","trial","null","true","0.2,0.8","2:nogo_b","",""
"null","","html-keyboard-response","214","447740","0.0-4.0-1.58","","<img src=""img/red-r.png"">","null","trial","null","","0.2,0.8","2:nogo_b","1",""
"null","","html-keyboard-response","215","448740","0.0-4.0-2.58","","<div style=""font-size:60px;"">+</div>","null","","","","","","",""
"491.609999909997","","image-keyboard-response","216","449232","0.0-4.0-0.59","","img/orange.png","32","trial","32","true","0.8,0.2","1:go_a","",""
"null","","html-keyboard-response","217","450234","0.0-4.0-1.59","","<img src=""img/orange-n.png"" border=""10"">","null","trial","32","","0.8,0.2","1:go_a","0",""
"null","","html-keyboard-response","218","451235","0.0-4.0-2.59","","<div style=""font-size:60px;"">+</div>","null","","","","","","",""
"53520.229999907315","","instructions","219","504755","0.0-5.0","[{""page_index"":0,""viewing_time"":53520.05499997176}]","","","","","","","","",""
"null","","image-keyboard-response","220","506256","0.0-6.0-0.0","","img/red.png","null","trial","null","true","0.4,0.6","4:nogo_d","",""
"null","","html-keyboard-response","221","507257","0.0-6.0-1.0","","<img src=""img/red-n.png"">","null","trial","null","","0.4,0.6","4:nogo_d","0",""
"null","","html-keyboard-response","222","508259","0.0-6.0-2.0","","<div style=""font-size:60px;"">+</div>","null","","","","","","",""
"529.710000148043","","image-keyboard-response","223","508791","0.0-6.0-0.1","","img/pink.png","32","trial","32","true","0.8,0.2","1:go_a","",""
"null","","html-keyboard-response","224","509792","0.0-6.0-1.1","","<img src=""img/pink-r.png"" border=""10"">","null","trial","32","","0.8,0.2","1:go_a","1",""
"null","","html-keyboard-response","225","510793","0.0-6.0-2.1","","<div style=""font-size:60px;"">+</div>","null","","","","","","",""
"null","","image-keyboard-response","226","512298","0.0-6.0-0.2","","img/yellow.png","null","trial","null","true","0.2,0.8","2:nogo_b","",""
"null","","html-keyboard-response","227","513301","0.0-6.0-1.2","","<img src=""img/yellow-r.png"">","null","trial","null","","0.2,0.8","2:nogo_b","1",""
"null","","html-keyboard-response","228","514303","0.0-6.0-2.2","","<div style=""font-size:60px;"">+</div>","null","","","","","","",""
"518.2100001256913","","image-keyboard-response","229","514822","0.0-6.0-0.3","","img/grey.png","32","trial","32","true","0.6,0.4","3:go_c","",""
"null","","html-keyboard-response","230","515823","0.0-6.0-1.3","","<img src=""img/grey-r.png"" border=""10"">","null","trial","32","","0.6,0.4","3:go_c","1",""
"null","","html-keyboard-response","231","516824","0.0-6.0-2.3","","<div style=""font-size:60px;"">+</div>","null","","","","","","",""
"684.5250001642853","","image-keyboard-response","232","517509","0.0-6.0-0.4","","img/pink.png","32","trial","32","true","0.8,0.2","1:go_a","",""
"null","","html-keyboard-response","233","518511","0.0-6.0-1.4","","<img src=""img/pink-r.png"" border=""10"">","null","trial","32","","0.8,0.2","1:go_a","1",""
"null","","html-keyboard-response","234","519512","0.0-6.0-2.4","","<div style=""font-size:60px;"">+</div>","null","","","","","","",""
"null","","image-keyboard-response","235","521013","0.0-6.0-0.5","","img/yellow.png","null","trial","null","true","0.2,0.8","2:nogo_b","",""
"null","","html-keyboard-response","236","522016","0.0-6.0-1.5","","<img src=""img/yellow-r.png"">","null","trial","null","","0.2,0.8","2:nogo_b","1",""
"null","","html-keyboard-response","237","523017","0.0-6.0-2.5","","<div style=""font-size:60px;"">+</div>","null","","","","","","",""
"683.079999871552","","image-keyboard-response","238","523701","0.0-6.0-0.6","","img/grey.png","32","trial","32","true","0.6,0.4","3:go_c","",""
"null","","html-keyboard-response","239","524703","0.0-6.0-1.6","","<img src=""img/grey-n.png"" border=""10"">","null","trial","32","","0.6,0.4","3:go_c","0",""
"null","","html-keyboard-response","240","525704","0.0-6.0-2.6","","<div style=""font-size:60px;"">+</div>","null","","","","","","",""
"630.0699999555945","","image-keyboard-response","241","526335","0.0-6.0-0.7","","img/red.png","32","trial","null","false","0.4,0.6","4:nogo_d","",""
"null","","html-keyboard-response","242","527337","0.0-6.0-1.7","","<img src=""img/red-n.png"" border=""10"">","null","trial","null","","0.4,0.6","4:nogo_d","0",""
"null","","html-keyboard-response","243","528340","0.0-6.0-2.7","","<div style=""font-size:60px;"">+</div>","null","","","","","","",""
"null","","image-keyboard-response","244","529842","0.0-6.0-0.8","","img/grey.png","null","trial","32","false","0.6,0.4","3:go_c","",""
"null","","html-keyboard-response","245","530845","0.0-6.0-1.8","","<img src=""img/grey-r.png"">","null","trial","32","","0.6,0.4","3:go_c","1",""
"null","","html-keyboard-response","246","531847","0.0-6.0-2.8","","<div style=""font-size:60px;"">+</div>","null","","","","","","",""
"591.42000018619","","image-keyboard-response","247","532439","0.0-6.0-0.9","","img/pink.png","32","trial","32","true","0.8,0.2","1:go_a","",""
"null","","html-keyboard-response","248","533441","0.0-6.0-1.9","","<img src=""img/pink-r.png"" border=""10"">","null","trial","32","","0.8,0.2","1:go_a","1",""
"null","","html-keyboard-response","249","534443","0.0-6.0-2.9","","<div style=""font-size:60px;"">+</div>","null","","","","","","",""
"405.9050001669675","","image-keyboard-response","250","534849","0.0-6.0-0.10","","img/yellow.png","32","trial","null","false","0.2,0.8","2:nogo_b","",""
"null","","html-keyboard-response","251","535851","0.0-6.0-1.10","","<img src=""img/yellow-n.png"" border=""10"">","null","trial","null","","0.2,0.8","2:nogo_b","0",""
"null","","html-keyboard-response","252","536853","0.0-6.0-2.10","","<div style=""font-size:60px;"">+</div>","null","","","","","","",""
"null","","image-keyboard-response","253","538354","0.0-6.0-0.11","","img/red.png","null","trial","null","true","0.4,0.6","4:nogo_d","",""
"null","","html-keyboard-response","254","539355","0.0-6.0-1.11","","<img src=""img/red-r.png"">","null","trial","null","","0.4,0.6","4:nogo_d","1",""
"null","","html-keyboard-response","255","540356","0.0-6.0-2.11","","<div style=""font-size:60px;"">+</div>","null","","","","","","",""
"null","","image-keyboard-response","256","541857","0.0-6.0-0.12","","img/grey.png","null","trial","32","false","0.6,0.4","3:go_c","",""
"null","","html-keyboard-response","257","542858","0.0-6.0-1.12","","<img src=""img/grey-n.png"">","null","trial","32","","0.6,0.4","3:go_c","0",""
"null","","html-keyboard-response","258","543859","0.0-6.0-2.12","","<div style=""font-size:60px;"">+</div>","null","","","","","","",""
"442.7499999292195","","image-keyboard-response","259","544303","0.0-6.0-0.13","","img/pink.png","32","trial","32","true","0.8,0.2","1:go_a","",""
"null","","html-keyboard-response","260","545304","0.0-6.0-1.13","","<img src=""img/pink-r.png"" border=""10"">","null","trial","32","","0.8,0.2","1:go_a","1",""
"null","","html-keyboard-response","261","546305","0.0-6.0-2.13","","<div style=""font-size:60px;"">+</div>","null","","","","","","",""
"null","","image-keyboard-response","262","547807","0.0-6.0-0.14","","img/red.png","null","trial","null","true","0.4,0.6","4:nogo_d","",""
"null","","html-keyboard-response","263","548808","0.0-6.0-1.14","","<img src=""img/red-n.png"">","null","trial","null","","0.4,0.6","4:nogo_d","0",""
"null","","html-keyboard-response","264","549809","0.0-6.0-2.14","","<div style=""font-size:60px;"">+</div>","null","","","","","","",""
"399.42000014707446","","image-keyboard-response","265","550209","0.0-6.0-0.15","","img/yellow.png","32","trial","null","false","0.2,0.8","2:nogo_b","",""
"null","","html-keyboard-response","266","551211","0.0-6.0-1.15","","<img src=""img/yellow-r.png"" border=""10"">","null","trial","null","","0.2,0.8","2:nogo_b","1",""
"null","","html-keyboard-response","267","552227","0.0-6.0-2.15","","<div style=""font-size:60px;"">+</div>","null","","","","","","",""
"889.7599999327213","","image-keyboard-response","268","553117","0.0-6.0-0.16","","img/pink.png","32","trial","32","true","0.8,0.2","1:go_a","",""
"null","","html-keyboard-response","269","554119","0.0-6.0-1.16","","<img src=""img/pink-r.png"" border=""10"">","null","trial","32","","0.8,0.2","1:go_a","1",""
"null","","html-keyboard-response","270","555120","0.0-6.0-2.16","","<div style=""font-size:60px;"">+</div>","null","","","","","","",""
"null","","image-keyboard-response","271","556631","0.0-6.0-0.17","","img/red.png","null","trial","null","true","0.4,0.6","4:nogo_d","",""
"null","","html-keyboard-response","272","557632","0.0-6.0-1.17","","<img src=""img/red-r.png"">","null","trial","null","","0.4,0.6","4:nogo_d","1",""
"null","","html-keyboard-response","273","558633","0.0-6.0-2.17","","<div style=""font-size:60px;"">+</div>","null","","","","","","",""
"null","","image-keyboard-response","274","560135","0.0-6.0-0.18","","img/grey.png","null","trial","32","false","0.6,0.4","3:go_c","",""
"null","","html-keyboard-response","275","561137","0.0-6.0-1.18","","<img src=""img/grey-n.png"">","null","trial","32","","0.6,0.4","3:go_c","0",""
"null","","html-keyboard-response","276","562138","0.0-6.0-2.18","","<div style=""font-size:60px;"">+</div>","null","","","","","","",""
"406.4500001259148","","image-keyboard-response","277","562545","0.0-6.0-0.19","","img/yellow.png","32","trial","null","false","0.2,0.8","2:nogo_b","",""
"null","","html-keyboard-response","278","563547","0.0-6.0-1.19","","<img src=""img/yellow-n.png"" border=""10"">","null","trial","null","","0.2,0.8","2:nogo_b","0",""
"null","","html-keyboard-response","279","564550","0.0-6.0-2.19","","<div style=""font-size:60px;"">+</div>","null","","","","","","",""
"343.349999981001","","image-keyboard-response","280","564894","0.0-6.0-0.20","","img/grey.png","32","trial","32","true","0.6,0.4","3:go_c","",""
"null","","html-keyboard-response","281","565895","0.0-6.0-1.20","","<img src=""img/grey-n.png"" border=""10"">","null","trial","32","","0.6,0.4","3:go_c","0",""
"null","","html-keyboard-response","282","566896","0.0-6.0-2.20","","<div style=""font-size:60px;"">+</div>","null","","","","","","",""
"560.3950000368059","","image-keyboard-response","283","567457","0.0-6.0-0.21","","img/yellow.png","32","trial","null","false","0.2,0.8","2:nogo_b","",""
"null","","html-keyboard-response","284","568459","0.0-6.0-1.21","","<img src=""img/yellow-n.png"" border=""10"">","null","trial","null","","0.2,0.8","2:nogo_b","0",""
"null","","html-keyboard-response","285","569461","0.0-6.0-2.21","","<div style=""font-size:60px;"">+</div>","null","","","","","","",""
"null","","image-keyboard-response","286","570962","0.0-6.0-0.22","","img/red.png","null","trial","null","true","0.4,0.6","4:nogo_d","",""
"null","","html-keyboard-response","287","571964","0.0-6.0-1.22","","<img src=""img/red-n.png"">","null","trial","null","","0.4,0.6","4:nogo_d","0",""
"null","","html-keyboard-response","288","572965","0.0-6.0-2.22","","<div style=""font-size:60px;"">+</div>","null","","","","","","",""
"695.219999877736","","image-keyboard-response","289","573661","0.0-6.0-0.23","","img/pink.png","32","trial","32","true","0.8,0.2","1:go_a","",""
"null","","html-keyboard-response","290","574663","0.0-6.0-1.23","","<img src=""img/pink-r.png"" border=""10"">","null","trial","32","","0.8,0.2","1:go_a","1",""
"null","","html-keyboard-response","291","575664","0.0-6.0-2.23","","<div style=""font-size:60px;"">+</div>","null","","","","","","",""
"356.3449999783188","","image-keyboard-response","292","576020","0.0-6.0-0.24","","img/pink.png","32","trial","32","true","0.8,0.2","1:go_a","",""
"null","","html-keyboard-response","293","577021","0.0-6.0-1.24","","<img src=""img/pink-r.png"" border=""10"">","null","trial","32","","0.8,0.2","1:go_a","1",""
"null","","html-keyboard-response","294","578023","0.0-6.0-2.24","","<div style=""font-size:60px;"">+</div>","null","","","","","","",""
"613.3000000845641","","image-keyboard-response","295","578637","0.0-6.0-0.25","","img/grey.png","32","trial","32","true","0.6,0.4","3:go_c","",""
"null","","html-keyboard-response","296","579638","0.0-6.0-1.25","","<img src=""img/grey-r.png"" border=""10"">","null","trial","32","","0.6,0.4","3:go_c","1",""
"null","","html-keyboard-response","297","580639","0.0-6.0-2.25","","<div style=""font-size:60px;"">+</div>","null","","","","","","",""
"391.5249998681247","","image-keyboard-response","298","581031","0.0-6.0-0.26","","img/yellow.png","32","trial","null","false","0.2,0.8","2:nogo_b","",""
"null","","html-keyboard-response","299","582032","0.0-6.0-1.26","","<img src=""img/yellow-r.png"" border=""10"">","null","trial","null","","0.2,0.8","2:nogo_b","1",""
"null","","html-keyboard-response","300","583033","0.0-6.0-2.26","","<div style=""font-size:60px;"">+</div>","null","","","","","","",""
"null","","image-keyboard-response","301","584535","0.0-6.0-0.27","","img/red.png","null","trial","null","true","0.4,0.6","4:nogo_d","",""
"null","","html-keyboard-response","302","585537","0.0-6.0-1.27","","<img src=""img/red-r.png"">","null","trial","null","","0.4,0.6","4:nogo_d","1",""
"null","","html-keyboard-response","303","586539","0.0-6.0-2.27","","<div style=""font-size:60px;"">+</div>","null","","","","","","",""
"null","","image-keyboard-response","304","588040","0.0-6.0-0.28","","img/red.png","null","trial","null","true","0.4,0.6","4:nogo_d","",""
"null","","html-keyboard-response","305","589042","0.0-6.0-1.28","","<img src=""img/red-r.png"">","null","trial","null","","0.4,0.6","4:nogo_d","1",""
"null","","html-keyboard-response","306","590043","0.0-6.0-2.28","","<div style=""font-size:60px;"">+</div>","null","","","","","","",""
"491.6499999817461","","image-keyboard-response","307","590535","0.0-6.0-0.29","","img/yellow.png","32","trial","null","false","0.2,0.8","2:nogo_b","",""
"null","","html-keyboard-response","308","591539","0.0-6.0-1.29","","<img src=""img/yellow-n.png"" border=""10"">","null","trial","null","","0.2,0.8","2:nogo_b","0",""
"null","","html-keyboard-response","309","592541","0.0-6.0-2.29","","<div style=""font-size:60px;"">+</div>","null","","","","","","",""
"341.939999954775","","image-keyboard-response","310","592884","0.0-6.0-0.30","","img/pink.png","32","trial","32","true","0.8,0.2","1:go_a","",""
"null","","html-keyboard-response","311","593885","0.0-6.0-1.30","","<img src=""img/pink-r.png"" border=""10"">","null","trial","32","","0.8,0.2","1:go_a","1",""
"null","","html-keyboard-response","312","594888","0.0-6.0-2.30","","<div style=""font-size:60px;"">+</div>","null","","","","","","",""
"310.2150000631809","","image-keyboard-response","313","595199","0.0-6.0-0.31","","img/grey.png","32","trial","32","true","0.6,0.4","3:go_c","",""
"null","","html-keyboard-response","314","596201","0.0-6.0-1.31","","<img src=""img/grey-r.png"" border=""10"">","null","trial","32","","0.6,0.4","3:go_c","1",""
"null","","html-keyboard-response","315","597202","0.0-6.0-2.31","","<div style=""font-size:60px;"">+</div>","null","","","","","","",""
"null","","image-keyboard-response","316","598704","0.0-6.0-0.32","","img/red.png","null","trial","null","true","0.4,0.6","4:nogo_d","",""
"null","","html-keyboard-response","317","599706","0.0-6.0-1.32","","<img src=""img/red-r.png"">","null","trial","null","","0.4,0.6","4:nogo_d","1",""
"null","","html-keyboard-response","318","600708","0.0-6.0-2.32","","<div style=""font-size:60px;"">+</div>","null","","","","","","",""
"389.6949999034405","","image-keyboard-response","319","601098","0.0-6.0-0.33","","img/pink.png","32","trial","32","true","0.8,0.2","1:go_a","",""
"null","","html-keyboard-response","320","602101","0.0-6.0-1.33","","<img src=""img/pink-r.png"" border=""10"">","null","trial","32","","0.8,0.2","1:go_a","1",""
"null","","html-keyboard-response","321","603103","0.0-6.0-2.33","","<div style=""font-size:60px;"">+</div>","null","","","","","","",""
"null","","image-keyboard-response","322","604604","0.0-6.0-0.34","","img/grey.png","null","trial","32","false","0.6,0.4","3:go_c","",""
"null","","html-keyboard-response","323","605612","0.0-6.0-1.34","","<img src=""img/grey-r.png"">","null","trial","32","","0.6,0.4","3:go_c","1",""
"null","","html-keyboard-response","324","606614","0.0-6.0-2.34","","<div style=""font-size:60px;"">+</div>","null","","","","","","",""
"875.3700000233948","","image-keyboard-response","325","607490","0.0-6.0-0.35","","img/yellow.png","32","trial","null","false","0.2,0.8","2:nogo_b","",""
"null","","html-keyboard-response","326","608491","0.0-6.0-1.35","","<img src=""img/yellow-r.png"" border=""10"">","null","trial","null","","0.2,0.8","2:nogo_b","1",""
"null","","html-keyboard-response","327","609493","0.0-6.0-2.35","","<div style=""font-size:60px;"">+</div>","null","","","","","","",""
"871.9399999827147","","image-keyboard-response","328","610366","0.0-6.0-0.36","","img/grey.png","32","trial","32","true","0.6,0.4","3:go_c","",""
"null","","html-keyboard-response","329","611368","0.0-6.0-1.36","","<img src=""img/grey-r.png"" border=""10"">","null","trial","32","","0.6,0.4","3:go_c","1",""
"null","","html-keyboard-response","330","612370","0.0-6.0-2.36","","<div style=""font-size:60px;"">+</div>","null","","","","","","",""
"368.2349999435246","","image-keyboard-response","331","612738","0.0-6.0-0.37","","img/yellow.png","32","trial","null","false","0.2,0.8","2:nogo_b","",""
"null","","html-keyboard-response","332","613740","0.0-6.0-1.37","","<img src=""img/yellow-n.png"" border=""10"">","null","trial","null","","0.2,0.8","2:nogo_b","0",""
"null","","html-keyboard-response","333","614742","0.0-6.0-2.37","","<div style=""font-size:60px;"">+</div>","null","","","","","","",""
"611.0249999910593","","image-keyboard-response","334","615353","0.0-6.0-0.38","","img/pink.png","32","trial","32","true","0.8,0.2","1:go_a","",""
"null","","html-keyboard-response","335","616355","0.0-6.0-1.38","","<img src=""img/pink-r.png"" border=""10"">","null","trial","32","","0.8,0.2","1:go_a","1",""
"null","","html-keyboard-response","336","617356","0.0-6.0-2.38","","<div style=""font-size:60px;"">+</div>","null","","","","","","",""
"null","","image-keyboard-response","337","618858","0.0-6.0-0.39","","img/red.png","null","trial","null","true","0.4,0.6","4:nogo_d","",""
"null","","html-keyboard-response","338","619861","0.0-6.0-1.39","","<img src=""img/red-r.png"">","null","trial","null","","0.4,0.6","4:nogo_d","1",""
"null","","html-keyboard-response","339","620862","0.0-6.0-2.39","","<div style=""font-size:60px;"">+</div>","null","","","","","","",""
"531.9699998944998","","image-keyboard-response","340","621394","0.0-6.0-0.40","","img/pink.png","32","trial","32","true","0.8,0.2","1:go_a","",""
"null","","html-keyboard-response","341","622395","0.0-6.0-1.40","","<img src=""img/pink-r.png"" border=""10"">","null","trial","32","","0.8,0.2","1:go_a","1",""
"null","","html-keyboard-response","342","623396","0.0-6.0-2.40","","<div style=""font-size:60px;"">+</div>","null","","","","","","",""
"875.9349999018013","","image-keyboard-response","343","624273","0.0-6.0-0.41","","img/grey.png","32","trial","32","true","0.6,0.4","3:go_c","",""
"null","","html-keyboard-response","344","625274","0.0-6.0-1.41","","<img src=""img/grey-r.png"" border=""10"">","null","trial","32","","0.6,0.4","3:go_c","1",""
"null","","html-keyboard-response","345","626276","0.0-6.0-2.41","","<div style=""font-size:60px;"">+</div>","null","","","","","","",""
"null","","image-keyboard-response","346","627777","0.0-6.0-0.42","","img/yellow.png","null","trial","null","true","0.2,0.8","2:nogo_b","",""
"null","","html-keyboard-response","347","628779","0.0-6.0-1.42","","<img src=""img/yellow-r.png"">","null","trial","null","","0.2,0.8","2:nogo_b","1",""
"null","","html-keyboard-response","348","629780","0.0-6.0-2.42","","<div style=""font-size:60px;"">+</div>","null","","","","","","",""
"null","","image-keyboard-response","349","631282","0.0-6.0-0.43","","img/red.png","null","trial","null","true","0.4,0.6","4:nogo_d","",""
"null","","html-keyboard-response","350","632285","0.0-6.0-1.43","","<img src=""img/red-n.png"">","null","trial","null","","0.4,0.6","4:nogo_d","0",""
"null","","html-keyboard-response","351","633287","0.0-6.0-2.43","","<div style=""font-size:60px;"">+</div>","null","","","","","","",""
"null","","image-keyboard-response","352","634789","0.0-6.0-0.44","","img/red.png","null","trial","null","true","0.4,0.6","4:nogo_d","",""
"null","","html-keyboard-response","353","635790","0.0-6.0-1.44","","<img src=""img/red-n.png"">","null","trial","null","","0.4,0.6","4:nogo_d","0",""
"null","","html-keyboard-response","354","636792","0.0-6.0-2.44","","<div style=""font-size:60px;"">+</div>","null","","","","","","",""
"459.135000128299","","image-keyboard-response","355","637251","0.0-6.0-0.45","","img/pink.png","32","trial","32","true","0.8,0.2","1:go_a","",""
"null","","html-keyboard-response","356","638270","0.0-6.0-1.45","","<img src=""img/pink-n.png"" border=""10"">","null","trial","32","","0.8,0.2","1:go_a","0",""
"null","","html-keyboard-response","357","639274","0.0-6.0-2.45","","<div style=""font-size:60px;"">+</div>","null","","","","","","",""
"1049.970000050962","","image-keyboard-response","358","640325","0.0-6.0-0.46","","img/grey.png","32","trial","32","true","0.6,0.4","3:go_c","",""
"null","","html-keyboard-response","359","641326","0.0-6.0-1.46","","<img src=""img/grey-r.png"" border=""10"">","null","trial","32","","0.6,0.4","3:go_c","1",""
"null","","html-keyboard-response","360","642328","0.0-6.0-2.46","","<div style=""font-size:60px;"">+</div>","null","","","","","","",""
"538.6350001208484","","image-keyboard-response","361","642867","0.0-6.0-0.47","","img/yellow.png","32","trial","null","false","0.2,0.8","2:nogo_b","",""
"null","","html-keyboard-response","362","643869","0.0-6.0-1.47","","<img src=""img/yellow-n.png"" border=""10"">","null","trial","null","","0.2,0.8","2:nogo_b","0",""
"null","","html-keyboard-response","363","644870","0.0-6.0-2.47","","<div style=""font-size:60px;"">+</div>","null","","","","","","",""
"null","","image-keyboard-response","364","646371","0.0-6.0-0.48","","img/red.png","null","trial","null","true","0.4,0.6","4:nogo_d","",""
"null","","html-keyboard-response","365","647381","0.0-6.0-1.48","","<img src=""img/red-n.png"">","null","trial","null","","0.4,0.6","4:nogo_d","0",""
"null","","html-keyboard-response","366","648391","0.0-6.0-2.48","","<div style=""font-size:60px;"">+</div>","null","","","","","","",""
"425.98000005818903","","image-keyboard-response","367","648818","0.0-6.0-0.49","","img/pink.png","32","trial","32","true","0.8,0.2","1:go_a","",""
"null","","html-keyboard-response","368","649820","0.0-6.0-1.49","","<img src=""img/pink-r.png"" border=""10"">","null","trial","32","","0.8,0.2","1:go_a","1",""
"null","","html-keyboard-response","369","650821","0.0-6.0-2.49","","<div style=""font-size:60px;"">+</div>","null","","","","","","",""
"null","","image-keyboard-response","370","652324","0.0-6.0-0.50","","img/yellow.png","null","trial","null","true","0.2,0.8","2:nogo_b","",""
"null","","html-keyboard-response","371","653326","0.0-6.0-1.50","","<img src=""img/yellow-r.png"">","null","trial","null","","0.2,0.8","2:nogo_b","1",""
"null","","html-keyboard-response","372","654327","0.0-6.0-2.50","","<div style=""font-size:60px;"">+</div>","null","","","","","","",""
"null","","image-keyboard-response","373","655828","0.0-6.0-0.51","","img/grey.png","null","trial","32","false","0.6,0.4","3:go_c","",""
"null","","html-keyboard-response","374","656830","0.0-6.0-1.51","","<img src=""img/grey-r.png"">","null","trial","32","","0.6,0.4","3:go_c","1",""
"null","","html-keyboard-response","375","657832","0.0-6.0-2.51","","<div style=""font-size:60px;"">+</div>","null","","","","","","",""
"575.6300000939518","","image-keyboard-response","376","658408","0.0-6.0-0.52","","img/pink.png","32","trial","32","true","0.8,0.2","1:go_a","",""
"null","","html-keyboard-response","377","659410","0.0-6.0-1.52","","<img src=""img/pink-r.png"" border=""10"">","null","trial","32","","0.8,0.2","1:go_a","1",""
"null","","html-keyboard-response","378","660411","0.0-6.0-2.52","","<div style=""font-size:60px;"">+</div>","null","","","","","","",""
"null","","image-keyboard-response","379","661912","0.0-6.0-0.53","","img/red.png","null","trial","null","true","0.4,0.6","4:nogo_d","",""
"null","","html-keyboard-response","380","662913","0.0-6.0-1.53","","<img src=""img/red-n.png"">","null","trial","null","","0.4,0.6","4:nogo_d","0",""
"null","","html-keyboard-response","381","663914","0.0-6.0-2.53","","<div style=""font-size:60px;"">+</div>","null","","","","","","",""
"527.4300000164658","","image-keyboard-response","382","664442","0.0-6.0-0.54","","img/yellow.png","32","trial","null","false","0.2,0.8","2:nogo_b","",""
"null","","html-keyboard-response","383","665443","0.0-6.0-1.54","","<img src=""img/yellow-n.png"" border=""10"">","null","trial","null","","0.2,0.8","2:nogo_b","0",""
"null","","html-keyboard-response","384","666444","0.0-6.0-2.54","","<div style=""font-size:60px;"">+</div>","null","","","","","","",""
"547.7899999823421","","image-keyboard-response","385","666992","0.0-6.0-0.55","","img/grey.png","32","trial","32","true","0.6,0.4","3:go_c","",""
"null","","html-keyboard-response","386","667994","0.0-6.0-1.55","","<img src=""img/grey-r.png"" border=""10"">","null","trial","32","","0.6,0.4","3:go_c","1",""
"null","","html-keyboard-response","387","668995","0.0-6.0-2.55","","<div style=""font-size:60px;"">+</div>","null","","","","","","",""
"625.6999999750406","","image-keyboard-response","388","669622","0.0-6.0-0.56","","img/grey.png","32","trial","32","true","0.6,0.4","3:go_c","",""
"null","","html-keyboard-response","389","670625","0.0-6.0-1.56","","<img src=""img/grey-n.png"" border=""10"">","null","trial","32","","0.6,0.4","3:go_c","0",""
"null","","html-keyboard-response","390","671627","0.0-6.0-2.56","","<div style=""font-size:60px;"">+</div>","null","","","","","","",""
"null","","image-keyboard-response","391","673130","0.0-6.0-0.57","","img/yellow.png","null","trial","null","true","0.2,0.8","2:nogo_b","",""
"null","","html-keyboard-response","392","674132","0.0-6.0-1.57","","<img src=""img/yellow-r.png"">","null","trial","null","","0.2,0.8","2:nogo_b","1",""
"null","","html-keyboard-response","393","675133","0.0-6.0-2.57","","<div style=""font-size:60px;"">+</div>","null","","","","","","",""
"760.2299998980016","","image-keyboard-response","394","675894","0.0-6.0-0.58","","img/red.png","32","trial","null","false","0.4,0.6","4:nogo_d","",""
"null","","html-keyboard-response","395","676895","0.0-6.0-1.58","","<img src=""img/red-r.png"" border=""10"">","null","trial","null","","0.4,0.6","4:nogo_d","1",""
"null","","html-keyboard-response","396","677896","0.0-6.0-2.58","","<div style=""font-size:60px;"">+</div>","null","","","","","","",""
"1012.1799998451024","","image-keyboard-response","397","678909","0.0-6.0-0.59","","img/pink.png","32","trial","32","true","0.8,0.2","1:go_a","",""
"null","","html-keyboard-response","398","679910","0.0-6.0-1.59","","<img src=""img/pink-r.png"" border=""10"">","null","trial","32","","0.8,0.2","1:go_a","1",""
"null","","html-keyboard-response","399","680911","0.0-6.0-2.59","","<div style=""font-size:60px;"">+</div>","null","","","","","","",""
"891.5349999442697","","image-keyboard-response","400","681803","0.0-6.0-0.60","","img/pink.png","32","trial","32","true","0.8,0.2","1:go_a","",""
"null","","html-keyboard-response","401","682804","0.0-6.0-1.60","","<img src=""img/pink-n.png"" border=""10"">","null","trial","32","","0.8,0.2","1:go_a","0",""
"null","","html-keyboard-response","402","683805","0.0-6.0-2.60","","<div style=""font-size:60px;"">+</div>","null","","","","","","",""
"790.729999775067","","image-keyboard-response","403","684597","0.0-6.0-0.61","","img/red.png","32","trial","null","false","0.4,0.6","4:nogo_d","",""
"null","","html-keyboard-response","404","685599","0.0-6.0-1.61","","<img src=""img/red-n.png"" border=""10"">","null","trial","null","","0.4,0.6","4:nogo_d","0",""
"null","","html-keyboard-response","405","686601","0.0-6.0-2.61","","<div style=""font-size:60px;"">+</div>","null","","","","","","",""
"864.9049999658018","","image-keyboard-response","406","687466","0.0-6.0-0.62","","img/yellow.png","32","trial","null","false","0.2,0.8","2:nogo_b","",""
"null","","html-keyboard-response","407","688468","0.0-6.0-1.62","","<img src=""img/yellow-r.png"" border=""10"">","null","trial","null","","0.2,0.8","2:nogo_b","1",""
"null","","html-keyboard-response","408","689469","0.0-6.0-2.62","","<div style=""font-size:60px;"">+</div>","null","","","","","","",""
"751.1199999134988","","image-keyboard-response","409","690221","0.0-6.0-0.63","","img/grey.png","32","trial","32","true","0.6,0.4","3:go_c","",""
"null","","html-keyboard-response","410","691224","0.0-6.0-1.63","","<img src=""img/grey-r.png"" border=""10"">","null","trial","32","","0.6,0.4","3:go_c","1",""
"null","","html-keyboard-response","411","692225","0.0-6.0-2.63","","<div style=""font-size:60px;"">+</div>","null","","","","","","",""
"588.3750000502914","","image-keyboard-response","412","692814","0.0-6.0-0.64","","img/pink.png","32","trial","32","true","0.8,0.2","1:go_a","",""
"null","","html-keyboard-response","413","693817","0.0-6.0-1.64","","<img src=""img/pink-r.png"" border=""10"">","null","trial","32","","0.8,0.2","1:go_a","1",""
"null","","html-keyboard-response","414","694818","0.0-6.0-2.64","","<div style=""font-size:60px;"">+</div>","null","","","","","","",""
"774.3249998893589","","image-keyboard-response","415","695593","0.0-6.0-0.65","","img/red.png","32","trial","null","false","0.4,0.6","4:nogo_d","",""
"null","","html-keyboard-response","416","696594","0.0-6.0-1.65","","<img src=""img/red-r.png"" border=""10"">","null","trial","null","","0.4,0.6","4:nogo_d","1",""
"null","","html-keyboard-response","417","697595","0.0-6.0-2.65","","<div style=""font-size:60px;"">+</div>","null","","","","","","",""
"null","","image-keyboard-response","418","699096","0.0-6.0-0.66","","img/grey.png","null","trial","32","false","0.6,0.4","3:go_c","",""
"null","","html-keyboard-response","419","700097","0.0-6.0-1.66","","<img src=""img/grey-r.png"">","null","trial","32","","0.6,0.4","3:go_c","1",""
"null","","html-keyboard-response","420","701099","0.0-6.0-2.66","","<div style=""font-size:60px;"">+</div>","null","","","","","","",""
"998.1500001158565","","image-keyboard-response","421","702098","0.0-6.0-0.67","","img/yellow.png","32","trial","null","false","0.2,0.8","2:nogo_b","",""
"null","","html-keyboard-response","422","703099","0.0-6.0-1.67","","<img src=""img/yellow-n.png"" border=""10"">","null","trial","null","","0.2,0.8","2:nogo_b","0",""
"null","","html-keyboard-response","423","704100","0.0-6.0-2.67","","<div style=""font-size:60px;"">+</div>","null","","","","","","",""
"289.69500004313886","","image-keyboard-response","424","704390","0.0-6.0-0.68","","img/red.png","32","trial","null","false","0.4,0.6","4:nogo_d","",""
"null","","html-keyboard-response","425","705392","0.0-6.0-1.68","","<img src=""img/red-r.png"" border=""10"">","null","trial","null","","0.4,0.6","4:nogo_d","1",""
"null","","html-keyboard-response","426","706393","0.0-6.0-2.68","","<div style=""font-size:60px;"">+</div>","null","","","","","","",""
"812.195000005886","","image-keyboard-response","427","707206","0.0-6.0-0.69","","img/yellow.png","32","trial","null","false","0.2,0.8","2:nogo_b","",""
"null","","html-keyboard-response","428","708207","0.0-6.0-1.69","","<img src=""img/yellow-r.png"" border=""10"">","null","trial","null","","0.2,0.8","2:nogo_b","1",""
"null","","html-keyboard-response","429","709208","0.0-6.0-2.69","","<div style=""font-size:60px;"">+</div>","null","","","","","","",""
"863.480000058189","","image-keyboard-response","430","710072","0.0-6.0-0.70","","img/grey.png","32","trial","32","true","0.6,0.4","3:go_c","",""
"null","","html-keyboard-response","431","711074","0.0-6.0-1.70","","<img src=""img/grey-r.png"" border=""10"">","null","trial","32","","0.6,0.4","3:go_c","1",""
"null","","html-keyboard-response","432","712075","0.0-6.0-2.70","","<div style=""font-size:60px;"">+</div>","null","","","","","","",""
"772.7149999700487","","image-keyboard-response","433","712848","0.0-6.0-0.71","","img/pink.png","32","trial","32","true","0.8,0.2","1:go_a","",""
"null","","html-keyboard-response","434","713849","0.0-6.0-1.71","","<img src=""img/pink-r.png"" border=""10"">","null","trial","32","","0.8,0.2","1:go_a","1",""
"null","","html-keyboard-response","435","714851","0.0-6.0-2.71","","<div style=""font-size:60px;"">+</div>","null","","","","","","",""
"969.7249999735504","","image-keyboard-response","436","715822","0.0-6.0-0.72","","img/pink.png","32","trial","32","true","0.8,0.2","1:go_a","",""
"null","","html-keyboard-response","437","716824","0.0-6.0-1.72","","<img src=""img/pink-r.png"" border=""10"">","null","trial","32","","0.8,0.2","1:go_a","1",""
"null","","html-keyboard-response","438","717825","0.0-6.0-2.72","","<div style=""font-size:60px;"">+</div>","null","","","","","","",""
"1246.0199999623","","image-keyboard-response","439","719072","0.0-6.0-0.73","","img/yellow.png","32","trial","null","false","0.2,0.8","2:nogo_b","",""
"null","","html-keyboard-response","440","720075","0.0-6.0-1.73","","<img src=""img/yellow-n.png"" border=""10"">","null","trial","null","","0.2,0.8","2:nogo_b","0",""
"null","","html-keyboard-response","441","721084","0.0-6.0-2.73","","<div style=""font-size:60px;"">+</div>","null","","","","","","",""
"null","","image-keyboard-response","442","722586","0.0-6.0-0.74","","img/grey.png","null","trial","32","false","0.6,0.4","3:go_c","",""
"null","","html-keyboard-response","443","723601","0.0-6.0-1.74","","<img src=""img/grey-n.png"">","null","trial","32","","0.6,0.4","3:go_c","0",""
"null","","html-keyboard-response","444","724602","0.0-6.0-2.74","","<div style=""font-size:60px;"">+</div>","null","","","","","","",""
"null","","image-keyboard-response","445","726103","0.0-6.0-0.75","","img/red.png","null","trial","null","true","0.4,0.6","4:nogo_d","",""
"null","","html-keyboard-response","446","727105","0.0-6.0-1.75","","<img src=""img/red-r.png"">","null","trial","null","","0.4,0.6","4:nogo_d","1",""
"null","","html-keyboard-response","447","728107","0.0-6.0-2.75","","<div style=""font-size:60px;"">+</div>","null","","","","","","",""
"646.3899998925626","","image-keyboard-response","448","728754","0.0-6.0-0.76","","img/grey.png","32","trial","32","true","0.6,0.4","3:go_c","",""
"null","","html-keyboard-response","449","729755","0.0-6.0-1.76","","<img src=""img/grey-n.png"" border=""10"">","null","trial","32","","0.6,0.4","3:go_c","0",""
"null","","html-keyboard-response","450","730755","0.0-6.0-2.76","","<div style=""font-size:60px;"">+</div>","null","","","","","","",""
"1045.8450000733137","","image-keyboard-response","451","731804","0.0-6.0-0.77","","img/yellow.png","32","trial","null","false","0.2,0.8","2:nogo_b","",""
"null","","html-keyboard-response","452","732805","0.0-6.0-1.77","","<img src=""img/yellow-n.png"" border=""10"">","null","trial","null","","0.2,0.8","2:nogo_b","0",""
"null","","html-keyboard-response","453","733806","0.0-6.0-2.77","","<div style=""font-size:60px;"">+</div>","null","","","","","","",""
"857.0350001100451","","image-keyboard-response","454","734664","0.0-6.0-0.78","","img/pink.png","32","trial","32","true","0.8,0.2","1:go_a","",""
"null","","html-keyboard-response","455","735666","0.0-6.0-1.78","","<img src=""img/pink-r.png"" border=""10"">","null","trial","32","","0.8,0.2","1:go_a","1",""
"null","","html-keyboard-response","456","736666","0.0-6.0-2.78","","<div style=""font-size:60px;"">+</div>","null","","","","","","",""
"1189.65999991633","","image-keyboard-response","457","737857","0.0-6.0-0.79","","img/red.png","32","trial","null","false","0.4,0.6","4:nogo_d","",""
"null","","html-keyboard-response","458","738859","0.0-6.0-1.79","","<img src=""img/red-n.png"" border=""10"">","null","trial","null","","0.4,0.6","4:nogo_d","0",""
"null","","html-keyboard-response","459","739861","0.0-6.0-2.79","","<div style=""font-size:60px;"">+</div>","null","","","","","","",""
"893.2849999982864","","image-keyboard-response","460","740755","0.0-6.0-0.80","","img/yellow.png","32","trial","null","false","0.2,0.8","2:nogo_b","",""
"null","","html-keyboard-response","461","741757","0.0-6.0-1.80","","<img src=""img/yellow-n.png"" border=""10"">","null","trial","null","","0.2,0.8","2:nogo_b","0",""
"null","","html-keyboard-response","462","742758","0.0-6.0-2.80","","<div style=""font-size:60px;"">+</div>","null","","","","","","",""
"889.8000000044703","","image-keyboard-response","463","743649","0.0-6.0-0.81","","img/red.png","32","trial","null","false","0.4,0.6","4:nogo_d","",""
"null","","html-keyboard-response","464","744651","0.0-6.0-1.81","","<img src=""img/red-r.png"" border=""10"">","null","trial","null","","0.4,0.6","4:nogo_d","1",""
"null","","html-keyboard-response","465","745653","0.0-6.0-2.81","","<div style=""font-size:60px;"">+</div>","null","","","","","","",""
"837.8049999009818","","image-keyboard-response","466","746491","0.0-6.0-0.82","","img/pink.png","32","trial","32","true","0.8,0.2","1:go_a","",""
"null","","html-keyboard-response","467","747494","0.0-6.0-1.82","","<img src=""img/pink-r.png"" border=""10"">","null","trial","32","","0.8,0.2","1:go_a","1",""
"null","","html-keyboard-response","468","748495","0.0-6.0-2.82","","<div style=""font-size:60px;"">+</div>","null","","","","","","",""
"1050.5000001285225","","image-keyboard-response","469","749546","0.0-6.0-0.83","","img/grey.png","32","trial","32","true","0.6,0.4","3:go_c","",""
"null","","html-keyboard-response","470","750548","0.0-6.0-1.83","","<img src=""img/grey-n.png"" border=""10"">","null","trial","32","","0.6,0.4","3:go_c","0",""
"null","","html-keyboard-response","471","751549","0.0-6.0-2.83","","<div style=""font-size:60px;"">+</div>","null","","","","","","",""
"661.1599999014288","","image-keyboard-response","472","752211","0.0-6.0-0.84","","img/pink.png","32","trial","32","true","0.8,0.2","1:go_a","",""
"null","","html-keyboard-response","473","753213","0.0-6.0-1.84","","<img src=""img/pink-n.png"" border=""10"">","null","trial","32","","0.8,0.2","1:go_a","0",""
"null","","html-keyboard-response","474","754214","0.0-6.0-2.84","","<div style=""font-size:60px;"">+</div>","null","","","","","","",""
"469.3849999457598","","image-keyboard-response","475","754684","0.0-6.0-0.85","","img/red.png","32","trial","null","false","0.4,0.6","4:nogo_d","",""
"null","","html-keyboard-response","476","755699","0.0-6.0-1.85","","<img src=""img/red-r.png"" border=""10"">","null","trial","null","","0.4,0.6","4:nogo_d","1",""
"null","","html-keyboard-response","477","756700","0.0-6.0-2.85","","<div style=""font-size:60px;"">+</div>","null","","","","","","",""
"1037.335000000894","","image-keyboard-response","478","757738","0.0-6.0-0.86","","img/yellow.png","32","trial","null","false","0.2,0.8","2:nogo_b","",""
"null","","html-keyboard-response","479","758741","0.0-6.0-1.86","","<img src=""img/yellow-n.png"" border=""10"">","null","trial","null","","0.2,0.8","2:nogo_b","0",""
"null","","html-keyboard-response","480","759743","0.0-6.0-2.86","","<div style=""font-size:60px;"">+</div>","null","","","","","","",""
"1118.819999974221","","image-keyboard-response","481","760864","0.0-6.0-0.87","","img/grey.png","32","trial","32","true","0.6,0.4","3:go_c","",""
"null","","html-keyboard-response","482","761865","0.0-6.0-1.87","","<img src=""img/grey-n.png"" border=""10"">","null","trial","32","","0.6,0.4","3:go_c","0",""
"null","","html-keyboard-response","483","762867","0.0-6.0-2.87","","<div style=""font-size:60px;"">+</div>","null","","","","","","",""
"1231.4549998845905","","image-keyboard-response","484","764099","0.0-6.0-0.88","","img/grey.png","32","trial","32","true","0.6,0.4","3:go_c","",""
"null","","html-keyboard-response","485","765100","0.0-6.0-1.88","","<img src=""img/grey-r.png"" border=""10"">","null","trial","32","","0.6,0.4","3:go_c","1",""
"null","","html-keyboard-response","486","766102","0.0-6.0-2.88","","<div style=""font-size:60px;"">+</div>","null","","","","","","",""
"1231.1350000090897","","image-keyboard-response","487","767335","0.0-6.0-0.89","","img/yellow.png","32","trial","null","false","0.2,0.8","2:nogo_b","",""
"null","","html-keyboard-response","488","768337","0.0-6.0-1.89","","<img src=""img/yellow-n.png"" border=""10"">","null","trial","null","","0.2,0.8","2:nogo_b","0",""
"null","","html-keyboard-response","489","769338","0.0-6.0-2.89","","<div style=""font-size:60px;"">+</div>","null","","","","","","",""
"null","","image-keyboard-response","490","770839","0.0-6.0-0.90","","img/red.png","null","trial","null","true","0.4,0.6","4:nogo_d","",""
"null","","html-keyboard-response","491","771840","0.0-6.0-1.90","","<img src=""img/red-n.png"">","null","trial","null","","0.4,0.6","4:nogo_d","0",""
"null","","html-keyboard-response","492","772841","0.0-6.0-2.90","","<div style=""font-size:60px;"">+</div>","null","","","","","","",""
"363.310000160709","","image-keyboard-response","493","773205","0.0-6.0-0.91","","img/pink.png","32","trial","32","true","0.8,0.2","1:go_a","",""
"null","","html-keyboard-response","494","774208","0.0-6.0-1.91","","<img src=""img/pink-n.png"" border=""10"">","null","trial","32","","0.8,0.2","1:go_a","0",""
"null","","html-keyboard-response","495","775209","0.0-6.0-2.91","","<div style=""font-size:60px;"">+</div>","null","","","","","","",""
"596.1349999997765","","image-keyboard-response","496","775806","0.0-6.0-0.92","","img/pink.png","32","trial","32","true","0.8,0.2","1:go_a","",""
"null","","html-keyboard-response","497","776810","0.0-6.0-1.92","","<img src=""img/pink-r.png"" border=""10"">","null","trial","32","","0.8,0.2","1:go_a","1",""
"null","","html-keyboard-response","498","777812","0.0-6.0-2.92","","<div style=""font-size:60px;"">+</div>","null","","","","","","",""
"null","","image-keyboard-response","499","779312","0.0-6.0-0.93","","img/red.png","null","trial","null","true","0.4,0.6","4:nogo_d","",""
"null","","html-keyboard-response","500","780314","0.0-6.0-1.93","","<img src=""img/red-r.png"">","null","trial","null","","0.4,0.6","4:nogo_d","1",""
"null","","html-keyboard-response","501","781315","0.0-6.0-2.93","","<div style=""font-size:60px;"">+</div>","null","","","","","","",""
"785.3699999395758","","image-keyboard-response","502","782101","0.0-6.0-0.94","","img/yellow.png","32","trial","null","false","0.2,0.8","2:nogo_b","",""
"null","","html-keyboard-response","503","783104","0.0-6.0-1.94","","<img src=""img/yellow-n.png"" border=""10"">","null","trial","null","","0.2,0.8","2:nogo_b","0",""
"null","","html-keyboard-response","504","784104","0.0-6.0-2.94","","<div style=""font-size:60px;"">+</div>","null","","","","","","",""
"892.0700000599027","","image-keyboard-response","505","784997","0.0-6.0-0.95","","img/grey.png","32","trial","32","true","0.6,0.4","3:go_c","",""
"null","","html-keyboard-response","506","785999","0.0-6.0-1.95","","<img src=""img/grey-r.png"" border=""10"">","null","trial","32","","0.6,0.4","3:go_c","1",""
"null","","html-keyboard-response","507","787000","0.0-6.0-2.95","","<div style=""font-size:60px;"">+</div>","null","","","","","","",""
"859.2699998989701","","image-keyboard-response","508","787860","0.0-6.0-0.96","","img/yellow.png","32","trial","null","false","0.2,0.8","2:nogo_b","",""
"null","","html-keyboard-response","509","788862","0.0-6.0-1.96","","<img src=""img/yellow-r.png"" border=""10"">","null","trial","null","","0.2,0.8","2:nogo_b","1",""
"null","","html-keyboard-response","510","789863","0.0-6.0-2.96","","<div style=""font-size:60px;"">+</div>","null","","","","","","",""
"800.1800000201911","","image-keyboard-response","511","790664","0.0-6.0-0.97","","img/grey.png","32","trial","32","true","0.6,0.4","3:go_c","",""
"null","","html-keyboard-response","512","791665","0.0-6.0-1.97","","<img src=""img/grey-r.png"" border=""10"">","null","trial","32","","0.6,0.4","3:go_c","1",""
"null","","html-keyboard-response","513","792666","0.0-6.0-2.97","","<div style=""font-size:60px;"">+</div>","null","","","","","","",""
"null","","image-keyboard-response","514","794167","0.0-6.0-0.98","","img/red.png","null","trial","null","true","0.4,0.6","4:nogo_d","",""
"null","","html-keyboard-response","515","795169","0.0-6.0-1.98","","<img src=""img/red-r.png"">","null","trial","null","","0.4,0.6","4:nogo_d","1",""
"null","","html-keyboard-response","516","796170","0.0-6.0-2.98","","<div style=""font-size:60px;"">+</div>","null","","","","","","",""
"1040.915000019595","","image-keyboard-response","517","797211","0.0-6.0-0.99","","img/pink.png","32","trial","32","true","0.8,0.2","1:go_a","",""
"null","","html-keyboard-response","518","798214","0.0-6.0-1.99","","<img src=""img/pink-r.png"" border=""10"">","null","trial","32","","0.8,0.2","1:go_a","1",""
"null","","html-keyboard-response","519","799216","0.0-6.0-2.99","","<div style=""font-size:60px;"">+</div>","null","","","","","","",""
"null","","image-keyboard-response","520","800718","0.0-6.0-0.100","","img/grey.png","null","trial","32","false","0.6,0.4","3:go_c","",""
"null","","html-keyboard-response","521","801719","0.0-6.0-1.100","","<img src=""img/grey-n.png"">","null","trial","32","","0.6,0.4","3:go_c","0",""
"null","","html-keyboard-response","522","802721","0.0-6.0-2.100","","<div style=""font-size:60px;"">+</div>","null","","","","","","",""
"815.0950002018362","","image-keyboard-response","523","803536","0.0-6.0-0.101","","img/pink.png","32","trial","32","true","0.8,0.2","1:go_a","",""
"null","","html-keyboard-response","524","804538","0.0-6.0-1.101","","<img src=""img/pink-r.png"" border=""10"">","null","trial","32","","0.8,0.2","1:go_a","1",""
"null","","html-keyboard-response","525","805539","0.0-6.0-2.101","","<div style=""font-size:60px;"">+</div>","null","","","","","","",""
"993.3200001250952","","image-keyboard-response","526","806532","0.0-6.0-0.102","","img/yellow.png","32","trial","null","false","0.2,0.8","2:nogo_b","",""
"null","","html-keyboard-response","527","807534","0.0-6.0-1.102","","<img src=""img/yellow-n.png"" border=""10"">","null","trial","null","","0.2,0.8","2:nogo_b","0",""
"null","","html-keyboard-response","528","808536","0.0-6.0-2.102","","<div style=""font-size:60px;"">+</div>","null","","","","","","",""
"null","","image-keyboard-response","529","810037","0.0-6.0-0.103","","img/red.png","null","trial","null","true","0.4,0.6","4:nogo_d","",""
"null","","html-keyboard-response","530","811039","0.0-6.0-1.103","","<img src=""img/red-r.png"">","null","trial","null","","0.4,0.6","4:nogo_d","1",""
"null","","html-keyboard-response","531","812040","0.0-6.0-2.103","","<div style=""font-size:60px;"">+</div>","null","","","","","","",""
"1109.6149999648333","","image-keyboard-response","532","813150","0.0-6.0-0.104","","img/grey.png","32","trial","32","true","0.6,0.4","3:go_c","",""
"null","","html-keyboard-response","533","814152","0.0-6.0-1.104","","<img src=""img/grey-n.png"" border=""10"">","null","trial","32","","0.6,0.4","3:go_c","0",""
"null","","html-keyboard-response","534","815153","0.0-6.0-2.104","","<div style=""font-size:60px;"">+</div>","null","","","","","","",""
"1447.954999981448","","image-keyboard-response","535","816602","0.0-6.0-0.105","","img/pink.png","32","trial","32","true","0.8,0.2","1:go_a","",""
"null","","html-keyboard-response","536","817604","0.0-6.0-1.105","","<img src=""img/pink-r.png"" border=""10"">","null","trial","32","","0.8,0.2","1:go_a","1",""
"null","","html-keyboard-response","537","818606","0.0-6.0-2.105","","<div style=""font-size:60px;"">+</div>","null","","","","","","",""
"1185.7799999415874","","image-keyboard-response","538","819792","0.0-6.0-0.106","","img/yellow.png","32","trial","null","false","0.2,0.8","2:nogo_b","",""
"null","","html-keyboard-response","539","820795","0.0-6.0-1.106","","<img src=""img/yellow-n.png"" border=""10"">","null","trial","null","","0.2,0.8","2:nogo_b","0",""
"null","","html-keyboard-response","540","821796","0.0-6.0-2.106","","<div style=""font-size:60px;"">+</div>","null","","","","","","",""
"1148.964999942109","","image-keyboard-response","541","822946","0.0-6.0-0.107","","img/red.png","32","trial","null","false","0.4,0.6","4:nogo_d","",""
"null","","html-keyboard-response","542","823948","0.0-6.0-1.107","","<img src=""img/red-r.png"" border=""10"">","null","trial","null","","0.4,0.6","4:nogo_d","1",""
"null","","html-keyboard-response","543","824950","0.0-6.0-2.107","","<div style=""font-size:60px;"">+</div>","null","","","","","","",""
"787.8700001165271","","image-keyboard-response","544","825738","0.0-6.0-0.108","","img/pink.png","32","trial","32","true","0.8,0.2","1:go_a","",""
"null","","html-keyboard-response","545","826739","0.0-6.0-1.108","","<img src=""img/pink-r.png"" border=""10"">","null","trial","32","","0.8,0.2","1:go_a","1",""
"null","","html-keyboard-response","546","827750","0.0-6.0-2.108","","<div style=""font-size:60px;"">+</div>","null","","","","","","",""
"1092.875000089407","","image-keyboard-response","547","828844","0.0-6.0-0.109","","img/grey.png","32","trial","32","true","0.6,0.4","3:go_c","",""
"null","","html-keyboard-response","548","829845","0.0-6.0-1.109","","<img src=""img/grey-r.png"" border=""10"">","null","trial","32","","0.6,0.4","3:go_c","1",""
"null","","html-keyboard-response","549","830847","0.0-6.0-2.109","","<div style=""font-size:60px;"">+</div>","null","","","","","","",""
"1257.7450000680983","","image-keyboard-response","550","832105","0.0-6.0-0.110","","img/red.png","32","trial","null","false","0.4,0.6","4:nogo_d","",""
"null","","html-keyboard-response","551","833107","0.0-6.0-1.110","","<img src=""img/red-r.png"" border=""10"">","null","trial","null","","0.4,0.6","4:nogo_d","1",""
"null","","html-keyboard-response","552","834108","0.0-6.0-2.110","","<div style=""font-size:60px;"">+</div>","null","","","","","","",""
"1014.8899999912828","","image-keyboard-response","553","835123","0.0-6.0-0.111","","img/yellow.png","32","trial","null","false","0.2,0.8","2:nogo_b","",""
"null","","html-keyboard-response","554","836125","0.0-6.0-1.111","","<img src=""img/yellow-r.png"" border=""10"">","null","trial","null","","0.2,0.8","2:nogo_b","1",""
"null","","html-keyboard-response","555","837127","0.0-6.0-2.111","","<div style=""font-size:60px;"">+</div>","null","","","","","","",""
"876.640000147745","","image-keyboard-response","556","838004","0.0-6.0-0.112","","img/yellow.png","32","trial","null","false","0.2,0.8","2:nogo_b","",""
"null","","html-keyboard-response","557","839006","0.0-6.0-1.112","","<img src=""img/yellow-n.png"" border=""10"">","null","trial","null","","0.2,0.8","2:nogo_b","0",""
"null","","html-keyboard-response","558","840007","0.0-6.0-2.112","","<div style=""font-size:60px;"">+</div>","null","","","","","","",""
"1310.7899997849017","","image-keyboard-response","559","841318","0.0-6.0-0.113","","img/pink.png","32","trial","32","true","0.8,0.2","1:go_a","",""
"null","","html-keyboard-response","560","842319","0.0-6.0-1.113","","<img src=""img/pink-r.png"" border=""10"">","null","trial","32","","0.8,0.2","1:go_a","1",""
"null","","html-keyboard-response","561","843320","0.0-6.0-2.113","","<div style=""font-size:60px;"">+</div>","null","","","","","","",""
"1161.4850000478327","","image-keyboard-response","562","844482","0.0-6.0-0.114","","img/grey.png","32","trial","32","true","0.6,0.4","3:go_c","",""
"null","","html-keyboard-response","563","845483","0.0-6.0-1.114","","<img src=""img/grey-r.png"" border=""10"">","null","trial","32","","0.6,0.4","3:go_c","1",""
"null","","html-keyboard-response","564","846485","0.0-6.0-2.114","","<div style=""font-size:60px;"">+</div>","null","","","","","","",""
"1445.4699999187142","","image-keyboard-response","565","847931","0.0-6.0-0.115","","img/red.png","32","trial","null","false","0.4,0.6","4:nogo_d","",""
"null","","html-keyboard-response","566","848934","0.0-6.0-1.115","","<img src=""img/red-n.png"" border=""10"">","null","trial","null","","0.4,0.6","4:nogo_d","0",""
"null","","html-keyboard-response","567","849934","0.0-6.0-2.115","","<div style=""font-size:60px;"">+</div>","null","","","","","","",""
"1093.3300000615418","","image-keyboard-response","568","851028","0.0-6.0-0.116","","img/red.png","32","trial","null","false","0.4,0.6","4:nogo_d","",""
"null","","html-keyboard-response","569","852030","0.0-6.0-1.116","","<img src=""img/red-n.png"" border=""10"">","null","trial","null","","0.4,0.6","4:nogo_d","0",""
"null","","html-keyboard-response","570","853032","0.0-6.0-2.116","","<div style=""font-size:60px;"">+</div>","null","","","","","","",""
"null","","image-keyboard-response","571","854534","0.0-6.0-0.117","","img/grey.png","null","trial","32","false","0.6,0.4","3:go_c","",""
"null","","html-keyboard-response","572","855535","0.0-6.0-1.117","","<img src=""img/grey-n.png"">","null","trial","32","","0.6,0.4","3:go_c","0",""
"null","","html-keyboard-response","573","856536","0.0-6.0-2.117","","<div style=""font-size:60px;"">+</div>","null","","","","","","",""
"null","","image-keyboard-response","574","858039","0.0-6.0-0.118","","img/yellow.png","null","trial","null","true","0.2,0.8","2:nogo_b","",""
"null","","html-keyboard-response","575","859040","0.0-6.0-1.118","","<img src=""img/yellow-r.png"">","null","trial","null","","0.2,0.8","2:nogo_b","1",""
"null","","html-keyboard-response","576","860041","0.0-6.0-2.118","","<div style=""font-size:60px;"">+</div>","null","","","","","","",""
"null","","image-keyboard-response","577","861542","0.0-6.0-0.119","","img/pink.png","null","trial","32","false","0.8,0.2","1:go_a","",""
"null","","html-keyboard-response","578","862543","0.0-6.0-1.119","","<img src=""img/pink-n.png"">","null","trial","32","","0.8,0.2","1:go_a","0",""
"null","","html-keyboard-response","579","863544","0.0-6.0-2.119","","<div style=""font-size:60px;"">+</div>","null","","","","","","",""
"27613.219999941066","","instructions","580","891158","0.0-7.0","[{""page_index"":0,""viewing_time"":27613.009999971837}]","","","","","","","","",""
"941.6149999015033","","image-keyboard-response","581","892102","0.0-8.0-0.0","","img/red.png","32","trial","null","false","0,1","4:nogo_d","",""
"null","","html-keyboard-response","582","893106","0.0-8.0-1.0","","<img src=""img/red-n.png"" border=""10"">","null","trial","null","","0,1","4:nogo_d","0",""
"null","","html-keyboard-response","583","894107","0.0-8.0-2.0","","<div style=""font-size:60px;"">+</div>","null","","","","","","",""
"273.86000007390976","","image-keyboard-response","584","894382","0.0-8.0-0.1","","img/purple.png","32","trial","32","true","1,0","3:go_c","",""
"null","","html-keyboard-response","585","895391","0.0-8.0-1.1","","<img src=""img/purple-r.png"" border=""10"">","null","trial","32","","1,0","3:go_c","1",""
"null","","html-keyboard-response","586","896393","0.0-8.0-2.1","","<div style=""font-size:60px;"">+</div>","null","","","","","","",""
"277.70500001497567","","image-keyboard-response","587","896671","0.0-8.0-0.2","","img/green.png","32","trial","null","false","0.2,0.8","2:nogo_b","",""
"null","","html-keyboard-response","588","897687","0.0-8.0-1.2","","<img src=""img/green-n.png"" border=""10"">","null","trial","null","","0.2,0.8","2:nogo_b","0",""
"null","","html-keyboard-response","589","898688","0.0-8.0-2.2","","<div style=""font-size:60px;"">+</div>","null","","","","","","",""
"408.0749999266118","","image-keyboard-response","590","899097","0.0-8.0-0.3","","img/yellow.png","32","trial","32","true","0.8,0.2","1:go_a","",""
"null","","html-keyboard-response","591","900101","0.0-8.0-1.3","","<img src=""img/yellow-r.png"" border=""10"">","null","trial","32","","0.8,0.2","1:go_a","1",""
"null","","html-keyboard-response","592","901102","0.0-8.0-2.3","","<div style=""font-size:60px;"">+</div>","null","","","","","","",""
"null","","image-keyboard-response","593","902603","0.0-8.0-0.4","","img/red.png","null","trial","null","true","0,1","4:nogo_d","",""
"null","","html-keyboard-response","594","903605","0.0-8.0-1.4","","<img src=""img/red-r.png"">","null","trial","null","","0,1","4:nogo_d","1",""
"null","","html-keyboard-response","595","904606","0.0-8.0-2.4","","<div style=""font-size:60px;"">+</div>","null","","","","","","",""
"474.9900000169873","","image-keyboard-response","596","905082","0.0-8.0-0.5","","img/purple.png","32","trial","32","true","1,0","3:go_c","",""
"null","","html-keyboard-response","597","906083","0.0-8.0-1.5","","<img src=""img/purple-r.png"" border=""10"">","null","trial","32","","1,0","3:go_c","1",""
"null","","html-keyboard-response","598","907084","0.0-8.0-2.5","","<div style=""font-size:60px;"">+</div>","null","","","","","","",""
"606.2449999153614","","image-keyboard-response","599","907691","0.0-8.0-0.6","","img/yellow.png","32","trial","32","true","0.8,0.2","1:go_a","",""
"null","","html-keyboard-response","600","908693","0.0-8.0-1.6","","<img src=""img/yellow-r.png"" border=""10"">","null","trial","32","","0.8,0.2","1:go_a","1",""
"null","","html-keyboard-response","601","909694","0.0-8.0-2.6","","<div style=""font-size:60px;"">+</div>","null","","","","","","",""
"null","","image-keyboard-response","602","911195","0.0-8.0-0.7","","img/green.png","null","trial","null","true","0.2,0.8","2:nogo_b","",""
"null","","html-keyboard-response","603","912197","0.0-8.0-1.7","","<img src=""img/green-n.png"">","null","trial","null","","0.2,0.8","2:nogo_b","0",""
"null","","html-keyboard-response","604","913199","0.0-8.0-2.7","","<div style=""font-size:60px;"">+</div>","null","","","","","","",""
"null","","image-keyboard-response","605","914700","0.0-8.0-0.8","","img/green.png","null","trial","null","true","0.2,0.8","2:nogo_b","",""
"null","","html-keyboard-response","606","915704","0.0-8.0-1.8","","<img src=""img/green-r.png"">","null","trial","null","","0.2,0.8","2:nogo_b","1",""
"null","","html-keyboard-response","607","916706","0.0-8.0-2.8","","<div style=""font-size:60px;"">+</div>","null","","","","","","",""
"684.5800001174212","","image-keyboard-response","608","917391","0.0-8.0-0.9","","img/yellow.png","32","trial","32","true","0.8,0.2","1:go_a","",""
"null","","html-keyboard-response","609","918393","0.0-8.0-1.9","","<img src=""img/yellow-n.png"" border=""10"">","null","trial","32","","0.8,0.2","1:go_a","0",""
"null","","html-keyboard-response","610","919395","0.0-8.0-2.9","","<div style=""font-size:60px;"">+</div>","null","","","","","","",""
"null","","image-keyboard-response","611","920898","0.0-8.0-0.10","","img/red.png","null","trial","null","true","0,1","4:nogo_d","",""
"null","","html-keyboard-response","612","921899","0.0-8.0-1.10","","<img src=""img/red-r.png"">","null","trial","null","","0,1","4:nogo_d","1",""
"null","","html-keyboard-response","613","922900","0.0-8.0-2.10","","<div style=""font-size:60px;"">+</div>","null","","","","","","",""
"459.3250001780689","","image-keyboard-response","614","923360","0.0-8.0-0.11","","img/purple.png","32","trial","32","true","1,0","3:go_c","",""
"null","","html-keyboard-response","615","924362","0.0-8.0-1.11","","<img src=""img/purple-r.png"" border=""10"">","null","trial","32","","1,0","3:go_c","1",""
"null","","html-keyboard-response","616","925363","0.0-8.0-2.11","","<div style=""font-size:60px;"">+</div>","null","","","","","","",""
"675.2800000831485","","image-keyboard-response","617","926039","0.0-8.0-0.12","","img/purple.png","32","trial","32","true","1,0","3:go_c","",""
"null","","html-keyboard-response","618","927040","0.0-8.0-1.12","","<img src=""img/purple-r.png"" border=""10"">","null","trial","32","","1,0","3:go_c","1",""
"null","","html-keyboard-response","619","928042","0.0-8.0-2.12","","<div style=""font-size:60px;"">+</div>","null","","","","","","",""
"null","","image-keyboard-response","620","929543","0.0-8.0-0.13","","img/red.png","null","trial","null","true","0,1","4:nogo_d","",""
"null","","html-keyboard-response","621","930544","0.0-8.0-1.13","","<img src=""img/red-r.png"">","null","trial","null","","0,1","4:nogo_d","1",""
"null","","html-keyboard-response","622","931544","0.0-8.0-2.13","","<div style=""font-size:60px;"">+</div>","null","","","","","","",""
"711.5899999625981","","image-keyboard-response","623","932257","0.0-8.0-0.14","","img/yellow.png","32","trial","32","true","0.8,0.2","1:go_a","",""
"null","","html-keyboard-response","624","933261","0.0-8.0-1.14","","<img src=""img/yellow-r.png"" border=""10"">","null","trial","32","","0.8,0.2","1:go_a","1",""
"null","","html-keyboard-response","625","934262","0.0-8.0-2.14","","<div style=""font-size:60px;"">+</div>","null","","","","","","",""
"996.515000006184","","image-keyboard-response","626","935260","0.0-8.0-0.15","","img/green.png","32","trial","null","false","0.2,0.8","2:nogo_b","",""
"null","","html-keyboard-response","627","936262","0.0-8.0-1.15","","<img src=""img/green-n.png"" border=""10"">","null","trial","null","","0.2,0.8","2:nogo_b","0",""
"null","","html-keyboard-response","628","937263","0.0-8.0-2.15","","<div style=""font-size:60px;"">+</div>","null","","","","","","",""
"922.3500001244247","","image-keyboard-response","629","938186","0.0-8.0-0.16","","img/green.png","32","trial","null","false","0.2,0.8","2:nogo_b","",""
"null","","html-keyboard-response","630","939188","0.0-8.0-1.16","","<img src=""img/green-n.png"" border=""10"">","null","trial","null","","0.2,0.8","2:nogo_b","0",""
"null","","html-keyboard-response","631","940189","0.0-8.0-2.16","","<div style=""font-size:60px;"">+</div>","null","","","","","","",""
"398.32499995827675","","image-keyboard-response","632","940588","0.0-8.0-0.17","","img/purple.png","32","trial","32","true","1,0","3:go_c","",""
"null","","html-keyboard-response","633","941589","0.0-8.0-1.17","","<img src=""img/purple-r.png"" border=""10"">","null","trial","32","","1,0","3:go_c","1",""
"null","","html-keyboard-response","634","942590","0.0-8.0-2.17","","<div style=""font-size:60px;"">+</div>","null","","","","","","",""
"986.7400000803173","","image-keyboard-response","635","943578","0.0-8.0-0.18","","img/red.png","32","trial","null","false","0,1","4:nogo_d","",""
"null","","html-keyboard-response","636","944579","0.0-8.0-1.18","","<img src=""img/red-n.png"" border=""10"">","null","trial","null","","0,1","4:nogo_d","0",""
"null","","html-keyboard-response","637","945581","0.0-8.0-2.18","","<div style=""font-size:60px;"">+</div>","null","","","","","","",""
"767.0599999837577","","image-keyboard-response","638","946349","0.0-8.0-0.19","","img/yellow.png","32","trial","32","true","0.8,0.2","1:go_a","",""
"null","","html-keyboard-response","639","947351","0.0-8.0-1.19","","<img src=""img/yellow-r.png"" border=""10"">","null","trial","32","","0.8,0.2","1:go_a","1",""
"null","","html-keyboard-response","640","948353","0.0-8.0-2.19","","<div style=""font-size:60px;"">+</div>","null","","","","","","",""
"null","","image-keyboard-response","641","949854","0.0-8.0-0.20","","img/red.png","null","trial","null","true","0,1","4:nogo_d","",""
"null","","html-keyboard-response","642","950855","0.0-8.0-1.20","","<img src=""img/red-r.png"">","null","trial","null","","0,1","4:nogo_d","1",""
"null","","html-keyboard-response","643","951856","0.0-8.0-2.20","","<div style=""font-size:60px;"">+</div>","null","","","","","","",""
"null","","image-keyboard-response","644","953357","0.0-8.0-0.21","","img/green.png","null","trial","null","true","0.2,0.8","2:nogo_b","",""
"null","","html-keyboard-response","645","954359","0.0-8.0-1.21","","<img src=""img/green-r.png"">","null","trial","null","","0.2,0.8","2:nogo_b","1",""
"null","","html-keyboard-response","646","955360","0.0-8.0-2.21","","<div style=""font-size:60px;"">+</div>","null","","","","","","",""
"1039.1000001691282","","image-keyboard-response","647","956400","0.0-8.0-0.22","","img/yellow.png","32","trial","32","true","0.8,0.2","1:go_a","",""
"null","","html-keyboard-response","648","957401","0.0-8.0-1.22","","<img src=""img/yellow-n.png"" border=""10"">","null","trial","32","","0.8,0.2","1:go_a","0",""
"null","","html-keyboard-response","649","958402","0.0-8.0-2.22","","<div style=""font-size:60px;"">+</div>","null","","","","","","",""
"373.3949998859316","","image-keyboard-response","650","958776","0.0-8.0-0.23","","img/purple.png","32","trial","32","true","1,0","3:go_c","",""
"null","","html-keyboard-response","651","959778","0.0-8.0-1.23","","<img src=""img/purple-r.png"" border=""10"">","null","trial","32","","1,0","3:go_c","1",""
"null","","html-keyboard-response","652","960779","0.0-8.0-2.23","","<div style=""font-size:60px;"">+</div>","null","","","","","","",""
"null","","image-keyboard-response","653","962280","0.0-8.0-0.24","","img/green.png","null","trial","null","true","0.2,0.8","2:nogo_b","",""
"null","","html-keyboard-response","654","963282","0.0-8.0-1.24","","<img src=""img/green-r.png"">","null","trial","null","","0.2,0.8","2:nogo_b","1",""
"null","","html-keyboard-response","655","964283","0.0-8.0-2.24","","<div style=""font-size:60px;"">+</div>","null","","","","","","",""
"649.8000000137836","","image-keyboard-response","656","964933","0.0-8.0-0.25","","img/purple.png","32","trial","32","true","1,0","3:go_c","",""
"null","","html-keyboard-response","657","965935","0.0-8.0-1.25","","<img src=""img/purple-r.png"" border=""10"">","null","trial","32","","1,0","3:go_c","1",""
"null","","html-keyboard-response","658","966937","0.0-8.0-2.25","","<div style=""font-size:60px;"">+</div>","null","","","","","","",""
"null","","image-keyboard-response","659","968439","0.0-8.0-0.26","","img/red.png","null","trial","null","true","0,1","4:nogo_d","",""
"null","","html-keyboard-response","660","969441","0.0-8.0-1.26","","<img src=""img/red-r.png"">","null","trial","null","","0,1","4:nogo_d","1",""
"null","","html-keyboard-response","661","970442","0.0-8.0-2.26","","<div style=""font-size:60px;"">+</div>","null","","","","","","",""
"null","","image-keyboard-response","662","971944","0.0-8.0-0.27","","img/yellow.png","null","trial","32","false","0.8,0.2","1:go_a","",""
"null","","html-keyboard-response","663","972945","0.0-8.0-1.27","","<img src=""img/yellow-r.png"">","null","trial","32","","0.8,0.2","1:go_a","1",""
"null","","html-keyboard-response","664","973946","0.0-8.0-2.27","","<div style=""font-size:60px;"">+</div>","null","","","","","","",""
"null","","image-keyboard-response","665","975448","0.0-8.0-0.28","","img/yellow.png","null","trial","32","false","0.8,0.2","1:go_a","",""
"null","","html-keyboard-response","666","976451","0.0-8.0-1.28","","<img src=""img/yellow-n.png"">","null","trial","32","","0.8,0.2","1:go_a","0",""
"null","","html-keyboard-response","667","977452","0.0-8.0-2.28","","<div style=""font-size:60px;"">+</div>","null","","","","","","",""
"null","","image-keyboard-response","668","978953","0.0-8.0-0.29","","img/red.png","null","trial","null","true","0,1","4:nogo_d","",""
"null","","html-keyboard-response","669","979954","0.0-8.0-1.29","","<img src=""img/red-r.png"">","null","trial","null","","0,1","4:nogo_d","1",""
"null","","html-keyboard-response","670","980957","0.0-8.0-2.29","","<div style=""font-size:60px;"">+</div>","null","","","","","","",""
"null","","image-keyboard-response","671","982458","0.0-8.0-0.30","","img/green.png","null","trial","null","true","0.2,0.8","2:nogo_b","",""
"null","","html-keyboard-response","672","983459","0.0-8.0-1.30","","<img src=""img/green-r.png"">","null","trial","null","","0.2,0.8","2:nogo_b","1",""
"null","","html-keyboard-response","673","984462","0.0-8.0-2.30","","<div style=""font-size:60px;"">+</div>","null","","","","","","",""
"352.9199999757111","","image-keyboard-response","674","984815","0.0-8.0-0.31","","img/purple.png","32","trial","32","true","1,0","3:go_c","",""
"null","","html-keyboard-response","675","985817","0.0-8.0-1.31","","<img src=""img/purple-r.png"" border=""10"">","null","trial","32","","1,0","3:go_c","1",""
"null","","html-keyboard-response","676","986819","0.0-8.0-2.31","","<div style=""font-size:60px;"">+</div>","null","","","","","","",""
"null","","image-keyboard-response","677","988321","0.0-8.0-0.32","","img/yellow.png","null","trial","32","false","0.8,0.2","1:go_a","",""
"null","","html-keyboard-response","678","989322","0.0-8.0-1.32","","<img src=""img/yellow-r.png"">","null","trial","32","","0.8,0.2","1:go_a","1",""
"null","","html-keyboard-response","679","990323","0.0-8.0-2.32","","<div style=""font-size:60px;"">+</div>","null","","","","","","",""
