"rt","url","trial_type","trial_index","time_elapsed","internal_node_id","view_history","stimulus","key_press","test_part","correct_response","correct","use_rew","which_stim","reward","responses"
"3111.1450000316836","consent.html","external-html","0","3227","0.0-0.0","","","","","","","","","",""
"80905.31999996165","","instructions","1","84134","0.0-1.0","[{""page_index"":0,""viewing_time"":3155.294999945909},{""page_index"":1,""viewing_time"":17071.665000054054},{""page_index"":2,""viewing_time"":5724.199999996927},{""page_index"":3,""viewing_time"":22571.784999978263},{""page_index"":4,""viewing_time"":14272.475000005215},{""page_index"":5,""viewing_time"":6693.6250000144355},{""page_index"":6,""viewing_time"":11414.384999952745}]","","","","","","","","",""
"null","","image-keyboard-response","2","85638","0.0-2.0-0.0","","img/test3.PNG","null","practice","null","true","","","",""
"null","","html-keyboard-response","3","86652","0.0-2.0-1.0","","<img src=""img/test3-reward.PNG"">","null","","","","","","",""
"null","","html-keyboard-response","4","87658","0.0-2.0-2.0","","<div style=""font-size:60px;"">+</div>","null","","","","","","",""
"585.2049999521114","","image-keyboard-response","5","88244","0.0-2.0-0.1","","img/test1.PNG","32","practice","32","true","","","",""
"null","","html-keyboard-response","6","89258","0.0-2.0-1.1","","<img src=""img/test1-reward.PNG"" border=""10px; grey"">","null","","","","","","",""
"null","","html-keyboard-response","7","90272","0.0-2.0-2.1","","<div style=""font-size:60px;"">+</div>","null","","","","","","",""
"null","","image-keyboard-response","8","91785","0.0-2.0-0.2","","img/test2.PNG","null","practice","null","true","","","",""
"null","","html-keyboard-response","9","92798","0.0-2.0-1.2","","<img src=""img/test2-reward.PNG"">","null","","","","","","",""
"null","","html-keyboard-response","10","93803","0.0-2.0-2.2","","<div style=""font-size:60px;"">+</div>","null","","","","","","",""
"477.5149999768473","","image-keyboard-response","11","94282","0.0-2.0-0.3","","img/test1.PNG","32","practice","32","true","","","",""
"null","","html-keyboard-response","12","95288","0.0-2.0-1.3","","<img src=""img/test1-reward.PNG"" border=""10px; grey"">","null","","","","","","",""
"null","","html-keyboard-response","13","96293","0.0-2.0-2.3","","<div style=""font-size:60px;"">+</div>","null","","","","","","",""
"null","","image-keyboard-response","14","97808","0.0-2.0-0.4","","img/test3.PNG","null","practice","null","true","","","",""
"null","","html-keyboard-response","15","98819","0.0-2.0-1.4","","<img src=""img/test3-reward.PNG"">","null","","","","","","",""
"null","","html-keyboard-response","16","99820","0.0-2.0-2.4","","<div style=""font-size:60px;"">+</div>","null","","","","","","",""
"null","","image-keyboard-response","17","101330","0.0-2.0-0.5","","img/test2.PNG","null","practice","null","true","","","",""
"null","","html-keyboard-response","18","102344","0.0-2.0-1.5","","<img src=""img/test2-reward.PNG"">","null","","","","","","",""
"null","","html-keyboard-response","19","103347","0.0-2.0-2.5","","<div style=""font-size:60px;"">+</div>","null","","","","","","",""
"null","","image-keyboard-response","20","104860","0.0-2.0-0.6","","img/test3.PNG","null","practice","null","true","","","",""
"null","","html-keyboard-response","21","105866","0.0-2.0-1.6","","<img src=""img/test3-reward.PNG"">","null","","","","","","",""
"null","","html-keyboard-response","22","106881","0.0-2.0-2.6","","<div style=""font-size:60px;"">+</div>","null","","","","","","",""
"418.47500001313165","","image-keyboard-response","23","107301","0.0-2.0-0.7","","img/test1.PNG","32","practice","32","true","","","",""
"null","","html-keyboard-response","24","108314","0.0-2.0-1.7","","<img src=""img/test1-reward.PNG"" border=""10px; grey"">","null","","","","","","",""
"null","","html-keyboard-response","25","109315","0.0-2.0-2.7","","<div style=""font-size:60px;"">+</div>","null","","","","","","",""
"null","","image-keyboard-response","26","110819","0.0-2.0-0.8","","img/test2.PNG","null","practice","null","true","","","",""
"null","","html-keyboard-response","27","111822","0.0-2.0-1.8","","<img src=""img/test2-reward.PNG"">","null","","","","","","",""
"null","","html-keyboard-response","28","112823","0.0-2.0-2.8","","<div style=""font-size:60px;"">+</div>","null","","","","","","",""
"null","","image-keyboard-response","29","114324","0.0-2.0-0.9","","img/test3.PNG","null","practice","null","true","","","",""
"null","","html-keyboard-response","30","115341","0.0-2.0-1.9","","<img src=""img/test3-reward.PNG"">","null","","","","","","",""
"null","","html-keyboard-response","31","116342","0.0-2.0-2.9","","<div style=""font-size:60px;"">+</div>","null","","","","","","",""
"525.3099999972619","","image-keyboard-response","32","116868","0.0-2.0-0.10","","img/test1.PNG","32","practice","32","true","","","",""
"null","","html-keyboard-response","33","117874","0.0-2.0-1.10","","<img src=""img/test1-reward.PNG"" border=""10px; grey"">","null","","","","","","",""
"null","","html-keyboard-response","34","118876","0.0-2.0-2.10","","<div style=""font-size:60px;"">+</div>","null","","","","","","",""
"null","","image-keyboard-response","35","120381","0.0-2.0-0.11","","img/test2.PNG","null","practice","null","true","","","",""
"null","","html-keyboard-response","36","121390","0.0-2.0-1.11","","<img src=""img/test2-reward.PNG"">","null","","","","","","",""
"null","","html-keyboard-response","37","122398","0.0-2.0-2.11","","<div style=""font-size:60px;"">+</div>","null","","","","","","",""
"3004.9899999867193","","instructions","38","125404","0.0-3.0","[{""page_index"":0,""viewing_time"":3004.7499999636784}]","","","","","","","","",""
"897.1349999774247","","image-keyboard-response","39","126302","0.0-4.0-0.0","","img/blue.png","32","trial","null","false","0.2,0.8","2:nogo_b","",""
"null","","html-keyboard-response","40","127317","0.0-4.0-1.0","","<img src=""img/blue-n.png"" border=""10"">","null","trial","null","","0.2,0.8","2:nogo_b","0",""
"null","","html-keyboard-response","41","128330","0.0-4.0-2.0","","<div style=""font-size:60px;"">+</div>","null","","","","","","",""
"510.52499999059364","","image-keyboard-response","42","128842","0.0-4.0-0.1","","img/yellow.png","32","trial","32","true","0.8,0.2","1:go_a","",""
"null","","html-keyboard-response","43","129846","0.0-4.0-1.1","","<img src=""img/yellow-r.png"" border=""10"">","null","trial","32","","0.8,0.2","1:go_a","1",""
"null","","html-keyboard-response","44","130855","0.0-4.0-2.1","","<div style=""font-size:60px;"">+</div>","null","","","","","","",""
"566.8099999893457","","image-keyboard-response","45","131423","0.0-4.0-0.2","","img/yellow.png","32","trial","32","true","0.8,0.2","1:go_a","",""
"null","","html-keyboard-response","46","132427","0.0-4.0-1.2","","<img src=""img/yellow-n.png"" border=""10"">","null","trial","32","","0.8,0.2","1:go_a","0",""
"null","","html-keyboard-response","47","133439","0.0-4.0-2.2","","<div style=""font-size:60px;"">+</div>","null","","","","","","",""
"532.2049999958836","","image-keyboard-response","48","133972","0.0-4.0-0.3","","img/blue.png","32","trial","null","false","0.2,0.8","2:nogo_b","",""
"null","","html-keyboard-response","49","134983","0.0-4.0-1.3","","<img src=""img/blue-n.png"" border=""10"">","null","trial","null","","0.2,0.8","2:nogo_b","0",""
"null","","html-keyboard-response","50","135987","0.0-4.0-2.3","","<div style=""font-size:60px;"">+</div>","null","","","","","","",""
"541.6199999745004","","image-keyboard-response","51","136530","0.0-4.0-0.4","","img/yellow.png","32","trial","32","true","0.8,0.2","1:go_a","",""
"null","","html-keyboard-response","52","137543","0.0-4.0-1.4","","<img src=""img/yellow-r.png"" border=""10"">","null","trial","32","","0.8,0.2","1:go_a","1",""
"null","","html-keyboard-response","53","138550","0.0-4.0-2.4","","<div style=""font-size:60px;"">+</div>","null","","","","","","",""
"423.25999995227903","","image-keyboard-response","54","138974","0.0-4.0-0.5","","img/blue.png","32","trial","null","false","0.2,0.8","2:nogo_b","",""
"null","","html-keyboard-response","55","139985","0.0-4.0-1.5","","<img src=""img/blue-n.png"" border=""10"">","null","trial","null","","0.2,0.8","2:nogo_b","0",""
"null","","html-keyboard-response","56","140996","0.0-4.0-2.5","","<div style=""font-size:60px;"">+</div>","null","","","","","","",""
"487.54500003997236","","image-keyboard-response","57","141485","0.0-4.0-0.6","","img/yellow.png","32","trial","32","true","0.8,0.2","1:go_a","",""
"null","","html-keyboard-response","58","142487","0.0-4.0-1.6","","<img src=""img/yellow-r.png"" border=""10"">","null","trial","32","","0.8,0.2","1:go_a","1",""
"null","","html-keyboard-response","59","143493","0.0-4.0-2.6","","<div style=""font-size:60px;"">+</div>","null","","","","","","",""
"676.1350000160746","","image-keyboard-response","60","144170","0.0-4.0-0.7","","img/blue.png","32","trial","null","false","0.2,0.8","2:nogo_b","",""
"null","","html-keyboard-response","61","145181","0.0-4.0-1.7","","<img src=""img/blue-n.png"" border=""10"">","null","trial","null","","0.2,0.8","2:nogo_b","0",""
"null","","html-keyboard-response","62","146189","0.0-4.0-2.7","","<div style=""font-size:60px;"">+</div>","null","","","","","","",""
"367.8999999538064","","image-keyboard-response","63","146558","0.0-4.0-0.8","","img/yellow.png","32","trial","32","true","0.8,0.2","1:go_a","",""
"null","","html-keyboard-response","64","147569","0.0-4.0-1.8","","<img src=""img/yellow-r.png"" border=""10"">","null","trial","32","","0.8,0.2","1:go_a","1",""
"null","","html-keyboard-response","65","148581","0.0-4.0-2.8","","<div style=""font-size:60px;"">+</div>","null","","","","","","",""
"406.4950000029057","","image-keyboard-response","66","148988","0.0-4.0-0.9","","img/blue.png","32","trial","null","false","0.2,0.8","2:nogo_b","",""
"null","","html-keyboard-response","67","149993","0.0-4.0-1.9","","<img src=""img/blue-n.png"" border=""10"">","null","trial","null","","0.2,0.8","2:nogo_b","0",""
"null","","html-keyboard-response","68","151007","0.0-4.0-2.9","","<div style=""font-size:60px;"">+</div>","null","","","","","","",""
"358.61500003375113","","image-keyboard-response","69","151366","0.0-4.0-0.10","","img/blue.png","32","trial","null","false","0.2,0.8","2:nogo_b","",""
"null","","html-keyboard-response","70","152376","0.0-4.0-1.10","","<img src=""img/blue-n.png"" border=""10"">","null","trial","null","","0.2,0.8","2:nogo_b","0",""
"null","","html-keyboard-response","71","153384","0.0-4.0-2.10","","<div style=""font-size:60px;"">+</div>","null","","","","","","",""
"407.3649999918416","","image-keyboard-response","72","153793","0.0-4.0-0.11","","img/yellow.png","32","trial","32","true","0.8,0.2","1:go_a","",""
"null","","html-keyboard-response","73","154801","0.0-4.0-1.11","","<img src=""img/yellow-r.png"" border=""10"">","null","trial","32","","0.8,0.2","1:go_a","1",""
"null","","html-keyboard-response","74","155810","0.0-4.0-2.11","","<div style=""font-size:60px;"">+</div>","null","","","","","","",""
"484.21999998390675","","image-keyboard-response","75","156295","0.0-4.0-0.12","","img/yellow.png","32","trial","32","true","0.8,0.2","1:go_a","",""
"null","","html-keyboard-response","76","157303","0.0-4.0-1.12","","<img src=""img/yellow-n.png"" border=""10"">","null","trial","32","","0.8,0.2","1:go_a","0",""
"null","","html-keyboard-response","77","158313","0.0-4.0-2.12","","<div style=""font-size:60px;"">+</div>","null","","","","","","",""
"386.6450000205077","","image-keyboard-response","78","158701","0.0-4.0-0.13","","img/blue.png","32","trial","null","false","0.2,0.8","2:nogo_b","",""
"null","","html-keyboard-response","79","159709","0.0-4.0-1.13","","<img src=""img/blue-n.png"" border=""10"">","null","trial","null","","0.2,0.8","2:nogo_b","0",""
"null","","html-keyboard-response","80","160722","0.0-4.0-2.13","","<div style=""font-size:60px;"">+</div>","null","","","","","","",""
"397.64999999897555","","image-keyboard-response","81","161120","0.0-4.0-0.14","","img/blue.png","32","trial","null","false","0.2,0.8","2:nogo_b","",""
"null","","html-keyboard-response","82","162122","0.0-4.0-1.14","","<img src=""img/blue-n.png"" border=""10"">","null","trial","null","","0.2,0.8","2:nogo_b","0",""
"null","","html-keyboard-response","83","163131","0.0-4.0-2.14","","<div style=""font-size:60px;"">+</div>","null","","","","","","",""
"459.6550000132993","","image-keyboard-response","84","163591","0.0-4.0-0.15","","img/yellow.png","32","trial","32","true","0.8,0.2","1:go_a","",""
"null","","html-keyboard-response","85","164597","0.0-4.0-1.15","","<img src=""img/yellow-r.png"" border=""10"">","null","trial","32","","0.8,0.2","1:go_a","1",""
"null","","html-keyboard-response","86","165614","0.0-4.0-2.15","","<div style=""font-size:60px;"">+</div>","null","","","","","","",""
"384.4999999855645","","image-keyboard-response","87","165999","0.0-4.0-0.16","","img/yellow.png","32","trial","32","true","0.8,0.2","1:go_a","",""
"null","","html-keyboard-response","88","167012","0.0-4.0-1.16","","<img src=""img/yellow-r.png"" border=""10"">","null","trial","32","","0.8,0.2","1:go_a","1",""
"null","","html-keyboard-response","89","168017","0.0-4.0-2.16","","<div style=""font-size:60px;"">+</div>","null","","","","","","",""
"438.8700000126846","","image-keyboard-response","90","168457","0.0-4.0-0.17","","img/blue.png","32","trial","null","false","0.2,0.8","2:nogo_b","",""
"null","","html-keyboard-response","91","169466","0.0-4.0-1.17","","<img src=""img/blue-n.png"" border=""10"">","null","trial","null","","0.2,0.8","2:nogo_b","0",""
"null","","html-keyboard-response","92","170471","0.0-4.0-2.17","","<div style=""font-size:60px;"">+</div>","null","","","","","","",""
"398.5499999835156","","image-keyboard-response","93","170870","0.0-4.0-0.18","","img/blue.png","32","trial","null","false","0.2,0.8","2:nogo_b","",""
"null","","html-keyboard-response","94","171884","0.0-4.0-1.18","","<img src=""img/blue-n.png"" border=""10"">","null","trial","null","","0.2,0.8","2:nogo_b","0",""
"null","","html-keyboard-response","95","172894","0.0-4.0-2.18","","<div style=""font-size:60px;"">+</div>","null","","","","","","",""
"409.2650000238791","","image-keyboard-response","96","173304","0.0-4.0-0.19","","img/yellow.png","32","trial","32","true","0.8,0.2","1:go_a","",""
"null","","html-keyboard-response","97","174325","0.0-4.0-1.19","","<img src=""img/yellow-n.png"" border=""10"">","null","trial","32","","0.8,0.2","1:go_a","0",""
"null","","html-keyboard-response","98","175336","0.0-4.0-2.19","","<div style=""font-size:60px;"">+</div>","null","","","","","","",""
"392.77500001480803","","image-keyboard-response","99","175731","0.0-4.0-0.20","","img/blue.png","32","trial","null","false","0.2,0.8","2:nogo_b","",""
"null","","html-keyboard-response","100","176738","0.0-4.0-1.20","","<img src=""img/blue-n.png"" border=""10"">","null","trial","null","","0.2,0.8","2:nogo_b","0",""
"null","","html-keyboard-response","101","177746","0.0-4.0-2.20","","<div style=""font-size:60px;"">+</div>","null","","","","","","",""
"333.09999998891726","","image-keyboard-response","102","178080","0.0-4.0-0.21","","img/yellow.png","32","trial","32","true","0.8,0.2","1:go_a","",""
"null","","html-keyboard-response","103","179093","0.0-4.0-1.21","","<img src=""img/yellow-r.png"" border=""10"">","null","trial","32","","0.8,0.2","1:go_a","1",""
"null","","html-keyboard-response","104","180109","0.0-4.0-2.21","","<div style=""font-size:60px;"">+</div>","null","","","","","","",""
"452.16500002425164","","image-keyboard-response","105","180562","0.0-4.0-0.22","","img/yellow.png","32","trial","32","true","0.8,0.2","1:go_a","",""
"null","","html-keyboard-response","106","181567","0.0-4.0-1.22","","<img src=""img/yellow-r.png"" border=""10"">","null","trial","32","","0.8,0.2","1:go_a","1",""
"null","","html-keyboard-response","107","182580","0.0-4.0-2.22","","<div style=""font-size:60px;"">+</div>","null","","","","","","",""
"443.3650000137277","","image-keyboard-response","108","183025","0.0-4.0-0.23","","img/blue.png","32","trial","null","false","0.2,0.8","2:nogo_b","",""
"null","","html-keyboard-response","109","184038","0.0-4.0-1.23","","<img src=""img/blue-n.png"" border=""10"">","null","trial","null","","0.2,0.8","2:nogo_b","0",""
"null","","html-keyboard-response","110","185047","0.0-4.0-2.23","","<div style=""font-size:60px;"">+</div>","null","","","","","","",""
"396.4350000023842","","image-keyboard-response","111","185445","0.0-4.0-0.24","","img/yellow.png","32","trial","32","true","0.8,0.2","1:go_a","",""
"null","","html-keyboard-response","112","186447","0.0-4.0-1.24","","<img src=""img/yellow-r.png"" border=""10"">","null","trial","32","","0.8,0.2","1:go_a","1",""
"null","","html-keyboard-response","113","187463","0.0-4.0-2.24","","<div style=""font-size:60px;"">+</div>","null","","","","","","",""
"396.98499999940395","","image-keyboard-response","114","187861","0.0-4.0-0.25","","img/blue.png","32","trial","null","false","0.2,0.8","2:nogo_b","",""
"null","","html-keyboard-response","115","188875","0.0-4.0-1.25","","<img src=""img/blue-n.png"" border=""10"">","null","trial","null","","0.2,0.8","2:nogo_b","0",""
"null","","html-keyboard-response","116","189891","0.0-4.0-2.25","","<div style=""font-size:60px;"">+</div>","null","","","","","","",""
"380.77499996870756","","image-keyboard-response","117","190273","0.0-4.0-0.26","","img/yellow.png","32","trial","32","true","0.8,0.2","1:go_a","",""
"null","","html-keyboard-response","118","191282","0.0-4.0-1.26","","<img src=""img/yellow-r.png"" border=""10"">","null","trial","32","","0.8,0.2","1:go_a","1",""
"null","","html-keyboard-response","119","192292","0.0-4.0-2.26","","<div style=""font-size:60px;"">+</div>","null","","","","","","",""
"394.0800000564195","","image-keyboard-response","120","192687","0.0-4.0-0.27","","img/blue.png","32","trial","null","false","0.2,0.8","2:nogo_b","",""
"null","","html-keyboard-response","121","193690","0.0-4.0-1.27","","<img src=""img/blue-n.png"" border=""10"">","null","trial","null","","0.2,0.8","2:nogo_b","0",""
"null","","html-keyboard-response","122","194704","0.0-4.0-2.27","","<div style=""font-size:60px;"">+</div>","null","","","","","","",""
"362.3950000037439","","image-keyboard-response","123","195067","0.0-4.0-0.28","","img/yellow.png","32","trial","32","true","0.8,0.2","1:go_a","",""
"null","","html-keyboard-response","124","196086","0.0-4.0-1.28","","<img src=""img/yellow-r.png"" border=""10"">","null","trial","32","","0.8,0.2","1:go_a","1",""
"null","","html-keyboard-response","125","197099","0.0-4.0-2.28","","<div style=""font-size:60px;"">+</div>","null","","","","","","",""
"439.9649999686517","","image-keyboard-response","126","197540","0.0-4.0-0.29","","img/blue.png","32","trial","null","false","0.2,0.8","2:nogo_b","",""
"null","","html-keyboard-response","127","198548","0.0-4.0-1.29","","<img src=""img/blue-r.png"" border=""10"">","null","trial","null","","0.2,0.8","2:nogo_b","1",""
"null","","html-keyboard-response","128","199553","0.0-4.0-2.29","","<div style=""font-size:60px;"">+</div>","null","","","","","","",""
"316.9750000233762","","image-keyboard-response","129","199871","0.0-4.0-0.30","","img/yellow.png","32","trial","32","true","0.8,0.2","1:go_a","",""
"null","","html-keyboard-response","130","200882","0.0-4.0-1.30","","<img src=""img/yellow-r.png"" border=""10"">","null","trial","32","","0.8,0.2","1:go_a","1",""
"null","","html-keyboard-response","131","201891","0.0-4.0-2.30","","<div style=""font-size:60px;"">+</div>","null","","","","","","",""
"412.3600000166334","","image-keyboard-response","132","202304","0.0-4.0-0.31","","img/blue.png","32","trial","null","false","0.2,0.8","2:nogo_b","",""
"null","","html-keyboard-response","133","203309","0.0-4.0-1.31","","<img src=""img/blue-n.png"" border=""10"">","null","trial","null","","0.2,0.8","2:nogo_b","0",""
"null","","html-keyboard-response","134","204320","0.0-4.0-2.31","","<div style=""font-size:60px;"">+</div>","null","","","","","","",""
"403.59499998157844","","image-keyboard-response","135","204725","0.0-4.0-0.32","","img/yellow.png","32","trial","32","true","0.8,0.2","1:go_a","",""
"null","","html-keyboard-response","136","205728","0.0-4.0-1.32","","<img src=""img/yellow-r.png"" border=""10"">","null","trial","32","","0.8,0.2","1:go_a","1",""
"null","","html-keyboard-response","137","206737","0.0-4.0-2.32","","<div style=""font-size:60px;"">+</div>","null","","","","","","",""
"379.12499997764826","","image-keyboard-response","138","207117","0.0-4.0-0.33","","img/blue.png","32","trial","null","false","0.2,0.8","2:nogo_b","",""
"null","","html-keyboard-response","139","208124","0.0-4.0-1.33","","<img src=""img/blue-n.png"" border=""10"">","null","trial","null","","0.2,0.8","2:nogo_b","0",""
"null","","html-keyboard-response","140","209132","0.0-4.0-2.33","","<div style=""font-size:60px;"">+</div>","null","","","","","","",""
"421.64000001503155","","image-keyboard-response","141","209554","0.0-4.0-0.34","","img/blue.png","32","trial","null","false","0.2,0.8","2:nogo_b","",""
"null","","html-keyboard-response","142","210563","0.0-4.0-1.34","","<img src=""img/blue-r.png"" border=""10"">","null","trial","null","","0.2,0.8","2:nogo_b","1",""
"null","","html-keyboard-response","143","211566","0.0-4.0-2.34","","<div style=""font-size:60px;"">+</div>","null","","","","","","",""
"396.8750000349246","","image-keyboard-response","144","211964","0.0-4.0-0.35","","img/yellow.png","32","trial","32","true","0.8,0.2","1:go_a","",""
"null","","html-keyboard-response","145","212978","0.0-4.0-1.35","","<img src=""img/yellow-n.png"" border=""10"">","null","trial","32","","0.8,0.2","1:go_a","0",""
"null","","html-keyboard-response","146","213985","0.0-4.0-2.35","","<div style=""font-size:60px;"">+</div>","null","","","","","","",""
"396.98499999940395","","image-keyboard-response","147","214383","0.0-4.0-0.36","","img/yellow.png","32","trial","32","true","0.8,0.2","1:go_a","",""
"null","","html-keyboard-response","148","215388","0.0-4.0-1.36","","<img src=""img/yellow-r.png"" border=""10"">","null","trial","32","","0.8,0.2","1:go_a","1",""
"null","","html-keyboard-response","149","216398","0.0-4.0-2.36","","<div style=""font-size:60px;"">+</div>","null","","","","","","",""
"357.3100000503473","","image-keyboard-response","150","216756","0.0-4.0-0.37","","img/blue.png","32","trial","null","false","0.2,0.8","2:nogo_b","",""
"null","","html-keyboard-response","151","217764","0.0-4.0-1.37","","<img src=""img/blue-n.png"" border=""10"">","null","trial","null","","0.2,0.8","2:nogo_b","0",""
"null","","html-keyboard-response","152","218777","0.0-4.0-2.37","","<div style=""font-size:60px;"">+</div>","null","","","","","","",""
"374.2150000180118","","image-keyboard-response","153","219152","0.0-4.0-0.38","","img/yellow.png","32","trial","32","true","0.8,0.2","1:go_a","",""
"null","","html-keyboard-response","154","220158","0.0-4.0-1.38","","<img src=""img/yellow-r.png"" border=""10"">","null","trial","32","","0.8,0.2","1:go_a","1",""
"null","","html-keyboard-response","155","221175","0.0-4.0-2.38","","<div style=""font-size:60px;"">+</div>","null","","","","","","",""
"null","","image-keyboard-response","156","222692","0.0-4.0-0.39","","img/blue.png","null","trial","null","true","0.2,0.8","2:nogo_b","",""
"null","","html-keyboard-response","157","223702","0.0-4.0-1.39","","<img src=""img/blue-r.png"">","null","trial","null","","0.2,0.8","2:nogo_b","1",""
"null","","html-keyboard-response","158","224710","0.0-4.0-2.39","","<div style=""font-size:60px;"">+</div>","null","","","","","","",""
"421.10999999567866","","image-keyboard-response","159","225132","0.0-4.0-0.40","","img/yellow.png","32","trial","32","true","0.8,0.2","1:go_a","",""
"null","","html-keyboard-response","160","226142","0.0-4.0-1.40","","<img src=""img/yellow-n.png"" border=""10"">","null","trial","32","","0.8,0.2","1:go_a","0",""
"null","","html-keyboard-response","161","227144","0.0-4.0-2.40","","<div style=""font-size:60px;"">+</div>","null","","","","","","",""
"427.3549999925308","","image-keyboard-response","162","227572","0.0-4.0-0.41","","img/blue.png","32","trial","null","false","0.2,0.8","2:nogo_b","",""
"null","","html-keyboard-response","163","228583","0.0-4.0-1.41","","<img src=""img/blue-n.png"" border=""10"">","null","trial","null","","0.2,0.8","2:nogo_b","0",""
"null","","html-keyboard-response","164","229584","0.0-4.0-2.41","","<div style=""font-size:60px;"">+</div>","null","","","","","","",""
"464.94999999413267","","image-keyboard-response","165","230050","0.0-4.0-0.42","","img/blue.png","32","trial","null","false","0.2,0.8","2:nogo_b","",""
"null","","html-keyboard-response","166","231067","0.0-4.0-1.42","","<img src=""img/blue-n.png"" border=""10"">","null","trial","null","","0.2,0.8","2:nogo_b","0",""
"null","","html-keyboard-response","167","232077","0.0-4.0-2.42","","<div style=""font-size:60px;"">+</div>","null","","","","","","",""
"463.6999999638647","","image-keyboard-response","168","232541","0.0-4.0-0.43","","img/yellow.png","32","trial","32","true","0.8,0.2","1:go_a","",""
"null","","html-keyboard-response","169","233555","0.0-4.0-1.43","","<img src=""img/yellow-r.png"" border=""10"">","null","trial","32","","0.8,0.2","1:go_a","1",""
"null","","html-keyboard-response","170","234563","0.0-4.0-2.43","","<div style=""font-size:60px;"">+</div>","null","","","","","","",""
"350.8449999499135","","image-keyboard-response","171","234916","0.0-4.0-0.44","","img/blue.png","32","trial","null","false","0.2,0.8","2:nogo_b","",""
"null","","html-keyboard-response","172","235919","0.0-4.0-1.44","","<img src=""img/blue-n.png"" border=""10"">","null","trial","null","","0.2,0.8","2:nogo_b","0",""
"null","","html-keyboard-response","173","236934","0.0-4.0-2.44","","<div style=""font-size:60px;"">+</div>","null","","","","","","",""
"375.9100000024773","","image-keyboard-response","174","237311","0.0-4.0-0.45","","img/yellow.png","32","trial","32","true","0.8,0.2","1:go_a","",""
"null","","html-keyboard-response","175","238312","0.0-4.0-1.45","","<img src=""img/yellow-r.png"" border=""10"">","null","trial","32","","0.8,0.2","1:go_a","1",""
"null","","html-keyboard-response","176","239315","0.0-4.0-2.45","","<div style=""font-size:60px;"">+</div>","null","","","","","","",""
"null","","image-keyboard-response","177","240830","0.0-4.0-0.46","","img/blue.png","null","trial","null","true","0.2,0.8","2:nogo_b","",""
"null","","html-keyboard-response","178","241832","0.0-4.0-1.46","","<img src=""img/blue-n.png"">","null","trial","null","","0.2,0.8","2:nogo_b","0",""
"null","","html-keyboard-response","179","242834","0.0-4.0-2.46","","<div style=""font-size:60px;"">+</div>","null","","","","","","",""
"518.9050000044517","","image-keyboard-response","180","243354","0.0-4.0-0.47","","img/yellow.png","32","trial","32","true","0.8,0.2","1:go_a","",""
"null","","html-keyboard-response","181","244367","0.0-4.0-1.47","","<img src=""img/yellow-n.png"" border=""10"">","null","trial","32","","0.8,0.2","1:go_a","0",""
"null","","html-keyboard-response","182","245375","0.0-4.0-2.47","","<div style=""font-size:60px;"">+</div>","null","","","","","","",""
"null","","image-keyboard-response","183","246882","0.0-4.0-0.48","","img/blue.png","null","trial","null","true","0.2,0.8","2:nogo_b","",""
"null","","html-keyboard-response","184","247891","0.0-4.0-1.48","","<img src=""img/blue-r.png"">","null","trial","null","","0.2,0.8","2:nogo_b","1",""
"null","","html-keyboard-response","185","248907","0.0-4.0-2.48","","<div style=""font-size:60px;"">+</div>","null","","","","","","",""
"462.4900000053458","","image-keyboard-response","186","249370","0.0-4.0-0.49","","img/yellow.png","32","trial","32","true","0.8,0.2","1:go_a","",""
"null","","html-keyboard-response","187","250387","0.0-4.0-1.49","","<img src=""img/yellow-r.png"" border=""10"">","null","trial","32","","0.8,0.2","1:go_a","1",""
"null","","html-keyboard-response","188","251391","0.0-4.0-2.49","","<div style=""font-size:60px;"">+</div>","null","","","","","","",""
"442.91499996325","","image-keyboard-response","189","251835","0.0-4.0-0.50","","img/yellow.png","32","trial","32","true","0.8,0.2","1:go_a","",""
"null","","html-keyboard-response","190","252838","0.0-4.0-1.50","","<img src=""img/yellow-r.png"" border=""10"">","null","trial","32","","0.8,0.2","1:go_a","1",""
"null","","html-keyboard-response","191","253859","0.0-4.0-2.50","","<div style=""font-size:60px;"">+</div>","null","","","","","","",""
"578.7400000263005","","image-keyboard-response","192","254439","0.0-4.0-0.51","","img/blue.png","32","trial","null","false","0.2,0.8","2:nogo_b","",""
"null","","html-keyboard-response","193","255455","0.0-4.0-1.51","","<img src=""img/blue-n.png"" border=""10"">","null","trial","null","","0.2,0.8","2:nogo_b","0",""
"null","","html-keyboard-response","194","256470","0.0-4.0-2.51","","<div style=""font-size:60px;"">+</div>","null","","","","","","",""
"518.0099999997765","","image-keyboard-response","195","256989","0.0-4.0-0.52","","img/yellow.png","32","trial","32","true","0.8,0.2","1:go_a","",""
"null","","html-keyboard-response","196","258000","0.0-4.0-1.52","","<img src=""img/yellow-r.png"" border=""10"">","null","trial","32","","0.8,0.2","1:go_a","1",""
"null","","html-keyboard-response","197","259002","0.0-4.0-2.52","","<div style=""font-size:60px;"">+</div>","null","","","","","","",""
"446.7850000364706","","image-keyboard-response","198","259449","0.0-4.0-0.53","","img/blue.png","32","trial","null","false","0.2,0.8","2:nogo_b","",""
"null","","html-keyboard-response","199","260457","0.0-4.0-1.53","","<img src=""img/blue-n.png"" border=""10"">","null","trial","null","","0.2,0.8","2:nogo_b","0",""
"null","","html-keyboard-response","200","261460","0.0-4.0-2.53","","<div style=""font-size:60px;"">+</div>","null","","","","","","",""
"367.25000001024455","","image-keyboard-response","201","261828","0.0-4.0-0.54","","img/yellow.png","32","trial","32","true","0.8,0.2","1:go_a","",""
"null","","html-keyboard-response","202","262835","0.0-4.0-1.54","","<img src=""img/yellow-n.png"" border=""10"">","null","trial","32","","0.8,0.2","1:go_a","0",""
"null","","html-keyboard-response","203","263846","0.0-4.0-2.54","","<div style=""font-size:60px;"">+</div>","null","","","","","","",""
"359.27499999525025","","image-keyboard-response","204","264206","0.0-4.0-0.55","","img/blue.png","32","trial","null","false","0.2,0.8","2:nogo_b","",""
"null","","html-keyboard-response","205","265217","0.0-4.0-1.55","","<img src=""img/blue-r.png"" border=""10"">","null","trial","null","","0.2,0.8","2:nogo_b","1",""
"null","","html-keyboard-response","206","266232","0.0-4.0-2.55","","<div style=""font-size:60px;"">+</div>","null","","","","","","",""
"299.68999995617196","","image-keyboard-response","207","266532","0.0-4.0-0.56","","img/blue.png","32","trial","null","false","0.2,0.8","2:nogo_b","",""
"null","","html-keyboard-response","208","267535","0.0-4.0-1.56","","<img src=""img/blue-n.png"" border=""10"">","null","trial","null","","0.2,0.8","2:nogo_b","0",""
"null","","html-keyboard-response","209","268545","0.0-4.0-2.56","","<div style=""font-size:60px;"">+</div>","null","","","","","","",""
"353.5200000042096","","image-keyboard-response","210","268899","0.0-4.0-0.57","","img/yellow.png","32","trial","32","true","0.8,0.2","1:go_a","",""
"null","","html-keyboard-response","211","269908","0.0-4.0-1.57","","<img src=""img/yellow-n.png"" border=""10"">","null","trial","32","","0.8,0.2","1:go_a","0",""
"null","","html-keyboard-response","212","270916","0.0-4.0-2.57","","<div style=""font-size:60px;"">+</div>","null","","","","","","",""
"292.22000000299886","","image-keyboard-response","213","271210","0.0-4.0-0.58","","img/blue.png","32","trial","null","false","0.2,0.8","2:nogo_b","",""
"null","","html-keyboard-response","214","272222","0.0-4.0-1.58","","<img src=""img/blue-n.png"" border=""10"">","null","trial","null","","0.2,0.8","2:nogo_b","0",""
"null","","html-keyboard-response","215","273235","0.0-4.0-2.58","","<div style=""font-size:60px;"">+</div>","null","","","","","","",""
"287.3849999741651","","image-keyboard-response","216","273523","0.0-4.0-0.59","","img/yellow.png","32","trial","32","true","0.8,0.2","1:go_a","",""
"null","","html-keyboard-response","217","274536","0.0-4.0-1.59","","<img src=""img/yellow-r.png"" border=""10"">","null","trial","32","","0.8,0.2","1:go_a","1",""
"null","","html-keyboard-response","218","275538","0.0-4.0-2.59","","<div style=""font-size:60px;"">+</div>","null","","","","","","",""
"2762.7750000101514","","instructions","219","278302","0.0-5.0","[{""page_index"":0,""viewing_time"":2762.5199999893084}]","","","","","","","","",""
"null","","image-keyboard-response","220","279813","0.0-6.0-0.0","","img/blue.png","null","trial","32","false","0.8,0.2","1:go_a","",""
"null","","html-keyboard-response","221","280825","0.0-6.0-1.0","","<img src=""img/blue-n.png"">","null","trial","32","","0.8,0.2","1:go_a","0",""
"null","","html-keyboard-response","222","281829","0.0-6.0-2.0","","<div style=""font-size:60px;"">+</div>","null","","","","","","",""
"542.4500000081025","","image-keyboard-response","223","282372","0.0-6.0-0.1","","img/yellow.png","32","trial","null","false","0,1","4:nogo_d","",""
"null","","html-keyboard-response","224","283378","0.0-6.0-1.1","","<img src=""img/yellow-n.png"" border=""10"">","null","trial","null","","0,1","4:nogo_d","0",""
"null","","html-keyboard-response","225","284389","0.0-6.0-2.1","","<div style=""font-size:60px;"">+</div>","null","","","","","","",""
"675.7800000486895","","image-keyboard-response","226","285066","0.0-6.0-0.2","","img/pink.png","32","trial","null","false","0.2,0.8","2:nogo_b","",""
"null","","html-keyboard-response","227","286069","0.0-6.0-1.2","","<img src=""img/pink-r.png"" border=""10"">","null","trial","null","","0.2,0.8","2:nogo_b","1",""
"null","","html-keyboard-response","228","287076","0.0-6.0-2.2","","<div style=""font-size:60px;"">+</div>","null","","","","","","",""
"577.6499999919906","","image-keyboard-response","229","287655","0.0-6.0-0.3","","img/purple.png","32","trial","32","true","1,0","3:go_c","",""
"null","","html-keyboard-response","230","288660","0.0-6.0-1.3","","<img src=""img/purple-r.png"" border=""10"">","null","trial","32","","1,0","3:go_c","1",""
"null","","html-keyboard-response","231","289661","0.0-6.0-2.3","","<div style=""font-size:60px;"">+</div>","null","","","","","","",""
"442.1299999812618","","image-keyboard-response","232","290104","0.0-6.0-0.4","","img/blue.png","32","trial","32","true","0.8,0.2","1:go_a","",""
"null","","html-keyboard-response","233","291109","0.0-6.0-1.4","","<img src=""img/blue-n.png"" border=""10"">","null","trial","32","","0.8,0.2","1:go_a","0",""
"null","","html-keyboard-response","234","292116","0.0-6.0-2.4","","<div style=""font-size:60px;"">+</div>","null","","","","","","",""
"523.6600000062026","","image-keyboard-response","235","292640","0.0-6.0-0.5","","img/purple.png","32","trial","32","true","1,0","3:go_c","",""
"null","","html-keyboard-response","236","293649","0.0-6.0-1.5","","<img src=""img/purple-r.png"" border=""10"">","null","trial","32","","1,0","3:go_c","1",""
"null","","html-keyboard-response","237","294656","0.0-6.0-2.5","","<div style=""font-size:60px;"">+</div>","null","","","","","","",""
"450.1499999896623","","image-keyboard-response","238","295107","0.0-6.0-0.6","","img/pink.png","32","trial","null","false","0.2,0.8","2:nogo_b","",""
"null","","html-keyboard-response","239","296121","0.0-6.0-1.6","","<img src=""img/pink-n.png"" border=""10"">","null","trial","null","","0.2,0.8","2:nogo_b","0",""
"null","","html-keyboard-response","240","297125","0.0-6.0-2.6","","<div style=""font-size:60px;"">+</div>","null","","","","","","",""
"null","","image-keyboard-response","241","298641","0.0-6.0-0.7","","img/yellow.png","null","trial","null","true","0,1","4:nogo_d","",""
"null","","html-keyboard-response","242","299655","0.0-6.0-1.7","","<img src=""img/yellow-r.png"">","null","trial","null","","0,1","4:nogo_d","1",""
"null","","html-keyboard-response","243","300659","0.0-6.0-2.7","","<div style=""font-size:60px;"">+</div>","null","","","","","","",""
"null","","image-keyboard-response","244","302173","0.0-6.0-0.8","","img/blue.png","null","trial","32","false","0.8,0.2","1:go_a","",""
"null","","html-keyboard-response","245","303181","0.0-6.0-1.8","","<img src=""img/blue-n.png"">","null","trial","32","","0.8,0.2","1:go_a","0",""
"null","","html-keyboard-response","246","304182","0.0-6.0-2.8","","<div style=""font-size:60px;"">+</div>","null","","","","","","",""
"510.91999997152016","","image-keyboard-response","247","304695","0.0-6.0-0.9","","img/purple.png","32","trial","32","true","1,0","3:go_c","",""
"null","","html-keyboard-response","248","305699","0.0-6.0-1.9","","<img src=""img/purple-r.png"" border=""10"">","null","trial","32","","1,0","3:go_c","1",""
"null","","html-keyboard-response","249","306700","0.0-6.0-2.9","","<div style=""font-size:60px;"">+</div>","null","","","","","","",""
"null","","image-keyboard-response","250","308214","0.0-6.0-0.10","","img/yellow.png","null","trial","null","true","0,1","4:nogo_d","",""
"null","","html-keyboard-response","251","309219","0.0-6.0-1.10","","<img src=""img/yellow-r.png"">","null","trial","null","","0,1","4:nogo_d","1",""
"null","","html-keyboard-response","252","310233","0.0-6.0-2.10","","<div style=""font-size:60px;"">+</div>","null","","","","","","",""
"554.6549999853596","","image-keyboard-response","253","310789","0.0-6.0-0.11","","img/pink.png","32","trial","null","false","0.2,0.8","2:nogo_b","",""
"null","","html-keyboard-response","254","311797","0.0-6.0-1.11","","<img src=""img/pink-n.png"" border=""10"">","null","trial","null","","0.2,0.8","2:nogo_b","0",""
"null","","html-keyboard-response","255","312810","0.0-6.0-2.11","","<div style=""font-size:60px;"">+</div>","null","","","","","","",""
"579.5250000082888","","image-keyboard-response","256","313390","0.0-6.0-0.12","","img/purple.png","32","trial","32","true","1,0","3:go_c","",""
"null","","html-keyboard-response","257","314406","0.0-6.0-1.12","","<img src=""img/purple-r.png"" border=""10"">","null","trial","32","","1,0","3:go_c","1",""
"null","","html-keyboard-response","258","315422","0.0-6.0-2.12","","<div style=""font-size:60px;"">+</div>","null","","","","","","",""
"592.7000000374392","","image-keyboard-response","259","316015","0.0-6.0-0.13","","img/pink.png","32","trial","null","false","0.2,0.8","2:nogo_b","",""
"null","","html-keyboard-response","260","317029","0.0-6.0-1.13","","<img src=""img/pink-n.png"" border=""10"">","null","trial","null","","0.2,0.8","2:nogo_b","0",""
"null","","html-keyboard-response","261","318042","0.0-6.0-2.13","","<div style=""font-size:60px;"">+</div>","null","","","","","","",""
"null","","image-keyboard-response","262","319551","0.0-6.0-0.14","","img/blue.png","null","trial","32","false","0.8,0.2","1:go_a","",""
"null","","html-keyboard-response","263","320561","0.0-6.0-1.14","","<img src=""img/blue-n.png"">","null","trial","32","","0.8,0.2","1:go_a","0",""
"null","","html-keyboard-response","264","321569","0.0-6.0-2.14","","<div style=""font-size:60px;"">+</div>","null","","","","","","",""
"948.7599999993108","","image-keyboard-response","265","322518","0.0-6.0-0.15","","img/yellow.png","32","trial","null","false","0,1","4:nogo_d","",""
"null","","html-keyboard-response","266","323524","0.0-6.0-1.15","","<img src=""img/yellow-n.png"" border=""10"">","null","trial","null","","0,1","4:nogo_d","0",""
"null","","html-keyboard-response","267","324525","0.0-6.0-2.15","","<div style=""font-size:60px;"">+</div>","null","","","","","","",""
"808.2799999974668","","image-keyboard-response","268","325334","0.0-6.0-0.16","","img/yellow.png","32","trial","null","false","0,1","4:nogo_d","",""
"null","","html-keyboard-response","269","326343","0.0-6.0-1.16","","<img src=""img/yellow-n.png"" border=""10"">","null","trial","null","","0,1","4:nogo_d","0",""
"null","","html-keyboard-response","270","327357","0.0-6.0-2.16","","<div style=""font-size:60px;"">+</div>","null","","","","","","",""
"null","","image-keyboard-response","271","328859","0.0-6.0-0.17","","img/blue.png","null","trial","32","false","0.8,0.2","1:go_a","",""
"null","","html-keyboard-response","272","329876","0.0-6.0-1.17","","<img src=""img/blue-n.png"">","null","trial","32","","0.8,0.2","1:go_a","0",""
"null","","html-keyboard-response","273","330890","0.0-6.0-2.17","","<div style=""font-size:60px;"">+</div>","null","","","","","","",""
"474.2800000240095","","image-keyboard-response","274","331365","0.0-6.0-0.18","","img/pink.png","32","trial","null","false","0.2,0.8","2:nogo_b","",""
"null","","html-keyboard-response","275","332378","0.0-6.0-1.18","","<img src=""img/pink-n.png"" border=""10"">","null","trial","null","","0.2,0.8","2:nogo_b","0",""
"null","","html-keyboard-response","276","333380","0.0-6.0-2.18","","<div style=""font-size:60px;"">+</div>","null","","","","","","",""
"524.634999979753","","image-keyboard-response","277","333906","0.0-6.0-0.19","","img/purple.png","32","trial","32","true","1,0","3:go_c","",""
"null","","html-keyboard-response","278","334910","0.0-6.0-1.19","","<img src=""img/purple-r.png"" border=""10"">","null","trial","32","","1,0","3:go_c","1",""
"null","","html-keyboard-response","279","335922","0.0-6.0-2.19","","<div style=""font-size:60px;"">+</div>","null","","","","","","",""
"477.87500004051253","","image-keyboard-response","280","336400","0.0-6.0-0.20","","img/pink.png","32","trial","null","false","0.2,0.8","2:nogo_b","",""
"null","","html-keyboard-response","281","337407","0.0-6.0-1.20","","<img src=""img/pink-n.png"" border=""10"">","null","trial","null","","0.2,0.8","2:nogo_b","0",""
"null","","html-keyboard-response","282","338420","0.0-6.0-2.20","","<div style=""font-size:60px;"">+</div>","null","","","","","","",""
"899.6850000112318","","image-keyboard-response","283","339320","0.0-6.0-0.21","","img/yellow.png","32","trial","null","false","0,1","4:nogo_d","",""
"null","","html-keyboard-response","284","340322","0.0-6.0-1.21","","<img src=""img/yellow-n.png"" border=""10"">","null","trial","null","","0,1","4:nogo_d","0",""
"null","","html-keyboard-response","285","341341","0.0-6.0-2.21","","<div style=""font-size:60px;"">+</div>","null","","","","","","",""
"null","","image-keyboard-response","286","342859","0.0-6.0-0.22","","img/blue.png","null","trial","32","false","0.8,0.2","1:go_a","",""
"null","","html-keyboard-response","287","343864","0.0-6.0-1.22","","<img src=""img/blue-n.png"">","null","trial","32","","0.8,0.2","1:go_a","0",""
"null","","html-keyboard-response","288","344877","0.0-6.0-2.22","","<div style=""font-size:60px;"">+</div>","null","","","","","","",""
"467.9199999663979","","image-keyboard-response","289","345346","0.0-6.0-0.23","","img/purple.png","32","trial","32","true","1,0","3:go_c","",""
"null","","html-keyboard-response","290","346358","0.0-6.0-1.23","","<img src=""img/purple-r.png"" border=""10"">","null","trial","32","","1,0","3:go_c","1",""
"null","","html-keyboard-response","291","347361","0.0-6.0-2.23","","<div style=""font-size:60px;"">+</div>","null","","","","","","",""
"400.8599999942817","","image-keyboard-response","292","347763","0.0-6.0-0.24","","img/purple.png","32","trial","32","true","1,0","3:go_c","",""
"null","","html-keyboard-response","293","348767","0.0-6.0-1.24","","<img src=""img/purple-r.png"" border=""10"">","null","trial","32","","1,0","3:go_c","1",""
"null","","html-keyboard-response","294","349770","0.0-6.0-2.24","","<div style=""font-size:60px;"">+</div>","null","","","","","","",""
"null","","image-keyboard-response","295","351285","0.0-6.0-0.25","","img/yellow.png","null","trial","null","true","0,1","4:nogo_d","",""
"null","","html-keyboard-response","296","352286","0.0-6.0-1.25","","<img src=""img/yellow-r.png"">","null","trial","null","","0,1","4:nogo_d","1",""
"null","","html-keyboard-response","297","353302","0.0-6.0-2.25","","<div style=""font-size:60px;"">+</div>","null","","","","","","",""
"494.2899999441579","","image-keyboard-response","298","353797","0.0-6.0-0.26","","img/pink.png","32","trial","null","false","0.2,0.8","2:nogo_b","",""
"null","","html-keyboard-response","299","354803","0.0-6.0-1.26","","<img src=""img/pink-n.png"" border=""10"">","null","trial","null","","0.2,0.8","2:nogo_b","0",""
"null","","html-keyboard-response","300","355806","0.0-6.0-2.26","","<div style=""font-size:60px;"">+</div>","null","","","","","","",""
"null","","image-keyboard-response","301","357324","0.0-6.0-0.27","","img/blue.png","null","trial","32","false","0.8,0.2","1:go_a","",""
"null","","html-keyboard-response","302","358341","0.0-6.0-1.27","","<img src=""img/blue-n.png"">","null","trial","32","","0.8,0.2","1:go_a","0",""
"null","","html-keyboard-response","303","359343","0.0-6.0-2.27","","<div style=""font-size:60px;"">+</div>","null","","","","","","",""
"430.79000001307577","","image-keyboard-response","304","359776","0.0-6.0-0.28","","img/pink.png","32","trial","null","false","0.2,0.8","2:nogo_b","",""
"null","","html-keyboard-response","305","360781","0.0-6.0-1.28","","<img src=""img/pink-n.png"" border=""10"">","null","trial","null","","0.2,0.8","2:nogo_b","0",""
"null","","html-keyboard-response","306","361797","0.0-6.0-2.28","","<div style=""font-size:60px;"">+</div>","null","","","","","","",""
"493.5500000137836","","image-keyboard-response","307","362292","0.0-6.0-0.29","","img/yellow.png","32","trial","null","false","0,1","4:nogo_d","",""
"null","","html-keyboard-response","308","363300","0.0-6.0-1.29","","<img src=""img/yellow-n.png"" border=""10"">","null","trial","null","","0,1","4:nogo_d","0",""
"null","","html-keyboard-response","309","364303","0.0-6.0-2.29","","<div style=""font-size:60px;"">+</div>","null","","","","","","",""
"null","","image-keyboard-response","310","365819","0.0-6.0-0.30","","img/blue.png","null","trial","32","false","0.8,0.2","1:go_a","",""
"null","","html-keyboard-response","311","366834","0.0-6.0-1.30","","<img src=""img/blue-n.png"">","null","trial","32","","0.8,0.2","1:go_a","0",""
"null","","html-keyboard-response","312","367835","0.0-6.0-2.30","","<div style=""font-size:60px;"">+</div>","null","","","","","","",""
"383.48499999847263","","image-keyboard-response","313","368219","0.0-6.0-0.31","","img/purple.png","32","trial","32","true","1,0","3:go_c","",""
"null","","html-keyboard-response","314","369228","0.0-6.0-1.31","","<img src=""img/purple-r.png"" border=""10"">","null","trial","32","","1,0","3:go_c","1",""
"null","","html-keyboard-response","315","370232","0.0-6.0-2.31","","<div style=""font-size:60px;"">+</div>","null","","","","","","",""
"761.3799999817275","","image-keyboard-response","316","370995","0.0-6.0-0.32","","img/yellow.png","32","trial","null","false","0,1","4:nogo_d","",""
"null","","html-keyboard-response","317","372012","0.0-6.0-1.32","","<img src=""img/yellow-n.png"" border=""10"">","null","trial","null","","0,1","4:nogo_d","0",""
"null","","html-keyboard-response","318","373017","0.0-6.0-2.32","","<div style=""font-size:60px;"">+</div>","null","","","","","","",""
"null","","image-keyboard-response","319","374529","0.0-6.0-0.33","","img/blue.png","null","trial","32","false","0.8,0.2","1:go_a","",""
"null","","html-keyboard-response","320","375535","0.0-6.0-1.33","","<img src=""img/blue-n.png"">","null","trial","32","","0.8,0.2","1:go_a","0",""
"null","","html-keyboard-response","321","376539","0.0-6.0-2.33","","<div style=""font-size:60px;"">+</div>","null","","","","","","",""
"460.80000000074506","","image-keyboard-response","322","377000","0.0-6.0-0.34","","img/purple.png","32","trial","32","true","1,0","3:go_c","",""
"null","","html-keyboard-response","323","378017","0.0-6.0-1.34","","<img src=""img/purple-r.png"" border=""10"">","null","trial","32","","1,0","3:go_c","1",""
"null","","html-keyboard-response","324","379032","0.0-6.0-2.34","","<div style=""font-size:60px;"">+</div>","null","","","","","","",""
"695.4050000058487","","image-keyboard-response","325","379729","0.0-6.0-0.35","","img/pink.png","32","trial","null","false","0.2,0.8","2:nogo_b","",""
"null","","html-keyboard-response","326","380743","0.0-6.0-1.35","","<img src=""img/pink-n.png"" border=""10"">","null","trial","null","","0.2,0.8","2:nogo_b","0",""
"null","","html-keyboard-response","327","381755","0.0-6.0-2.35","","<div style=""font-size:60px;"">+</div>","null","","","","","","",""
"null","","image-keyboard-response","328","383271","0.0-6.0-0.36","","img/yellow.png","null","trial","null","true","0,1","4:nogo_d","",""
"null","","html-keyboard-response","329","384282","0.0-6.0-1.36","","<img src=""img/yellow-r.png"">","null","trial","null","","0,1","4:nogo_d","1",""
"null","","html-keyboard-response","330","385300","0.0-6.0-2.36","","<div style=""font-size:60px;"">+</div>","null","","","","","","",""
"601.3900000252761","","image-keyboard-response","331","385903","0.0-6.0-0.37","","img/pink.png","32","trial","null","false","0.2,0.8","2:nogo_b","",""
"null","","html-keyboard-response","332","386920","0.0-6.0-1.37","","<img src=""img/pink-r.png"" border=""10"">","null","trial","null","","0.2,0.8","2:nogo_b","1",""
"null","","html-keyboard-response","333","387925","0.0-6.0-2.37","","<div style=""font-size:60px;"">+</div>","null","","","","","","",""
"null","","image-keyboard-response","334","389437","0.0-6.0-0.38","","img/blue.png","null","trial","32","false","0.8,0.2","1:go_a","",""
"null","","html-keyboard-response","335","390452","0.0-6.0-1.38","","<img src=""img/blue-n.png"">","null","trial","32","","0.8,0.2","1:go_a","0",""
"null","","html-keyboard-response","336","391459","0.0-6.0-2.38","","<div style=""font-size:60px;"">+</div>","null","","","","","","",""
"440.43499999679625","","image-keyboard-response","337","391900","0.0-6.0-0.39","","img/purple.png","32","trial","32","true","1,0","3:go_c","",""
"null","","html-keyboard-response","338","392907","0.0-6.0-1.39","","<img src=""img/purple-r.png"" border=""10"">","null","trial","32","","1,0","3:go_c","1",""
"null","","html-keyboard-response","339","393922","0.0-6.0-2.39","","<div style=""font-size:60px;"">+</div>","null","","","","","","",""
"679.5300000230782","","image-keyboard-response","340","394602","0.0-6.0-0.40","","img/yellow.png","32","trial","null","false","0,1","4:nogo_d","",""
"null","","html-keyboard-response","341","395613","0.0-6.0-1.40","","<img src=""img/yellow-n.png"" border=""10"">","null","trial","null","","0,1","4:nogo_d","0",""
"null","","html-keyboard-response","342","396628","0.0-6.0-2.40","","<div style=""font-size:60px;"">+</div>","null","","","","","","",""
"null","","image-keyboard-response","343","398131","0.0-6.0-0.41","","img/blue.png","null","trial","32","false","0.8,0.2","1:go_a","",""
"null","","html-keyboard-response","344","399145","0.0-6.0-1.41","","<img src=""img/blue-n.png"">","null","trial","32","","0.8,0.2","1:go_a","0",""
"null","","html-keyboard-response","345","400156","0.0-6.0-2.41","","<div style=""font-size:60px;"">+</div>","null","","","","","","",""
"451.4999999664724","","image-keyboard-response","346","400609","0.0-6.0-0.42","","img/pink.png","32","trial","null","false","0.2,0.8","2:nogo_b","",""
"null","","html-keyboard-response","347","401624","0.0-6.0-1.42","","<img src=""img/pink-n.png"" border=""10"">","null","trial","null","","0.2,0.8","2:nogo_b","0",""
"null","","html-keyboard-response","348","402636","0.0-6.0-2.42","","<div style=""font-size:60px;"">+</div>","null","","","","","","",""
"546.7350000399165","","image-keyboard-response","349","403184","0.0-6.0-0.43","","img/purple.png","32","trial","32","true","1,0","3:go_c","",""
"null","","html-keyboard-response","350","404199","0.0-6.0-1.43","","<img src=""img/purple-r.png"" border=""10"">","null","trial","32","","1,0","3:go_c","1",""
"null","","html-keyboard-response","351","405204","0.0-6.0-2.43","","<div style=""font-size:60px;"">+</div>","null","","","","","","",""
"null","","image-keyboard-response","352","406720","0.0-6.0-0.44","","img/blue.png","null","trial","32","false","0.8,0.2","1:go_a","",""
"null","","html-keyboard-response","353","407732","0.0-6.0-1.44","","<img src=""img/blue-n.png"">","null","trial","32","","0.8,0.2","1:go_a","0",""
"null","","html-keyboard-response","354","408739","0.0-6.0-2.44","","<div style=""font-size:60px;"">+</div>","null","","","","","","",""
"512.4950000317767","","image-keyboard-response","355","409256","0.0-6.0-0.45","","img/purple.png","32","trial","32","true","1,0","3:go_c","",""
"null","","html-keyboard-response","356","410270","0.0-6.0-1.45","","<img src=""img/purple-r.png"" border=""10"">","null","trial","32","","1,0","3:go_c","1",""
"null","","html-keyboard-response","357","411279","0.0-6.0-2.45","","<div style=""font-size:60px;"">+</div>","null","","","","","","",""
"443.6950000235811","","image-keyboard-response","358","411723","0.0-6.0-0.46","","img/yellow.png","32","trial","null","false","0,1","4:nogo_d","",""
"null","","html-keyboard-response","359","412735","0.0-6.0-1.46","","<img src=""img/yellow-n.png"" border=""10"">","null","trial","null","","0,1","4:nogo_d","0",""
"null","","html-keyboard-response","360","413740","0.0-6.0-2.46","","<div style=""font-size:60px;"">+</div>","null","","","","","","",""
"null","","image-keyboard-response","361","415256","0.0-6.0-0.47","","img/pink.png","null","trial","null","true","0.2,0.8","2:nogo_b","",""
"null","","html-keyboard-response","362","416268","0.0-6.0-1.47","","<img src=""img/pink-n.png"">","null","trial","null","","0.2,0.8","2:nogo_b","0",""
"null","","html-keyboard-response","363","417288","0.0-6.0-2.47","","<div style=""font-size:60px;"">+</div>","null","","","","","","",""
"null","","image-keyboard-response","364","418794","0.0-6.0-0.48","","img/blue.png","null","trial","32","false","0.8,0.2","1:go_a","",""
"null","","html-keyboard-response","365","419798","0.0-6.0-1.48","","<img src=""img/blue-n.png"">","null","trial","32","","0.8,0.2","1:go_a","0",""
"null","","html-keyboard-response","366","420807","0.0-6.0-2.48","","<div style=""font-size:60px;"">+</div>","null","","","","","","",""
"650.4399999976158","","image-keyboard-response","367","421458","0.0-6.0-0.49","","img/yellow.png","32","trial","null","false","0,1","4:nogo_d","",""
"null","","html-keyboard-response","368","422470","0.0-6.0-1.49","","<img src=""img/yellow-n.png"" border=""10"">","null","trial","null","","0,1","4:nogo_d","0",""
"null","","html-keyboard-response","369","423476","0.0-6.0-2.49","","<div style=""font-size:60px;"">+</div>","null","","","","","","",""
"629.1700000292622","","image-keyboard-response","370","424106","0.0-6.0-0.50","","img/purple.png","32","trial","32","true","1,0","3:go_c","",""
"null","","html-keyboard-response","371","425110","0.0-6.0-1.50","","<img src=""img/purple-r.png"" border=""10"">","null","trial","32","","1,0","3:go_c","1",""
"null","","html-keyboard-response","372","426126","0.0-6.0-2.50","","<div style=""font-size:60px;"">+</div>","null","","","","","","",""
"null","","image-keyboard-response","373","427631","0.0-6.0-0.51","","img/pink.png","null","trial","null","true","0.2,0.8","2:nogo_b","",""
"null","","html-keyboard-response","374","428644","0.0-6.0-1.51","","<img src=""img/pink-r.png"">","null","trial","null","","0.2,0.8","2:nogo_b","1",""
"null","","html-keyboard-response","375","429649","0.0-6.0-2.51","","<div style=""font-size:60px;"">+</div>","null","","","","","","",""
"558.8950000237674","","image-keyboard-response","376","430209","0.0-6.0-0.52","","img/purple.png","32","trial","32","true","1,0","3:go_c","",""
"null","","html-keyboard-response","377","431219","0.0-6.0-1.52","","<img src=""img/purple-r.png"" border=""10"">","null","trial","32","","1,0","3:go_c","1",""
"null","","html-keyboard-response","378","432232","0.0-6.0-2.52","","<div style=""font-size:60px;"">+</div>","null","","","","","","",""
"968.6249999795109","","image-keyboard-response","379","433201","0.0-6.0-0.53","","img/yellow.png","32","trial","null","false","0,1","4:nogo_d","",""
"null","","html-keyboard-response","380","434204","0.0-6.0-1.53","","<img src=""img/yellow-n.png"" border=""10"">","null","trial","null","","0,1","4:nogo_d","0",""
"null","","html-keyboard-response","381","435218","0.0-6.0-2.53","","<div style=""font-size:60px;"">+</div>","null","","","","","","",""
"null","","image-keyboard-response","382","436729","0.0-6.0-0.54","","img/blue.png","null","trial","32","false","0.8,0.2","1:go_a","",""
"null","","html-keyboard-response","383","437736","0.0-6.0-1.54","","<img src=""img/blue-n.png"">","null","trial","32","","0.8,0.2","1:go_a","0",""
"null","","html-keyboard-response","384","438752","0.0-6.0-2.54","","<div style=""font-size:60px;"">+</div>","null","","","","","","",""
"510.83500002278015","","image-keyboard-response","385","439264","0.0-6.0-0.55","","img/pink.png","32","trial","null","false","0.2,0.8","2:nogo_b","",""
"null","","html-keyboard-response","386","440280","0.0-6.0-1.55","","<img src=""img/pink-n.png"" border=""10"">","null","trial","null","","0.2,0.8","2:nogo_b","0",""
"null","","html-keyboard-response","387","441296","0.0-6.0-2.55","","<div style=""font-size:60px;"">+</div>","null","","","","","","",""
"568.0949999950826","","image-keyboard-response","388","441865","0.0-6.0-0.56","","img/purple.png","32","trial","32","true","1,0","3:go_c","",""
"null","","html-keyboard-response","389","442880","0.0-6.0-1.56","","<img src=""img/purple-r.png"" border=""10"">","null","trial","32","","1,0","3:go_c","1",""
"null","","html-keyboard-response","390","443887","0.0-6.0-2.56","","<div style=""font-size:60px;"">+</div>","null","","","","","","",""
"null","","image-keyboard-response","391","445400","0.0-6.0-0.57","","img/yellow.png","null","trial","null","true","0,1","4:nogo_d","",""
"null","","html-keyboard-response","392","446412","0.0-6.0-1.57","","<img src=""img/yellow-r.png"">","null","trial","null","","0,1","4:nogo_d","1",""
"null","","html-keyboard-response","393","447417","0.0-6.0-2.57","","<div style=""font-size:60px;"">+</div>","null","","","","","","",""
"null","","image-keyboard-response","394","448922","0.0-6.0-0.58","","img/pink.png","null","trial","null","true","0.2,0.8","2:nogo_b","",""
"null","","html-keyboard-response","395","449933","0.0-6.0-1.58","","<img src=""img/pink-r.png"">","null","trial","null","","0.2,0.8","2:nogo_b","1",""
"null","","html-keyboard-response","396","450937","0.0-6.0-2.58","","<div style=""font-size:60px;"">+</div>","null","","","","","","",""
"null","","image-keyboard-response","397","452452","0.0-6.0-0.59","","img/blue.png","null","trial","32","false","0.8,0.2","1:go_a","",""
"null","","html-keyboard-response","398","453454","0.0-6.0-1.59","","<img src=""img/blue-n.png"">","null","trial","32","","0.8,0.2","1:go_a","0",""
"null","","html-keyboard-response","399","454471","0.0-6.0-2.59","","<div style=""font-size:60px;"">+</div>","null","","","","","","",""
"null","","image-keyboard-response","400","455982","0.0-6.0-0.60","","img/blue.png","null","trial","32","false","0.8,0.2","1:go_a","",""
"null","","html-keyboard-response","401","456985","0.0-6.0-1.60","","<img src=""img/blue-n.png"">","null","trial","32","","0.8,0.2","1:go_a","0",""
"null","","html-keyboard-response","402","457990","0.0-6.0-2.60","","<div style=""font-size:60px;"">+</div>","null","","","","","","",""
"862.7599999890663","","image-keyboard-response","403","458854","0.0-6.0-0.61","","img/pink.png","32","trial","null","false","0.2,0.8","2:nogo_b","",""
"null","","html-keyboard-response","404","459867","0.0-6.0-1.61","","<img src=""img/pink-n.png"" border=""10"">","null","trial","null","","0.2,0.8","2:nogo_b","0",""
"null","","html-keyboard-response","405","460883","0.0-6.0-2.61","","<div style=""font-size:60px;"">+</div>","null","","","","","","",""
"569.0799999865703","","image-keyboard-response","406","461453","0.0-6.0-0.62","","img/purple.png","32","trial","32","true","1,0","3:go_c","",""
"null","","html-keyboard-response","407","462468","0.0-6.0-1.62","","<img src=""img/purple-r.png"" border=""10"">","null","trial","32","","1,0","3:go_c","1",""
"null","","html-keyboard-response","408","463470","0.0-6.0-2.62","","<div style=""font-size:60px;"">+</div>","null","","","","","","",""
"null","","image-keyboard-response","409","464981","0.0-6.0-0.63","","img/yellow.png","null","trial","null","true","0,1","4:nogo_d","",""
"null","","html-keyboard-response","410","465988","0.0-6.0-1.63","","<img src=""img/yellow-r.png"">","null","trial","null","","0,1","4:nogo_d","1",""
"null","","html-keyboard-response","411","467003","0.0-6.0-2.63","","<div style=""font-size:60px;"">+</div>","null","","","","","","",""
"null","","image-keyboard-response","412","468514","0.0-6.0-0.64","","img/blue.png","null","trial","32","false","0.8,0.2","1:go_a","",""
"null","","html-keyboard-response","413","469517","0.0-6.0-1.64","","<img src=""img/blue-n.png"">","null","trial","32","","0.8,0.2","1:go_a","0",""
"null","","html-keyboard-response","414","470518","0.0-6.0-2.64","","<div style=""font-size:60px;"">+</div>","null","","","","","","",""
"509.2200000071898","","image-keyboard-response","415","471028","0.0-6.0-0.65","","img/pink.png","32","trial","null","false","0.2,0.8","2:nogo_b","",""
"null","","html-keyboard-response","416","472035","0.0-6.0-1.65","","<img src=""img/pink-n.png"" border=""10"">","null","trial","null","","0.2,0.8","2:nogo_b","0",""
"null","","html-keyboard-response","417","473052","0.0-6.0-2.65","","<div style=""font-size:60px;"">+</div>","null","","","","","","",""
"643.5349999810569","","image-keyboard-response","418","473696","0.0-6.0-0.66","","img/purple.png","32","trial","32","true","1,0","3:go_c","",""
"null","","html-keyboard-response","419","474704","0.0-6.0-1.66","","<img src=""img/purple-r.png"" border=""10"">","null","trial","32","","1,0","3:go_c","1",""
"null","","html-keyboard-response","420","475716","0.0-6.0-2.66","","<div style=""font-size:60px;"">+</div>","null","","","","","","",""
"null","","image-keyboard-response","421","477230","0.0-6.0-0.67","","img/yellow.png","null","trial","null","true","0,1","4:nogo_d","",""
"null","","html-keyboard-response","422","478246","0.0-6.0-1.67","","<img src=""img/yellow-r.png"">","null","trial","null","","0,1","4:nogo_d","1",""
"null","","html-keyboard-response","423","479248","0.0-6.0-2.67","","<div style=""font-size:60px;"">+</div>","null","","","","","","",""
"null","","image-keyboard-response","424","480750","0.0-6.0-0.68","","img/blue.png","null","trial","32","false","0.8,0.2","1:go_a","",""
"null","","html-keyboard-response","425","481764","0.0-6.0-1.68","","<img src=""img/blue-r.png"">","null","trial","32","","0.8,0.2","1:go_a","1",""
"null","","html-keyboard-response","426","482765","0.0-6.0-2.68","","<div style=""font-size:60px;"">+</div>","null","","","","","","",""
"772.4850000231527","","image-keyboard-response","427","483538","0.0-6.0-0.69","","img/pink.png","32","trial","null","false","0.2,0.8","2:nogo_b","",""
"null","","html-keyboard-response","428","484550","0.0-6.0-1.69","","<img src=""img/pink-n.png"" border=""10"">","null","trial","null","","0.2,0.8","2:nogo_b","0",""
"null","","html-keyboard-response","429","485565","0.0-6.0-2.69","","<div style=""font-size:60px;"">+</div>","null","","","","","","",""
"null","","image-keyboard-response","430","487084","0.0-6.0-0.70","","img/yellow.png","null","trial","null","true","0,1","4:nogo_d","",""
"null","","html-keyboard-response","431","488099","0.0-6.0-1.70","","<img src=""img/yellow-r.png"">","null","trial","null","","0,1","4:nogo_d","1",""
"null","","html-keyboard-response","432","489110","0.0-6.0-2.70","","<div style=""font-size:60px;"">+</div>","null","","","","","","",""
"600.3499999642372","","image-keyboard-response","433","489711","0.0-6.0-0.71","","img/purple.png","32","trial","32","true","1,0","3:go_c","",""
"null","","html-keyboard-response","434","490717","0.0-6.0-1.71","","<img src=""img/purple-r.png"" border=""10"">","null","trial","32","","1,0","3:go_c","1",""
"null","","html-keyboard-response","435","491728","0.0-6.0-2.71","","<div style=""font-size:60px;"">+</div>","null","","","","","","",""
"636.9449999765493","","image-keyboard-response","436","492366","0.0-6.0-0.72","","img/yellow.png","32","trial","null","false","0,1","4:nogo_d","",""
"null","","html-keyboard-response","437","493369","0.0-6.0-1.72","","<img src=""img/yellow-n.png"" border=""10"">","null","trial","null","","0,1","4:nogo_d","0",""
"null","","html-keyboard-response","438","494382","0.0-6.0-2.72","","<div style=""font-size:60px;"">+</div>","null","","","","","","",""
"553.5199999576434","","image-keyboard-response","439","494937","0.0-6.0-0.73","","img/pink.png","32","trial","null","false","0.2,0.8","2:nogo_b","",""
"null","","html-keyboard-response","440","495940","0.0-6.0-1.73","","<img src=""img/pink-n.png"" border=""10"">","null","trial","null","","0.2,0.8","2:nogo_b","0",""
"null","","html-keyboard-response","441","496954","0.0-6.0-2.73","","<div style=""font-size:60px;"">+</div>","null","","","","","","",""
"518.3949999627657","","image-keyboard-response","442","497473","0.0-6.0-0.74","","img/purple.png","32","trial","32","true","1,0","3:go_c","",""
"null","","html-keyboard-response","443","498485","0.0-6.0-1.74","","<img src=""img/purple-r.png"" border=""10"">","null","trial","32","","1,0","3:go_c","1",""
"null","","html-keyboard-response","444","499500","0.0-6.0-2.74","","<div style=""font-size:60px;"">+</div>","null","","","","","","",""
"null","","image-keyboard-response","445","501016","0.0-6.0-0.75","","img/blue.png","null","trial","32","false","0.8,0.2","1:go_a","",""
"null","","html-keyboard-response","446","502019","0.0-6.0-1.75","","<img src=""img/blue-n.png"">","null","trial","32","","0.8,0.2","1:go_a","0",""
"null","","html-keyboard-response","447","503024","0.0-6.0-2.75","","<div style=""font-size:60px;"">+</div>","null","","","","","","",""
"502.1149999811314","","image-keyboard-response","448","503527","0.0-6.0-0.76","","img/pink.png","32","trial","null","false","0.2,0.8","2:nogo_b","",""
"null","","html-keyboard-response","449","504538","0.0-6.0-1.76","","<img src=""img/pink-r.png"" border=""10"">","null","trial","null","","0.2,0.8","2:nogo_b","1",""
"null","","html-keyboard-response","450","505539","0.0-6.0-2.76","","<div style=""font-size:60px;"">+</div>","null","","","","","","",""
"1175.020000024233","","image-keyboard-response","451","506715","0.0-6.0-0.77","","img/yellow.png","32","trial","null","false","0,1","4:nogo_d","",""
"null","","html-keyboard-response","452","507723","0.0-6.0-1.77","","<img src=""img/yellow-n.png"" border=""10"">","null","trial","null","","0,1","4:nogo_d","0",""
"null","","html-keyboard-response","453","508737","0.0-6.0-2.77","","<div style=""font-size:60px;"">+</div>","null","","","","","","",""
"512.1849999995902","","image-keyboard-response","454","509250","0.0-6.0-0.78","","img/purple.png","32","trial","32","true","1,0","3:go_c","",""
"null","","html-keyboard-response","455","510263","0.0-6.0-1.78","","<img src=""img/purple-r.png"" border=""10"">","null","trial","32","","1,0","3:go_c","1",""
"null","","html-keyboard-response","456","511267","0.0-6.0-2.78","","<div style=""font-size:60px;"">+</div>","null","","","","","","",""
"null","","image-keyboard-response","457","512781","0.0-6.0-0.79","","img/blue.png","null","trial","32","false","0.8,0.2","1:go_a","",""
"null","","html-keyboard-response","458","513784","0.0-6.0-1.79","","<img src=""img/blue-n.png"">","null","trial","32","","0.8,0.2","1:go_a","0",""
"null","","html-keyboard-response","459","514800","0.0-6.0-2.79","","<div style=""font-size:60px;"">+</div>","null","","","","","","",""
"382.85500003257766","","image-keyboard-response","460","515184","0.0-6.0-0.80","","img/pink.png","32","trial","null","false","0.2,0.8","2:nogo_b","",""
"null","","html-keyboard-response","461","516192","0.0-6.0-1.80","","<img src=""img/pink-r.png"" border=""10"">","null","trial","null","","0.2,0.8","2:nogo_b","1",""
"null","","html-keyboard-response","462","517203","0.0-6.0-2.80","","<div style=""font-size:60px;"">+</div>","null","","","","","","",""
"959.9649999872781","","image-keyboard-response","463","518164","0.0-6.0-0.81","","img/yellow.png","32","trial","null","false","0,1","4:nogo_d","",""
"null","","html-keyboard-response","464","519181","0.0-6.0-1.81","","<img src=""img/yellow-n.png"" border=""10"">","null","trial","null","","0,1","4:nogo_d","0",""
"null","","html-keyboard-response","465","520188","0.0-6.0-2.81","","<div style=""font-size:60px;"">+</div>","null","","","","","","",""
"541.9049999909475","","image-keyboard-response","466","520731","0.0-6.0-0.82","","img/purple.png","32","trial","32","true","1,0","3:go_c","",""
"null","","html-keyboard-response","467","521747","0.0-6.0-1.82","","<img src=""img/purple-r.png"" border=""10"">","null","trial","32","","1,0","3:go_c","1",""
"null","","html-keyboard-response","468","522759","0.0-6.0-2.82","","<div style=""font-size:60px;"">+</div>","null","","","","","","",""
"null","","image-keyboard-response","469","524264","0.0-6.0-0.83","","img/blue.png","null","trial","32","false","0.8,0.2","1:go_a","",""
"null","","html-keyboard-response","470","525266","0.0-6.0-1.83","","<img src=""img/blue-n.png"">","null","trial","32","","0.8,0.2","1:go_a","0",""
"null","","html-keyboard-response","471","526269","0.0-6.0-2.83","","<div style=""font-size:60px;"">+</div>","null","","","","","","",""
"419.6850000298582","","image-keyboard-response","472","526689","0.0-6.0-0.84","","img/yellow.png","32","trial","null","false","0,1","4:nogo_d","",""
"null","","html-keyboard-response","473","527704","0.0-6.0-1.84","","<img src=""img/yellow-n.png"" border=""10"">","null","trial","null","","0,1","4:nogo_d","0",""
"null","","html-keyboard-response","474","528709","0.0-6.0-2.84","","<div style=""font-size:60px;"">+</div>","null","","","","","","",""
"472.72000001976267","","image-keyboard-response","475","529183","0.0-6.0-0.85","","img/purple.png","32","trial","32","true","1,0","3:go_c","",""
"null","","html-keyboard-response","476","530191","0.0-6.0-1.85","","<img src=""img/purple-r.png"" border=""10"">","null","trial","32","","1,0","3:go_c","1",""
"null","","html-keyboard-response","477","531194","0.0-6.0-2.85","","<div style=""font-size:60px;"">+</div>","null","","","","","","",""
"581.0950000304729","","image-keyboard-response","478","531776","0.0-6.0-0.86","","img/pink.png","32","trial","null","false","0.2,0.8","2:nogo_b","",""
"null","","html-keyboard-response","479","532787","0.0-6.0-1.86","","<img src=""img/pink-n.png"" border=""10"">","null","trial","null","","0.2,0.8","2:nogo_b","0",""
"null","","html-keyboard-response","480","533792","0.0-6.0-2.86","","<div style=""font-size:60px;"">+</div>","null","","","","","","",""
"null","","image-keyboard-response","481","535303","0.0-6.0-0.87","","img/blue.png","null","trial","32","false","0.8,0.2","1:go_a","",""
"null","","html-keyboard-response","482","536310","0.0-6.0-1.87","","<img src=""img/blue-n.png"">","null","trial","32","","0.8,0.2","1:go_a","0",""
"null","","html-keyboard-response","483","537312","0.0-6.0-2.87","","<div style=""font-size:60px;"">+</div>","null","","","","","","",""
"449.6499999659136","","image-keyboard-response","484","537764","0.0-6.0-0.88","","img/purple.png","32","trial","32","true","1,0","3:go_c","",""
"null","","html-keyboard-response","485","538781","0.0-6.0-1.88","","<img src=""img/purple-r.png"" border=""10"">","null","trial","32","","1,0","3:go_c","1",""
"null","","html-keyboard-response","486","539793","0.0-6.0-2.88","","<div style=""font-size:60px;"">+</div>","null","","","","","","",""
"null","","image-keyboard-response","487","541300","0.0-6.0-0.89","","img/blue.png","null","trial","32","false","0.8,0.2","1:go_a","",""
"null","","html-keyboard-response","488","542308","0.0-6.0-1.89","","<img src=""img/blue-n.png"">","null","trial","32","","0.8,0.2","1:go_a","0",""
"null","","html-keyboard-response","489","543324","0.0-6.0-2.89","","<div style=""font-size:60px;"">+</div>","null","","","","","","",""
"386.8800000054762","","image-keyboard-response","490","543712","0.0-6.0-0.90","","img/pink.png","32","trial","null","false","0.2,0.8","2:nogo_b","",""
"null","","html-keyboard-response","491","544722","0.0-6.0-1.90","","<img src=""img/pink-n.png"" border=""10"">","null","trial","null","","0.2,0.8","2:nogo_b","0",""
"null","","html-keyboard-response","492","545738","0.0-6.0-2.90","","<div style=""font-size:60px;"">+</div>","null","","","","","","",""
"671.8200000468642","","image-keyboard-response","493","546410","0.0-6.0-0.91","","img/yellow.png","32","trial","null","false","0,1","4:nogo_d","",""
"null","","html-keyboard-response","494","547423","0.0-6.0-1.91","","<img src=""img/yellow-n.png"" border=""10"">","null","trial","null","","0,1","4:nogo_d","0",""
"null","","html-keyboard-response","495","548426","0.0-6.0-2.91","","<div style=""font-size:60px;"">+</div>","null","","","","","","",""
"null","","image-keyboard-response","496","549941","0.0-6.0-0.92","","img/blue.png","null","trial","32","false","0.8,0.2","1:go_a","",""
"null","","html-keyboard-response","497","550953","0.0-6.0-1.92","","<img src=""img/blue-n.png"">","null","trial","32","","0.8,0.2","1:go_a","0",""
"null","","html-keyboard-response","498","551966","0.0-6.0-2.92","","<div style=""font-size:60px;"">+</div>","null","","","","","","",""
"378.67000000551343","","image-keyboard-response","499","552346","0.0-6.0-0.93","","img/pink.png","32","trial","null","false","0.2,0.8","2:nogo_b","",""
"null","","html-keyboard-response","500","553358","0.0-6.0-1.93","","<img src=""img/pink-n.png"" border=""10"">","null","trial","null","","0.2,0.8","2:nogo_b","0",""
"null","","html-keyboard-response","501","554360","0.0-6.0-2.93","","<div style=""font-size:60px;"">+</div>","null","","","","","","",""
"537.3399999807589","","image-keyboard-response","502","554899","0.0-6.0-0.94","","img/yellow.png","32","trial","null","false","0,1","4:nogo_d","",""
"null","","html-keyboard-response","503","555903","0.0-6.0-1.94","","<img src=""img/yellow-n.png"" border=""10"">","null","trial","null","","0,1","4:nogo_d","0",""
"null","","html-keyboard-response","504","556918","0.0-6.0-2.94","","<div style=""font-size:60px;"">+</div>","null","","","","","","",""
"490.80500000854954","","image-keyboard-response","505","557409","0.0-6.0-0.95","","img/purple.png","32","trial","32","true","1,0","3:go_c","",""
"null","","html-keyboard-response","506","558414","0.0-6.0-1.95","","<img src=""img/purple-r.png"" border=""10"">","null","trial","32","","1,0","3:go_c","1",""
"null","","html-keyboard-response","507","559422","0.0-6.0-2.95","","<div style=""font-size:60px;"">+</div>","null","","","","","","",""
"null","","image-keyboard-response","508","560937","0.0-6.0-0.96","","img/blue.png","null","trial","32","false","0.8,0.2","1:go_a","",""
"null","","html-keyboard-response","509","561941","0.0-6.0-1.96","","<img src=""img/blue-n.png"">","null","trial","32","","0.8,0.2","1:go_a","0",""
"null","","html-keyboard-response","510","562946","0.0-6.0-2.96","","<div style=""font-size:60px;"">+</div>","null","","","","","","",""
"458.3200000342913","","image-keyboard-response","511","563405","0.0-6.0-0.97","","img/pink.png","32","trial","null","false","0.2,0.8","2:nogo_b","",""
"null","","html-keyboard-response","512","564421","0.0-6.0-1.97","","<img src=""img/pink-n.png"" border=""10"">","null","trial","null","","0.2,0.8","2:nogo_b","0",""
"null","","html-keyboard-response","513","565436","0.0-6.0-2.97","","<div style=""font-size:60px;"">+</div>","null","","","","","","",""
"570.8800000138581","","image-keyboard-response","514","566008","0.0-6.0-0.98","","img/purple.png","32","trial","32","true","1,0","3:go_c","",""
"null","","html-keyboard-response","515","567015","0.0-6.0-1.98","","<img src=""img/purple-r.png"" border=""10"">","null","trial","32","","1,0","3:go_c","1",""
"null","","html-keyboard-response","516","568023","0.0-6.0-2.98","","<div style=""font-size:60px;"">+</div>","null","","","","","","",""
"1161.000000021886","","image-keyboard-response","517","569185","0.0-6.0-0.99","","img/yellow.png","32","trial","null","false","0,1","4:nogo_d","",""
"null","","html-keyboard-response","518","570190","0.0-6.0-1.99","","<img src=""img/yellow-n.png"" border=""10"">","null","trial","null","","0,1","4:nogo_d","0",""
"null","","html-keyboard-response","519","571204","0.0-6.0-2.99","","<div style=""font-size:60px;"">+</div>","null","","","","","","",""
"467.789999966044","","image-keyboard-response","520","571673","0.0-6.0-0.100","","img/blue.png","32","trial","32","true","0.8,0.2","1:go_a","",""
"null","","html-keyboard-response","521","572684","0.0-6.0-1.100","","<img src=""img/blue-r.png"" border=""10"">","null","trial","32","","0.8,0.2","1:go_a","1",""
"null","","html-keyboard-response","522","573695","0.0-6.0-2.100","","<div style=""font-size:60px;"">+</div>","null","","","","","","",""
"613.6150000384077","","image-keyboard-response","523","574310","0.0-6.0-0.101","","img/purple.png","32","trial","32","true","1,0","3:go_c","",""
"null","","html-keyboard-response","524","575324","0.0-6.0-1.101","","<img src=""img/purple-r.png"" border=""10"">","null","trial","32","","1,0","3:go_c","1",""
"null","","html-keyboard-response","525","576338","0.0-6.0-2.101","","<div style=""font-size:60px;"">+</div>","null","","","","","","",""
"679.6300000278279","","image-keyboard-response","526","577018","0.0-6.0-0.102","","img/yellow.png","32","trial","null","false","0,1","4:nogo_d","",""
"null","","html-keyboard-response","527","578035","0.0-6.0-1.102","","<img src=""img/yellow-n.png"" border=""10"">","null","trial","null","","0,1","4:nogo_d","0",""
"null","","html-keyboard-response","528","579046","0.0-6.0-2.102","","<div style=""font-size:60px;"">+</div>","null","","","","","","",""
"449.8200000380166","","image-keyboard-response","529","579497","0.0-6.0-0.103","","img/pink.png","32","trial","null","false","0.2,0.8","2:nogo_b","",""
"null","","html-keyboard-response","530","580512","0.0-6.0-1.103","","<img src=""img/pink-n.png"" border=""10"">","null","trial","null","","0.2,0.8","2:nogo_b","0",""
"null","","html-keyboard-response","531","581521","0.0-6.0-2.103","","<div style=""font-size:60px;"">+</div>","null","","","","","","",""
"null","","image-keyboard-response","532","583033","0.0-6.0-0.104","","img/blue.png","null","trial","32","false","0.8,0.2","1:go_a","",""
"null","","html-keyboard-response","533","584042","0.0-6.0-1.104","","<img src=""img/blue-n.png"">","null","trial","32","","0.8,0.2","1:go_a","0",""
"null","","html-keyboard-response","534","585056","0.0-6.0-2.104","","<div style=""font-size:60px;"">+</div>","null","","","","","","",""
"398.29000004101545","","image-keyboard-response","535","585456","0.0-6.0-0.105","","img/yellow.png","32","trial","null","false","0,1","4:nogo_d","",""
"null","","html-keyboard-response","536","586460","0.0-6.0-1.105","","<img src=""img/yellow-n.png"" border=""10"">","null","trial","null","","0,1","4:nogo_d","0",""
"null","","html-keyboard-response","537","587468","0.0-6.0-2.105","","<div style=""font-size:60px;"">+</div>","null","","","","","","",""
"483.1349999876693","","image-keyboard-response","538","587952","0.0-6.0-0.106","","img/pink.png","32","trial","null","false","0.2,0.8","2:nogo_b","",""
"null","","html-keyboard-response","539","588959","0.0-6.0-1.106","","<img src=""img/pink-n.png"" border=""10"">","null","trial","null","","0.2,0.8","2:nogo_b","0",""
"null","","html-keyboard-response","540","589974","0.0-6.0-2.106","","<div style=""font-size:60px;"">+</div>","null","","","","","","",""
"413.39000000152737","","image-keyboard-response","541","590388","0.0-6.0-0.107","","img/purple.png","32","trial","32","true","1,0","3:go_c","",""
"null","","html-keyboard-response","542","591402","0.0-6.0-1.107","","<img src=""img/purple-r.png"" border=""10"">","null","trial","32","","1,0","3:go_c","1",""
"null","","html-keyboard-response","543","592415","0.0-6.0-2.107","","<div style=""font-size:60px;"">+</div>","null","","","","","","",""
"490.6499999924563","","image-keyboard-response","544","592906","0.0-6.0-0.108","","img/pink.png","32","trial","null","false","0.2,0.8","2:nogo_b","",""
"null","","html-keyboard-response","545","593909","0.0-6.0-1.108","","<img src=""img/pink-n.png"" border=""10"">","null","trial","null","","0.2,0.8","2:nogo_b","0",""
"null","","html-keyboard-response","546","594922","0.0-6.0-2.108","","<div style=""font-size:60px;"">+</div>","null","","","","","","",""
"425.9749999619089","","image-keyboard-response","547","595349","0.0-6.0-0.109","","img/blue.png","32","trial","32","true","0.8,0.2","1:go_a","",""
"null","","html-keyboard-response","548","596352","0.0-6.0-1.109","","<img src=""img/blue-r.png"" border=""10"">","null","trial","32","","0.8,0.2","1:go_a","1",""
"null","","html-keyboard-response","549","597364","0.0-6.0-2.109","","<div style=""font-size:60px;"">+</div>","null","","","","","","",""
"449.9700000160374","","image-keyboard-response","550","597814","0.0-6.0-0.110","","img/yellow.png","32","trial","null","false","0,1","4:nogo_d","",""
"null","","html-keyboard-response","551","598827","0.0-6.0-1.110","","<img src=""img/yellow-n.png"" border=""10"">","null","trial","null","","0,1","4:nogo_d","0",""
"null","","html-keyboard-response","552","599838","0.0-6.0-2.110","","<div style=""font-size:60px;"">+</div>","null","","","","","","",""
"464.0800000051968","","image-keyboard-response","553","600303","0.0-6.0-0.111","","img/purple.png","32","trial","32","true","1,0","3:go_c","",""
"null","","html-keyboard-response","554","601317","0.0-6.0-1.111","","<img src=""img/purple-r.png"" border=""10"">","null","trial","32","","1,0","3:go_c","1",""
"null","","html-keyboard-response","555","602325","0.0-6.0-2.111","","<div style=""font-size:60px;"">+</div>","null","","","","","","",""
"487.0050000026822","","image-keyboard-response","556","602813","0.0-6.0-0.112","","img/pink.png","32","trial","null","false","0.2,0.8","2:nogo_b","",""
"null","","html-keyboard-response","557","603820","0.0-6.0-1.112","","<img src=""img/pink-n.png"" border=""10"">","null","trial","null","","0.2,0.8","2:nogo_b","0",""
"null","","html-keyboard-response","558","604831","0.0-6.0-2.112","","<div style=""font-size:60px;"">+</div>","null","","","","","","",""
"413.20000000996515","","image-keyboard-response","559","605246","0.0-6.0-0.113","","img/yellow.png","32","trial","null","false","0,1","4:nogo_d","",""
"null","","html-keyboard-response","560","606259","0.0-6.0-1.113","","<img src=""img/yellow-n.png"" border=""10"">","null","trial","null","","0,1","4:nogo_d","0",""
"null","","html-keyboard-response","561","607270","0.0-6.0-2.113","","<div style=""font-size:60px;"">+</div>","null","","","","","","",""
"null","","image-keyboard-response","562","608782","0.0-6.0-0.114","","img/blue.png","null","trial","32","false","0.8,0.2","1:go_a","",""
"null","","html-keyboard-response","563","609791","0.0-6.0-1.114","","<img src=""img/blue-n.png"">","null","trial","32","","0.8,0.2","1:go_a","0",""
"null","","html-keyboard-response","564","610797","0.0-6.0-2.114","","<div style=""font-size:60px;"">+</div>","null","","","","","","",""
"508.3349999622442","","image-keyboard-response","565","611306","0.0-6.0-0.115","","img/purple.png","32","trial","32","true","1,0","3:go_c","",""
"null","","html-keyboard-response","566","612316","0.0-6.0-1.115","","<img src=""img/purple-r.png"" border=""10"">","null","trial","32","","1,0","3:go_c","1",""
"null","","html-keyboard-response","567","613330","0.0-6.0-2.115","","<div style=""font-size:60px;"">+</div>","null","","","","","","",""
"468.5149999568239","","image-keyboard-response","568","613799","0.0-6.0-0.116","","img/pink.png","32","trial","null","false","0.2,0.8","2:nogo_b","",""
"null","","html-keyboard-response","569","614807","0.0-6.0-1.116","","<img src=""img/pink-n.png"" border=""10"">","null","trial","null","","0.2,0.8","2:nogo_b","0",""
"null","","html-keyboard-response","570","615811","0.0-6.0-2.116","","<div style=""font-size:60px;"">+</div>","null","","","","","","",""
"719.3500000284985","","image-keyboard-response","571","616532","0.0-6.0-0.117","","img/yellow.png","32","trial","null","false","0,1","4:nogo_d","",""
"null","","html-keyboard-response","572","617547","0.0-6.0-1.117","","<img src=""img/yellow-n.png"" border=""10"">","null","trial","null","","0,1","4:nogo_d","0",""
"null","","html-keyboard-response","573","618557","0.0-6.0-2.117","","<div style=""font-size:60px;"">+</div>","null","","","","","","",""
"436.9200000073761","","image-keyboard-response","574","618995","0.0-6.0-0.118","","img/purple.png","32","trial","32","true","1,0","3:go_c","",""
"null","","html-keyboard-response","575","620002","0.0-6.0-1.118","","<img src=""img/purple-r.png"" border=""10"">","null","trial","32","","1,0","3:go_c","1",""
"null","","html-keyboard-response","576","621011","0.0-6.0-2.118","","<div style=""font-size:60px;"">+</div>","null","","","","","","",""
"453.34500004537404","","image-keyboard-response","577","621465","0.0-6.0-0.119","","img/blue.png","32","trial","32","true","0.8,0.2","1:go_a","",""
"null","","html-keyboard-response","578","622470","0.0-6.0-1.119","","<img src=""img/blue-r.png"" border=""10"">","null","trial","32","","0.8,0.2","1:go_a","1",""
"null","","html-keyboard-response","579","623483","0.0-6.0-2.119","","<div style=""font-size:60px;"">+</div>","null","","","","","","",""
"2674.4249999755993","","instructions","580","626158","0.0-7.0","[{""page_index"":0,""viewing_time"":2674.2300000041723}]","","","","","","","","",""
"744.6099999942817","","image-keyboard-response","581","626904","0.0-8.0-0.0","","img/purple.png","32","trial","32","true","0.8,0.2","1:go_a","",""
"null","","html-keyboard-response","582","627920","0.0-8.0-1.0","","<img src=""img/purple-r.png"" border=""10"">","null","trial","32","","0.8,0.2","1:go_a","1",""
"null","","html-keyboard-response","583","628926","0.0-8.0-2.0","","<div style=""font-size:60px;"">+</div>","null","","","","","","",""
"402.5699999765493","","image-keyboard-response","584","629329","0.0-8.0-0.1","","img/pink.png","32","trial","32","true","0.6,0.4","3:go_c","",""
"null","","html-keyboard-response","585","630345","0.0-8.0-1.1","","<img src=""img/pink-r.png"" border=""10"">","null","trial","32","","0.6,0.4","3:go_c","1",""
"null","","html-keyboard-response","586","631355","0.0-8.0-2.1","","<div style=""font-size:60px;"">+</div>","null","","","","","","",""
"375.1699999556877","","image-keyboard-response","587","631731","0.0-8.0-0.2","","img/yellow.png","32","trial","null","false","0.4,0.6","4:nogo_d","",""
"null","","html-keyboard-response","588","632745","0.0-8.0-1.2","","<img src=""img/yellow-r.png"" border=""10"">","null","trial","null","","0.4,0.6","4:nogo_d","1",""
"null","","html-keyboard-response","589","633753","0.0-8.0-2.2","","<div style=""font-size:60px;"">+</div>","null","","","","","","",""
"443.7249999609776","","image-keyboard-response","590","634198","0.0-8.0-0.3","","img/grey.png","32","trial","null","false","0.2,0.8","2:nogo_b","",""
"null","","html-keyboard-response","591","635214","0.0-8.0-1.3","","<img src=""img/grey-n.png"" border=""10"">","null","trial","null","","0.2,0.8","2:nogo_b","0",""
"null","","html-keyboard-response","592","636224","0.0-8.0-2.3","","<div style=""font-size:60px;"">+</div>","null","","","","","","",""
"366.1050000227988","","image-keyboard-response","593","636591","0.0-8.0-0.4","","img/pink.png","32","trial","32","true","0.6,0.4","3:go_c","",""
"null","","html-keyboard-response","594","637594","0.0-8.0-1.4","","<img src=""img/pink-r.png"" border=""10"">","null","trial","32","","0.6,0.4","3:go_c","1",""
"null","","html-keyboard-response","595","638604","0.0-8.0-2.4","","<div style=""font-size:60px;"">+</div>","null","","","","","","",""
"348.0449999915436","","image-keyboard-response","596","638953","0.0-8.0-0.5","","img/purple.png","32","trial","32","true","0.8,0.2","1:go_a","",""
"null","","html-keyboard-response","597","639958","0.0-8.0-1.5","","<img src=""img/purple-n.png"" border=""10"">","null","trial","32","","0.8,0.2","1:go_a","0",""
"null","","html-keyboard-response","598","640968","0.0-8.0-2.5","","<div style=""font-size:60px;"">+</div>","null","","","","","","",""
"391.5749999578111","","image-keyboard-response","599","641361","0.0-8.0-0.6","","img/grey.png","32","trial","null","false","0.2,0.8","2:nogo_b","",""
"null","","html-keyboard-response","600","642367","0.0-8.0-1.6","","<img src=""img/grey-n.png"" border=""10"">","null","trial","null","","0.2,0.8","2:nogo_b","0",""
"null","","html-keyboard-response","601","643380","0.0-8.0-2.6","","<div style=""font-size:60px;"">+</div>","null","","","","","","",""
"440.87500002933666","","image-keyboard-response","602","643822","0.0-8.0-0.7","","img/yellow.png","32","trial","null","false","0.4,0.6","4:nogo_d","",""
"null","","html-keyboard-response","603","644829","0.0-8.0-1.7","","<img src=""img/yellow-r.png"" border=""10"">","null","trial","null","","0.4,0.6","4:nogo_d","1",""
"null","","html-keyboard-response","604","645840","0.0-8.0-2.7","","<div style=""font-size:60px;"">+</div>","null","","","","","","",""
"null","","image-keyboard-response","605","647356","0.0-8.0-0.8","","img/grey.png","null","trial","null","true","0.2,0.8","2:nogo_b","",""
"null","","html-keyboard-response","606","648370","0.0-8.0-1.8","","<img src=""img/grey-r.png"">","null","trial","null","","0.2,0.8","2:nogo_b","1",""
"null","","html-keyboard-response","607","649382","0.0-8.0-2.8","","<div style=""font-size:60px;"">+</div>","null","","","","","","",""
"664.6600000094622","","image-keyboard-response","608","650048","0.0-8.0-0.9","","img/purple.png","32","trial","32","true","0.8,0.2","1:go_a","",""
"null","","html-keyboard-response","609","651056","0.0-8.0-1.9","","<img src=""img/purple-r.png"" border=""10"">","null","trial","32","","0.8,0.2","1:go_a","1",""
"null","","html-keyboard-response","610","652070","0.0-8.0-2.9","","<div style=""font-size:60px;"">+</div>","null","","","","","","",""
"502.1149999811314","","image-keyboard-response","611","652573","0.0-8.0-0.10","","img/pink.png","32","trial","32","true","0.6,0.4","3:go_c","",""
"null","","html-keyboard-response","612","653580","0.0-8.0-1.10","","<img src=""img/pink-r.png"" border=""10"">","null","trial","32","","0.6,0.4","3:go_c","1",""
"null","","html-keyboard-response","613","654590","0.0-8.0-2.10","","<div style=""font-size:60px;"">+</div>","null","","","","","","",""
"null","","image-keyboard-response","614","656098","0.0-8.0-0.11","","img/yellow.png","null","trial","null","true","0.4,0.6","4:nogo_d","",""
"null","","html-keyboard-response","615","657100","0.0-8.0-1.11","","<img src=""img/yellow-r.png"">","null","trial","null","","0.4,0.6","4:nogo_d","1",""
"null","","html-keyboard-response","616","658113","0.0-8.0-2.11","","<div style=""font-size:60px;"">+</div>","null","","","","","","",""
"517.0649999636225","","image-keyboard-response","617","658631","0.0-8.0-0.12","","img/purple.png","32","trial","32","true","0.8,0.2","1:go_a","",""
"null","","html-keyboard-response","618","659639","0.0-8.0-1.12","","<img src=""img/purple-n.png"" border=""10"">","null","trial","32","","0.8,0.2","1:go_a","0",""
"null","","html-keyboard-response","619","660651","0.0-8.0-2.12","","<div style=""font-size:60px;"">+</div>","null","","","","","","",""
"460.34500002861023","","image-keyboard-response","620","661112","0.0-8.0-0.13","","img/pink.png","32","trial","32","true","0.6,0.4","3:go_c","",""
"null","","html-keyboard-response","621","662124","0.0-8.0-1.13","","<img src=""img/pink-r.png"" border=""10"">","null","trial","32","","0.6,0.4","3:go_c","1",""
"null","","html-keyboard-response","622","663140","0.0-8.0-2.13","","<div style=""font-size:60px;"">+</div>","null","","","","","","",""
"null","","image-keyboard-response","623","664647","0.0-8.0-0.14","","img/grey.png","null","trial","null","true","0.2,0.8","2:nogo_b","",""
"null","","html-keyboard-response","624","665649","0.0-8.0-1.14","","<img src=""img/grey-r.png"">","null","trial","null","","0.2,0.8","2:nogo_b","1",""
"null","","html-keyboard-response","625","666656","0.0-8.0-2.14","","<div style=""font-size:60px;"">+</div>","null","","","","","","",""
"432.0750000188127","","image-keyboard-response","626","667089","0.0-8.0-0.15","","img/yellow.png","32","trial","null","false","0.4,0.6","4:nogo_d","",""
"null","","html-keyboard-response","627","668105","0.0-8.0-1.15","","<img src=""img/yellow-r.png"" border=""10"">","null","trial","null","","0.4,0.6","4:nogo_d","1",""
"null","","html-keyboard-response","628","669119","0.0-8.0-2.15","","<div style=""font-size:60px;"">+</div>","null","","","","","","",""
"437.54499999340624","","image-keyboard-response","629","669557","0.0-8.0-0.16","","img/pink.png","32","trial","32","true","0.6,0.4","3:go_c","",""
"null","","html-keyboard-response","630","670568","0.0-8.0-1.16","","<img src=""img/pink-n.png"" border=""10"">","null","trial","32","","0.6,0.4","3:go_c","0",""
"null","","html-keyboard-response","631","671578","0.0-8.0-2.16","","<div style=""font-size:60px;"">+</div>","null","","","","","","",""
"388.4550000075251","","image-keyboard-response","632","671968","0.0-8.0-0.17","","img/grey.png","32","trial","null","false","0.2,0.8","2:nogo_b","",""
"null","","html-keyboard-response","633","672979","0.0-8.0-1.17","","<img src=""img/grey-n.png"" border=""10"">","null","trial","null","","0.2,0.8","2:nogo_b","0",""
"null","","html-keyboard-response","634","673981","0.0-8.0-2.17","","<div style=""font-size:60px;"">+</div>","null","","","","","","",""
"417.249999998603","","image-keyboard-response","635","674399","0.0-8.0-0.18","","img/yellow.png","32","trial","null","false","0.4,0.6","4:nogo_d","",""
"null","","html-keyboard-response","636","675414","0.0-8.0-1.18","","<img src=""img/yellow-n.png"" border=""10"">","null","trial","null","","0.4,0.6","4:nogo_d","0",""
"null","","html-keyboard-response","637","676423","0.0-8.0-2.18","","<div style=""font-size:60px;"">+</div>","null","","","","","","",""
"459.0549999848008","","image-keyboard-response","638","676883","0.0-8.0-0.19","","img/purple.png","32","trial","32","true","0.8,0.2","1:go_a","",""
"null","","html-keyboard-response","639","677887","0.0-8.0-1.19","","<img src=""img/purple-r.png"" border=""10"">","null","trial","32","","0.8,0.2","1:go_a","1",""
"null","","html-keyboard-response","640","678893","0.0-8.0-2.19","","<div style=""font-size:60px;"">+</div>","null","","","","","","",""
"477.8400000068359","","image-keyboard-response","641","679372","0.0-8.0-0.20","","img/pink.png","32","trial","32","true","0.6,0.4","3:go_c","",""
"null","","html-keyboard-response","642","680387","0.0-8.0-1.20","","<img src=""img/pink-n.png"" border=""10"">","null","trial","32","","0.6,0.4","3:go_c","0",""
"null","","html-keyboard-response","643","681395","0.0-8.0-2.20","","<div style=""font-size:60px;"">+</div>","null","","","","","","",""
"467.7149999770336","","image-keyboard-response","644","681864","0.0-8.0-0.21","","img/yellow.png","32","trial","null","false","0.4,0.6","4:nogo_d","",""
"null","","html-keyboard-response","645","682876","0.0-8.0-1.21","","<img src=""img/yellow-n.png"" border=""10"">","null","trial","null","","0.4,0.6","4:nogo_d","0",""
"null","","html-keyboard-response","646","683887","0.0-8.0-2.21","","<div style=""font-size:60px;"">+</div>","null","","","","","","",""
"443.12500004889444","","image-keyboard-response","647","684331","0.0-8.0-0.22","","img/grey.png","32","trial","null","false","0.2,0.8","2:nogo_b","",""
"null","","html-keyboard-response","648","685346","0.0-8.0-1.22","","<img src=""img/grey-n.png"" border=""10"">","null","trial","null","","0.2,0.8","2:nogo_b","0",""
"null","","html-keyboard-response","649","686359","0.0-8.0-2.22","","<div style=""font-size:60px;"">+</div>","null","","","","","","",""
"424.27000001771376","","image-keyboard-response","650","686785","0.0-8.0-0.23","","img/purple.png","32","trial","32","true","0.8,0.2","1:go_a","",""
"null","","html-keyboard-response","651","687794","0.0-8.0-1.23","","<img src=""img/purple-n.png"" border=""10"">","null","trial","32","","0.8,0.2","1:go_a","0",""
"null","","html-keyboard-response","652","688807","0.0-8.0-2.23","","<div style=""font-size:60px;"">+</div>","null","","","","","","",""
"348.99000002769753","","image-keyboard-response","653","689157","0.0-8.0-0.24","","img/yellow.png","32","trial","null","false","0.4,0.6","4:nogo_d","",""
"null","","html-keyboard-response","654","690164","0.0-8.0-1.24","","<img src=""img/yellow-n.png"" border=""10"">","null","trial","null","","0.4,0.6","4:nogo_d","0",""
"null","","html-keyboard-response","655","691181","0.0-8.0-2.24","","<div style=""font-size:60px;"">+</div>","null","","","","","","",""
"396.38500002911314","","image-keyboard-response","656","691579","0.0-8.0-0.25","","img/pink.png","32","trial","32","true","0.6,0.4","3:go_c","",""
"null","","html-keyboard-response","657","692594","0.0-8.0-1.25","","<img src=""img/pink-r.png"" border=""10"">","null","trial","32","","0.6,0.4","3:go_c","1",""
"null","","html-keyboard-response","658","693602","0.0-8.0-2.25","","<div style=""font-size:60px;"">+</div>","null","","","","","","",""
"464.2549999989569","","image-keyboard-response","659","694067","0.0-8.0-0.26","","img/purple.png","32","trial","32","true","0.8,0.2","1:go_a","",""
"null","","html-keyboard-response","660","695084","0.0-8.0-1.26","","<img src=""img/purple-r.png"" border=""10"">","null","trial","32","","0.8,0.2","1:go_a","1",""
"null","","html-keyboard-response","661","696087","0.0-8.0-2.26","","<div style=""font-size:60px;"">+</div>","null","","","","","","",""
"null","","image-keyboard-response","662","697591","0.0-8.0-0.27","","img/grey.png","null","trial","null","true","0.2,0.8","2:nogo_b","",""
"null","","html-keyboard-response","663","698602","0.0-8.0-1.27","","<img src=""img/grey-r.png"">","null","trial","null","","0.2,0.8","2:nogo_b","1",""
"null","","html-keyboard-response","664","699611","0.0-8.0-2.27","","<div style=""font-size:60px;"">+</div>","null","","","","","","",""
"429.584999976214","","image-keyboard-response","665","700041","0.0-8.0-0.28","","img/yellow.png","32","trial","null","false","0.4,0.6","4:nogo_d","",""
"null","","html-keyboard-response","666","701055","0.0-8.0-1.28","","<img src=""img/yellow-n.png"" border=""10"">","null","trial","null","","0.4,0.6","4:nogo_d","0",""
"null","","html-keyboard-response","667","702065","0.0-8.0-2.28","","<div style=""font-size:60px;"">+</div>","null","","","","","","",""
"520.1100000413135","","image-keyboard-response","668","702586","0.0-8.0-0.29","","img/pink.png","32","trial","32","true","0.6,0.4","3:go_c","",""
"null","","html-keyboard-response","669","703592","0.0-8.0-1.29","","<img src=""img/pink-n.png"" border=""10"">","null","trial","32","","0.6,0.4","3:go_c","0",""
"null","","html-keyboard-response","670","704603","0.0-8.0-2.29","","<div style=""font-size:60px;"">+</div>","null","","","","","","",""
"503.44500003848225","","image-keyboard-response","671","705107","0.0-8.0-0.30","","img/grey.png","32","trial","null","false","0.2,0.8","2:nogo_b","",""
"null","","html-keyboard-response","672","706117","0.0-8.0-1.30","","<img src=""img/grey-r.png"" border=""10"">","null","trial","null","","0.2,0.8","2:nogo_b","1",""
"null","","html-keyboard-response","673","707126","0.0-8.0-2.30","","<div style=""font-size:60px;"">+</div>","null","","","","","","",""
