"rt","url","trial_type","trial_index","time_elapsed","internal_node_id","view_history","stimulus","key_press","test_part","correct_response","correct","use_rew","which_stim","reward","responses"
"16584.959999890998","consent.html","external-html","0","16694","0.0-0.0","","","","","","","","","",""
"153078.81500013173","","instructions","1","169773","0.0-1.0","[{""page_index"":0,""viewing_time"":5622.11999995634},{""page_index"":1,""viewing_time"":28647.985000163317},{""page_index"":2,""viewing_time"":9264.054999919608},{""page_index"":3,""viewing_time"":39487.985000014305},{""page_index"":4,""viewing_time"":38143.86499999091},{""page_index"":5,""viewing_time"":8735.929999966174},{""page_index"":6,""viewing_time"":23176.200000103563}]","","","","","","","","",""
"454.61999997496605","","image-keyboard-response","2","170229","0.0-2.0-0.0","","img/test1.PNG","32","practice","32","true","","","",""
"null","","html-keyboard-response","3","171231","0.0-2.0-1.0","","<img src=""img/test1-reward.PNG"" border=""10px; grey"">","null","","","","","","",""
"null","","html-keyboard-response","4","172233","0.0-2.0-2.0","","<div style=""font-size:60px;"">+</div>","null","","","","","","",""
"null","","image-keyboard-response","5","173735","0.0-2.0-0.1","","img/test3.PNG","null","practice","null","true","","","",""
"null","","html-keyboard-response","6","174737","0.0-2.0-1.1","","<img src=""img/test3-reward.PNG"">","null","","","","","","",""
"null","","html-keyboard-response","7","175739","0.0-2.0-2.1","","<div style=""font-size:60px;"">+</div>","null","","","","","","",""
"null","","image-keyboard-response","8","177241","0.0-2.0-0.2","","img/test2.PNG","null","practice","null","true","","","",""
"null","","html-keyboard-response","9","178244","0.0-2.0-1.2","","<img src=""img/test2-reward.PNG"">","null","","","","","","",""
"null","","html-keyboard-response","10","179246","0.0-2.0-2.2","","<div style=""font-size:60px;"">+</div>","null","","","","","","",""
"null","","image-keyboard-response","11","180748","0.0-2.0-0.3","","img/test2.PNG","null","practice","null","true","","","",""
"null","","html-keyboard-response","12","181749","0.0-2.0-1.3","","<img src=""img/test2-reward.PNG"">","null","","","","","","",""
"null","","html-keyboard-response","13","182752","0.0-2.0-2.3","","<div style=""font-size:60px;"">+</div>","null","","","","","","",""
"null","","image-keyboard-response","14","184255","0.0-2.0-0.4","","img/test3.PNG","null","practice","null","true","","","",""
"null","","html-keyboard-response","15","185257","0.0-2.0-1.4","","<img src=""img/test3-reward.PNG"">","null","","","","","","",""
"null","","html-keyboard-response","16","186259","0.0-2.0-2.4","","<div style=""font-size:60px;"">+</div>","null","","","","","","",""
"321.5350001119077","","image-keyboard-response","17","186582","0.0-2.0-0.5","","img/test1.PNG","32","practice","32","true","","","",""
"null","","html-keyboard-response","18","187584","0.0-2.0-1.5","","<img src=""img/test1-reward.PNG"" border=""10px; grey"">","null","","","","","","",""
"null","","html-keyboard-response","19","188587","0.0-2.0-2.5","","<div style=""font-size:60px;"">+</div>","null","","","","","","",""
"377.6749998796731","","image-keyboard-response","20","188966","0.0-2.0-0.6","","img/test1.PNG","32","practice","32","true","","","",""
"null","","html-keyboard-response","21","189969","0.0-2.0-1.6","","<img src=""img/test1-reward.PNG"" border=""10px; grey"">","null","","","","","","",""
"null","","html-keyboard-response","22","190971","0.0-2.0-2.6","","<div style=""font-size:60px;"">+</div>","null","","","","","","",""
"null","","image-keyboard-response","23","192473","0.0-2.0-0.7","","img/test2.PNG","null","practice","null","true","","","",""
"null","","html-keyboard-response","24","193475","0.0-2.0-1.7","","<img src=""img/test2-reward.PNG"">","null","","","","","","",""
"null","","html-keyboard-response","25","194477","0.0-2.0-2.7","","<div style=""font-size:60px;"">+</div>","null","","","","","","",""
"null","","image-keyboard-response","26","195980","0.0-2.0-0.8","","img/test3.PNG","null","practice","null","true","","","",""
"null","","html-keyboard-response","27","196982","0.0-2.0-1.8","","<img src=""img/test3-reward.PNG"">","null","","","","","","",""
"null","","html-keyboard-response","28","197983","0.0-2.0-2.8","","<div style=""font-size:60px;"">+</div>","null","","","","","","",""
"315.87000004947186","","image-keyboard-response","29","198302","0.0-2.0-0.9","","img/test1.PNG","32","practice","32","true","","","",""
"null","","html-keyboard-response","30","199303","0.0-2.0-1.9","","<img src=""img/test1-reward.PNG"" border=""10px; grey"">","null","","","","","","",""
"null","","html-keyboard-response","31","200305","0.0-2.0-2.9","","<div style=""font-size:60px;"">+</div>","null","","","","","","",""
"null","","image-keyboard-response","32","201822","0.0-2.0-0.10","","img/test3.PNG","null","practice","null","true","","","",""
"null","","html-keyboard-response","33","202823","0.0-2.0-1.10","","<img src=""img/test3-reward.PNG"">","null","","","","","","",""
"null","","html-keyboard-response","34","203824","0.0-2.0-2.10","","<div style=""font-size:60px;"">+</div>","null","","","","","","",""
"null","","image-keyboard-response","35","205326","0.0-2.0-0.11","","img/test2.PNG","null","practice","null","true","","","",""
"null","","html-keyboard-response","36","206327","0.0-2.0-1.11","","<img src=""img/test2-reward.PNG"">","null","","","","","","",""
"null","","html-keyboard-response","37","207329","0.0-2.0-2.11","","<div style=""font-size:60px;"">+</div>","null","","","","","","",""
"12331.53499988839","","instructions","38","219661","0.0-3.0","[{""page_index"":0,""viewing_time"":12331.36499999091}]","","","","","","","","",""
"647.1599999349564","","image-keyboard-response","39","220309","0.0-4.0-0.0","","img/orange.png","32","trial","32","true","0.8,0.2","1:go_a","",""
"null","","html-keyboard-response","40","221311","0.0-4.0-1.0","","<img src=""img/orange-r.png"" border=""10"">","null","trial","32","","0.8,0.2","1:go_a","1",""
"null","","html-keyboard-response","41","222313","0.0-4.0-2.0","","<div style=""font-size:60px;"">+</div>","null","","","","","","",""
"427.0099999848753","","image-keyboard-response","42","222741","0.0-4.0-0.1","","img/yellow.png","32","trial","null","false","0.2,0.8","2:nogo_b","",""
"null","","html-keyboard-response","43","223743","0.0-4.0-1.1","","<img src=""img/yellow-r.png"" border=""10"">","null","trial","null","","0.2,0.8","2:nogo_b","1",""
"null","","html-keyboard-response","44","224744","0.0-4.0-2.1","","<div style=""font-size:60px;"">+</div>","null","","","","","","",""
"484.01000001467764","","image-keyboard-response","45","225229","0.0-4.0-0.2","","img/yellow.png","32","trial","null","false","0.2,0.8","2:nogo_b","",""
"null","","html-keyboard-response","46","226231","0.0-4.0-1.2","","<img src=""img/yellow-r.png"" border=""10"">","null","trial","null","","0.2,0.8","2:nogo_b","1",""
"null","","html-keyboard-response","47","227233","0.0-4.0-2.2","","<div style=""font-size:60px;"">+</div>","null","","","","","","",""
"347.83499990589917","","image-keyboard-response","48","227581","0.0-4.0-0.3","","img/orange.png","32","trial","32","true","0.8,0.2","1:go_a","",""
"null","","html-keyboard-response","49","228584","0.0-4.0-1.3","","<img src=""img/orange-r.png"" border=""10"">","null","trial","32","","0.8,0.2","1:go_a","1",""
"null","","html-keyboard-response","50","229586","0.0-4.0-2.3","","<div style=""font-size:60px;"">+</div>","null","","","","","","",""
"321.9800000078976","","image-keyboard-response","51","229909","0.0-4.0-0.4","","img/yellow.png","32","trial","null","false","0.2,0.8","2:nogo_b","",""
"null","","html-keyboard-response","52","230911","0.0-4.0-1.4","","<img src=""img/yellow-n.png"" border=""10"">","null","trial","null","","0.2,0.8","2:nogo_b","0",""
"null","","html-keyboard-response","53","231914","0.0-4.0-2.4","","<div style=""font-size:60px;"">+</div>","null","","","","","","",""
"314.66499995440245","","image-keyboard-response","54","232229","0.0-4.0-0.5","","img/orange.png","32","trial","32","true","0.8,0.2","1:go_a","",""
"null","","html-keyboard-response","55","233232","0.0-4.0-1.5","","<img src=""img/orange-n.png"" border=""10"">","null","trial","32","","0.8,0.2","1:go_a","0",""
"null","","html-keyboard-response","56","234233","0.0-4.0-2.5","","<div style=""font-size:60px;"">+</div>","null","","","","","","",""
"291.12499998882413","","image-keyboard-response","57","234525","0.0-4.0-0.6","","img/orange.png","32","trial","32","true","0.8,0.2","1:go_a","",""
"null","","html-keyboard-response","58","235527","0.0-4.0-1.6","","<img src=""img/orange-r.png"" border=""10"">","null","trial","32","","0.8,0.2","1:go_a","1",""
"null","","html-keyboard-response","59","236529","0.0-4.0-2.6","","<div style=""font-size:60px;"">+</div>","null","","","","","","",""
"259.0250000357628","","image-keyboard-response","60","236789","0.0-4.0-0.7","","img/yellow.png","32","trial","null","false","0.2,0.8","2:nogo_b","",""
"null","","html-keyboard-response","61","237791","0.0-4.0-1.7","","<img src=""img/yellow-n.png"" border=""10"">","null","trial","null","","0.2,0.8","2:nogo_b","0",""
"null","","html-keyboard-response","62","238792","0.0-4.0-2.7","","<div style=""font-size:60px;"">+</div>","null","","","","","","",""
"420.29500007629395","","image-keyboard-response","63","239213","0.0-4.0-0.8","","img/orange.png","32","trial","32","true","0.8,0.2","1:go_a","",""
"null","","html-keyboard-response","64","240215","0.0-4.0-1.8","","<img src=""img/orange-r.png"" border=""10"">","null","trial","32","","0.8,0.2","1:go_a","1",""
"null","","html-keyboard-response","65","241217","0.0-4.0-2.8","","<div style=""font-size:60px;"">+</div>","null","","","","","","",""
"null","","image-keyboard-response","66","242719","0.0-4.0-0.9","","img/yellow.png","null","trial","null","true","0.2,0.8","2:nogo_b","",""
"null","","html-keyboard-response","67","243721","0.0-4.0-1.9","","<img src=""img/yellow-n.png"">","null","trial","null","","0.2,0.8","2:nogo_b","0",""
"null","","html-keyboard-response","68","244722","0.0-4.0-2.9","","<div style=""font-size:60px;"">+</div>","null","","","","","","",""
"329.91000008769333","","image-keyboard-response","69","245053","0.0-4.0-0.10","","img/orange.png","32","trial","32","true","0.8,0.2","1:go_a","",""
"null","","html-keyboard-response","70","246058","0.0-4.0-1.10","","<img src=""img/orange-r.png"" border=""10"">","null","trial","32","","0.8,0.2","1:go_a","1",""
"null","","html-keyboard-response","71","247060","0.0-4.0-2.10","","<div style=""font-size:60px;"">+</div>","null","","","","","","",""
"null","","image-keyboard-response","72","248561","0.0-4.0-0.11","","img/yellow.png","null","trial","null","true","0.2,0.8","2:nogo_b","",""
"null","","html-keyboard-response","73","249564","0.0-4.0-1.11","","<img src=""img/yellow-r.png"">","null","trial","null","","0.2,0.8","2:nogo_b","1",""
"null","","html-keyboard-response","74","250566","0.0-4.0-2.11","","<div style=""font-size:60px;"">+</div>","null","","","","","","",""
"null","","image-keyboard-response","75","252069","0.0-4.0-0.12","","img/yellow.png","null","trial","null","true","0.2,0.8","2:nogo_b","",""
"null","","html-keyboard-response","76","253071","0.0-4.0-1.12","","<img src=""img/yellow-r.png"">","null","trial","null","","0.2,0.8","2:nogo_b","1",""
"null","","html-keyboard-response","77","254072","0.0-4.0-2.12","","<div style=""font-size:60px;"">+</div>","null","","","","","","",""
"539.5199998747557","","image-keyboard-response","78","254613","0.0-4.0-0.13","","img/orange.png","32","trial","32","true","0.8,0.2","1:go_a","",""
"null","","html-keyboard-response","79","255616","0.0-4.0-1.13","","<img src=""img/orange-r.png"" border=""10"">","null","trial","32","","0.8,0.2","1:go_a","1",""
"null","","html-keyboard-response","80","256618","0.0-4.0-2.13","","<div style=""font-size:60px;"">+</div>","null","","","","","","",""
"481.49500018917024","","image-keyboard-response","81","257101","0.0-4.0-0.14","","img/orange.png","32","trial","32","true","0.8,0.2","1:go_a","",""
"null","","html-keyboard-response","82","258102","0.0-4.0-1.14","","<img src=""img/orange-r.png"" border=""10"">","null","trial","32","","0.8,0.2","1:go_a","1",""
"null","","html-keyboard-response","83","259105","0.0-4.0-2.14","","<div style=""font-size:60px;"">+</div>","null","","","","","","",""
"null","","image-keyboard-response","84","260606","0.0-4.0-0.15","","img/yellow.png","null","trial","null","true","0.2,0.8","2:nogo_b","",""
"null","","html-keyboard-response","85","261608","0.0-4.0-1.15","","<img src=""img/yellow-r.png"">","null","trial","null","","0.2,0.8","2:nogo_b","1",""
"null","","html-keyboard-response","86","262618","0.0-4.0-2.15","","<div style=""font-size:60px;"">+</div>","null","","","","","","",""
"410.87999986484647","","image-keyboard-response","87","263030","0.0-4.0-0.16","","img/orange.png","32","trial","32","true","0.8,0.2","1:go_a","",""
"null","","html-keyboard-response","88","264034","0.0-4.0-1.16","","<img src=""img/orange-n.png"" border=""10"">","null","trial","32","","0.8,0.2","1:go_a","0",""
"null","","html-keyboard-response","89","265035","0.0-4.0-2.16","","<div style=""font-size:60px;"">+</div>","null","","","","","","",""
"null","","image-keyboard-response","90","266537","0.0-4.0-0.17","","img/yellow.png","null","trial","null","true","0.2,0.8","2:nogo_b","",""
"null","","html-keyboard-response","91","267539","0.0-4.0-1.17","","<img src=""img/yellow-r.png"">","null","trial","null","","0.2,0.8","2:nogo_b","1",""
"null","","html-keyboard-response","92","268541","0.0-4.0-2.17","","<div style=""font-size:60px;"">+</div>","null","","","","","","",""
"414.6450001280755","","image-keyboard-response","93","268957","0.0-4.0-0.18","","img/orange.png","32","trial","32","true","0.8,0.2","1:go_a","",""
"null","","html-keyboard-response","94","269959","0.0-4.0-1.18","","<img src=""img/orange-n.png"" border=""10"">","null","trial","32","","0.8,0.2","1:go_a","0",""
"null","","html-keyboard-response","95","270961","0.0-4.0-2.18","","<div style=""font-size:60px;"">+</div>","null","","","","","","",""
"419.4399998523295","","image-keyboard-response","96","271381","0.0-4.0-0.19","","img/yellow.png","32","trial","null","false","0.2,0.8","2:nogo_b","",""
"null","","html-keyboard-response","97","272382","0.0-4.0-1.19","","<img src=""img/yellow-r.png"" border=""10"">","null","trial","null","","0.2,0.8","2:nogo_b","1",""
"null","","html-keyboard-response","98","273385","0.0-4.0-2.19","","<div style=""font-size:60px;"">+</div>","null","","","","","","",""
"507.86999985575676","","image-keyboard-response","99","273894","0.0-4.0-0.20","","img/yellow.png","32","trial","null","false","0.2,0.8","2:nogo_b","",""
"null","","html-keyboard-response","100","274896","0.0-4.0-1.20","","<img src=""img/yellow-n.png"" border=""10"">","null","trial","null","","0.2,0.8","2:nogo_b","0",""
"null","","html-keyboard-response","101","275898","0.0-4.0-2.20","","<div style=""font-size:60px;"">+</div>","null","","","","","","",""
"394.1150000318885","","image-keyboard-response","102","276294","0.0-4.0-0.21","","img/orange.png","32","trial","32","true","0.8,0.2","1:go_a","",""
"null","","html-keyboard-response","103","277296","0.0-4.0-1.21","","<img src=""img/orange-r.png"" border=""10"">","null","trial","32","","0.8,0.2","1:go_a","1",""
"null","","html-keyboard-response","104","278298","0.0-4.0-2.21","","<div style=""font-size:60px;"">+</div>","null","","","","","","",""
"441.7049998883158","","image-keyboard-response","105","278741","0.0-4.0-0.22","","img/orange.png","32","trial","32","true","0.8,0.2","1:go_a","",""
"null","","html-keyboard-response","106","279744","0.0-4.0-1.22","","<img src=""img/orange-r.png"" border=""10"">","null","trial","32","","0.8,0.2","1:go_a","1",""
"null","","html-keyboard-response","107","280746","0.0-4.0-2.22","","<div style=""font-size:60px;"">+</div>","null","","","","","","",""
"null","","image-keyboard-response","108","282248","0.0-4.0-0.23","","img/yellow.png","null","trial","null","true","0.2,0.8","2:nogo_b","",""
"null","","html-keyboard-response","109","283250","0.0-4.0-1.23","","<img src=""img/yellow-r.png"">","null","trial","null","","0.2,0.8","2:nogo_b","1",""
"null","","html-keyboard-response","110","284253","0.0-4.0-2.23","","<div style=""font-size:60px;"">+</div>","null","","","","","","",""
"null","","image-keyboard-response","111","285755","0.0-4.0-0.24","","img/yellow.png","null","trial","null","true","0.2,0.8","2:nogo_b","",""
"null","","html-keyboard-response","112","286758","0.0-4.0-1.24","","<img src=""img/yellow-r.png"">","null","trial","null","","0.2,0.8","2:nogo_b","1",""
"null","","html-keyboard-response","113","287759","0.0-4.0-2.24","","<div style=""font-size:60px;"">+</div>","null","","","","","","",""
"357.6599999796599","","image-keyboard-response","114","288118","0.0-4.0-0.25","","img/orange.png","32","trial","32","true","0.8,0.2","1:go_a","",""
"null","","html-keyboard-response","115","289122","0.0-4.0-1.25","","<img src=""img/orange-r.png"" border=""10"">","null","trial","32","","0.8,0.2","1:go_a","1",""
"null","","html-keyboard-response","116","290124","0.0-4.0-2.25","","<div style=""font-size:60px;"">+</div>","null","","","","","","",""
"null","","image-keyboard-response","117","291626","0.0-4.0-0.26","","img/yellow.png","null","trial","null","true","0.2,0.8","2:nogo_b","",""
"null","","html-keyboard-response","118","292628","0.0-4.0-1.26","","<img src=""img/yellow-r.png"">","null","trial","null","","0.2,0.8","2:nogo_b","1",""
"null","","html-keyboard-response","119","293631","0.0-4.0-2.26","","<div style=""font-size:60px;"">+</div>","null","","","","","","",""
"381.1249998398125","","image-keyboard-response","120","294013","0.0-4.0-0.27","","img/orange.png","32","trial","32","true","0.8,0.2","1:go_a","",""
"null","","html-keyboard-response","121","295015","0.0-4.0-1.27","","<img src=""img/orange-r.png"" border=""10"">","null","trial","32","","0.8,0.2","1:go_a","1",""
"null","","html-keyboard-response","122","296017","0.0-4.0-2.27","","<div style=""font-size:60px;"">+</div>","null","","","","","","",""
"null","","image-keyboard-response","123","297519","0.0-4.0-0.28","","img/yellow.png","null","trial","null","true","0.2,0.8","2:nogo_b","",""
"null","","html-keyboard-response","124","298522","0.0-4.0-1.28","","<img src=""img/yellow-n.png"">","null","trial","null","","0.2,0.8","2:nogo_b","0",""
"null","","html-keyboard-response","125","299523","0.0-4.0-2.28","","<div style=""font-size:60px;"">+</div>","null","","","","","","",""
"385.0899999961257","","image-keyboard-response","126","299909","0.0-4.0-0.29","","img/orange.png","32","trial","32","true","0.8,0.2","1:go_a","",""
"null","","html-keyboard-response","127","300911","0.0-4.0-1.29","","<img src=""img/orange-r.png"" border=""10"">","null","trial","32","","0.8,0.2","1:go_a","1",""
"null","","html-keyboard-response","128","301913","0.0-4.0-2.29","","<div style=""font-size:60px;"">+</div>","null","","","","","","",""
"363.7549998238683","","image-keyboard-response","129","302278","0.0-4.0-0.30","","img/orange.png","32","trial","32","true","0.8,0.2","1:go_a","",""
"null","","html-keyboard-response","130","303280","0.0-4.0-1.30","","<img src=""img/orange-n.png"" border=""10"">","null","trial","32","","0.8,0.2","1:go_a","0",""
"null","","html-keyboard-response","131","304283","0.0-4.0-2.30","","<div style=""font-size:60px;"">+</div>","null","","","","","","",""
"null","","image-keyboard-response","132","305784","0.0-4.0-0.31","","img/yellow.png","null","trial","null","true","0.2,0.8","2:nogo_b","",""
"null","","html-keyboard-response","133","306787","0.0-4.0-1.31","","<img src=""img/yellow-r.png"">","null","trial","null","","0.2,0.8","2:nogo_b","1",""
"null","","html-keyboard-response","134","307788","0.0-4.0-2.31","","<div style=""font-size:60px;"">+</div>","null","","","","","","",""
"null","","image-keyboard-response","135","309290","0.0-4.0-0.32","","img/yellow.png","null","trial","null","true","0.2,0.8","2:nogo_b","",""
"null","","html-keyboard-response","136","310292","0.0-4.0-1.32","","<img src=""img/yellow-r.png"">","null","trial","null","","0.2,0.8","2:nogo_b","1",""
"null","","html-keyboard-response","137","311293","0.0-4.0-2.32","","<div style=""font-size:60px;"">+</div>","null","","","","","","",""
"375.8549999911338","","image-keyboard-response","138","311670","0.0-4.0-0.33","","img/orange.png","32","trial","32","true","0.8,0.2","1:go_a","",""
"null","","html-keyboard-response","139","312673","0.0-4.0-1.33","","<img src=""img/orange-r.png"" border=""10"">","null","trial","32","","0.8,0.2","1:go_a","1",""
"null","","html-keyboard-response","140","313675","0.0-4.0-2.33","","<div style=""font-size:60px;"">+</div>","null","","","","","","",""
"361.5899998694658","","image-keyboard-response","141","314038","0.0-4.0-0.34","","img/orange.png","32","trial","32","true","0.8,0.2","1:go_a","",""
"null","","html-keyboard-response","142","315043","0.0-4.0-1.34","","<img src=""img/orange-n.png"" border=""10"">","null","trial","32","","0.8,0.2","1:go_a","0",""
"null","","html-keyboard-response","143","316046","0.0-4.0-2.34","","<div style=""font-size:60px;"">+</div>","null","","","","","","",""
"null","","image-keyboard-response","144","317548","0.0-4.0-0.35","","img/yellow.png","null","trial","null","true","0.2,0.8","2:nogo_b","",""
"null","","html-keyboard-response","145","318565","0.0-4.0-1.35","","<img src=""img/yellow-r.png"">","null","trial","null","","0.2,0.8","2:nogo_b","1",""
"null","","html-keyboard-response","146","319566","0.0-4.0-2.35","","<div style=""font-size:60px;"">+</div>","null","","","","","","",""
"614.6799998823553","","image-keyboard-response","147","320182","0.0-4.0-0.36","","img/orange.png","32","trial","32","true","0.8,0.2","1:go_a","",""
"null","","html-keyboard-response","148","321184","0.0-4.0-1.36","","<img src=""img/orange-r.png"" border=""10"">","null","trial","32","","0.8,0.2","1:go_a","1",""
"null","","html-keyboard-response","149","322185","0.0-4.0-2.36","","<div style=""font-size:60px;"">+</div>","null","","","","","","",""
"null","","image-keyboard-response","150","323686","0.0-4.0-0.37","","img/yellow.png","null","trial","null","true","0.2,0.8","2:nogo_b","",""
"null","","html-keyboard-response","151","324689","0.0-4.0-1.37","","<img src=""img/yellow-n.png"">","null","trial","null","","0.2,0.8","2:nogo_b","0",""
"null","","html-keyboard-response","152","325691","0.0-4.0-2.37","","<div style=""font-size:60px;"">+</div>","null","","","","","","",""
"null","","image-keyboard-response","153","327193","0.0-4.0-0.38","","img/yellow.png","null","trial","null","true","0.2,0.8","2:nogo_b","",""
"null","","html-keyboard-response","154","328195","0.0-4.0-1.38","","<img src=""img/yellow-r.png"">","null","trial","null","","0.2,0.8","2:nogo_b","1",""
"null","","html-keyboard-response","155","329198","0.0-4.0-2.38","","<div style=""font-size:60px;"">+</div>","null","","","","","","",""
"381.86000008136034","","image-keyboard-response","156","329581","0.0-4.0-0.39","","img/orange.png","32","trial","32","true","0.8,0.2","1:go_a","",""
"null","","html-keyboard-response","157","330583","0.0-4.0-1.39","","<img src=""img/orange-r.png"" border=""10"">","null","trial","32","","0.8,0.2","1:go_a","1",""
"null","","html-keyboard-response","158","331584","0.0-4.0-2.39","","<div style=""font-size:60px;"">+</div>","null","","","","","","",""
"null","","image-keyboard-response","159","333086","0.0-4.0-0.40","","img/yellow.png","null","trial","null","true","0.2,0.8","2:nogo_b","",""
"null","","html-keyboard-response","160","334099","0.0-4.0-1.40","","<img src=""img/yellow-n.png"">","null","trial","null","","0.2,0.8","2:nogo_b","0",""
"null","","html-keyboard-response","161","335104","0.0-4.0-2.40","","<div style=""font-size:60px;"">+</div>","null","","","","","","",""
"388.62999994307756","","image-keyboard-response","162","335493","0.0-4.0-0.41","","img/orange.png","32","trial","32","true","0.8,0.2","1:go_a","",""
"null","","html-keyboard-response","163","336495","0.0-4.0-1.41","","<img src=""img/orange-r.png"" border=""10"">","null","trial","32","","0.8,0.2","1:go_a","1",""
"null","","html-keyboard-response","164","337497","0.0-4.0-2.41","","<div style=""font-size:60px;"">+</div>","null","","","","","","",""
"483.7299999780953","","image-keyboard-response","165","337981","0.0-4.0-0.42","","img/orange.png","32","trial","32","true","0.8,0.2","1:go_a","",""
"null","","html-keyboard-response","166","338982","0.0-4.0-1.42","","<img src=""img/orange-r.png"" border=""10"">","null","trial","32","","0.8,0.2","1:go_a","1",""
"null","","html-keyboard-response","167","339984","0.0-4.0-2.42","","<div style=""font-size:60px;"">+</div>","null","","","","","","",""
"null","","image-keyboard-response","168","341486","0.0-4.0-0.43","","img/yellow.png","null","trial","null","true","0.2,0.8","2:nogo_b","",""
"null","","html-keyboard-response","169","342488","0.0-4.0-1.43","","<img src=""img/yellow-r.png"">","null","trial","null","","0.2,0.8","2:nogo_b","1",""
"null","","html-keyboard-response","170","343489","0.0-4.0-2.43","","<div style=""font-size:60px;"">+</div>","null","","","","","","",""
"null","","image-keyboard-response","171","344992","0.0-4.0-0.44","","img/yellow.png","null","trial","null","true","0.2,0.8","2:nogo_b","",""
"null","","html-keyboard-response","172","345995","0.0-4.0-1.44","","<img src=""img/yellow-n.png"">","null","trial","null","","0.2,0.8","2:nogo_b","0",""
"null","","html-keyboard-response","173","346997","0.0-4.0-2.44","","<div style=""font-size:60px;"">+</div>","null","","","","","","",""
"366.82000011205673","","image-keyboard-response","174","347365","0.0-4.0-0.45","","img/orange.png","32","trial","32","true","0.8,0.2","1:go_a","",""
"null","","html-keyboard-response","175","348372","0.0-4.0-1.45","","<img src=""img/orange-r.png"" border=""10"">","null","trial","32","","0.8,0.2","1:go_a","1",""
"null","","html-keyboard-response","176","349374","0.0-4.0-2.45","","<div style=""font-size:60px;"">+</div>","null","","","","","","",""
"398.27500004321337","","image-keyboard-response","177","349773","0.0-4.0-0.46","","img/orange.png","32","trial","32","true","0.8,0.2","1:go_a","",""
"null","","html-keyboard-response","178","350776","0.0-4.0-1.46","","<img src=""img/orange-r.png"" border=""10"">","null","trial","32","","0.8,0.2","1:go_a","1",""
"null","","html-keyboard-response","179","351778","0.0-4.0-2.46","","<div style=""font-size:60px;"">+</div>","null","","","","","","",""
"null","","image-keyboard-response","180","353281","0.0-4.0-0.47","","img/yellow.png","null","trial","null","true","0.2,0.8","2:nogo_b","",""
"null","","html-keyboard-response","181","354282","0.0-4.0-1.47","","<img src=""img/yellow-r.png"">","null","trial","null","","0.2,0.8","2:nogo_b","1",""
"null","","html-keyboard-response","182","355283","0.0-4.0-2.47","","<div style=""font-size:60px;"">+</div>","null","","","","","","",""
"null","","image-keyboard-response","183","356786","0.0-4.0-0.48","","img/yellow.png","null","trial","null","true","0.2,0.8","2:nogo_b","",""
"null","","html-keyboard-response","184","357788","0.0-4.0-1.48","","<img src=""img/yellow-r.png"">","null","trial","null","","0.2,0.8","2:nogo_b","1",""
"null","","html-keyboard-response","185","358791","0.0-4.0-2.48","","<div style=""font-size:60px;"">+</div>","null","","","","","","",""
"364.14499999955297","","image-keyboard-response","186","359157","0.0-4.0-0.49","","img/orange.png","32","trial","32","true","0.8,0.2","1:go_a","",""
"null","","html-keyboard-response","187","360159","0.0-4.0-1.49","","<img src=""img/orange-r.png"" border=""10"">","null","trial","32","","0.8,0.2","1:go_a","1",""
"null","","html-keyboard-response","188","361161","0.0-4.0-2.49","","<div style=""font-size:60px;"">+</div>","null","","","","","","",""
"null","","image-keyboard-response","189","362663","0.0-4.0-0.50","","img/yellow.png","null","trial","null","true","0.2,0.8","2:nogo_b","",""
"null","","html-keyboard-response","190","363665","0.0-4.0-1.50","","<img src=""img/yellow-n.png"">","null","trial","null","","0.2,0.8","2:nogo_b","0",""
"null","","html-keyboard-response","191","364667","0.0-4.0-2.50","","<div style=""font-size:60px;"">+</div>","null","","","","","","",""
"369.2149999551475","","image-keyboard-response","192","365037","0.0-4.0-0.51","","img/orange.png","32","trial","32","true","0.8,0.2","1:go_a","",""
"null","","html-keyboard-response","193","366040","0.0-4.0-1.51","","<img src=""img/orange-r.png"" border=""10"">","null","trial","32","","0.8,0.2","1:go_a","1",""
"null","","html-keyboard-response","194","367041","0.0-4.0-2.51","","<div style=""font-size:60px;"">+</div>","null","","","","","","",""
"null","","image-keyboard-response","195","368542","0.0-4.0-0.52","","img/yellow.png","null","trial","null","true","0.2,0.8","2:nogo_b","",""
"null","","html-keyboard-response","196","369544","0.0-4.0-1.52","","<img src=""img/yellow-r.png"">","null","trial","null","","0.2,0.8","2:nogo_b","1",""
"null","","html-keyboard-response","197","370545","0.0-4.0-2.52","","<div style=""font-size:60px;"">+</div>","null","","","","","","",""
"411.04499995708466","","image-keyboard-response","198","370958","0.0-4.0-0.53","","img/orange.png","32","trial","32","true","0.8,0.2","1:go_a","",""
"null","","html-keyboard-response","199","371959","0.0-4.0-1.53","","<img src=""img/orange-r.png"" border=""10"">","null","trial","32","","0.8,0.2","1:go_a","1",""
"null","","html-keyboard-response","200","372961","0.0-4.0-2.53","","<div style=""font-size:60px;"">+</div>","null","","","","","","",""
"363.3200000040233","","image-keyboard-response","201","373325","0.0-4.0-0.54","","img/orange.png","32","trial","32","true","0.8,0.2","1:go_a","",""
"null","","html-keyboard-response","202","374327","0.0-4.0-1.54","","<img src=""img/orange-r.png"" border=""10"">","null","trial","32","","0.8,0.2","1:go_a","1",""
"null","","html-keyboard-response","203","375334","0.0-4.0-2.54","","<div style=""font-size:60px;"">+</div>","null","","","","","","",""
"null","","image-keyboard-response","204","376836","0.0-4.0-0.55","","img/yellow.png","null","trial","null","true","0.2,0.8","2:nogo_b","",""
"null","","html-keyboard-response","205","377838","0.0-4.0-1.55","","<img src=""img/yellow-r.png"">","null","trial","null","","0.2,0.8","2:nogo_b","1",""
"null","","html-keyboard-response","206","378840","0.0-4.0-2.55","","<div style=""font-size:60px;"">+</div>","null","","","","","","",""
"355.5999998934567","","image-keyboard-response","207","379197","0.0-4.0-0.56","","img/orange.png","32","trial","32","true","0.8,0.2","1:go_a","",""
"null","","html-keyboard-response","208","380199","0.0-4.0-1.56","","<img src=""img/orange-r.png"" border=""10"">","null","trial","32","","0.8,0.2","1:go_a","1",""
"null","","html-keyboard-response","209","381201","0.0-4.0-2.56","","<div style=""font-size:60px;"">+</div>","null","","","","","","",""
"null","","image-keyboard-response","210","382703","0.0-4.0-0.57","","img/yellow.png","null","trial","null","true","0.2,0.8","2:nogo_b","",""
"null","","html-keyboard-response","211","383704","0.0-4.0-1.57","","<img src=""img/yellow-r.png"">","null","trial","null","","0.2,0.8","2:nogo_b","1",""
"null","","html-keyboard-response","212","384706","0.0-4.0-2.57","","<div style=""font-size:60px;"">+</div>","null","","","","","","",""
"338.43000000342727","","image-keyboard-response","213","385045","0.0-4.0-0.58","","img/orange.png","32","trial","32","true","0.8,0.2","1:go_a","",""
"null","","html-keyboard-response","214","386047","0.0-4.0-1.58","","<img src=""img/orange-r.png"" border=""10"">","null","trial","32","","0.8,0.2","1:go_a","1",""
"null","","html-keyboard-response","215","387050","0.0-4.0-2.58","","<div style=""font-size:60px;"">+</div>","null","","","","","","",""
"null","","image-keyboard-response","216","388552","0.0-4.0-0.59","","img/yellow.png","null","trial","null","true","0.2,0.8","2:nogo_b","",""
"null","","html-keyboard-response","217","389557","0.0-4.0-1.59","","<img src=""img/yellow-n.png"">","null","trial","null","","0.2,0.8","2:nogo_b","0",""
"null","","html-keyboard-response","218","390559","0.0-4.0-2.59","","<div style=""font-size:60px;"">+</div>","null","","","","","","",""
"3557.3250001762062","","instructions","219","394117","0.0-5.0","[{""page_index"":0,""viewing_time"":3557.0849999785423}]","","","","","","","","",""
"519.3549999967217","","image-keyboard-response","220","394637","0.0-6.0-0.0","","img/grey.png","32","trial","32","true","0.8,0.2","3:go_c","",""
"null","","html-keyboard-response","221","395638","0.0-6.0-1.0","","<img src=""img/grey-r.png"" border=""10"">","null","trial","32","","0.8,0.2","3:go_c","1",""
"null","","html-keyboard-response","222","396639","0.0-6.0-2.0","","<div style=""font-size:60px;"">+</div>","null","","","","","","",""
"341.83500008657575","","image-keyboard-response","223","396982","0.0-6.0-0.1","","img/green.png","32","trial","null","false","0.2,0.8","4:nogo_d","",""
"null","","html-keyboard-response","224","397987","0.0-6.0-1.1","","<img src=""img/green-n.png"" border=""10"">","null","trial","null","","0.2,0.8","4:nogo_d","0",""
"null","","html-keyboard-response","225","398988","0.0-6.0-2.1","","<div style=""font-size:60px;"">+</div>","null","","","","","","",""
"568.1749999057502","","image-keyboard-response","226","399557","0.0-6.0-0.2","","img/yellow.png","32","trial","32","true","0.8,0.2","1:go_a","",""
"null","","html-keyboard-response","227","400560","0.0-6.0-1.2","","<img src=""img/yellow-r.png"" border=""10"">","null","trial","32","","0.8,0.2","1:go_a","1",""
"null","","html-keyboard-response","228","401561","0.0-6.0-2.2","","<div style=""font-size:60px;"">+</div>","null","","","","","","",""
"410.6600000523031","","image-keyboard-response","229","401973","0.0-6.0-0.3","","img/orange.png","32","trial","null","false","0.2,0.8","2:nogo_b","",""
"null","","html-keyboard-response","230","402975","0.0-6.0-1.3","","<img src=""img/orange-n.png"" border=""10"">","null","trial","null","","0.2,0.8","2:nogo_b","0",""
"null","","html-keyboard-response","231","403978","0.0-6.0-2.3","","<div style=""font-size:60px;"">+</div>","null","","","","","","",""
"466.4300000295043","","image-keyboard-response","232","404445","0.0-6.0-0.4","","img/orange.png","32","trial","null","false","0.2,0.8","2:nogo_b","",""
"null","","html-keyboard-response","233","405451","0.0-6.0-1.4","","<img src=""img/orange-n.png"" border=""10"">","null","trial","null","","0.2,0.8","2:nogo_b","0",""
"null","","html-keyboard-response","234","406453","0.0-6.0-2.4","","<div style=""font-size:60px;"">+</div>","null","","","","","","",""
"575.1350000500679","","image-keyboard-response","235","407029","0.0-6.0-0.5","","img/green.png","32","trial","null","false","0.2,0.8","4:nogo_d","",""
"null","","html-keyboard-response","236","408031","0.0-6.0-1.5","","<img src=""img/green-n.png"" border=""10"">","null","trial","null","","0.2,0.8","4:nogo_d","0",""
"null","","html-keyboard-response","237","409034","0.0-6.0-2.5","","<div style=""font-size:60px;"">+</div>","null","","","","","","",""
"433.83500003255904","","image-keyboard-response","238","409469","0.0-6.0-0.6","","img/grey.png","32","trial","32","true","0.8,0.2","3:go_c","",""
"null","","html-keyboard-response","239","410471","0.0-6.0-1.6","","<img src=""img/grey-r.png"" border=""10"">","null","trial","32","","0.8,0.2","3:go_c","1",""
"null","","html-keyboard-response","240","411474","0.0-6.0-2.6","","<div style=""font-size:60px;"">+</div>","null","","","","","","",""
"354.469999903813","","image-keyboard-response","241","411829","0.0-6.0-0.7","","img/yellow.png","32","trial","32","true","0.8,0.2","1:go_a","",""
"null","","html-keyboard-response","242","412832","0.0-6.0-1.7","","<img src=""img/yellow-n.png"" border=""10"">","null","trial","32","","0.8,0.2","1:go_a","0",""
"null","","html-keyboard-response","243","413834","0.0-6.0-2.7","","<div style=""font-size:60px;"">+</div>","null","","","","","","",""
"null","","image-keyboard-response","244","415337","0.0-6.0-0.8","","img/green.png","null","trial","null","true","0.2,0.8","4:nogo_d","",""
"null","","html-keyboard-response","245","416338","0.0-6.0-1.8","","<img src=""img/green-r.png"">","null","trial","null","","0.2,0.8","4:nogo_d","1",""
"null","","html-keyboard-response","246","417340","0.0-6.0-2.8","","<div style=""font-size:60px;"">+</div>","null","","","","","","",""
"null","","image-keyboard-response","247","418842","0.0-6.0-0.9","","img/orange.png","null","trial","null","true","0.2,0.8","2:nogo_b","",""
"null","","html-keyboard-response","248","419844","0.0-6.0-1.9","","<img src=""img/orange-r.png"">","null","trial","null","","0.2,0.8","2:nogo_b","1",""
"null","","html-keyboard-response","249","420847","0.0-6.0-2.9","","<div style=""font-size:60px;"">+</div>","null","","","","","","",""
"445.76999987475574","","image-keyboard-response","250","421293","0.0-6.0-0.10","","img/grey.png","32","trial","32","true","0.8,0.2","3:go_c","",""
"null","","html-keyboard-response","251","422297","0.0-6.0-1.10","","<img src=""img/grey-r.png"" border=""10"">","null","trial","32","","0.8,0.2","3:go_c","1",""
"null","","html-keyboard-response","252","423298","0.0-6.0-2.10","","<div style=""font-size:60px;"">+</div>","null","","","","","","",""
"747.1449999138713","","image-keyboard-response","253","424047","0.0-6.0-0.11","","img/yellow.png","32","trial","32","true","0.8,0.2","1:go_a","",""
"null","","html-keyboard-response","254","425049","0.0-6.0-1.11","","<img src=""img/yellow-n.png"" border=""10"">","null","trial","32","","0.8,0.2","1:go_a","0",""
"null","","html-keyboard-response","255","426053","0.0-6.0-2.11","","<div style=""font-size:60px;"">+</div>","null","","","","","","",""
"727.1700000856072","","image-keyboard-response","256","426781","0.0-6.0-0.12","","img/grey.png","32","trial","32","true","0.8,0.2","3:go_c","",""
"null","","html-keyboard-response","257","427784","0.0-6.0-1.12","","<img src=""img/grey-n.png"" border=""10"">","null","trial","32","","0.8,0.2","3:go_c","0",""
"null","","html-keyboard-response","258","428786","0.0-6.0-2.12","","<div style=""font-size:60px;"">+</div>","null","","","","","","",""
"null","","image-keyboard-response","259","430287","0.0-6.0-0.13","","img/green.png","null","trial","null","true","0.2,0.8","4:nogo_d","",""
"null","","html-keyboard-response","260","431289","0.0-6.0-1.13","","<img src=""img/green-r.png"">","null","trial","null","","0.2,0.8","4:nogo_d","1",""
"null","","html-keyboard-response","261","432290","0.0-6.0-2.13","","<div style=""font-size:60px;"">+</div>","null","","","","","","",""
"null","","image-keyboard-response","262","433792","0.0-6.0-0.14","","img/orange.png","null","trial","null","true","0.2,0.8","2:nogo_b","",""
"null","","html-keyboard-response","263","434793","0.0-6.0-1.14","","<img src=""img/orange-n.png"">","null","trial","null","","0.2,0.8","2:nogo_b","0",""
"null","","html-keyboard-response","264","435796","0.0-6.0-2.14","","<div style=""font-size:60px;"">+</div>","null","","","","","","",""
"null","","image-keyboard-response","265","437297","0.0-6.0-0.15","","img/yellow.png","null","trial","32","false","0.8,0.2","1:go_a","",""
"null","","html-keyboard-response","266","438299","0.0-6.0-1.15","","<img src=""img/yellow-n.png"">","null","trial","32","","0.8,0.2","1:go_a","0",""
"null","","html-keyboard-response","267","439300","0.0-6.0-2.15","","<div style=""font-size:60px;"">+</div>","null","","","","","","",""
"null","","image-keyboard-response","268","440802","0.0-6.0-0.16","","img/yellow.png","null","trial","32","false","0.8,0.2","1:go_a","",""
"null","","html-keyboard-response","269","441806","0.0-6.0-1.16","","<img src=""img/yellow-r.png"">","null","trial","32","","0.8,0.2","1:go_a","1",""
"null","","html-keyboard-response","270","442808","0.0-6.0-2.16","","<div style=""font-size:60px;"">+</div>","null","","","","","","",""
"436.1350000835955","","image-keyboard-response","271","443245","0.0-6.0-0.17","","img/grey.png","32","trial","32","true","0.8,0.2","3:go_c","",""
"null","","html-keyboard-response","272","444248","0.0-6.0-1.17","","<img src=""img/grey-r.png"" border=""10"">","null","trial","32","","0.8,0.2","3:go_c","1",""
"null","","html-keyboard-response","273","445250","0.0-6.0-2.17","","<div style=""font-size:60px;"">+</div>","null","","","","","","",""
"null","","image-keyboard-response","274","446751","0.0-6.0-0.18","","img/green.png","null","trial","null","true","0.2,0.8","4:nogo_d","",""
"null","","html-keyboard-response","275","447757","0.0-6.0-1.18","","<img src=""img/green-r.png"">","null","trial","null","","0.2,0.8","4:nogo_d","1",""
"null","","html-keyboard-response","276","448759","0.0-6.0-2.18","","<div style=""font-size:60px;"">+</div>","null","","","","","","",""
"null","","image-keyboard-response","277","450261","0.0-6.0-0.19","","img/orange.png","null","trial","null","true","0.2,0.8","2:nogo_b","",""
"null","","html-keyboard-response","278","451264","0.0-6.0-1.19","","<img src=""img/orange-r.png"">","null","trial","null","","0.2,0.8","2:nogo_b","1",""
"null","","html-keyboard-response","279","452265","0.0-6.0-2.19","","<div style=""font-size:60px;"">+</div>","null","","","","","","",""
"362.7150000538677","","image-keyboard-response","280","452629","0.0-6.0-0.20","","img/grey.png","32","trial","32","true","0.8,0.2","3:go_c","",""
"null","","html-keyboard-response","281","453632","0.0-6.0-1.20","","<img src=""img/grey-r.png"" border=""10"">","null","trial","32","","0.8,0.2","3:go_c","1",""
"null","","html-keyboard-response","282","454633","0.0-6.0-2.20","","<div style=""font-size:60px;"">+</div>","null","","","","","","",""
"null","","image-keyboard-response","283","456135","0.0-6.0-0.21","","img/yellow.png","null","trial","32","false","0.8,0.2","1:go_a","",""
"null","","html-keyboard-response","284","457138","0.0-6.0-1.21","","<img src=""img/yellow-n.png"">","null","trial","32","","0.8,0.2","1:go_a","0",""
"null","","html-keyboard-response","285","458140","0.0-6.0-2.21","","<div style=""font-size:60px;"">+</div>","null","","","","","","",""
"504.00999980047345","","image-keyboard-response","286","458645","0.0-6.0-0.22","","img/orange.png","32","trial","null","false","0.2,0.8","2:nogo_b","",""
"null","","html-keyboard-response","287","459647","0.0-6.0-1.22","","<img src=""img/orange-n.png"" border=""10"">","null","trial","null","","0.2,0.8","2:nogo_b","0",""
"null","","html-keyboard-response","288","460648","0.0-6.0-2.22","","<div style=""font-size:60px;"">+</div>","null","","","","","","",""
"null","","image-keyboard-response","289","462150","0.0-6.0-0.23","","img/green.png","null","trial","null","true","0.2,0.8","4:nogo_d","",""
"null","","html-keyboard-response","290","463152","0.0-6.0-1.23","","<img src=""img/green-r.png"">","null","trial","null","","0.2,0.8","4:nogo_d","1",""
"null","","html-keyboard-response","291","464154","0.0-6.0-2.23","","<div style=""font-size:60px;"">+</div>","null","","","","","","",""
"null","","image-keyboard-response","292","465656","0.0-6.0-0.24","","img/green.png","null","trial","null","true","0.2,0.8","4:nogo_d","",""
"null","","html-keyboard-response","293","466661","0.0-6.0-1.24","","<img src=""img/green-r.png"">","null","trial","null","","0.2,0.8","4:nogo_d","1",""
"null","","html-keyboard-response","294","467663","0.0-6.0-2.24","","<div style=""font-size:60px;"">+</div>","null","","","","","","",""
"null","","image-keyboard-response","295","469167","0.0-6.0-0.25","","img/orange.png","null","trial","null","true","0.2,0.8","2:nogo_b","",""
"null","","html-keyboard-response","296","470168","0.0-6.0-1.25","","<img src=""img/orange-n.png"">","null","trial","null","","0.2,0.8","2:nogo_b","0",""
"null","","html-keyboard-response","297","471171","0.0-6.0-2.25","","<div style=""font-size:60px;"">+</div>","null","","","","","","",""
"489.2600001767278","","image-keyboard-response","298","471661","0.0-6.0-0.26","","img/grey.png","32","trial","32","true","0.8,0.2","3:go_c","",""
"null","","html-keyboard-response","299","472663","0.0-6.0-1.26","","<img src=""img/grey-r.png"" border=""10"">","null","trial","32","","0.8,0.2","3:go_c","1",""
"null","","html-keyboard-response","300","473664","0.0-6.0-2.26","","<div style=""font-size:60px;"">+</div>","null","","","","","","",""
"null","","image-keyboard-response","301","475167","0.0-6.0-0.27","","img/yellow.png","null","trial","32","false","0.8,0.2","1:go_a","",""
"null","","html-keyboard-response","302","476170","0.0-6.0-1.27","","<img src=""img/yellow-n.png"">","null","trial","32","","0.8,0.2","1:go_a","0",""
"null","","html-keyboard-response","303","477173","0.0-6.0-2.27","","<div style=""font-size:60px;"">+</div>","null","","","","","","",""
"null","","image-keyboard-response","304","478675","0.0-6.0-0.28","","img/yellow.png","null","trial","32","false","0.8,0.2","1:go_a","",""
"null","","html-keyboard-response","305","479677","0.0-6.0-1.28","","<img src=""img/yellow-n.png"">","null","trial","32","","0.8,0.2","1:go_a","0",""
"null","","html-keyboard-response","306","480679","0.0-6.0-2.28","","<div style=""font-size:60px;"">+</div>","null","","","","","","",""
"525.1099998131394","","image-keyboard-response","307","481205","0.0-6.0-0.29","","img/grey.png","32","trial","32","true","0.8,0.2","3:go_c","",""
"null","","html-keyboard-response","308","482208","0.0-6.0-1.29","","<img src=""img/grey-r.png"" border=""10"">","null","trial","32","","0.8,0.2","3:go_c","1",""
"null","","html-keyboard-response","309","483210","0.0-6.0-2.29","","<div style=""font-size:60px;"">+</div>","null","","","","","","",""
"1122.230000095442","","image-keyboard-response","310","484333","0.0-6.0-0.30","","img/green.png","32","trial","null","false","0.2,0.8","4:nogo_d","",""
"null","","html-keyboard-response","311","485336","0.0-6.0-1.30","","<img src=""img/green-n.png"" border=""10"">","null","trial","null","","0.2,0.8","4:nogo_d","0",""
"null","","html-keyboard-response","312","486346","0.0-6.0-2.30","","<div style=""font-size:60px;"">+</div>","null","","","","","","",""
"null","","image-keyboard-response","313","487848","0.0-6.0-0.31","","img/orange.png","null","trial","null","true","0.2,0.8","2:nogo_b","",""
"null","","html-keyboard-response","314","488850","0.0-6.0-1.31","","<img src=""img/orange-r.png"">","null","trial","null","","0.2,0.8","2:nogo_b","1",""
"null","","html-keyboard-response","315","489851","0.0-6.0-2.31","","<div style=""font-size:60px;"">+</div>","null","","","","","","",""
"464.549999916926","","image-keyboard-response","316","490316","0.0-6.0-0.32","","img/grey.png","32","trial","32","true","0.8,0.2","3:go_c","",""
"null","","html-keyboard-response","317","491318","0.0-6.0-1.32","","<img src=""img/grey-r.png"" border=""10"">","null","trial","32","","0.8,0.2","3:go_c","1",""
"null","","html-keyboard-response","318","492320","0.0-6.0-2.32","","<div style=""font-size:60px;"">+</div>","null","","","","","","",""
"null","","image-keyboard-response","319","493822","0.0-6.0-0.33","","img/green.png","null","trial","null","true","0.2,0.8","4:nogo_d","",""
"null","","html-keyboard-response","320","494824","0.0-6.0-1.33","","<img src=""img/green-r.png"">","null","trial","null","","0.2,0.8","4:nogo_d","1",""
"null","","html-keyboard-response","321","495825","0.0-6.0-2.33","","<div style=""font-size:60px;"">+</div>","null","","","","","","",""
"null","","image-keyboard-response","322","497326","0.0-6.0-0.34","","img/orange.png","null","trial","null","true","0.2,0.8","2:nogo_b","",""
"null","","html-keyboard-response","323","498329","0.0-6.0-1.34","","<img src=""img/orange-n.png"">","null","trial","null","","0.2,0.8","2:nogo_b","0",""
"null","","html-keyboard-response","324","499330","0.0-6.0-2.34","","<div style=""font-size:60px;"">+</div>","null","","","","","","",""
"null","","image-keyboard-response","325","500832","0.0-6.0-0.35","","img/yellow.png","null","trial","32","false","0.8,0.2","1:go_a","",""
"null","","html-keyboard-response","326","501834","0.0-6.0-1.35","","<img src=""img/yellow-r.png"">","null","trial","32","","0.8,0.2","1:go_a","1",""
"null","","html-keyboard-response","327","502835","0.0-6.0-2.35","","<div style=""font-size:60px;"">+</div>","null","","","","","","",""
"410.0199998356402","","image-keyboard-response","328","503246","0.0-6.0-0.36","","img/grey.png","32","trial","32","true","0.8,0.2","3:go_c","",""
"null","","html-keyboard-response","329","504250","0.0-6.0-1.36","","<img src=""img/grey-n.png"" border=""10"">","null","trial","32","","0.8,0.2","3:go_c","0",""
"null","","html-keyboard-response","330","505252","0.0-6.0-2.36","","<div style=""font-size:60px;"">+</div>","null","","","","","","",""
"null","","image-keyboard-response","331","506753","0.0-6.0-0.37","","img/green.png","null","trial","null","true","0.2,0.8","4:nogo_d","",""
"null","","html-keyboard-response","332","507756","0.0-6.0-1.37","","<img src=""img/green-n.png"">","null","trial","null","","0.2,0.8","4:nogo_d","0",""
"null","","html-keyboard-response","333","508759","0.0-6.0-2.37","","<div style=""font-size:60px;"">+</div>","null","","","","","","",""
"null","","image-keyboard-response","334","510260","0.0-6.0-0.38","","img/yellow.png","null","trial","32","false","0.8,0.2","1:go_a","",""
"null","","html-keyboard-response","335","511272","0.0-6.0-1.38","","<img src=""img/yellow-n.png"">","null","trial","32","","0.8,0.2","1:go_a","0",""
"null","","html-keyboard-response","336","512274","0.0-6.0-2.38","","<div style=""font-size:60px;"">+</div>","null","","","","","","",""
"null","","image-keyboard-response","337","513777","0.0-6.0-0.39","","img/orange.png","null","trial","null","true","0.2,0.8","2:nogo_b","",""
"null","","html-keyboard-response","338","514793","0.0-6.0-1.39","","<img src=""img/orange-n.png"">","null","trial","null","","0.2,0.8","2:nogo_b","0",""
"null","","html-keyboard-response","339","515794","0.0-6.0-2.39","","<div style=""font-size:60px;"">+</div>","null","","","","","","",""
"345.4650000203401","","image-keyboard-response","340","516141","0.0-6.0-0.40","","img/grey.png","32","trial","32","true","0.8,0.2","3:go_c","",""
"null","","html-keyboard-response","341","517143","0.0-6.0-1.40","","<img src=""img/grey-r.png"" border=""10"">","null","trial","32","","0.8,0.2","3:go_c","1",""
"null","","html-keyboard-response","342","518145","0.0-6.0-2.40","","<div style=""font-size:60px;"">+</div>","null","","","","","","",""
"null","","image-keyboard-response","343","519647","0.0-6.0-0.41","","img/green.png","null","trial","null","true","0.2,0.8","4:nogo_d","",""
"null","","html-keyboard-response","344","520649","0.0-6.0-1.41","","<img src=""img/green-r.png"">","null","trial","null","","0.2,0.8","4:nogo_d","1",""
"null","","html-keyboard-response","345","521651","0.0-6.0-2.41","","<div style=""font-size:60px;"">+</div>","null","","","","","","",""
"null","","image-keyboard-response","346","523152","0.0-6.0-0.42","","img/orange.png","null","trial","null","true","0.2,0.8","2:nogo_b","",""
"null","","html-keyboard-response","347","524155","0.0-6.0-1.42","","<img src=""img/orange-n.png"">","null","trial","null","","0.2,0.8","2:nogo_b","0",""
"null","","html-keyboard-response","348","525156","0.0-6.0-2.42","","<div style=""font-size:60px;"">+</div>","null","","","","","","",""
"null","","image-keyboard-response","349","526659","0.0-6.0-0.43","","img/yellow.png","null","trial","32","false","0.8,0.2","1:go_a","",""
"null","","html-keyboard-response","350","527661","0.0-6.0-1.43","","<img src=""img/yellow-n.png"">","null","trial","32","","0.8,0.2","1:go_a","0",""
"null","","html-keyboard-response","351","528663","0.0-6.0-2.43","","<div style=""font-size:60px;"">+</div>","null","","","","","","",""
"null","","image-keyboard-response","352","530165","0.0-6.0-0.44","","img/yellow.png","null","trial","32","false","0.8,0.2","1:go_a","",""
"null","","html-keyboard-response","353","531168","0.0-6.0-1.44","","<img src=""img/yellow-n.png"">","null","trial","32","","0.8,0.2","1:go_a","0",""
"null","","html-keyboard-response","354","532169","0.0-6.0-2.44","","<div style=""font-size:60px;"">+</div>","null","","","","","","",""
"null","","image-keyboard-response","355","533671","0.0-6.0-0.45","","img/orange.png","null","trial","null","true","0.2,0.8","2:nogo_b","",""
"null","","html-keyboard-response","356","534674","0.0-6.0-1.45","","<img src=""img/orange-r.png"">","null","trial","null","","0.2,0.8","2:nogo_b","1",""
"null","","html-keyboard-response","357","535676","0.0-6.0-2.45","","<div style=""font-size:60px;"">+</div>","null","","","","","","",""
"608.3100000396371","","image-keyboard-response","358","536286","0.0-6.0-0.46","","img/grey.png","32","trial","32","true","0.8,0.2","3:go_c","",""
"null","","html-keyboard-response","359","537290","0.0-6.0-1.46","","<img src=""img/grey-r.png"" border=""10"">","null","trial","32","","0.8,0.2","3:go_c","1",""
"null","","html-keyboard-response","360","538292","0.0-6.0-2.46","","<div style=""font-size:60px;"">+</div>","null","","","","","","",""
"null","","image-keyboard-response","361","539793","0.0-6.0-0.47","","img/green.png","null","trial","null","true","0.2,0.8","4:nogo_d","",""
"null","","html-keyboard-response","362","540795","0.0-6.0-1.47","","<img src=""img/green-n.png"">","null","trial","null","","0.2,0.8","4:nogo_d","0",""
"null","","html-keyboard-response","363","541796","0.0-6.0-2.47","","<div style=""font-size:60px;"">+</div>","null","","","","","","",""
"null","","image-keyboard-response","364","543299","0.0-6.0-0.48","","img/orange.png","null","trial","null","true","0.2,0.8","2:nogo_b","",""
"null","","html-keyboard-response","365","544301","0.0-6.0-1.48","","<img src=""img/orange-r.png"">","null","trial","null","","0.2,0.8","2:nogo_b","1",""
"null","","html-keyboard-response","366","545302","0.0-6.0-2.48","","<div style=""font-size:60px;"">+</div>","null","","","","","","",""
"null","","image-keyboard-response","367","546804","0.0-6.0-0.49","","img/yellow.png","null","trial","32","false","0.8,0.2","1:go_a","",""
"null","","html-keyboard-response","368","547807","0.0-6.0-1.49","","<img src=""img/yellow-r.png"">","null","trial","32","","0.8,0.2","1:go_a","1",""
"null","","html-keyboard-response","369","548808","0.0-6.0-2.49","","<div style=""font-size:60px;"">+</div>","null","","","","","","",""
"null","","image-keyboard-response","370","550310","0.0-6.0-0.50","","img/green.png","null","trial","null","true","0.2,0.8","4:nogo_d","",""
"null","","html-keyboard-response","371","551313","0.0-6.0-1.50","","<img src=""img/green-r.png"">","null","trial","null","","0.2,0.8","4:nogo_d","1",""
"null","","html-keyboard-response","372","552314","0.0-6.0-2.50","","<div style=""font-size:60px;"">+</div>","null","","","","","","",""
"402.8349998407066","","image-keyboard-response","373","552717","0.0-6.0-0.51","","img/grey.png","32","trial","32","true","0.8,0.2","3:go_c","",""
"null","","html-keyboard-response","374","553720","0.0-6.0-1.51","","<img src=""img/grey-r.png"" border=""10"">","null","trial","32","","0.8,0.2","3:go_c","1",""
"null","","html-keyboard-response","375","554721","0.0-6.0-2.51","","<div style=""font-size:60px;"">+</div>","null","","","","","","",""
"null","","image-keyboard-response","376","556223","0.0-6.0-0.52","","img/orange.png","null","trial","null","true","0.2,0.8","2:nogo_b","",""
"null","","html-keyboard-response","377","557225","0.0-6.0-1.52","","<img src=""img/orange-r.png"">","null","trial","null","","0.2,0.8","2:nogo_b","1",""
"null","","html-keyboard-response","378","558226","0.0-6.0-2.52","","<div style=""font-size:60px;"">+</div>","null","","","","","","",""
"null","","image-keyboard-response","379","559728","0.0-6.0-0.53","","img/yellow.png","null","trial","32","false","0.8,0.2","1:go_a","",""
"null","","html-keyboard-response","380","560731","0.0-6.0-1.53","","<img src=""img/yellow-n.png"">","null","trial","32","","0.8,0.2","1:go_a","0",""
"null","","html-keyboard-response","381","561732","0.0-6.0-2.53","","<div style=""font-size:60px;"">+</div>","null","","","","","","",""
"null","","image-keyboard-response","382","563234","0.0-6.0-0.54","","img/green.png","null","trial","null","true","0.2,0.8","4:nogo_d","",""
"null","","html-keyboard-response","383","564237","0.0-6.0-1.54","","<img src=""img/green-r.png"">","null","trial","null","","0.2,0.8","4:nogo_d","1",""
"null","","html-keyboard-response","384","565239","0.0-6.0-2.54","","<div style=""font-size:60px;"">+</div>","null","","","","","","",""
"421.77999997511506","","image-keyboard-response","385","565661","0.0-6.0-0.55","","img/grey.png","32","trial","32","true","0.8,0.2","3:go_c","",""
"null","","html-keyboard-response","386","566664","0.0-6.0-1.55","","<img src=""img/grey-r.png"" border=""10"">","null","trial","32","","0.8,0.2","3:go_c","1",""
"null","","html-keyboard-response","387","567665","0.0-6.0-2.55","","<div style=""font-size:60px;"">+</div>","null","","","","","","",""
"402.93500013649464","","image-keyboard-response","388","568069","0.0-6.0-0.56","","img/grey.png","32","trial","32","true","0.8,0.2","3:go_c","",""
"null","","html-keyboard-response","389","569072","0.0-6.0-1.56","","<img src=""img/grey-r.png"" border=""10"">","null","trial","32","","0.8,0.2","3:go_c","1",""
"null","","html-keyboard-response","390","570073","0.0-6.0-2.56","","<div style=""font-size:60px;"">+</div>","null","","","","","","",""
"null","","image-keyboard-response","391","571576","0.0-6.0-0.57","","img/yellow.png","null","trial","32","false","0.8,0.2","1:go_a","",""
"null","","html-keyboard-response","392","572578","0.0-6.0-1.57","","<img src=""img/yellow-n.png"">","null","trial","32","","0.8,0.2","1:go_a","0",""
"null","","html-keyboard-response","393","573580","0.0-6.0-2.57","","<div style=""font-size:60px;"">+</div>","null","","","","","","",""
"null","","image-keyboard-response","394","575082","0.0-6.0-0.58","","img/green.png","null","trial","null","true","0.2,0.8","4:nogo_d","",""
"null","","html-keyboard-response","395","576084","0.0-6.0-1.58","","<img src=""img/green-r.png"">","null","trial","null","","0.2,0.8","4:nogo_d","1",""
"null","","html-keyboard-response","396","577085","0.0-6.0-2.58","","<div style=""font-size:60px;"">+</div>","null","","","","","","",""
"null","","image-keyboard-response","397","578587","0.0-6.0-0.59","","img/orange.png","null","trial","null","true","0.2,0.8","2:nogo_b","",""
"null","","html-keyboard-response","398","579590","0.0-6.0-1.59","","<img src=""img/orange-r.png"">","null","trial","null","","0.2,0.8","2:nogo_b","1",""
"null","","html-keyboard-response","399","580591","0.0-6.0-2.59","","<div style=""font-size:60px;"">+</div>","null","","","","","","",""
"null","","image-keyboard-response","400","582093","0.0-6.0-0.60","","img/orange.png","null","trial","null","true","0.2,0.8","2:nogo_b","",""
"null","","html-keyboard-response","401","583096","0.0-6.0-1.60","","<img src=""img/orange-r.png"">","null","trial","null","","0.2,0.8","2:nogo_b","1",""
"null","","html-keyboard-response","402","584097","0.0-6.0-2.60","","<div style=""font-size:60px;"">+</div>","null","","","","","","",""
"null","","image-keyboard-response","403","585599","0.0-6.0-0.61","","img/green.png","null","trial","null","true","0.2,0.8","4:nogo_d","",""
"null","","html-keyboard-response","404","586602","0.0-6.0-1.61","","<img src=""img/green-r.png"">","null","trial","null","","0.2,0.8","4:nogo_d","1",""
"null","","html-keyboard-response","405","587605","0.0-6.0-2.61","","<div style=""font-size:60px;"">+</div>","null","","","","","","",""
"null","","image-keyboard-response","406","589106","0.0-6.0-0.62","","img/yellow.png","null","trial","32","false","0.8,0.2","1:go_a","",""
"null","","html-keyboard-response","407","590107","0.0-6.0-1.62","","<img src=""img/yellow-n.png"">","null","trial","32","","0.8,0.2","1:go_a","0",""
"null","","html-keyboard-response","408","591109","0.0-6.0-2.62","","<div style=""font-size:60px;"">+</div>","null","","","","","","",""
"391.1250000819564","","image-keyboard-response","409","591501","0.0-6.0-0.63","","img/grey.png","32","trial","32","true","0.8,0.2","3:go_c","",""
"null","","html-keyboard-response","410","592503","0.0-6.0-1.63","","<img src=""img/grey-r.png"" border=""10"">","null","trial","32","","0.8,0.2","3:go_c","1",""
"null","","html-keyboard-response","411","593506","0.0-6.0-2.63","","<div style=""font-size:60px;"">+</div>","null","","","","","","",""
"null","","image-keyboard-response","412","595007","0.0-6.0-0.64","","img/green.png","null","trial","null","true","0.2,0.8","4:nogo_d","",""
"null","","html-keyboard-response","413","596009","0.0-6.0-1.64","","<img src=""img/green-r.png"">","null","trial","null","","0.2,0.8","4:nogo_d","1",""
"null","","html-keyboard-response","414","597014","0.0-6.0-2.64","","<div style=""font-size:60px;"">+</div>","null","","","","","","",""
"350.42000003159046","","image-keyboard-response","415","597365","0.0-6.0-0.65","","img/grey.png","32","trial","32","true","0.8,0.2","3:go_c","",""
"null","","html-keyboard-response","416","598368","0.0-6.0-1.65","","<img src=""img/grey-r.png"" border=""10"">","null","trial","32","","0.8,0.2","3:go_c","1",""
"null","","html-keyboard-response","417","599370","0.0-6.0-2.65","","<div style=""font-size:60px;"">+</div>","null","","","","","","",""
"null","","image-keyboard-response","418","600872","0.0-6.0-0.66","","img/yellow.png","null","trial","32","false","0.8,0.2","1:go_a","",""
"null","","html-keyboard-response","419","601874","0.0-6.0-1.66","","<img src=""img/yellow-r.png"">","null","trial","32","","0.8,0.2","1:go_a","1",""
"null","","html-keyboard-response","420","602876","0.0-6.0-2.66","","<div style=""font-size:60px;"">+</div>","null","","","","","","",""
"null","","image-keyboard-response","421","604377","0.0-6.0-0.67","","img/orange.png","null","trial","null","true","0.2,0.8","2:nogo_b","",""
"null","","html-keyboard-response","422","605380","0.0-6.0-1.67","","<img src=""img/orange-r.png"">","null","trial","null","","0.2,0.8","2:nogo_b","1",""
"null","","html-keyboard-response","423","606382","0.0-6.0-2.67","","<div style=""font-size:60px;"">+</div>","null","","","","","","",""
"null","","image-keyboard-response","424","607884","0.0-6.0-0.68","","img/green.png","null","trial","null","true","0.2,0.8","4:nogo_d","",""
"null","","html-keyboard-response","425","608886","0.0-6.0-1.68","","<img src=""img/green-r.png"">","null","trial","null","","0.2,0.8","4:nogo_d","1",""
"null","","html-keyboard-response","426","609888","0.0-6.0-2.68","","<div style=""font-size:60px;"">+</div>","null","","","","","","",""
"null","","image-keyboard-response","427","611390","0.0-6.0-0.69","","img/orange.png","null","trial","null","true","0.2,0.8","2:nogo_b","",""
"null","","html-keyboard-response","428","612392","0.0-6.0-1.69","","<img src=""img/orange-r.png"">","null","trial","null","","0.2,0.8","2:nogo_b","1",""
"null","","html-keyboard-response","429","613394","0.0-6.0-2.69","","<div style=""font-size:60px;"">+</div>","null","","","","","","",""
"null","","image-keyboard-response","430","614895","0.0-6.0-0.70","","img/yellow.png","null","trial","32","false","0.8,0.2","1:go_a","",""
"null","","html-keyboard-response","431","615897","0.0-6.0-1.70","","<img src=""img/yellow-n.png"">","null","trial","32","","0.8,0.2","1:go_a","0",""
"null","","html-keyboard-response","432","616899","0.0-6.0-2.70","","<div style=""font-size:60px;"">+</div>","null","","","","","","",""
"385.01000008545816","","image-keyboard-response","433","617286","0.0-6.0-0.71","","img/grey.png","32","trial","32","true","0.8,0.2","3:go_c","",""
"null","","html-keyboard-response","434","618290","0.0-6.0-1.71","","<img src=""img/grey-r.png"" border=""10"">","null","trial","32","","0.8,0.2","3:go_c","1",""
"null","","html-keyboard-response","435","619292","0.0-6.0-2.71","","<div style=""font-size:60px;"">+</div>","null","","","","","","",""
"600.3099998924881","","image-keyboard-response","436","619893","0.0-6.0-0.72","","img/green.png","32","trial","null","false","0.2,0.8","4:nogo_d","",""
"null","","html-keyboard-response","437","620895","0.0-6.0-1.72","","<img src=""img/green-n.png"" border=""10"">","null","trial","null","","0.2,0.8","4:nogo_d","0",""
"null","","html-keyboard-response","438","621896","0.0-6.0-2.72","","<div style=""font-size:60px;"">+</div>","null","","","","","","",""
"491.65500001981854","","image-keyboard-response","439","622389","0.0-6.0-0.73","","img/grey.png","32","trial","32","true","0.8,0.2","3:go_c","",""
"null","","html-keyboard-response","440","623391","0.0-6.0-1.73","","<img src=""img/grey-r.png"" border=""10"">","null","trial","32","","0.8,0.2","3:go_c","1",""
"null","","html-keyboard-response","441","624393","0.0-6.0-2.73","","<div style=""font-size:60px;"">+</div>","null","","","","","","",""
"null","","image-keyboard-response","442","625895","0.0-6.0-0.74","","img/yellow.png","null","trial","32","false","0.8,0.2","1:go_a","",""
"null","","html-keyboard-response","443","626897","0.0-6.0-1.74","","<img src=""img/yellow-n.png"">","null","trial","32","","0.8,0.2","1:go_a","0",""
"null","","html-keyboard-response","444","627898","0.0-6.0-2.74","","<div style=""font-size:60px;"">+</div>","null","","","","","","",""
"425.74500013142824","","image-keyboard-response","445","628325","0.0-6.0-0.75","","img/orange.png","32","trial","null","false","0.2,0.8","2:nogo_b","",""
"null","","html-keyboard-response","446","629327","0.0-6.0-1.75","","<img src=""img/orange-n.png"" border=""10"">","null","trial","null","","0.2,0.8","2:nogo_b","0",""
"null","","html-keyboard-response","447","630328","0.0-6.0-2.75","","<div style=""font-size:60px;"">+</div>","null","","","","","","",""
"null","","image-keyboard-response","448","631830","0.0-6.0-0.76","","img/green.png","null","trial","null","true","0.2,0.8","4:nogo_d","",""
"null","","html-keyboard-response","449","632832","0.0-6.0-1.76","","<img src=""img/green-r.png"">","null","trial","null","","0.2,0.8","4:nogo_d","1",""
"null","","html-keyboard-response","450","633848","0.0-6.0-2.76","","<div style=""font-size:60px;"">+</div>","null","","","","","","",""
"404.7250000294298","","image-keyboard-response","451","634253","0.0-6.0-0.77","","img/grey.png","32","trial","32","true","0.8,0.2","3:go_c","",""
"null","","html-keyboard-response","452","635256","0.0-6.0-1.77","","<img src=""img/grey-r.png"" border=""10"">","null","trial","32","","0.8,0.2","3:go_c","1",""
"null","","html-keyboard-response","453","636257","0.0-6.0-2.77","","<div style=""font-size:60px;"">+</div>","null","","","","","","",""
"null","","image-keyboard-response","454","637772","0.0-6.0-0.78","","img/orange.png","null","trial","null","true","0.2,0.8","2:nogo_b","",""
"null","","html-keyboard-response","455","638776","0.0-6.0-1.78","","<img src=""img/orange-r.png"">","null","trial","null","","0.2,0.8","2:nogo_b","1",""
"null","","html-keyboard-response","456","639778","0.0-6.0-2.78","","<div style=""font-size:60px;"">+</div>","null","","","","","","",""
"null","","image-keyboard-response","457","641280","0.0-6.0-0.79","","img/yellow.png","null","trial","32","false","0.8,0.2","1:go_a","",""
"null","","html-keyboard-response","458","642282","0.0-6.0-1.79","","<img src=""img/yellow-r.png"">","null","trial","32","","0.8,0.2","1:go_a","1",""
"null","","html-keyboard-response","459","643283","0.0-6.0-2.79","","<div style=""font-size:60px;"">+</div>","null","","","","","","",""
"null","","image-keyboard-response","460","644785","0.0-6.0-0.80","","img/yellow.png","null","trial","32","false","0.8,0.2","1:go_a","",""
"null","","html-keyboard-response","461","645786","0.0-6.0-1.80","","<img src=""img/yellow-r.png"">","null","trial","32","","0.8,0.2","1:go_a","1",""
"null","","html-keyboard-response","462","646788","0.0-6.0-2.80","","<div style=""font-size:60px;"">+</div>","null","","","","","","",""
"null","","image-keyboard-response","463","648290","0.0-6.0-0.81","","img/green.png","null","trial","null","true","0.2,0.8","4:nogo_d","",""
"null","","html-keyboard-response","464","649293","0.0-6.0-1.81","","<img src=""img/green-r.png"">","null","trial","null","","0.2,0.8","4:nogo_d","1",""
"null","","html-keyboard-response","465","650294","0.0-6.0-2.81","","<div style=""font-size:60px;"">+</div>","null","","","","","","",""
"358.42499998398125","","image-keyboard-response","466","650653","0.0-6.0-0.82","","img/grey.png","32","trial","32","true","0.8,0.2","3:go_c","",""
"null","","html-keyboard-response","467","651656","0.0-6.0-1.82","","<img src=""img/grey-r.png"" border=""10"">","null","trial","32","","0.8,0.2","3:go_c","1",""
"null","","html-keyboard-response","468","652657","0.0-6.0-2.82","","<div style=""font-size:60px;"">+</div>","null","","","","","","",""
"null","","image-keyboard-response","469","654159","0.0-6.0-0.83","","img/orange.png","null","trial","null","true","0.2,0.8","2:nogo_b","",""
"null","","html-keyboard-response","470","655162","0.0-6.0-1.83","","<img src=""img/orange-r.png"">","null","trial","null","","0.2,0.8","2:nogo_b","1",""
"null","","html-keyboard-response","471","656164","0.0-6.0-2.83","","<div style=""font-size:60px;"">+</div>","null","","","","","","",""
"null","","image-keyboard-response","472","657665","0.0-6.0-0.84","","img/green.png","null","trial","null","true","0.2,0.8","4:nogo_d","",""
"null","","html-keyboard-response","473","658669","0.0-6.0-1.84","","<img src=""img/green-r.png"">","null","trial","null","","0.2,0.8","4:nogo_d","1",""
"null","","html-keyboard-response","474","659670","0.0-6.0-2.84","","<div style=""font-size:60px;"">+</div>","null","","","","","","",""
"null","","image-keyboard-response","475","661172","0.0-6.0-0.85","","img/orange.png","null","trial","null","true","0.2,0.8","2:nogo_b","",""
"null","","html-keyboard-response","476","662175","0.0-6.0-1.85","","<img src=""img/orange-r.png"">","null","trial","null","","0.2,0.8","2:nogo_b","1",""
"null","","html-keyboard-response","477","663176","0.0-6.0-2.85","","<div style=""font-size:60px;"">+</div>","null","","","","","","",""
"379.1450001299381","","image-keyboard-response","478","663556","0.0-6.0-0.86","","img/grey.png","32","trial","32","true","0.8,0.2","3:go_c","",""
"null","","html-keyboard-response","479","664558","0.0-6.0-1.86","","<img src=""img/grey-r.png"" border=""10"">","null","trial","32","","0.8,0.2","3:go_c","1",""
"null","","html-keyboard-response","480","665560","0.0-6.0-2.86","","<div style=""font-size:60px;"">+</div>","null","","","","","","",""
"null","","image-keyboard-response","481","667062","0.0-6.0-0.87","","img/yellow.png","null","trial","32","false","0.8,0.2","1:go_a","",""
"null","","html-keyboard-response","482","668065","0.0-6.0-1.87","","<img src=""img/yellow-n.png"">","null","trial","32","","0.8,0.2","1:go_a","0",""
"null","","html-keyboard-response","483","669068","0.0-6.0-2.87","","<div style=""font-size:60px;"">+</div>","null","","","","","","",""
"null","","image-keyboard-response","484","670578","0.0-6.0-0.88","","img/orange.png","null","trial","null","true","0.2,0.8","2:nogo_b","",""
"null","","html-keyboard-response","485","671580","0.0-6.0-1.88","","<img src=""img/orange-r.png"">","null","trial","null","","0.2,0.8","2:nogo_b","1",""
"null","","html-keyboard-response","486","672581","0.0-6.0-2.88","","<div style=""font-size:60px;"">+</div>","null","","","","","","",""
"null","","image-keyboard-response","487","674084","0.0-6.0-0.89","","img/green.png","null","trial","null","true","0.2,0.8","4:nogo_d","",""
"null","","html-keyboard-response","488","675085","0.0-6.0-1.89","","<img src=""img/green-r.png"">","null","trial","null","","0.2,0.8","4:nogo_d","1",""
"null","","html-keyboard-response","489","676086","0.0-6.0-2.89","","<div style=""font-size:60px;"">+</div>","null","","","","","","",""
"437.66499985940754","","image-keyboard-response","490","676525","0.0-6.0-0.90","","img/grey.png","32","trial","32","true","0.8,0.2","3:go_c","",""
"null","","html-keyboard-response","491","677528","0.0-6.0-1.90","","<img src=""img/grey-n.png"" border=""10"">","null","trial","32","","0.8,0.2","3:go_c","0",""
"null","","html-keyboard-response","492","678530","0.0-6.0-2.90","","<div style=""font-size:60px;"">+</div>","null","","","","","","",""
"null","","image-keyboard-response","493","680033","0.0-6.0-0.91","","img/yellow.png","null","trial","32","false","0.8,0.2","1:go_a","",""
"null","","html-keyboard-response","494","681035","0.0-6.0-1.91","","<img src=""img/yellow-n.png"">","null","trial","32","","0.8,0.2","1:go_a","0",""
"null","","html-keyboard-response","495","682038","0.0-6.0-2.91","","<div style=""font-size:60px;"">+</div>","null","","","","","","",""
"null","","image-keyboard-response","496","683540","0.0-6.0-0.92","","img/orange.png","null","trial","null","true","0.2,0.8","2:nogo_b","",""
"null","","html-keyboard-response","497","684542","0.0-6.0-1.92","","<img src=""img/orange-r.png"">","null","trial","null","","0.2,0.8","2:nogo_b","1",""
"null","","html-keyboard-response","498","685544","0.0-6.0-2.92","","<div style=""font-size:60px;"">+</div>","null","","","","","","",""
"null","","image-keyboard-response","499","687046","0.0-6.0-0.93","","img/yellow.png","null","trial","32","false","0.8,0.2","1:go_a","",""
"null","","html-keyboard-response","500","688049","0.0-6.0-1.93","","<img src=""img/yellow-n.png"">","null","trial","32","","0.8,0.2","1:go_a","0",""
"null","","html-keyboard-response","501","689050","0.0-6.0-2.93","","<div style=""font-size:60px;"">+</div>","null","","","","","","",""
"null","","image-keyboard-response","502","690551","0.0-6.0-0.94","","img/green.png","null","trial","null","true","0.2,0.8","4:nogo_d","",""
"null","","html-keyboard-response","503","691555","0.0-6.0-1.94","","<img src=""img/green-r.png"">","null","trial","null","","0.2,0.8","4:nogo_d","1",""
"null","","html-keyboard-response","504","692557","0.0-6.0-2.94","","<div style=""font-size:60px;"">+</div>","null","","","","","","",""
"647.3650000989437","","image-keyboard-response","505","693206","0.0-6.0-0.95","","img/grey.png","32","trial","32","true","0.8,0.2","3:go_c","",""
"null","","html-keyboard-response","506","694209","0.0-6.0-1.95","","<img src=""img/grey-n.png"" border=""10"">","null","trial","32","","0.8,0.2","3:go_c","0",""
"null","","html-keyboard-response","507","695211","0.0-6.0-2.95","","<div style=""font-size:60px;"">+</div>","null","","","","","","",""
"null","","image-keyboard-response","508","696712","0.0-6.0-0.96","","img/yellow.png","null","trial","32","false","0.8,0.2","1:go_a","",""
"null","","html-keyboard-response","509","697714","0.0-6.0-1.96","","<img src=""img/yellow-n.png"">","null","trial","32","","0.8,0.2","1:go_a","0",""
"null","","html-keyboard-response","510","698715","0.0-6.0-2.96","","<div style=""font-size:60px;"">+</div>","null","","","","","","",""
"null","","image-keyboard-response","511","700217","0.0-6.0-0.97","","img/green.png","null","trial","null","true","0.2,0.8","4:nogo_d","",""
"null","","html-keyboard-response","512","701221","0.0-6.0-1.97","","<img src=""img/green-r.png"">","null","trial","null","","0.2,0.8","4:nogo_d","1",""
"null","","html-keyboard-response","513","702223","0.0-6.0-2.97","","<div style=""font-size:60px;"">+</div>","null","","","","","","",""
"357.61000006459653","","image-keyboard-response","514","702581","0.0-6.0-0.98","","img/grey.png","32","trial","32","true","0.8,0.2","3:go_c","",""
"null","","html-keyboard-response","515","703583","0.0-6.0-1.98","","<img src=""img/grey-r.png"" border=""10"">","null","trial","32","","0.8,0.2","3:go_c","1",""
"null","","html-keyboard-response","516","704584","0.0-6.0-2.98","","<div style=""font-size:60px;"">+</div>","null","","","","","","",""
"null","","image-keyboard-response","517","706085","0.0-6.0-0.99","","img/orange.png","null","trial","null","true","0.2,0.8","2:nogo_b","",""
"null","","html-keyboard-response","518","707086","0.0-6.0-1.99","","<img src=""img/orange-n.png"">","null","trial","null","","0.2,0.8","2:nogo_b","0",""
"null","","html-keyboard-response","519","708089","0.0-6.0-2.99","","<div style=""font-size:60px;"">+</div>","null","","","","","","",""
"null","","image-keyboard-response","520","709590","0.0-6.0-0.100","","img/green.png","null","trial","null","true","0.2,0.8","4:nogo_d","",""
"null","","html-keyboard-response","521","710593","0.0-6.0-1.100","","<img src=""img/green-r.png"">","null","trial","null","","0.2,0.8","4:nogo_d","1",""
"null","","html-keyboard-response","522","711594","0.0-6.0-2.100","","<div style=""font-size:60px;"">+</div>","null","","","","","","",""
"null","","image-keyboard-response","523","713096","0.0-6.0-0.101","","img/yellow.png","null","trial","32","false","0.8,0.2","1:go_a","",""
"null","","html-keyboard-response","524","714099","0.0-6.0-1.101","","<img src=""img/yellow-r.png"">","null","trial","32","","0.8,0.2","1:go_a","1",""
"null","","html-keyboard-response","525","715100","0.0-6.0-2.101","","<div style=""font-size:60px;"">+</div>","null","","","","","","",""
"null","","image-keyboard-response","526","716603","0.0-6.0-0.102","","img/orange.png","null","trial","null","true","0.2,0.8","2:nogo_b","",""
"null","","html-keyboard-response","527","717606","0.0-6.0-1.102","","<img src=""img/orange-r.png"">","null","trial","null","","0.2,0.8","2:nogo_b","1",""
"null","","html-keyboard-response","528","718607","0.0-6.0-2.102","","<div style=""font-size:60px;"">+</div>","null","","","","","","",""
"396.90499985590577","","image-keyboard-response","529","719005","0.0-6.0-0.103","","img/grey.png","32","trial","32","true","0.8,0.2","3:go_c","",""
"null","","html-keyboard-response","530","720007","0.0-6.0-1.103","","<img src=""img/grey-n.png"" border=""10"">","null","trial","32","","0.8,0.2","3:go_c","0",""
"null","","html-keyboard-response","531","721022","0.0-6.0-2.103","","<div style=""font-size:60px;"">+</div>","null","","","","","","",""
"null","","image-keyboard-response","532","722523","0.0-6.0-0.104","","img/yellow.png","null","trial","32","false","0.8,0.2","1:go_a","",""
"null","","html-keyboard-response","533","723524","0.0-6.0-1.104","","<img src=""img/yellow-n.png"">","null","trial","32","","0.8,0.2","1:go_a","0",""
"null","","html-keyboard-response","534","724526","0.0-6.0-2.104","","<div style=""font-size:60px;"">+</div>","null","","","","","","",""
"910.2950000669807","","image-keyboard-response","535","725437","0.0-6.0-0.105","","img/grey.png","32","trial","32","true","0.8,0.2","3:go_c","",""
"null","","html-keyboard-response","536","726439","0.0-6.0-1.105","","<img src=""img/grey-r.png"" border=""10"">","null","trial","32","","0.8,0.2","3:go_c","1",""
"null","","html-keyboard-response","537","727441","0.0-6.0-2.105","","<div style=""font-size:60px;"">+</div>","null","","","","","","",""
"null","","image-keyboard-response","538","728942","0.0-6.0-0.106","","img/orange.png","null","trial","null","true","0.2,0.8","2:nogo_b","",""
"null","","html-keyboard-response","539","729944","0.0-6.0-1.106","","<img src=""img/orange-r.png"">","null","trial","null","","0.2,0.8","2:nogo_b","1",""
"null","","html-keyboard-response","540","730945","0.0-6.0-2.106","","<div style=""font-size:60px;"">+</div>","null","","","","","","",""
"null","","image-keyboard-response","541","732451","0.0-6.0-0.107","","img/green.png","null","trial","null","true","0.2,0.8","4:nogo_d","",""
"null","","html-keyboard-response","542","733457","0.0-6.0-1.107","","<img src=""img/green-r.png"">","null","trial","null","","0.2,0.8","4:nogo_d","1",""
"null","","html-keyboard-response","543","734459","0.0-6.0-2.107","","<div style=""font-size:60px;"">+</div>","null","","","","","","",""
"360.7499999925494","","image-keyboard-response","544","734821","0.0-6.0-0.108","","img/grey.png","32","trial","32","true","0.8,0.2","3:go_c","",""
"null","","html-keyboard-response","545","735824","0.0-6.0-1.108","","<img src=""img/grey-r.png"" border=""10"">","null","trial","32","","0.8,0.2","3:go_c","1",""
"null","","html-keyboard-response","546","736825","0.0-6.0-2.108","","<div style=""font-size:60px;"">+</div>","null","","","","","","",""
"null","","image-keyboard-response","547","738327","0.0-6.0-0.109","","img/yellow.png","null","trial","32","false","0.8,0.2","1:go_a","",""
"null","","html-keyboard-response","548","739329","0.0-6.0-1.109","","<img src=""img/yellow-n.png"">","null","trial","32","","0.8,0.2","1:go_a","0",""
"null","","html-keyboard-response","549","740330","0.0-6.0-2.109","","<div style=""font-size:60px;"">+</div>","null","","","","","","",""
"null","","image-keyboard-response","550","741832","0.0-6.0-0.110","","img/green.png","null","trial","null","true","0.2,0.8","4:nogo_d","",""
"null","","html-keyboard-response","551","742836","0.0-6.0-1.110","","<img src=""img/green-n.png"">","null","trial","null","","0.2,0.8","4:nogo_d","0",""
"null","","html-keyboard-response","552","743837","0.0-6.0-2.110","","<div style=""font-size:60px;"">+</div>","null","","","","","","",""
"null","","image-keyboard-response","553","745339","0.0-6.0-0.111","","img/orange.png","null","trial","null","true","0.2,0.8","2:nogo_b","",""
"null","","html-keyboard-response","554","746341","0.0-6.0-1.111","","<img src=""img/orange-r.png"">","null","trial","null","","0.2,0.8","2:nogo_b","1",""
"null","","html-keyboard-response","555","747343","0.0-6.0-2.111","","<div style=""font-size:60px;"">+</div>","null","","","","","","",""
"null","","image-keyboard-response","556","748846","0.0-6.0-0.112","","img/yellow.png","null","trial","32","false","0.8,0.2","1:go_a","",""
"null","","html-keyboard-response","557","749848","0.0-6.0-1.112","","<img src=""img/yellow-n.png"">","null","trial","32","","0.8,0.2","1:go_a","0",""
"null","","html-keyboard-response","558","750863","0.0-6.0-2.112","","<div style=""font-size:60px;"">+</div>","null","","","","","","",""
"475.6000000052154","","image-keyboard-response","559","751340","0.0-6.0-0.113","","img/grey.png","32","trial","32","true","0.8,0.2","3:go_c","",""
"null","","html-keyboard-response","560","752342","0.0-6.0-1.113","","<img src=""img/grey-r.png"" border=""10"">","null","trial","32","","0.8,0.2","3:go_c","1",""
"null","","html-keyboard-response","561","753343","0.0-6.0-2.113","","<div style=""font-size:60px;"">+</div>","null","","","","","","",""
"null","","image-keyboard-response","562","754844","0.0-6.0-0.114","","img/orange.png","null","trial","null","true","0.2,0.8","2:nogo_b","",""
"null","","html-keyboard-response","563","755847","0.0-6.0-1.114","","<img src=""img/orange-n.png"">","null","trial","null","","0.2,0.8","2:nogo_b","0",""
"null","","html-keyboard-response","564","756849","0.0-6.0-2.114","","<div style=""font-size:60px;"">+</div>","null","","","","","","",""
"null","","image-keyboard-response","565","758351","0.0-6.0-0.115","","img/green.png","null","trial","null","true","0.2,0.8","4:nogo_d","",""
"null","","html-keyboard-response","566","759355","0.0-6.0-1.115","","<img src=""img/green-r.png"">","null","trial","null","","0.2,0.8","4:nogo_d","1",""
"null","","html-keyboard-response","567","760357","0.0-6.0-2.115","","<div style=""font-size:60px;"">+</div>","null","","","","","","",""
"null","","image-keyboard-response","568","761859","0.0-6.0-0.116","","img/orange.png","null","trial","null","true","0.2,0.8","2:nogo_b","",""
"null","","html-keyboard-response","569","762861","0.0-6.0-1.116","","<img src=""img/orange-r.png"">","null","trial","null","","0.2,0.8","2:nogo_b","1",""
"null","","html-keyboard-response","570","763863","0.0-6.0-2.116","","<div style=""font-size:60px;"">+</div>","null","","","","","","",""
"null","","image-keyboard-response","571","765364","0.0-6.0-0.117","","img/green.png","null","trial","null","true","0.2,0.8","4:nogo_d","",""
"null","","html-keyboard-response","572","766367","0.0-6.0-1.117","","<img src=""img/green-n.png"">","null","trial","null","","0.2,0.8","4:nogo_d","0",""
"null","","html-keyboard-response","573","767368","0.0-6.0-2.117","","<div style=""font-size:60px;"">+</div>","null","","","","","","",""
"346.6550000011921","","image-keyboard-response","574","767717","0.0-6.0-0.118","","img/grey.png","32","trial","32","true","0.8,0.2","3:go_c","",""
"null","","html-keyboard-response","575","768719","0.0-6.0-1.118","","<img src=""img/grey-r.png"" border=""10"">","null","trial","32","","0.8,0.2","3:go_c","1",""
"null","","html-keyboard-response","576","769721","0.0-6.0-2.118","","<div style=""font-size:60px;"">+</div>","null","","","","","","",""
"null","","image-keyboard-response","577","771223","0.0-6.0-0.119","","img/yellow.png","null","trial","32","false","0.8,0.2","1:go_a","",""
"null","","html-keyboard-response","578","772225","0.0-6.0-1.119","","<img src=""img/yellow-n.png"">","null","trial","32","","0.8,0.2","1:go_a","0",""
"null","","html-keyboard-response","579","773227","0.0-6.0-2.119","","<div style=""font-size:60px;"">+</div>","null","","","","","","",""
"2400290.3100000694","","instructions","580","3173499","0.0-7.0","[{""page_index"":0,""viewing_time"":2400290.035000071}]","","","","","","","","",""
"471.41999984160066","","image-keyboard-response","581","3173971","0.0-8.0-0.0","","img/yellow.png","32","trial","null","false","0.4,0.6","2:nogo_b","",""
"null","","html-keyboard-response","582","3174973","0.0-8.0-1.0","","<img src=""img/yellow-n.png"" border=""10"">","null","trial","null","","0.4,0.6","2:nogo_b","0",""
"null","","html-keyboard-response","583","3175976","0.0-8.0-2.0","","<div style=""font-size:60px;"">+</div>","null","","","","","","",""
"321.6500000562519","","image-keyboard-response","584","3176298","0.0-8.0-0.1","","img/purple.png","32","trial","32","true","0.6,0.4","1:go_a","",""
"null","","html-keyboard-response","585","3177302","0.0-8.0-1.1","","<img src=""img/purple-r.png"" border=""10"">","null","trial","32","","0.6,0.4","1:go_a","1",""
"null","","html-keyboard-response","586","3178304","0.0-8.0-2.1","","<div style=""font-size:60px;"">+</div>","null","","","","","","",""
"386.2199999857694","","image-keyboard-response","587","3178691","0.0-8.0-0.2","","img/grey.png","32","trial","32","true","0.6,0.4","3:go_c","",""
"null","","html-keyboard-response","588","3179702","0.0-8.0-1.2","","<img src=""img/grey-r.png"" border=""10"">","null","trial","32","","0.6,0.4","3:go_c","1",""
"null","","html-keyboard-response","589","3180705","0.0-8.0-2.2","","<div style=""font-size:60px;"">+</div>","null","","","","","","",""
"361.20499996468425","","image-keyboard-response","590","3181067","0.0-8.0-0.3","","img/pink.png","32","trial","null","false","0.4,0.6","4:nogo_d","",""
"null","","html-keyboard-response","591","3182070","0.0-8.0-1.3","","<img src=""img/pink-r.png"" border=""10"">","null","trial","null","","0.4,0.6","4:nogo_d","1",""
"null","","html-keyboard-response","592","3183072","0.0-8.0-2.3","","<div style=""font-size:60px;"">+</div>","null","","","","","","",""
"426.0299999732524","","image-keyboard-response","593","3183500","0.0-8.0-0.4","","img/purple.png","32","trial","32","true","0.6,0.4","1:go_a","",""
"null","","html-keyboard-response","594","3184503","0.0-8.0-1.4","","<img src=""img/purple-n.png"" border=""10"">","null","trial","32","","0.6,0.4","1:go_a","0",""
"null","","html-keyboard-response","595","3185506","0.0-8.0-2.4","","<div style=""font-size:60px;"">+</div>","null","","","","","","",""
"375.23999996483326","","image-keyboard-response","596","3185882","0.0-8.0-0.5","","img/grey.png","32","trial","32","true","0.6,0.4","3:go_c","",""
"null","","html-keyboard-response","597","3186885","0.0-8.0-1.5","","<img src=""img/grey-n.png"" border=""10"">","null","trial","32","","0.6,0.4","3:go_c","0",""
"null","","html-keyboard-response","598","3187886","0.0-8.0-2.5","","<div style=""font-size:60px;"">+</div>","null","","","","","","",""
"466.8149999342859","","image-keyboard-response","599","3188354","0.0-8.0-0.6","","img/yellow.png","32","trial","null","false","0.4,0.6","2:nogo_b","",""
"null","","html-keyboard-response","600","3189356","0.0-8.0-1.6","","<img src=""img/yellow-n.png"" border=""10"">","null","trial","null","","0.4,0.6","2:nogo_b","0",""
"null","","html-keyboard-response","601","3190358","0.0-8.0-2.6","","<div style=""font-size:60px;"">+</div>","null","","","","","","",""
"387.8949999343604","","image-keyboard-response","602","3190747","0.0-8.0-0.7","","img/pink.png","32","trial","null","false","0.4,0.6","4:nogo_d","",""
"null","","html-keyboard-response","603","3191750","0.0-8.0-1.7","","<img src=""img/pink-r.png"" border=""10"">","null","trial","null","","0.4,0.6","4:nogo_d","1",""
"null","","html-keyboard-response","604","3192751","0.0-8.0-2.7","","<div style=""font-size:60px;"">+</div>","null","","","","","","",""
"null","","image-keyboard-response","605","3194254","0.0-8.0-0.8","","img/grey.png","null","trial","32","false","0.6,0.4","3:go_c","",""
"null","","html-keyboard-response","606","3195256","0.0-8.0-1.8","","<img src=""img/grey-r.png"">","null","trial","32","","0.6,0.4","3:go_c","1",""
"null","","html-keyboard-response","607","3196259","0.0-8.0-2.8","","<div style=""font-size:60px;"">+</div>","null","","","","","","",""
"null","","image-keyboard-response","608","3197762","0.0-8.0-0.9","","img/yellow.png","null","trial","null","true","0.4,0.6","2:nogo_b","",""
"null","","html-keyboard-response","609","3198764","0.0-8.0-1.9","","<img src=""img/yellow-n.png"">","null","trial","null","","0.4,0.6","2:nogo_b","0",""
"null","","html-keyboard-response","610","3199765","0.0-8.0-2.9","","<div style=""font-size:60px;"">+</div>","null","","","","","","",""
"444.6900000330061","","image-keyboard-response","611","3200211","0.0-8.0-0.10","","img/pink.png","32","trial","null","false","0.4,0.6","4:nogo_d","",""
"null","","html-keyboard-response","612","3201224","0.0-8.0-1.10","","<img src=""img/pink-n.png"" border=""10"">","null","trial","null","","0.4,0.6","4:nogo_d","0",""
"null","","html-keyboard-response","613","3202226","0.0-8.0-2.10","","<div style=""font-size:60px;"">+</div>","null","","","","","","",""
"null","","image-keyboard-response","614","3203728","0.0-8.0-0.11","","img/purple.png","null","trial","32","false","0.6,0.4","1:go_a","",""
"null","","html-keyboard-response","615","3204730","0.0-8.0-1.11","","<img src=""img/purple-n.png"">","null","trial","32","","0.6,0.4","1:go_a","0",""
"null","","html-keyboard-response","616","3205732","0.0-8.0-2.11","","<div style=""font-size:60px;"">+</div>","null","","","","","","",""
"null","","image-keyboard-response","617","3207234","0.0-8.0-0.12","","img/yellow.png","null","trial","null","true","0.4,0.6","2:nogo_b","",""
"null","","html-keyboard-response","618","3208237","0.0-8.0-1.12","","<img src=""img/yellow-r.png"">","null","trial","null","","0.4,0.6","2:nogo_b","1",""
"null","","html-keyboard-response","619","3209239","0.0-8.0-2.12","","<div style=""font-size:60px;"">+</div>","null","","","","","","",""
"null","","image-keyboard-response","620","3210741","0.0-8.0-0.13","","img/grey.png","null","trial","32","false","0.6,0.4","3:go_c","",""
"null","","html-keyboard-response","621","3211744","0.0-8.0-1.13","","<img src=""img/grey-r.png"">","null","trial","32","","0.6,0.4","3:go_c","1",""
"null","","html-keyboard-response","622","3212746","0.0-8.0-2.13","","<div style=""font-size:60px;"">+</div>","null","","","","","","",""
"344.4299998227507","","image-keyboard-response","623","3213091","0.0-8.0-0.14","","img/purple.png","32","trial","32","true","0.6,0.4","1:go_a","",""
"null","","html-keyboard-response","624","3214094","0.0-8.0-1.14","","<img src=""img/purple-r.png"" border=""10"">","null","trial","32","","0.6,0.4","1:go_a","1",""
"null","","html-keyboard-response","625","3215096","0.0-8.0-2.14","","<div style=""font-size:60px;"">+</div>","null","","","","","","",""
"361.22000007890165","","image-keyboard-response","626","3215458","0.0-8.0-0.15","","img/pink.png","32","trial","null","false","0.4,0.6","4:nogo_d","",""
"null","","html-keyboard-response","627","3216459","0.0-8.0-1.15","","<img src=""img/pink-r.png"" border=""10"">","null","trial","null","","0.4,0.6","4:nogo_d","1",""
"null","","html-keyboard-response","628","3217462","0.0-8.0-2.15","","<div style=""font-size:60px;"">+</div>","null","","","","","","",""
"null","","image-keyboard-response","629","3218964","0.0-8.0-0.16","","img/yellow.png","null","trial","null","true","0.4,0.6","2:nogo_b","",""
"null","","html-keyboard-response","630","3219968","0.0-8.0-1.16","","<img src=""img/yellow-n.png"">","null","trial","null","","0.4,0.6","2:nogo_b","0",""
"null","","html-keyboard-response","631","3220970","0.0-8.0-2.16","","<div style=""font-size:60px;"">+</div>","null","","","","","","",""
"519.9049999937415","","image-keyboard-response","632","3221491","0.0-8.0-0.17","","img/pink.png","32","trial","null","false","0.4,0.6","4:nogo_d","",""
"null","","html-keyboard-response","633","3222493","0.0-8.0-1.17","","<img src=""img/pink-n.png"" border=""10"">","null","trial","null","","0.4,0.6","4:nogo_d","0",""
"null","","html-keyboard-response","634","3223506","0.0-8.0-2.17","","<div style=""font-size:60px;"">+</div>","null","","","","","","",""
"null","","image-keyboard-response","635","3225008","0.0-8.0-0.18","","img/grey.png","null","trial","32","false","0.6,0.4","3:go_c","",""
"null","","html-keyboard-response","636","3226011","0.0-8.0-1.18","","<img src=""img/grey-n.png"">","null","trial","32","","0.6,0.4","3:go_c","0",""
"null","","html-keyboard-response","637","3227013","0.0-8.0-2.18","","<div style=""font-size:60px;"">+</div>","null","","","","","","",""
"333.4150000009686","","image-keyboard-response","638","3227347","0.0-8.0-0.19","","img/purple.png","32","trial","32","true","0.6,0.4","1:go_a","",""
"null","","html-keyboard-response","639","3228348","0.0-8.0-1.19","","<img src=""img/purple-n.png"" border=""10"">","null","trial","32","","0.6,0.4","1:go_a","0",""
"null","","html-keyboard-response","640","3229351","0.0-8.0-2.19","","<div style=""font-size:60px;"">+</div>","null","","","","","","",""
"507.01499986462295","","image-keyboard-response","641","3229859","0.0-8.0-0.20","","img/grey.png","32","trial","32","true","0.6,0.4","3:go_c","",""
"null","","html-keyboard-response","642","3230862","0.0-8.0-1.20","","<img src=""img/grey-r.png"" border=""10"">","null","trial","32","","0.6,0.4","3:go_c","1",""
"null","","html-keyboard-response","643","3231864","0.0-8.0-2.20","","<div style=""font-size:60px;"">+</div>","null","","","","","","",""
"433.4800001233816","","image-keyboard-response","644","3232298","0.0-8.0-0.21","","img/pink.png","32","trial","null","false","0.4,0.6","4:nogo_d","",""
"null","","html-keyboard-response","645","3233301","0.0-8.0-1.21","","<img src=""img/pink-n.png"" border=""10"">","null","trial","null","","0.4,0.6","4:nogo_d","0",""
"null","","html-keyboard-response","646","3234303","0.0-8.0-2.21","","<div style=""font-size:60px;"">+</div>","null","","","","","","",""
"562.1200001332909","","image-keyboard-response","647","3234866","0.0-8.0-0.22","","img/purple.png","32","trial","32","true","0.6,0.4","1:go_a","",""
"null","","html-keyboard-response","648","3235868","0.0-8.0-1.22","","<img src=""img/purple-r.png"" border=""10"">","null","trial","32","","0.6,0.4","1:go_a","1",""
"null","","html-keyboard-response","649","3236871","0.0-8.0-2.22","","<div style=""font-size:60px;"">+</div>","null","","","","","","",""
"null","","image-keyboard-response","650","3238372","0.0-8.0-0.23","","img/yellow.png","null","trial","null","true","0.4,0.6","2:nogo_b","",""
"null","","html-keyboard-response","651","3239374","0.0-8.0-1.23","","<img src=""img/yellow-n.png"">","null","trial","null","","0.4,0.6","2:nogo_b","0",""
"null","","html-keyboard-response","652","3240376","0.0-8.0-2.23","","<div style=""font-size:60px;"">+</div>","null","","","","","","",""
"417.75000002235174","","image-keyboard-response","653","3240795","0.0-8.0-0.24","","img/grey.png","32","trial","32","true","0.6,0.4","3:go_c","",""
"null","","html-keyboard-response","654","3241798","0.0-8.0-1.24","","<img src=""img/grey-n.png"" border=""10"">","null","trial","32","","0.6,0.4","3:go_c","0",""
"null","","html-keyboard-response","655","3242801","0.0-8.0-2.24","","<div style=""font-size:60px;"">+</div>","null","","","","","","",""
"null","","image-keyboard-response","656","3244303","0.0-8.0-0.25","","img/yellow.png","null","trial","null","true","0.4,0.6","2:nogo_b","",""
"null","","html-keyboard-response","657","3245307","0.0-8.0-1.25","","<img src=""img/yellow-n.png"">","null","trial","null","","0.4,0.6","2:nogo_b","0",""
"null","","html-keyboard-response","658","3246309","0.0-8.0-2.25","","<div style=""font-size:60px;"">+</div>","null","","","","","","",""
"null","","image-keyboard-response","659","3247811","0.0-8.0-0.26","","img/pink.png","null","trial","null","true","0.4,0.6","4:nogo_d","",""
"null","","html-keyboard-response","660","3248813","0.0-8.0-1.26","","<img src=""img/pink-n.png"">","null","trial","null","","0.4,0.6","4:nogo_d","0",""
"null","","html-keyboard-response","661","3249814","0.0-8.0-2.26","","<div style=""font-size:60px;"">+</div>","null","","","","","","",""
"387.0599998626858","","image-keyboard-response","662","3250202","0.0-8.0-0.27","","img/purple.png","32","trial","32","true","0.6,0.4","1:go_a","",""
"null","","html-keyboard-response","663","3251205","0.0-8.0-1.27","","<img src=""img/purple-r.png"" border=""10"">","null","trial","32","","0.6,0.4","1:go_a","1",""
"null","","html-keyboard-response","664","3252207","0.0-8.0-2.27","","<div style=""font-size:60px;"">+</div>","null","","","","","","",""
"402.5650001130998","","image-keyboard-response","665","3252610","0.0-8.0-0.28","","img/purple.png","32","trial","32","true","0.6,0.4","1:go_a","",""
"null","","html-keyboard-response","666","3253613","0.0-8.0-1.28","","<img src=""img/purple-n.png"" border=""10"">","null","trial","32","","0.6,0.4","1:go_a","0",""
"null","","html-keyboard-response","667","3254615","0.0-8.0-2.28","","<div style=""font-size:60px;"">+</div>","null","","","","","","",""
"null","","image-keyboard-response","668","3256118","0.0-8.0-0.29","","img/yellow.png","null","trial","null","true","0.4,0.6","2:nogo_b","",""
"null","","html-keyboard-response","669","3257120","0.0-8.0-1.29","","<img src=""img/yellow-r.png"">","null","trial","null","","0.4,0.6","2:nogo_b","1",""
"null","","html-keyboard-response","670","3258122","0.0-8.0-2.29","","<div style=""font-size:60px;"">+</div>","null","","","","","","",""
"583.0449999775738","","image-keyboard-response","671","3258706","0.0-8.0-0.30","","img/grey.png","32","trial","32","true","0.6,0.4","3:go_c","",""
"null","","html-keyboard-response","672","3259710","0.0-8.0-1.30","","<img src=""img/grey-r.png"" border=""10"">","null","trial","32","","0.6,0.4","3:go_c","1",""
"null","","html-keyboard-response","673","3260712","0.0-8.0-2.30","","<div style=""font-size:60px;"">+</div>","null","","","","","","",""
"920.5350000411272","","image-keyboard-response","674","3261634","0.0-8.0-0.31","","img/pink.png","32","trial","null","false","0.4,0.6","4:nogo_d","",""
"null","","html-keyboard-response","675","3262635","0.0-8.0-1.31","","<img src=""img/pink-r.png"" border=""10"">","null","trial","null","","0.4,0.6","4:nogo_d","1",""
"null","","html-keyboard-response","676","3263636","0.0-8.0-2.31","","<div style=""font-size:60px;"">+</div>","null","","","","","","",""
"636.119999922812","","image-keyboard-response","677","3264274","0.0-8.0-0.32","","img/grey.png","32","trial","32","true","0.6,0.4","3:go_c","",""
"null","","html-keyboard-response","678","3265276","0.0-8.0-1.32","","<img src=""img/grey-n.png"" border=""10"">","null","trial","32","","0.6,0.4","3:go_c","0",""
"null","","html-keyboard-response","679","3266278","0.0-8.0-2.32","","<div style=""font-size:60px;"">+</div>","null","","","","","","",""
"602.9799999669194","","image-keyboard-response","680","3266882","0.0-8.0-0.33","","img/purple.png","32","trial","32","true","0.6,0.4","1:go_a","",""
