"rt","url","trial_type","trial_index","time_elapsed","internal_node_id","view_history","stimulus","key_press","test_part","correct_response","correct","use_rew","which_stim","reward","responses"
"2718.4399999969173","consent.html","external-html","0","2828","0.0-0.0","","","","","","","","","",""
"85503.70500001009","","instructions","1","88333","0.0-1.0","[{""page_index"":0,""viewing_time"":5064.645000005839},{""page_index"":1,""viewing_time"":20087.79499999946},{""page_index"":2,""viewing_time"":4948.164999994333},{""page_index"":3,""viewing_time"":35353.18000000552},{""page_index"":4,""viewing_time"":12905.985000004875},{""page_index"":5,""viewing_time"":1510.599999994156},{""page_index"":6,""viewing_time"":5630.8850000059465}]","","","","","","","","",""
"null","","image-keyboard-response","2","89837","0.0-2.0-0.0","","img/test3.PNG","null","practice","null","true","","","",""
"null","","html-keyboard-response","3","90841","0.0-2.0-1.0","","<img src=""img/test3-reward.PNG"">","null","","","","","","",""
"null","","html-keyboard-response","4","91842","0.0-2.0-2.0","","<div style=""font-size:60px;"">+</div>","null","","","","","","",""
"null","","image-keyboard-response","5","93344","0.0-2.0-0.1","","img/test2.PNG","null","practice","null","true","","","",""
"null","","html-keyboard-response","6","94347","0.0-2.0-1.1","","<img src=""img/test2-reward.PNG"">","null","","","","","","",""
"null","","html-keyboard-response","7","95348","0.0-2.0-2.1","","<div style=""font-size:60px;"">+</div>","null","","","","","","",""
"671.1749999958556","","image-keyboard-response","8","96022","0.0-2.0-0.2","","img/test1.PNG","32","practice","32","true","","","",""
"null","","html-keyboard-response","9","97025","0.0-2.0-1.2","","<img src=""img/test1-reward.PNG"" border=""10px; grey"">","null","","","","","","",""
"null","","html-keyboard-response","10","98026","0.0-2.0-2.2","","<div style=""font-size:60px;"">+</div>","null","","","","","","",""
"609.4899999879999","","image-keyboard-response","11","98638","0.0-2.0-0.3","","img/test3.PNG","32","practice","null","false","","","",""
"null","","html-keyboard-response","12","99640","0.0-2.0-1.3","","<img src=""img/test3-neutral.PNG"" border=""10px; grey"">","null","","","","","","",""
"null","","html-keyboard-response","13","100642","0.0-2.0-2.3","","<div style=""font-size:60px;"">+</div>","null","","","","","","",""
"null","","image-keyboard-response","14","102144","0.0-2.0-0.4","","img/test2.PNG","null","practice","null","true","","","",""
"null","","html-keyboard-response","15","103146","0.0-2.0-1.4","","<img src=""img/test2-reward.PNG"">","null","","","","","","",""
"null","","html-keyboard-response","16","104147","0.0-2.0-2.4","","<div style=""font-size:60px;"">+</div>","null","","","","","","",""
"1088.2949999941047","","image-keyboard-response","17","105236","0.0-2.0-0.5","","img/test1.PNG","32","practice","32","true","","","",""
"null","","html-keyboard-response","18","106239","0.0-2.0-1.5","","<img src=""img/test1-reward.PNG"" border=""10px; grey"">","null","","","","","","",""
"null","","html-keyboard-response","19","107240","0.0-2.0-2.5","","<div style=""font-size:60px;"">+</div>","null","","","","","","",""
"975.5549999972573","","image-keyboard-response","20","108219","0.0-2.0-0.6","","img/test1.PNG","32","practice","32","true","","","",""
"null","","html-keyboard-response","21","109221","0.0-2.0-1.6","","<img src=""img/test1-reward.PNG"" border=""10px; grey"">","null","","","","","","",""
"null","","html-keyboard-response","22","110222","0.0-2.0-2.6","","<div style=""font-size:60px;"">+</div>","null","","","","","","",""
"1405.655000009574","","image-keyboard-response","23","111630","0.0-2.0-0.7","","img/test2.PNG","32","practice","null","false","","","",""
"null","","html-keyboard-response","24","112632","0.0-2.0-1.7","","<img src=""img/test2-neutral.PNG"" border=""10px; grey"">","null","","","","","","",""
"null","","html-keyboard-response","25","113634","0.0-2.0-2.7","","<div style=""font-size:60px;"">+</div>","null","","","","","","",""
"669.8449999967124","","image-keyboard-response","26","114308","0.0-2.0-0.8","","img/test3.PNG","32","practice","null","false","","","",""
"null","","html-keyboard-response","27","115314","0.0-2.0-1.8","","<img src=""img/test3-neutral.PNG"" border=""10px; grey"">","null","","","","","","",""
"null","","html-keyboard-response","28","116315","0.0-2.0-2.8","","<div style=""font-size:60px;"">+</div>","null","","","","","","",""
"340.18499999365304","","image-keyboard-response","29","116659","0.0-2.0-0.9","","img/test3.PNG","32","practice","null","false","","","",""
"null","","html-keyboard-response","30","117661","0.0-2.0-1.9","","<img src=""img/test3-neutral.PNG"" border=""10px; grey"">","null","","","","","","",""
"null","","html-keyboard-response","31","118662","0.0-2.0-2.9","","<div style=""font-size:60px;"">+</div>","null","","","","","","",""
"496.1900000052992","","image-keyboard-response","32","119161","0.0-2.0-0.10","","img/test2.PNG","32","practice","null","false","","","",""
"null","","html-keyboard-response","33","120163","0.0-2.0-1.10","","<img src=""img/test2-neutral.PNG"" border=""10px; grey"">","null","","","","","","",""
"null","","html-keyboard-response","34","121164","0.0-2.0-2.10","","<div style=""font-size:60px;"">+</div>","null","","","","","","",""
"426.90000000584405","","image-keyboard-response","35","121593","0.0-2.0-0.11","","img/test1.PNG","32","practice","32","true","","","",""
"null","","html-keyboard-response","36","122595","0.0-2.0-1.11","","<img src=""img/test1-reward.PNG"" border=""10px; grey"">","null","","","","","","",""
"null","","html-keyboard-response","37","123597","0.0-2.0-2.11","","<div style=""font-size:60px;"">+</div>","null","","","","","","",""
"3492.754999999306","","instructions","38","127091","0.0-3.0","[{""page_index"":0,""viewing_time"":3492.3600000038277}]","","","","","","","","",""
"890.2349999989383","","image-keyboard-response","39","127984","0.0-4.0-0.0","","img/purple.png","32","trial","null","false","0.2,0.8","2:nogo_b","",""
"null","","html-keyboard-response","40","128989","0.0-4.0-1.0","","<img src=""img/purple-r.png"" border=""10"">","null","trial","null","","0.2,0.8","2:nogo_b","1",""
"null","","html-keyboard-response","41","129991","0.0-4.0-2.0","","<div style=""font-size:60px;"">+</div>","null","","","","","","",""
"null","","image-keyboard-response","42","131493","0.0-4.0-0.1","","img/grey.png","null","trial","32","false","0.8,0.2","1:go_a","",""
"null","","html-keyboard-response","43","132496","0.0-4.0-1.1","","<img src=""img/grey-n.png"">","null","trial","32","","0.8,0.2","1:go_a","0",""
"null","","html-keyboard-response","44","133498","0.0-4.0-2.1","","<div style=""font-size:60px;"">+</div>","null","","","","","","",""
"356.5550000057556","","image-keyboard-response","45","133857","0.0-4.0-0.2","","img/purple.png","32","trial","null","false","0.2,0.8","2:nogo_b","",""
"null","","html-keyboard-response","46","134860","0.0-4.0-1.2","","<img src=""img/purple-n.png"" border=""10"">","null","trial","null","","0.2,0.8","2:nogo_b","0",""
"null","","html-keyboard-response","47","135862","0.0-4.0-2.2","","<div style=""font-size:60px;"">+</div>","null","","","","","","",""
"362.03000000386965","","image-keyboard-response","48","136225","0.0-4.0-0.3","","img/grey.png","32","trial","32","true","0.8,0.2","1:go_a","",""
"null","","html-keyboard-response","49","137227","0.0-4.0-1.3","","<img src=""img/grey-r.png"" border=""10"">","null","trial","32","","0.8,0.2","1:go_a","1",""
"null","","html-keyboard-response","50","138229","0.0-4.0-2.3","","<div style=""font-size:60px;"">+</div>","null","","","","","","",""
"422.75500000687316","","image-keyboard-response","51","138653","0.0-4.0-0.4","","img/grey.png","32","trial","32","true","0.8,0.2","1:go_a","",""
"null","","html-keyboard-response","52","139656","0.0-4.0-1.4","","<img src=""img/grey-r.png"" border=""10"">","null","trial","32","","0.8,0.2","1:go_a","1",""
"null","","html-keyboard-response","53","140657","0.0-4.0-2.4","","<div style=""font-size:60px;"">+</div>","null","","","","","","",""
"388.2149999990361","","image-keyboard-response","54","141047","0.0-4.0-0.5","","img/purple.png","32","trial","null","false","0.2,0.8","2:nogo_b","",""
"null","","html-keyboard-response","55","142051","0.0-4.0-1.5","","<img src=""img/purple-n.png"" border=""10"">","null","trial","null","","0.2,0.8","2:nogo_b","0",""
"null","","html-keyboard-response","56","143053","0.0-4.0-2.5","","<div style=""font-size:60px;"">+</div>","null","","","","","","",""
"451.759999996284","","image-keyboard-response","57","143507","0.0-4.0-0.6","","img/purple.png","32","trial","null","false","0.2,0.8","2:nogo_b","",""
"null","","html-keyboard-response","58","144510","0.0-4.0-1.6","","<img src=""img/purple-n.png"" border=""10"">","null","trial","null","","0.2,0.8","2:nogo_b","0",""
"null","","html-keyboard-response","59","145512","0.0-4.0-2.6","","<div style=""font-size:60px;"">+</div>","null","","","","","","",""
"334.934999991674","","image-keyboard-response","60","145849","0.0-4.0-0.7","","img/grey.png","32","trial","32","true","0.8,0.2","1:go_a","",""
"null","","html-keyboard-response","61","146852","0.0-4.0-1.7","","<img src=""img/grey-n.png"" border=""10"">","null","trial","32","","0.8,0.2","1:go_a","0",""
"null","","html-keyboard-response","62","147854","0.0-4.0-2.7","","<div style=""font-size:60px;"">+</div>","null","","","","","","",""
"283.450000002631","","image-keyboard-response","63","148139","0.0-4.0-0.8","","img/purple.png","32","trial","null","false","0.2,0.8","2:nogo_b","",""
"null","","html-keyboard-response","64","149143","0.0-4.0-1.8","","<img src=""img/purple-n.png"" border=""10"">","null","trial","null","","0.2,0.8","2:nogo_b","0",""
"null","","html-keyboard-response","65","150144","0.0-4.0-2.8","","<div style=""font-size:60px;"">+</div>","null","","","","","","",""
"929.6699999977136","","image-keyboard-response","66","151075","0.0-4.0-0.9","","img/grey.png","32","trial","32","true","0.8,0.2","1:go_a","",""
"null","","html-keyboard-response","67","152078","0.0-4.0-1.9","","<img src=""img/grey-r.png"" border=""10"">","null","trial","32","","0.8,0.2","1:go_a","1",""
"null","","html-keyboard-response","68","153080","0.0-4.0-2.9","","<div style=""font-size:60px;"">+</div>","null","","","","","","",""
"326.0100000043167","","image-keyboard-response","69","153408","0.0-4.0-0.10","","img/grey.png","32","trial","32","true","0.8,0.2","1:go_a","",""
"null","","html-keyboard-response","70","154413","0.0-4.0-1.10","","<img src=""img/grey-n.png"" border=""10"">","null","trial","32","","0.8,0.2","1:go_a","0",""
"null","","html-keyboard-response","71","155414","0.0-4.0-2.10","","<div style=""font-size:60px;"">+</div>","null","","","","","","",""
"78.89000000432134","","image-keyboard-response","72","155495","0.0-4.0-0.11","","img/purple.png","32","trial","null","false","0.2,0.8","2:nogo_b","",""
"null","","html-keyboard-response","73","156498","0.0-4.0-1.11","","<img src=""img/purple-n.png"" border=""10"">","null","trial","null","","0.2,0.8","2:nogo_b","0",""
"null","","html-keyboard-response","74","157499","0.0-4.0-2.11","","<div style=""font-size:60px;"">+</div>","null","","","","","","",""
"409.18499999679625","","image-keyboard-response","75","157910","0.0-4.0-0.12","","img/grey.png","32","trial","32","true","0.8,0.2","1:go_a","",""
"null","","html-keyboard-response","76","158919","0.0-4.0-1.12","","<img src=""img/grey-r.png"" border=""10"">","null","trial","32","","0.8,0.2","1:go_a","1",""
"null","","html-keyboard-response","77","159921","0.0-4.0-2.12","","<div style=""font-size:60px;"">+</div>","null","","","","","","",""
"388.89499999640975","","image-keyboard-response","78","160311","0.0-4.0-0.13","","img/purple.png","32","trial","null","false","0.2,0.8","2:nogo_b","",""
"null","","html-keyboard-response","79","161313","0.0-4.0-1.13","","<img src=""img/purple-r.png"" border=""10"">","null","trial","null","","0.2,0.8","2:nogo_b","1",""
"null","","html-keyboard-response","80","162314","0.0-4.0-2.13","","<div style=""font-size:60px;"">+</div>","null","","","","","","",""
"428.8300000043819","","image-keyboard-response","81","162745","0.0-4.0-0.14","","img/grey.png","32","trial","32","true","0.8,0.2","1:go_a","",""
"null","","html-keyboard-response","82","163748","0.0-4.0-1.14","","<img src=""img/grey-n.png"" border=""10"">","null","trial","32","","0.8,0.2","1:go_a","0",""
"null","","html-keyboard-response","83","164749","0.0-4.0-2.14","","<div style=""font-size:60px;"">+</div>","null","","","","","","",""
"706.9800000026589","","image-keyboard-response","84","165458","0.0-4.0-0.15","","img/purple.png","32","trial","null","false","0.2,0.8","2:nogo_b","",""
"null","","html-keyboard-response","85","166461","0.0-4.0-1.15","","<img src=""img/purple-n.png"" border=""10"">","null","trial","null","","0.2,0.8","2:nogo_b","0",""
"null","","html-keyboard-response","86","167462","0.0-4.0-2.15","","<div style=""font-size:60px;"">+</div>","null","","","","","","",""
"307.45500000193715","","image-keyboard-response","87","167771","0.0-4.0-0.16","","img/grey.png","32","trial","32","true","0.8,0.2","1:go_a","",""
"null","","html-keyboard-response","88","168775","0.0-4.0-1.16","","<img src=""img/grey-n.png"" border=""10"">","null","trial","32","","0.8,0.2","1:go_a","0",""
"null","","html-keyboard-response","89","169776","0.0-4.0-2.16","","<div style=""font-size:60px;"">+</div>","null","","","","","","",""
"422.14500000409316","","image-keyboard-response","90","170200","0.0-4.0-0.17","","img/purple.png","32","trial","null","false","0.2,0.8","2:nogo_b","",""
"null","","html-keyboard-response","91","171204","0.0-4.0-1.17","","<img src=""img/purple-n.png"" border=""10"">","null","trial","null","","0.2,0.8","2:nogo_b","0",""
"null","","html-keyboard-response","92","172206","0.0-4.0-2.17","","<div style=""font-size:60px;"">+</div>","null","","","","","","",""
"290.8549999992829","","image-keyboard-response","93","172499","0.0-4.0-0.18","","img/grey.png","32","trial","32","true","0.8,0.2","1:go_a","",""
"null","","html-keyboard-response","94","173502","0.0-4.0-1.18","","<img src=""img/grey-r.png"" border=""10"">","null","trial","32","","0.8,0.2","1:go_a","1",""
"null","","html-keyboard-response","95","174504","0.0-4.0-2.18","","<div style=""font-size:60px;"">+</div>","null","","","","","","",""
"375.48500001139473","","image-keyboard-response","96","174882","0.0-4.0-0.19","","img/purple.png","32","trial","null","false","0.2,0.8","2:nogo_b","",""
"null","","html-keyboard-response","97","175884","0.0-4.0-1.19","","<img src=""img/purple-n.png"" border=""10"">","null","trial","null","","0.2,0.8","2:nogo_b","0",""
"null","","html-keyboard-response","98","176886","0.0-4.0-2.19","","<div style=""font-size:60px;"">+</div>","null","","","","","","",""
"313.1449999928009","","image-keyboard-response","99","177201","0.0-4.0-0.20","","img/grey.png","32","trial","32","true","0.8,0.2","1:go_a","",""
"null","","html-keyboard-response","100","178207","0.0-4.0-1.20","","<img src=""img/grey-r.png"" border=""10"">","null","trial","32","","0.8,0.2","1:go_a","1",""
"null","","html-keyboard-response","101","179209","0.0-4.0-2.20","","<div style=""font-size:60px;"">+</div>","null","","","","","","",""
"334.4349999970291","","image-keyboard-response","102","179544","0.0-4.0-0.21","","img/purple.png","32","trial","null","false","0.2,0.8","2:nogo_b","",""
"null","","html-keyboard-response","103","180547","0.0-4.0-1.21","","<img src=""img/purple-n.png"" border=""10"">","null","trial","null","","0.2,0.8","2:nogo_b","0",""
"null","","html-keyboard-response","104","181549","0.0-4.0-2.21","","<div style=""font-size:60px;"">+</div>","null","","","","","","",""
"346.4300000050571","","image-keyboard-response","105","181898","0.0-4.0-0.22","","img/purple.png","32","trial","null","false","0.2,0.8","2:nogo_b","",""
"null","","html-keyboard-response","106","182901","0.0-4.0-1.22","","<img src=""img/purple-n.png"" border=""10"">","null","trial","null","","0.2,0.8","2:nogo_b","0",""
"null","","html-keyboard-response","107","183902","0.0-4.0-2.22","","<div style=""font-size:60px;"">+</div>","null","","","","","","",""
"512.8049999912037","","image-keyboard-response","108","184417","0.0-4.0-0.23","","img/grey.png","32","trial","32","true","0.8,0.2","1:go_a","",""
"null","","html-keyboard-response","109","185420","0.0-4.0-1.23","","<img src=""img/grey-n.png"" border=""10"">","null","trial","32","","0.8,0.2","1:go_a","0",""
"null","","html-keyboard-response","110","186421","0.0-4.0-2.23","","<div style=""font-size:60px;"">+</div>","null","","","","","","",""
"284.8800000065239","","image-keyboard-response","111","186708","0.0-4.0-0.24","","img/grey.png","32","trial","32","true","0.8,0.2","1:go_a","",""
"null","","html-keyboard-response","112","187712","0.0-4.0-1.24","","<img src=""img/grey-n.png"" border=""10"">","null","trial","32","","0.8,0.2","1:go_a","0",""
"null","","html-keyboard-response","113","188714","0.0-4.0-2.24","","<div style=""font-size:60px;"">+</div>","null","","","","","","",""
"null","","image-keyboard-response","114","190216","0.0-4.0-0.25","","img/purple.png","null","trial","null","true","0.2,0.8","2:nogo_b","",""
"null","","html-keyboard-response","115","191221","0.0-4.0-1.25","","<img src=""img/purple-r.png"">","null","trial","null","","0.2,0.8","2:nogo_b","1",""
"null","","html-keyboard-response","116","192223","0.0-4.0-2.25","","<div style=""font-size:60px;"">+</div>","null","","","","","","",""
"933.2550000108313","","image-keyboard-response","117","193158","0.0-4.0-0.26","","img/purple.png","32","trial","null","false","0.2,0.8","2:nogo_b","",""
"null","","html-keyboard-response","118","194161","0.0-4.0-1.26","","<img src=""img/purple-n.png"" border=""10"">","null","trial","null","","0.2,0.8","2:nogo_b","0",""
"null","","html-keyboard-response","119","195162","0.0-4.0-2.26","","<div style=""font-size:60px;"">+</div>","null","","","","","","",""
"520.8949999941979","","image-keyboard-response","120","195685","0.0-4.0-0.27","","img/grey.png","32","trial","32","true","0.8,0.2","1:go_a","",""
"null","","html-keyboard-response","121","196687","0.0-4.0-1.27","","<img src=""img/grey-r.png"" border=""10"">","null","trial","32","","0.8,0.2","1:go_a","1",""
"null","","html-keyboard-response","122","197689","0.0-4.0-2.27","","<div style=""font-size:60px;"">+</div>","null","","","","","","",""
"522.6449999900069","","image-keyboard-response","123","198214","0.0-4.0-0.28","","img/grey.png","32","trial","32","true","0.8,0.2","1:go_a","",""
"null","","html-keyboard-response","124","199217","0.0-4.0-1.28","","<img src=""img/grey-r.png"" border=""10"">","null","trial","32","","0.8,0.2","1:go_a","1",""
"null","","html-keyboard-response","125","200218","0.0-4.0-2.28","","<div style=""font-size:60px;"">+</div>","null","","","","","","",""
"null","","image-keyboard-response","126","201723","0.0-4.0-0.29","","img/purple.png","null","trial","null","true","0.2,0.8","2:nogo_b","",""
"null","","html-keyboard-response","127","202730","0.0-4.0-1.29","","<img src=""img/purple-r.png"">","null","trial","null","","0.2,0.8","2:nogo_b","1",""
"null","","html-keyboard-response","128","203731","0.0-4.0-2.29","","<div style=""font-size:60px;"">+</div>","null","","","","","","",""
"304.8200000048382","","image-keyboard-response","129","204038","0.0-4.0-0.30","","img/grey.png","32","trial","32","true","0.8,0.2","1:go_a","",""
"null","","html-keyboard-response","130","205039","0.0-4.0-1.30","","<img src=""img/grey-r.png"" border=""10"">","null","trial","32","","0.8,0.2","1:go_a","1",""
"null","","html-keyboard-response","131","206041","0.0-4.0-2.30","","<div style=""font-size:60px;"">+</div>","null","","","","","","",""
"253.67000000551343","","image-keyboard-response","132","206297","0.0-4.0-0.31","","img/purple.png","32","trial","null","false","0.2,0.8","2:nogo_b","",""
"null","","html-keyboard-response","133","207300","0.0-4.0-1.31","","<img src=""img/purple-n.png"" border=""10"">","null","trial","null","","0.2,0.8","2:nogo_b","0",""
"null","","html-keyboard-response","134","208302","0.0-4.0-2.31","","<div style=""font-size:60px;"">+</div>","null","","","","","","",""
"298.84499999752734","","image-keyboard-response","135","208602","0.0-4.0-0.32","","img/purple.png","32","trial","null","false","0.2,0.8","2:nogo_b","",""
"null","","html-keyboard-response","136","209605","0.0-4.0-1.32","","<img src=""img/purple-n.png"" border=""10"">","null","trial","null","","0.2,0.8","2:nogo_b","0",""
"null","","html-keyboard-response","137","210606","0.0-4.0-2.32","","<div style=""font-size:60px;"">+</div>","null","","","","","","",""
"393.7000000005355","","image-keyboard-response","138","211002","0.0-4.0-0.33","","img/grey.png","32","trial","32","true","0.8,0.2","1:go_a","",""
"null","","html-keyboard-response","139","212004","0.0-4.0-1.33","","<img src=""img/grey-n.png"" border=""10"">","null","trial","32","","0.8,0.2","1:go_a","0",""
"null","","html-keyboard-response","140","213006","0.0-4.0-2.33","","<div style=""font-size:60px;"">+</div>","null","","","","","","",""
"347.6399999926798","","image-keyboard-response","141","213355","0.0-4.0-0.34","","img/purple.png","32","trial","null","false","0.2,0.8","2:nogo_b","",""
"null","","html-keyboard-response","142","214358","0.0-4.0-1.34","","<img src=""img/purple-n.png"" border=""10"">","null","trial","null","","0.2,0.8","2:nogo_b","0",""
"null","","html-keyboard-response","143","215360","0.0-4.0-2.34","","<div style=""font-size:60px;"">+</div>","null","","","","","","",""
"333.2349999982398","","image-keyboard-response","144","215694","0.0-4.0-0.35","","img/grey.png","32","trial","32","true","0.8,0.2","1:go_a","",""
"null","","html-keyboard-response","145","216696","0.0-4.0-1.35","","<img src=""img/grey-r.png"" border=""10"">","null","trial","32","","0.8,0.2","1:go_a","1",""
"null","","html-keyboard-response","146","217698","0.0-4.0-2.35","","<div style=""font-size:60px;"">+</div>","null","","","","","","",""
"null","","image-keyboard-response","147","219200","0.0-4.0-0.36","","img/purple.png","null","trial","null","true","0.2,0.8","2:nogo_b","",""
"null","","html-keyboard-response","148","220203","0.0-4.0-1.36","","<img src=""img/purple-r.png"">","null","trial","null","","0.2,0.8","2:nogo_b","1",""
"null","","html-keyboard-response","149","221205","0.0-4.0-2.36","","<div style=""font-size:60px;"">+</div>","null","","","","","","",""
"636.369999992894","","image-keyboard-response","150","221843","0.0-4.0-0.37","","img/grey.png","32","trial","32","true","0.8,0.2","1:go_a","",""
"null","","html-keyboard-response","151","222846","0.0-4.0-1.37","","<img src=""img/grey-r.png"" border=""10"">","null","trial","32","","0.8,0.2","1:go_a","1",""
"null","","html-keyboard-response","152","223847","0.0-4.0-2.37","","<div style=""font-size:60px;"">+</div>","null","","","","","","",""
"626.4799999917159","","image-keyboard-response","153","224476","0.0-4.0-0.38","","img/purple.png","32","trial","null","false","0.2,0.8","2:nogo_b","",""
"null","","html-keyboard-response","154","225479","0.0-4.0-1.38","","<img src=""img/purple-n.png"" border=""10"">","null","trial","null","","0.2,0.8","2:nogo_b","0",""
"null","","html-keyboard-response","155","226482","0.0-4.0-2.38","","<div style=""font-size:60px;"">+</div>","null","","","","","","",""
"434.56000000878703","","image-keyboard-response","156","226918","0.0-4.0-0.39","","img/grey.png","32","trial","32","true","0.8,0.2","1:go_a","",""
"null","","html-keyboard-response","157","227921","0.0-4.0-1.39","","<img src=""img/grey-n.png"" border=""10"">","null","trial","32","","0.8,0.2","1:go_a","0",""
"null","","html-keyboard-response","158","228923","0.0-4.0-2.39","","<div style=""font-size:60px;"">+</div>","null","","","","","","",""
"263.74999999825377","","image-keyboard-response","159","229188","0.0-4.0-0.40","","img/grey.png","32","trial","32","true","0.8,0.2","1:go_a","",""
"null","","html-keyboard-response","160","230191","0.0-4.0-1.40","","<img src=""img/grey-r.png"" border=""10"">","null","trial","32","","0.8,0.2","1:go_a","1",""
"null","","html-keyboard-response","161","231192","0.0-4.0-2.40","","<div style=""font-size:60px;"">+</div>","null","","","","","","",""
"547.5200000073528","","image-keyboard-response","162","231742","0.0-4.0-0.41","","img/purple.png","32","trial","null","false","0.2,0.8","2:nogo_b","",""
"null","","html-keyboard-response","163","232745","0.0-4.0-1.41","","<img src=""img/purple-n.png"" border=""10"">","null","trial","null","","0.2,0.8","2:nogo_b","0",""
"null","","html-keyboard-response","164","233747","0.0-4.0-2.41","","<div style=""font-size:60px;"">+</div>","null","","","","","","",""
"411.68000000470784","","image-keyboard-response","165","234161","0.0-4.0-0.42","","img/grey.png","32","trial","32","true","0.8,0.2","1:go_a","",""
"null","","html-keyboard-response","166","235163","0.0-4.0-1.42","","<img src=""img/grey-n.png"" border=""10"">","null","trial","32","","0.8,0.2","1:go_a","0",""
"null","","html-keyboard-response","167","236165","0.0-4.0-2.42","","<div style=""font-size:60px;"">+</div>","null","","","","","","",""
"247.5350000022445","","image-keyboard-response","168","236414","0.0-4.0-0.43","","img/purple.png","32","trial","null","false","0.2,0.8","2:nogo_b","",""
"null","","html-keyboard-response","169","237417","0.0-4.0-1.43","","<img src=""img/purple-n.png"" border=""10"">","null","trial","null","","0.2,0.8","2:nogo_b","0",""
"null","","html-keyboard-response","170","238418","0.0-4.0-2.43","","<div style=""font-size:60px;"">+</div>","null","","","","","","",""
"296.8050000054063","","image-keyboard-response","171","238717","0.0-4.0-0.44","","img/purple.png","32","trial","null","false","0.2,0.8","2:nogo_b","",""
"null","","html-keyboard-response","172","239720","0.0-4.0-1.44","","<img src=""img/purple-n.png"" border=""10"">","null","trial","null","","0.2,0.8","2:nogo_b","0",""
"null","","html-keyboard-response","173","240721","0.0-4.0-2.44","","<div style=""font-size:60px;"">+</div>","null","","","","","","",""
"478.71999999915715","","image-keyboard-response","174","241202","0.0-4.0-0.45","","img/grey.png","32","trial","32","true","0.8,0.2","1:go_a","",""
"null","","html-keyboard-response","175","242205","0.0-4.0-1.45","","<img src=""img/grey-r.png"" border=""10"">","null","trial","32","","0.8,0.2","1:go_a","1",""
"null","","html-keyboard-response","176","243210","0.0-4.0-2.45","","<div style=""font-size:60px;"">+</div>","null","","","","","","",""
"415.04999999597203","","image-keyboard-response","177","243626","0.0-4.0-0.46","","img/purple.png","32","trial","null","false","0.2,0.8","2:nogo_b","",""
"null","","html-keyboard-response","178","244629","0.0-4.0-1.46","","<img src=""img/purple-n.png"" border=""10"">","null","trial","null","","0.2,0.8","2:nogo_b","0",""
"null","","html-keyboard-response","179","245630","0.0-4.0-2.46","","<div style=""font-size:60px;"">+</div>","null","","","","","","",""
"766.3199999951757","","image-keyboard-response","180","246399","0.0-4.0-0.47","","img/grey.png","32","trial","32","true","0.8,0.2","1:go_a","",""
"null","","html-keyboard-response","181","247400","0.0-4.0-1.47","","<img src=""img/grey-r.png"" border=""10"">","null","trial","32","","0.8,0.2","1:go_a","1",""
"null","","html-keyboard-response","182","248401","0.0-4.0-2.47","","<div style=""font-size:60px;"">+</div>","null","","","","","","",""
"401.6600000031758","","image-keyboard-response","183","248805","0.0-4.0-0.48","","img/grey.png","32","trial","32","true","0.8,0.2","1:go_a","",""
"null","","html-keyboard-response","184","249808","0.0-4.0-1.48","","<img src=""img/grey-r.png"" border=""10"">","null","trial","32","","0.8,0.2","1:go_a","1",""
"null","","html-keyboard-response","185","250809","0.0-4.0-2.48","","<div style=""font-size:60px;"">+</div>","null","","","","","","",""
"null","","image-keyboard-response","186","252311","0.0-4.0-0.49","","img/purple.png","null","trial","null","true","0.2,0.8","2:nogo_b","",""
"null","","html-keyboard-response","187","253314","0.0-4.0-1.49","","<img src=""img/purple-r.png"">","null","trial","null","","0.2,0.8","2:nogo_b","1",""
"null","","html-keyboard-response","188","254314","0.0-4.0-2.49","","<div style=""font-size:60px;"">+</div>","null","","","","","","",""
"232.12499999499414","","image-keyboard-response","189","254548","0.0-4.0-0.50","","img/grey.png","32","trial","32","true","0.8,0.2","1:go_a","",""
"null","","html-keyboard-response","190","255552","0.0-4.0-1.50","","<img src=""img/grey-r.png"" border=""10"">","null","trial","32","","0.8,0.2","1:go_a","1",""
"null","","html-keyboard-response","191","256553","0.0-4.0-2.50","","<div style=""font-size:60px;"">+</div>","null","","","","","","",""
"657.1850000036648","","image-keyboard-response","192","257212","0.0-4.0-0.51","","img/purple.png","32","trial","null","false","0.2,0.8","2:nogo_b","",""
"null","","html-keyboard-response","193","258214","0.0-4.0-1.51","","<img src=""img/purple-r.png"" border=""10"">","null","trial","null","","0.2,0.8","2:nogo_b","1",""
"null","","html-keyboard-response","194","259215","0.0-4.0-2.51","","<div style=""font-size:60px;"">+</div>","null","","","","","","",""
"426.01499999000225","","image-keyboard-response","195","259643","0.0-4.0-0.52","","img/purple.png","32","trial","null","false","0.2,0.8","2:nogo_b","",""
"null","","html-keyboard-response","196","260646","0.0-4.0-1.52","","<img src=""img/purple-n.png"" border=""10"">","null","trial","null","","0.2,0.8","2:nogo_b","0",""
"null","","html-keyboard-response","197","261647","0.0-4.0-2.52","","<div style=""font-size:60px;"">+</div>","null","","","","","","",""
"203.55500000005122","","image-keyboard-response","198","261852","0.0-4.0-0.53","","img/grey.png","32","trial","32","true","0.8,0.2","1:go_a","",""
"null","","html-keyboard-response","199","262855","0.0-4.0-1.53","","<img src=""img/grey-r.png"" border=""10"">","null","trial","32","","0.8,0.2","1:go_a","1",""
"null","","html-keyboard-response","200","263856","0.0-4.0-2.53","","<div style=""font-size:60px;"">+</div>","null","","","","","","",""
"519.3700000090757","","image-keyboard-response","201","264377","0.0-4.0-0.54","","img/purple.png","32","trial","null","false","0.2,0.8","2:nogo_b","",""
"null","","html-keyboard-response","202","265381","0.0-4.0-1.54","","<img src=""img/purple-n.png"" border=""10"">","null","trial","null","","0.2,0.8","2:nogo_b","0",""
"null","","html-keyboard-response","203","266383","0.0-4.0-2.54","","<div style=""font-size:60px;"">+</div>","null","","","","","","",""
"223.53999999177177","","image-keyboard-response","204","266608","0.0-4.0-0.55","","img/grey.png","32","trial","32","true","0.8,0.2","1:go_a","",""
"null","","html-keyboard-response","205","267611","0.0-4.0-1.55","","<img src=""img/grey-r.png"" border=""10"">","null","trial","32","","0.8,0.2","1:go_a","1",""
"null","","html-keyboard-response","206","268613","0.0-4.0-2.55","","<div style=""font-size:60px;"">+</div>","null","","","","","","",""
"604.9149999889778","","image-keyboard-response","207","269219","0.0-4.0-0.56","","img/grey.png","32","trial","32","true","0.8,0.2","1:go_a","",""
"null","","html-keyboard-response","208","270222","0.0-4.0-1.56","","<img src=""img/grey-r.png"" border=""10"">","null","trial","32","","0.8,0.2","1:go_a","1",""
"null","","html-keyboard-response","209","271224","0.0-4.0-2.56","","<div style=""font-size:60px;"">+</div>","null","","","","","","",""
"null","","image-keyboard-response","210","272726","0.0-4.0-0.57","","img/purple.png","null","trial","null","true","0.2,0.8","2:nogo_b","",""
"null","","html-keyboard-response","211","273729","0.0-4.0-1.57","","<img src=""img/purple-r.png"">","null","trial","null","","0.2,0.8","2:nogo_b","1",""
"null","","html-keyboard-response","212","274730","0.0-4.0-2.57","","<div style=""font-size:60px;"">+</div>","null","","","","","","",""
"649.4799999927636","","image-keyboard-response","213","275382","0.0-4.0-0.58","","img/grey.png","32","trial","32","true","0.8,0.2","1:go_a","",""
"null","","html-keyboard-response","214","276385","0.0-4.0-1.58","","<img src=""img/grey-r.png"" border=""10"">","null","trial","32","","0.8,0.2","1:go_a","1",""
"null","","html-keyboard-response","215","277387","0.0-4.0-2.58","","<div style=""font-size:60px;"">+</div>","null","","","","","","",""
"377.85999999323394","","image-keyboard-response","216","277767","0.0-4.0-0.59","","img/purple.png","32","trial","null","false","0.2,0.8","2:nogo_b","",""
"null","","html-keyboard-response","217","278770","0.0-4.0-1.59","","<img src=""img/purple-n.png"" border=""10"">","null","trial","null","","0.2,0.8","2:nogo_b","0",""
"null","","html-keyboard-response","218","279771","0.0-4.0-2.59","","<div style=""font-size:60px;"">+</div>","null","","","","","","",""
"3326.7350000096485","","instructions","219","283099","0.0-5.0","[{""page_index"":0,""viewing_time"":3325.9150000085356}]","","","","","","","","",""
"556.9549999927403","","image-keyboard-response","220","283660","0.0-6.0-0.0","","img/pink.png","32","trial","32","true","1,0","3:go_c","",""
"null","","html-keyboard-response","221","284662","0.0-6.0-1.0","","<img src=""img/pink-r.png"" border=""10"">","null","trial","32","","1,0","3:go_c","1",""
"null","","html-keyboard-response","222","285664","0.0-6.0-2.0","","<div style=""font-size:60px;"">+</div>","null","","","","","","",""
"606.4400000032037","","image-keyboard-response","223","286272","0.0-6.0-0.1","","img/purple.png","32","trial","null","false","0,1","4:nogo_d","",""
"null","","html-keyboard-response","224","287273","0.0-6.0-1.1","","<img src=""img/purple-n.png"" border=""10"">","null","trial","null","","0,1","4:nogo_d","0",""
"null","","html-keyboard-response","225","288274","0.0-6.0-2.1","","<div style=""font-size:60px;"">+</div>","null","","","","","","",""
"275.5450000113342","","image-keyboard-response","226","288552","0.0-6.0-0.2","","img/green.png","32","trial","32","true","0.8,0.2","1:go_a","",""
"null","","html-keyboard-response","227","289555","0.0-6.0-1.2","","<img src=""img/green-r.png"" border=""10"">","null","trial","32","","0.8,0.2","1:go_a","1",""
"null","","html-keyboard-response","228","290556","0.0-6.0-2.2","","<div style=""font-size:60px;"">+</div>","null","","","","","","",""
"574.8749999911524","","image-keyboard-response","229","291133","0.0-6.0-0.3","","img/grey.png","32","trial","null","false","0.2,0.8","2:nogo_b","",""
"null","","html-keyboard-response","230","292135","0.0-6.0-1.3","","<img src=""img/grey-n.png"" border=""10"">","null","trial","null","","0.2,0.8","2:nogo_b","0",""
"null","","html-keyboard-response","231","293136","0.0-6.0-2.3","","<div style=""font-size:60px;"">+</div>","null","","","","","","",""
"null","","image-keyboard-response","232","294637","0.0-6.0-0.4","","img/purple.png","null","trial","null","true","0,1","4:nogo_d","",""
"null","","html-keyboard-response","233","295640","0.0-6.0-1.4","","<img src=""img/purple-r.png"">","null","trial","null","","0,1","4:nogo_d","1",""
"null","","html-keyboard-response","234","296641","0.0-6.0-2.4","","<div style=""font-size:60px;"">+</div>","null","","","","","","",""
"250.30499999411404","","image-keyboard-response","235","296894","0.0-6.0-0.5","","img/pink.png","32","trial","32","true","1,0","3:go_c","",""
"null","","html-keyboard-response","236","297897","0.0-6.0-1.5","","<img src=""img/pink-r.png"" border=""10"">","null","trial","32","","1,0","3:go_c","1",""
"null","","html-keyboard-response","237","298898","0.0-6.0-2.5","","<div style=""font-size:60px;"">+</div>","null","","","","","","",""
"482.42000000027474","","image-keyboard-response","238","299385","0.0-6.0-0.6","","img/green.png","32","trial","32","true","0.8,0.2","1:go_a","",""
"null","","html-keyboard-response","239","300387","0.0-6.0-1.6","","<img src=""img/green-n.png"" border=""10"">","null","trial","32","","0.8,0.2","1:go_a","0",""
"null","","html-keyboard-response","240","301388","0.0-6.0-2.6","","<div style=""font-size:60px;"">+</div>","null","","","","","","",""
"295.51500000525266","","image-keyboard-response","241","301685","0.0-6.0-0.7","","img/grey.png","32","trial","null","false","0.2,0.8","2:nogo_b","",""
"null","","html-keyboard-response","242","302688","0.0-6.0-1.7","","<img src=""img/grey-n.png"" border=""10"">","null","trial","null","","0.2,0.8","2:nogo_b","0",""
"null","","html-keyboard-response","243","303690","0.0-6.0-2.7","","<div style=""font-size:60px;"">+</div>","null","","","","","","",""
"650.6950000039069","","image-keyboard-response","244","304342","0.0-6.0-0.8","","img/purple.png","32","trial","null","false","0,1","4:nogo_d","",""
"null","","html-keyboard-response","245","305344","0.0-6.0-1.8","","<img src=""img/purple-n.png"" border=""10"">","null","trial","null","","0,1","4:nogo_d","0",""
"null","","html-keyboard-response","246","306345","0.0-6.0-2.8","","<div style=""font-size:60px;"">+</div>","null","","","","","","",""
"273.5149999934947","","image-keyboard-response","247","306620","0.0-6.0-0.9","","img/green.png","32","trial","32","true","0.8,0.2","1:go_a","",""
"null","","html-keyboard-response","248","307624","0.0-6.0-1.9","","<img src=""img/green-n.png"" border=""10"">","null","trial","32","","0.8,0.2","1:go_a","0",""
"null","","html-keyboard-response","249","308625","0.0-6.0-2.9","","<div style=""font-size:60px;"">+</div>","null","","","","","","",""
"237.4649999983376","","image-keyboard-response","250","308865","0.0-6.0-0.10","","img/pink.png","32","trial","32","true","1,0","3:go_c","",""
"null","","html-keyboard-response","251","309868","0.0-6.0-1.10","","<img src=""img/pink-r.png"" border=""10"">","null","trial","32","","1,0","3:go_c","1",""
"null","","html-keyboard-response","252","310869","0.0-6.0-2.10","","<div style=""font-size:60px;"">+</div>","null","","","","","","",""
"293.9699999988079","","image-keyboard-response","253","311164","0.0-6.0-0.11","","img/grey.png","32","trial","null","false","0.2,0.8","2:nogo_b","",""
"null","","html-keyboard-response","254","312168","0.0-6.0-1.11","","<img src=""img/grey-r.png"" border=""10"">","null","trial","null","","0.2,0.8","2:nogo_b","1",""
"null","","html-keyboard-response","255","313170","0.0-6.0-2.11","","<div style=""font-size:60px;"">+</div>","null","","","","","","",""
"312.76500000967644","","image-keyboard-response","256","313484","0.0-6.0-0.12","","img/grey.png","32","trial","null","false","0.2,0.8","2:nogo_b","",""
"null","","html-keyboard-response","257","314487","0.0-6.0-1.12","","<img src=""img/grey-n.png"" border=""10"">","null","trial","null","","0.2,0.8","2:nogo_b","0",""
"null","","html-keyboard-response","258","315488","0.0-6.0-2.12","","<div style=""font-size:60px;"">+</div>","null","","","","","","",""
"195.65999999758787","","image-keyboard-response","259","315686","0.0-6.0-0.13","","img/pink.png","32","trial","32","true","1,0","3:go_c","",""
"null","","html-keyboard-response","260","316689","0.0-6.0-1.13","","<img src=""img/pink-r.png"" border=""10"">","null","trial","32","","1,0","3:go_c","1",""
"null","","html-keyboard-response","261","317690","0.0-6.0-2.13","","<div style=""font-size:60px;"">+</div>","null","","","","","","",""
"422.9650000052061","","image-keyboard-response","262","318115","0.0-6.0-0.14","","img/green.png","32","trial","32","true","0.8,0.2","1:go_a","",""
"null","","html-keyboard-response","263","319117","0.0-6.0-1.14","","<img src=""img/green-n.png"" border=""10"">","null","trial","32","","0.8,0.2","1:go_a","0",""
"null","","html-keyboard-response","264","320118","0.0-6.0-2.14","","<div style=""font-size:60px;"">+</div>","null","","","","","","",""
"300.30999999144115","","image-keyboard-response","265","320421","0.0-6.0-0.15","","img/purple.png","32","trial","null","false","0,1","4:nogo_d","",""
"null","","html-keyboard-response","266","321424","0.0-6.0-1.15","","<img src=""img/purple-n.png"" border=""10"">","null","trial","null","","0,1","4:nogo_d","0",""
"null","","html-keyboard-response","267","322425","0.0-6.0-2.15","","<div style=""font-size:60px;"">+</div>","null","","","","","","",""
"386.1499999911757","","image-keyboard-response","268","322813","0.0-6.0-0.16","","img/grey.png","32","trial","null","false","0.2,0.8","2:nogo_b","",""
"null","","html-keyboard-response","269","323817","0.0-6.0-1.16","","<img src=""img/grey-r.png"" border=""10"">","null","trial","null","","0.2,0.8","2:nogo_b","1",""
"null","","html-keyboard-response","270","324819","0.0-6.0-2.16","","<div style=""font-size:60px;"">+</div>","null","","","","","","",""
"363.0249999987427","","image-keyboard-response","271","325184","0.0-6.0-0.17","","img/pink.png","32","trial","32","true","1,0","3:go_c","",""
"null","","html-keyboard-response","272","326186","0.0-6.0-1.17","","<img src=""img/pink-r.png"" border=""10"">","null","trial","32","","1,0","3:go_c","1",""
"null","","html-keyboard-response","273","327188","0.0-6.0-2.17","","<div style=""font-size:60px;"">+</div>","null","","","","","","",""
"341.9850000063889","","image-keyboard-response","274","327532","0.0-6.0-0.18","","img/purple.png","32","trial","null","false","0,1","4:nogo_d","",""
"null","","html-keyboard-response","275","328535","0.0-6.0-1.18","","<img src=""img/purple-n.png"" border=""10"">","null","trial","null","","0,1","4:nogo_d","0",""
"null","","html-keyboard-response","276","329537","0.0-6.0-2.18","","<div style=""font-size:60px;"">+</div>","null","","","","","","",""
"227.07500000251457","","image-keyboard-response","277","329766","0.0-6.0-0.19","","img/green.png","32","trial","32","true","0.8,0.2","1:go_a","",""
"null","","html-keyboard-response","278","330768","0.0-6.0-1.19","","<img src=""img/green-r.png"" border=""10"">","null","trial","32","","0.8,0.2","1:go_a","1",""
"null","","html-keyboard-response","279","331770","0.0-6.0-2.19","","<div style=""font-size:60px;"">+</div>","null","","","","","","",""
"325.6600000022445","","image-keyboard-response","280","332097","0.0-6.0-0.20","","img/purple.png","32","trial","null","false","0,1","4:nogo_d","",""
"null","","html-keyboard-response","281","333100","0.0-6.0-1.20","","<img src=""img/purple-n.png"" border=""10"">","null","trial","null","","0,1","4:nogo_d","0",""
"null","","html-keyboard-response","282","334102","0.0-6.0-2.20","","<div style=""font-size:60px;"">+</div>","null","","","","","","",""
"250.53000000480097","","image-keyboard-response","283","334354","0.0-6.0-0.21","","img/green.png","32","trial","32","true","0.8,0.2","1:go_a","",""
"null","","html-keyboard-response","284","335356","0.0-6.0-1.21","","<img src=""img/green-r.png"" border=""10"">","null","trial","32","","0.8,0.2","1:go_a","1",""
"null","","html-keyboard-response","285","336358","0.0-6.0-2.21","","<div style=""font-size:60px;"">+</div>","null","","","","","","",""
"301.2400000006892","","image-keyboard-response","286","336660","0.0-6.0-0.22","","img/pink.png","32","trial","32","true","1,0","3:go_c","",""
"null","","html-keyboard-response","287","337663","0.0-6.0-1.22","","<img src=""img/pink-r.png"" border=""10"">","null","trial","32","","1,0","3:go_c","1",""
"null","","html-keyboard-response","288","338664","0.0-6.0-2.22","","<div style=""font-size:60px;"">+</div>","null","","","","","","",""
"302.16000000655185","","image-keyboard-response","289","338969","0.0-6.0-0.23","","img/grey.png","32","trial","null","false","0.2,0.8","2:nogo_b","",""
"null","","html-keyboard-response","290","339971","0.0-6.0-1.23","","<img src=""img/grey-n.png"" border=""10"">","null","trial","null","","0.2,0.8","2:nogo_b","0",""
"null","","html-keyboard-response","291","340973","0.0-6.0-2.23","","<div style=""font-size:60px;"">+</div>","null","","","","","","",""
"252.06000001344364","","image-keyboard-response","292","341227","0.0-6.0-0.24","","img/green.png","32","trial","32","true","0.8,0.2","1:go_a","",""
"null","","html-keyboard-response","293","342230","0.0-6.0-1.24","","<img src=""img/green-r.png"" border=""10"">","null","trial","32","","0.8,0.2","1:go_a","1",""
"null","","html-keyboard-response","294","343231","0.0-6.0-2.24","","<div style=""font-size:60px;"">+</div>","null","","","","","","",""
"255.9800000017276","","image-keyboard-response","295","343489","0.0-6.0-0.25","","img/purple.png","32","trial","null","false","0,1","4:nogo_d","",""
"null","","html-keyboard-response","296","344492","0.0-6.0-1.25","","<img src=""img/purple-n.png"" border=""10"">","null","trial","null","","0,1","4:nogo_d","0",""
"null","","html-keyboard-response","297","345495","0.0-6.0-2.25","","<div style=""font-size:60px;"">+</div>","null","","","","","","",""
"259.409999998752","","image-keyboard-response","298","345756","0.0-6.0-0.26","","img/pink.png","32","trial","32","true","1,0","3:go_c","",""
"null","","html-keyboard-response","299","346760","0.0-6.0-1.26","","<img src=""img/pink-r.png"" border=""10"">","null","trial","32","","1,0","3:go_c","1",""
"null","","html-keyboard-response","300","347761","0.0-6.0-2.26","","<div style=""font-size:60px;"">+</div>","null","","","","","","",""
"254.29000001167879","","image-keyboard-response","301","348016","0.0-6.0-0.27","","img/grey.png","32","trial","null","false","0.2,0.8","2:nogo_b","",""
"null","","html-keyboard-response","302","349019","0.0-6.0-1.27","","<img src=""img/grey-n.png"" border=""10"">","null","trial","null","","0.2,0.8","2:nogo_b","0",""
"null","","html-keyboard-response","303","350020","0.0-6.0-2.27","","<div style=""font-size:60px;"">+</div>","null","","","","","","",""
"266.4349999977276","","image-keyboard-response","304","350288","0.0-6.0-0.28","","img/purple.png","32","trial","null","false","0,1","4:nogo_d","",""
"null","","html-keyboard-response","305","351291","0.0-6.0-1.28","","<img src=""img/purple-n.png"" border=""10"">","null","trial","null","","0,1","4:nogo_d","0",""
"null","","html-keyboard-response","306","352293","0.0-6.0-2.28","","<div style=""font-size:60px;"">+</div>","null","","","","","","",""
"575.5749999952968","","image-keyboard-response","307","352870","0.0-6.0-0.29","","img/pink.png","32","trial","32","true","1,0","3:go_c","",""
"null","","html-keyboard-response","308","353873","0.0-6.0-1.29","","<img src=""img/pink-r.png"" border=""10"">","null","trial","32","","1,0","3:go_c","1",""
"null","","html-keyboard-response","309","354875","0.0-6.0-2.29","","<div style=""font-size:60px;"">+</div>","null","","","","","","",""
"229.0800000046147","","image-keyboard-response","310","355106","0.0-6.0-0.30","","img/green.png","32","trial","32","true","0.8,0.2","1:go_a","",""
"null","","html-keyboard-response","311","356109","0.0-6.0-1.30","","<img src=""img/green-r.png"" border=""10"">","null","trial","32","","0.8,0.2","1:go_a","1",""
"null","","html-keyboard-response","312","357111","0.0-6.0-2.30","","<div style=""font-size:60px;"">+</div>","null","","","","","","",""
"347.3550000053365","","image-keyboard-response","313","357460","0.0-6.0-0.31","","img/grey.png","32","trial","null","false","0.2,0.8","2:nogo_b","",""
"null","","html-keyboard-response","314","358463","0.0-6.0-1.31","","<img src=""img/grey-n.png"" border=""10"">","null","trial","null","","0.2,0.8","2:nogo_b","0",""
"null","","html-keyboard-response","315","359465","0.0-6.0-2.31","","<div style=""font-size:60px;"">+</div>","null","","","","","","",""
"179.4499999959953","","image-keyboard-response","316","359646","0.0-6.0-0.32","","img/pink.png","32","trial","32","true","1,0","3:go_c","",""
"null","","html-keyboard-response","317","360649","0.0-6.0-1.32","","<img src=""img/pink-r.png"" border=""10"">","null","trial","32","","1,0","3:go_c","1",""
"null","","html-keyboard-response","318","361650","0.0-6.0-2.32","","<div style=""font-size:60px;"">+</div>","null","","","","","","",""
"427.2400000045309","","image-keyboard-response","319","362079","0.0-6.0-0.33","","img/grey.png","32","trial","null","false","0.2,0.8","2:nogo_b","",""
"null","","html-keyboard-response","320","363082","0.0-6.0-1.33","","<img src=""img/grey-r.png"" border=""10"">","null","trial","null","","0.2,0.8","2:nogo_b","1",""
"null","","html-keyboard-response","321","364084","0.0-6.0-2.33","","<div style=""font-size:60px;"">+</div>","null","","","","","","",""
"599.9050000100397","","image-keyboard-response","322","364686","0.0-6.0-0.34","","img/purple.png","32","trial","null","false","0,1","4:nogo_d","",""
"null","","html-keyboard-response","323","365689","0.0-6.0-1.34","","<img src=""img/purple-n.png"" border=""10"">","null","trial","null","","0,1","4:nogo_d","0",""
"null","","html-keyboard-response","324","366690","0.0-6.0-2.34","","<div style=""font-size:60px;"">+</div>","null","","","","","","",""
"302.5249999918742","","image-keyboard-response","325","366994","0.0-6.0-0.35","","img/green.png","32","trial","32","true","0.8,0.2","1:go_a","",""
"null","","html-keyboard-response","326","367996","0.0-6.0-1.35","","<img src=""img/green-r.png"" border=""10"">","null","trial","32","","0.8,0.2","1:go_a","1",""
"null","","html-keyboard-response","327","368997","0.0-6.0-2.35","","<div style=""font-size:60px;"">+</div>","null","","","","","","",""
"375.0750000035623","","image-keyboard-response","328","369374","0.0-6.0-0.36","","img/grey.png","32","trial","null","false","0.2,0.8","2:nogo_b","",""
"null","","html-keyboard-response","329","370377","0.0-6.0-1.36","","<img src=""img/grey-n.png"" border=""10"">","null","trial","null","","0.2,0.8","2:nogo_b","0",""
"null","","html-keyboard-response","330","371378","0.0-6.0-2.36","","<div style=""font-size:60px;"">+</div>","null","","","","","","",""
"164.32500000519212","","image-keyboard-response","331","371543","0.0-6.0-0.37","","img/green.png","32","trial","32","true","0.8,0.2","1:go_a","",""
"null","","html-keyboard-response","332","372547","0.0-6.0-1.37","","<img src=""img/green-n.png"" border=""10"">","null","trial","32","","0.8,0.2","1:go_a","0",""
"null","","html-keyboard-response","333","373549","0.0-6.0-2.37","","<div style=""font-size:60px;"">+</div>","null","","","","","","",""
"268.499999991036","","image-keyboard-response","334","373819","0.0-6.0-0.38","","img/purple.png","32","trial","null","false","0,1","4:nogo_d","",""
"null","","html-keyboard-response","335","374823","0.0-6.0-1.38","","<img src=""img/purple-n.png"" border=""10"">","null","trial","null","","0,1","4:nogo_d","0",""
"null","","html-keyboard-response","336","375825","0.0-6.0-2.38","","<div style=""font-size:60px;"">+</div>","null","","","","","","",""
"785.8300000079907","","image-keyboard-response","337","376613","0.0-6.0-0.39","","img/pink.png","32","trial","32","true","1,0","3:go_c","",""
"null","","html-keyboard-response","338","377615","0.0-6.0-1.39","","<img src=""img/pink-r.png"" border=""10"">","null","trial","32","","1,0","3:go_c","1",""
"null","","html-keyboard-response","339","378617","0.0-6.0-2.39","","<div style=""font-size:60px;"">+</div>","null","","","","","","",""
"404.60999999777414","","image-keyboard-response","340","379023","0.0-6.0-0.40","","img/pink.png","32","trial","32","true","1,0","3:go_c","",""
"null","","html-keyboard-response","341","380026","0.0-6.0-1.40","","<img src=""img/pink-r.png"" border=""10"">","null","trial","32","","1,0","3:go_c","1",""
"null","","html-keyboard-response","342","381027","0.0-6.0-2.40","","<div style=""font-size:60px;"">+</div>","null","","","","","","",""
"null","","image-keyboard-response","343","382529","0.0-6.0-0.41","","img/purple.png","null","trial","null","true","0,1","4:nogo_d","",""
"null","","html-keyboard-response","344","383532","0.0-6.0-1.41","","<img src=""img/purple-r.png"">","null","trial","null","","0,1","4:nogo_d","1",""
"null","","html-keyboard-response","345","384533","0.0-6.0-2.41","","<div style=""font-size:60px;"">+</div>","null","","","","","","",""
"496.7649999889545","","image-keyboard-response","346","385032","0.0-6.0-0.42","","img/grey.png","32","trial","null","false","0.2,0.8","2:nogo_b","",""
"null","","html-keyboard-response","347","386036","0.0-6.0-1.42","","<img src=""img/grey-n.png"" border=""10"">","null","trial","null","","0.2,0.8","2:nogo_b","0",""
"null","","html-keyboard-response","348","387037","0.0-6.0-2.42","","<div style=""font-size:60px;"">+</div>","null","","","","","","",""
"211.1049999948591","","image-keyboard-response","349","387250","0.0-6.0-0.43","","img/green.png","32","trial","32","true","0.8,0.2","1:go_a","",""
"null","","html-keyboard-response","350","388254","0.0-6.0-1.43","","<img src=""img/green-r.png"" border=""10"">","null","trial","32","","0.8,0.2","1:go_a","1",""
"null","","html-keyboard-response","351","389256","0.0-6.0-2.43","","<div style=""font-size:60px;"">+</div>","null","","","","","","",""
"507.4949999980163","","image-keyboard-response","352","389765","0.0-6.0-0.44","","img/grey.png","32","trial","null","false","0.2,0.8","2:nogo_b","",""
"null","","html-keyboard-response","353","390767","0.0-6.0-1.44","","<img src=""img/grey-n.png"" border=""10"">","null","trial","null","","0.2,0.8","2:nogo_b","0",""
"null","","html-keyboard-response","354","391770","0.0-6.0-2.44","","<div style=""font-size:60px;"">+</div>","null","","","","","","",""
"262.07500000600703","","image-keyboard-response","355","392034","0.0-6.0-0.45","","img/purple.png","32","trial","null","false","0,1","4:nogo_d","",""
"null","","html-keyboard-response","356","393036","0.0-6.0-1.45","","<img src=""img/purple-n.png"" border=""10"">","null","trial","null","","0,1","4:nogo_d","0",""
"null","","html-keyboard-response","357","394037","0.0-6.0-2.45","","<div style=""font-size:60px;"">+</div>","null","","","","","","",""
"229.42499999771826","","image-keyboard-response","358","394268","0.0-6.0-0.46","","img/green.png","32","trial","32","true","0.8,0.2","1:go_a","",""
"null","","html-keyboard-response","359","395271","0.0-6.0-1.46","","<img src=""img/green-r.png"" border=""10"">","null","trial","32","","0.8,0.2","1:go_a","1",""
"null","","html-keyboard-response","360","396272","0.0-6.0-2.46","","<div style=""font-size:60px;"">+</div>","null","","","","","","",""
"360.86499999510124","","image-keyboard-response","361","396635","0.0-6.0-0.47","","img/pink.png","32","trial","32","true","1,0","3:go_c","",""
"null","","html-keyboard-response","362","397637","0.0-6.0-1.47","","<img src=""img/pink-r.png"" border=""10"">","null","trial","32","","1,0","3:go_c","1",""
"null","","html-keyboard-response","363","398638","0.0-6.0-2.47","","<div style=""font-size:60px;"">+</div>","null","","","","","","",""
"381.80499999725726","","image-keyboard-response","364","399022","0.0-6.0-0.48","","img/pink.png","32","trial","32","true","1,0","3:go_c","",""
"null","","html-keyboard-response","365","400024","0.0-6.0-1.48","","<img src=""img/pink-r.png"" border=""10"">","null","trial","32","","1,0","3:go_c","1",""
"null","","html-keyboard-response","366","401025","0.0-6.0-2.48","","<div style=""font-size:60px;"">+</div>","null","","","","","","",""
"423.6500000115484","","image-keyboard-response","367","401450","0.0-6.0-0.49","","img/grey.png","32","trial","null","false","0.2,0.8","2:nogo_b","",""
"null","","html-keyboard-response","368","402453","0.0-6.0-1.49","","<img src=""img/grey-n.png"" border=""10"">","null","trial","null","","0.2,0.8","2:nogo_b","0",""
"null","","html-keyboard-response","369","403455","0.0-6.0-2.49","","<div style=""font-size:60px;"">+</div>","null","","","","","","",""
"325.6050000054529","","image-keyboard-response","370","403782","0.0-6.0-0.50","","img/purple.png","32","trial","null","false","0,1","4:nogo_d","",""
"null","","html-keyboard-response","371","404784","0.0-6.0-1.50","","<img src=""img/purple-n.png"" border=""10"">","null","trial","null","","0,1","4:nogo_d","0",""
"null","","html-keyboard-response","372","405785","0.0-6.0-2.50","","<div style=""font-size:60px;"">+</div>","null","","","","","","",""
"421.10500000126194","","image-keyboard-response","373","406209","0.0-6.0-0.51","","img/green.png","32","trial","32","true","0.8,0.2","1:go_a","",""
"null","","html-keyboard-response","374","407212","0.0-6.0-1.51","","<img src=""img/green-n.png"" border=""10"">","null","trial","32","","0.8,0.2","1:go_a","0",""
"null","","html-keyboard-response","375","408213","0.0-6.0-2.51","","<div style=""font-size:60px;"">+</div>","null","","","","","","",""
"294.20000000391155","","image-keyboard-response","376","408509","0.0-6.0-0.52","","img/purple.png","32","trial","null","false","0,1","4:nogo_d","",""
"null","","html-keyboard-response","377","409513","0.0-6.0-1.52","","<img src=""img/purple-n.png"" border=""10"">","null","trial","null","","0,1","4:nogo_d","0",""
"null","","html-keyboard-response","378","410515","0.0-6.0-2.52","","<div style=""font-size:60px;"">+</div>","null","","","","","","",""
"402.85499999299645","","image-keyboard-response","379","410919","0.0-6.0-0.53","","img/grey.png","32","trial","null","false","0.2,0.8","2:nogo_b","",""
"null","","html-keyboard-response","380","411921","0.0-6.0-1.53","","<img src=""img/grey-r.png"" border=""10"">","null","trial","null","","0.2,0.8","2:nogo_b","1",""
"null","","html-keyboard-response","381","412922","0.0-6.0-2.53","","<div style=""font-size:60px;"">+</div>","null","","","","","","",""
"225.94000000390224","","image-keyboard-response","382","413151","0.0-6.0-0.54","","img/green.png","32","trial","32","true","0.8,0.2","1:go_a","",""
"null","","html-keyboard-response","383","414154","0.0-6.0-1.54","","<img src=""img/green-r.png"" border=""10"">","null","trial","32","","0.8,0.2","1:go_a","1",""
"null","","html-keyboard-response","384","415156","0.0-6.0-2.54","","<div style=""font-size:60px;"">+</div>","null","","","","","","",""
"578.8499999907799","","image-keyboard-response","385","415737","0.0-6.0-0.55","","img/pink.png","32","trial","32","true","1,0","3:go_c","",""
"null","","html-keyboard-response","386","416740","0.0-6.0-1.55","","<img src=""img/pink-r.png"" border=""10"">","null","trial","32","","1,0","3:go_c","1",""
"null","","html-keyboard-response","387","417741","0.0-6.0-2.55","","<div style=""font-size:60px;"">+</div>","null","","","","","","",""
"473.1549999996787","","image-keyboard-response","388","418216","0.0-6.0-0.56","","img/green.png","32","trial","32","true","0.8,0.2","1:go_a","",""
"null","","html-keyboard-response","389","419220","0.0-6.0-1.56","","<img src=""img/green-r.png"" border=""10"">","null","trial","32","","0.8,0.2","1:go_a","1",""
"null","","html-keyboard-response","390","420222","0.0-6.0-2.56","","<div style=""font-size:60px;"">+</div>","null","","","","","","",""
"null","","image-keyboard-response","391","421724","0.0-6.0-0.57","","img/purple.png","null","trial","null","true","0,1","4:nogo_d","",""
"null","","html-keyboard-response","392","422728","0.0-6.0-1.57","","<img src=""img/purple-r.png"">","null","trial","null","","0,1","4:nogo_d","1",""
"null","","html-keyboard-response","393","423732","0.0-6.0-2.57","","<div style=""font-size:60px;"">+</div>","null","","","","","","",""
"298.2250000059139","","image-keyboard-response","394","424033","0.0-6.0-0.58","","img/grey.png","32","trial","null","false","0.2,0.8","2:nogo_b","",""
"null","","html-keyboard-response","395","425036","0.0-6.0-1.58","","<img src=""img/grey-n.png"" border=""10"">","null","trial","null","","0.2,0.8","2:nogo_b","0",""
"null","","html-keyboard-response","396","426039","0.0-6.0-2.58","","<div style=""font-size:60px;"">+</div>","null","","","","","","",""
"255.96500000392552","","image-keyboard-response","397","426297","0.0-6.0-0.59","","img/pink.png","32","trial","32","true","1,0","3:go_c","",""
"null","","html-keyboard-response","398","427306","0.0-6.0-1.59","","<img src=""img/pink-r.png"" border=""10"">","null","trial","32","","1,0","3:go_c","1",""
"null","","html-keyboard-response","399","428308","0.0-6.0-2.59","","<div style=""font-size:60px;"">+</div>","null","","","","","","",""
"191.5199999930337","","image-keyboard-response","400","428501","0.0-6.0-0.60","","img/grey.png","32","trial","null","false","0.2,0.8","2:nogo_b","",""
"null","","html-keyboard-response","401","429504","0.0-6.0-1.60","","<img src=""img/grey-n.png"" border=""10"">","null","trial","null","","0.2,0.8","2:nogo_b","0",""
"null","","html-keyboard-response","402","430506","0.0-6.0-2.60","","<div style=""font-size:60px;"">+</div>","null","","","","","","",""
"273.4049999999115","","image-keyboard-response","403","430782","0.0-6.0-0.61","","img/pink.png","32","trial","32","true","1,0","3:go_c","",""
"null","","html-keyboard-response","404","431785","0.0-6.0-1.61","","<img src=""img/pink-r.png"" border=""10"">","null","trial","32","","1,0","3:go_c","1",""
"null","","html-keyboard-response","405","432786","0.0-6.0-2.61","","<div style=""font-size:60px;"">+</div>","null","","","","","","",""
"775.1650000136578","","image-keyboard-response","406","433563","0.0-6.0-0.62","","img/green.png","32","trial","32","true","0.8,0.2","1:go_a","",""
"null","","html-keyboard-response","407","434566","0.0-6.0-1.62","","<img src=""img/green-r.png"" border=""10"">","null","trial","32","","0.8,0.2","1:go_a","1",""
"null","","html-keyboard-response","408","435568","0.0-6.0-2.62","","<div style=""font-size:60px;"">+</div>","null","","","","","","",""
"317.26500000513624","","image-keyboard-response","409","435887","0.0-6.0-0.63","","img/purple.png","32","trial","null","false","0,1","4:nogo_d","",""
"null","","html-keyboard-response","410","436890","0.0-6.0-1.63","","<img src=""img/purple-n.png"" border=""10"">","null","trial","null","","0,1","4:nogo_d","0",""
"null","","html-keyboard-response","411","437892","0.0-6.0-2.63","","<div style=""font-size:60px;"">+</div>","null","","","","","","",""
"400.6000000081258","","image-keyboard-response","412","438294","0.0-6.0-0.64","","img/grey.png","32","trial","null","false","0.2,0.8","2:nogo_b","",""
"null","","html-keyboard-response","413","439297","0.0-6.0-1.64","","<img src=""img/grey-n.png"" border=""10"">","null","trial","null","","0.2,0.8","2:nogo_b","0",""
"null","","html-keyboard-response","414","440298","0.0-6.0-2.64","","<div style=""font-size:60px;"">+</div>","null","","","","","","",""
"492.80999999609776","","image-keyboard-response","415","440793","0.0-6.0-0.65","","img/purple.png","32","trial","null","false","0,1","4:nogo_d","",""
"null","","html-keyboard-response","416","441796","0.0-6.0-1.65","","<img src=""img/purple-n.png"" border=""10"">","null","trial","null","","0,1","4:nogo_d","0",""
"null","","html-keyboard-response","417","442797","0.0-6.0-2.65","","<div style=""font-size:60px;"">+</div>","null","","","","","","",""
"276.03500000259373","","image-keyboard-response","418","443076","0.0-6.0-0.66","","img/pink.png","32","trial","32","true","1,0","3:go_c","",""
"null","","html-keyboard-response","419","444079","0.0-6.0-1.66","","<img src=""img/pink-r.png"" border=""10"">","null","trial","32","","1,0","3:go_c","1",""
"null","","html-keyboard-response","420","445081","0.0-6.0-2.66","","<div style=""font-size:60px;"">+</div>","null","","","","","","",""
"228.38999998930376","","image-keyboard-response","421","445311","0.0-6.0-0.67","","img/green.png","32","trial","32","true","0.8,0.2","1:go_a","",""
"null","","html-keyboard-response","422","446315","0.0-6.0-1.67","","<img src=""img/green-n.png"" border=""10"">","null","trial","32","","0.8,0.2","1:go_a","0",""
"null","","html-keyboard-response","423","447317","0.0-6.0-2.67","","<div style=""font-size:60px;"">+</div>","null","","","","","","",""
"319.7599999984959","","image-keyboard-response","424","447638","0.0-6.0-0.68","","img/green.png","32","trial","32","true","0.8,0.2","1:go_a","",""
"null","","html-keyboard-response","425","448641","0.0-6.0-1.68","","<img src=""img/green-r.png"" border=""10"">","null","trial","32","","0.8,0.2","1:go_a","1",""
"null","","html-keyboard-response","426","449647","0.0-6.0-2.68","","<div style=""font-size:60px;"">+</div>","null","","","","","","",""
"491.28999999084044","","image-keyboard-response","427","450140","0.0-6.0-0.69","","img/purple.png","32","trial","null","false","0,1","4:nogo_d","",""
"null","","html-keyboard-response","428","451143","0.0-6.0-1.69","","<img src=""img/purple-n.png"" border=""10"">","null","trial","null","","0,1","4:nogo_d","0",""
"null","","html-keyboard-response","429","452145","0.0-6.0-2.69","","<div style=""font-size:60px;"">+</div>","null","","","","","","",""
"277.74999999383","","image-keyboard-response","430","452425","0.0-6.0-0.70","","img/grey.png","32","trial","null","false","0.2,0.8","2:nogo_b","",""
"null","","html-keyboard-response","431","453426","0.0-6.0-1.70","","<img src=""img/grey-n.png"" border=""10"">","null","trial","null","","0.2,0.8","2:nogo_b","0",""
"null","","html-keyboard-response","432","454428","0.0-6.0-2.70","","<div style=""font-size:60px;"">+</div>","null","","","","","","",""
"295.07000000739936","","image-keyboard-response","433","454723","0.0-6.0-0.71","","img/pink.png","32","trial","32","true","1,0","3:go_c","",""
"null","","html-keyboard-response","434","455727","0.0-6.0-1.71","","<img src=""img/pink-r.png"" border=""10"">","null","trial","32","","1,0","3:go_c","1",""
"null","","html-keyboard-response","435","456728","0.0-6.0-2.71","","<div style=""font-size:60px;"">+</div>","null","","","","","","",""
"386.1400000023423","","image-keyboard-response","436","457116","0.0-6.0-0.72","","img/pink.png","32","trial","32","true","1,0","3:go_c","",""
"null","","html-keyboard-response","437","458119","0.0-6.0-1.72","","<img src=""img/pink-r.png"" border=""10"">","null","trial","32","","1,0","3:go_c","1",""
"null","","html-keyboard-response","438","459121","0.0-6.0-2.72","","<div style=""font-size:60px;"">+</div>","null","","","","","","",""
"246.77499999233987","","image-keyboard-response","439","459369","0.0-6.0-0.73","","img/grey.png","32","trial","null","false","0.2,0.8","2:nogo_b","",""
"null","","html-keyboard-response","440","460373","0.0-6.0-1.73","","<img src=""img/grey-n.png"" border=""10"">","null","trial","null","","0.2,0.8","2:nogo_b","0",""
"null","","html-keyboard-response","441","461374","0.0-6.0-2.73","","<div style=""font-size:60px;"">+</div>","null","","","","","","",""
"134.82500000100117","","image-keyboard-response","442","461511","0.0-6.0-0.74","","img/purple.png","32","trial","null","false","0,1","4:nogo_d","",""
"null","","html-keyboard-response","443","462514","0.0-6.0-1.74","","<img src=""img/purple-n.png"" border=""10"">","null","trial","null","","0,1","4:nogo_d","0",""
"null","","html-keyboard-response","444","463515","0.0-6.0-2.74","","<div style=""font-size:60px;"">+</div>","null","","","","","","",""
"282.33499999623746","","image-keyboard-response","445","463800","0.0-6.0-0.75","","img/green.png","32","trial","32","true","0.8,0.2","1:go_a","",""
"null","","html-keyboard-response","446","464804","0.0-6.0-1.75","","<img src=""img/green-r.png"" border=""10"">","null","trial","32","","0.8,0.2","1:go_a","1",""
"null","","html-keyboard-response","447","465805","0.0-6.0-2.75","","<div style=""font-size:60px;"">+</div>","null","","","","","","",""
"284.0250000008382","","image-keyboard-response","448","466091","0.0-6.0-0.76","","img/pink.png","32","trial","32","true","1,0","3:go_c","",""
"null","","html-keyboard-response","449","467094","0.0-6.0-1.76","","<img src=""img/pink-r.png"" border=""10"">","null","trial","32","","1,0","3:go_c","1",""
"null","","html-keyboard-response","450","468095","0.0-6.0-2.76","","<div style=""font-size:60px;"">+</div>","null","","","","","","",""
"249.9099999986356","","image-keyboard-response","451","468346","0.0-6.0-0.77","","img/grey.png","32","trial","null","false","0.2,0.8","2:nogo_b","",""
"null","","html-keyboard-response","452","469348","0.0-6.0-1.77","","<img src=""img/grey-n.png"" border=""10"">","null","trial","null","","0.2,0.8","2:nogo_b","0",""
"null","","html-keyboard-response","453","470350","0.0-6.0-2.77","","<div style=""font-size:60px;"">+</div>","null","","","","","","",""
"91.09499999613035","","image-keyboard-response","454","470442","0.0-6.0-0.78","","img/green.png","32","trial","32","true","0.8,0.2","1:go_a","",""
"null","","html-keyboard-response","455","471445","0.0-6.0-1.78","","<img src=""img/green-r.png"" border=""10"">","null","trial","32","","0.8,0.2","1:go_a","1",""
"null","","html-keyboard-response","456","472446","0.0-6.0-2.78","","<div style=""font-size:60px;"">+</div>","null","","","","","","",""
"599.499999996624","","image-keyboard-response","457","473047","0.0-6.0-0.79","","img/purple.png","32","trial","null","false","0,1","4:nogo_d","",""
"null","","html-keyboard-response","458","474049","0.0-6.0-1.79","","<img src=""img/purple-n.png"" border=""10"">","null","trial","null","","0,1","4:nogo_d","0",""
"null","","html-keyboard-response","459","475050","0.0-6.0-2.79","","<div style=""font-size:60px;"">+</div>","null","","","","","","",""
"259.0300000010757","","image-keyboard-response","460","475311","0.0-6.0-0.80","","img/purple.png","32","trial","null","false","0,1","4:nogo_d","",""
"null","","html-keyboard-response","461","476315","0.0-6.0-1.80","","<img src=""img/purple-n.png"" border=""10"">","null","trial","null","","0,1","4:nogo_d","0",""
"null","","html-keyboard-response","462","477317","0.0-6.0-2.80","","<div style=""font-size:60px;"">+</div>","null","","","","","","",""
"164.22500000044238","","image-keyboard-response","463","477482","0.0-6.0-0.81","","img/grey.png","32","trial","null","false","0.2,0.8","2:nogo_b","",""
"null","","html-keyboard-response","464","478485","0.0-6.0-1.81","","<img src=""img/grey-n.png"" border=""10"">","null","trial","null","","0.2,0.8","2:nogo_b","0",""
"null","","html-keyboard-response","465","479486","0.0-6.0-2.81","","<div style=""font-size:60px;"">+</div>","null","","","","","","",""
"186.24500000441913","","image-keyboard-response","466","479674","0.0-6.0-0.82","","img/green.png","32","trial","32","true","0.8,0.2","1:go_a","",""
"null","","html-keyboard-response","467","480677","0.0-6.0-1.82","","<img src=""img/green-n.png"" border=""10"">","null","trial","32","","0.8,0.2","1:go_a","0",""
"null","","html-keyboard-response","468","481679","0.0-6.0-2.82","","<div style=""font-size:60px;"">+</div>","null","","","","","","",""
"193.48500001069624","","image-keyboard-response","469","481874","0.0-6.0-0.83","","img/pink.png","32","trial","32","true","1,0","3:go_c","",""
"null","","html-keyboard-response","470","482877","0.0-6.0-1.83","","<img src=""img/pink-r.png"" border=""10"">","null","trial","32","","1,0","3:go_c","1",""
"null","","html-keyboard-response","471","483878","0.0-6.0-2.83","","<div style=""font-size:60px;"">+</div>","null","","","","","","",""
"162.1000000013737","","image-keyboard-response","472","484042","0.0-6.0-0.84","","img/green.png","32","trial","32","true","0.8,0.2","1:go_a","",""
"null","","html-keyboard-response","473","485045","0.0-6.0-1.84","","<img src=""img/green-r.png"" border=""10"">","null","trial","32","","0.8,0.2","1:go_a","1",""
"null","","html-keyboard-response","474","486046","0.0-6.0-2.84","","<div style=""font-size:60px;"">+</div>","null","","","","","","",""
"876.8850000051316","","image-keyboard-response","475","486925","0.0-6.0-0.85","","img/grey.png","32","trial","null","false","0.2,0.8","2:nogo_b","",""
"null","","html-keyboard-response","476","487928","0.0-6.0-1.85","","<img src=""img/grey-n.png"" border=""10"">","null","trial","null","","0.2,0.8","2:nogo_b","0",""
"null","","html-keyboard-response","477","488930","0.0-6.0-2.85","","<div style=""font-size:60px;"">+</div>","null","","","","","","",""
"197.23499999963678","","image-keyboard-response","478","489129","0.0-6.0-0.86","","img/purple.png","32","trial","null","false","0,1","4:nogo_d","",""
"null","","html-keyboard-response","479","490132","0.0-6.0-1.86","","<img src=""img/purple-n.png"" border=""10"">","null","trial","null","","0,1","4:nogo_d","0",""
"null","","html-keyboard-response","480","491134","0.0-6.0-2.86","","<div style=""font-size:60px;"">+</div>","null","","","","","","",""
"89.269999996759","","image-keyboard-response","481","491225","0.0-6.0-0.87","","img/pink.png","32","trial","32","true","1,0","3:go_c","",""
"null","","html-keyboard-response","482","492228","0.0-6.0-1.87","","<img src=""img/pink-r.png"" border=""10"">","null","trial","32","","1,0","3:go_c","1",""
"null","","html-keyboard-response","483","493229","0.0-6.0-2.87","","<div style=""font-size:60px;"">+</div>","null","","","","","","",""
"346.94000000308733","","image-keyboard-response","484","493578","0.0-6.0-0.88","","img/pink.png","32","trial","32","true","1,0","3:go_c","",""
"null","","html-keyboard-response","485","494581","0.0-6.0-1.88","","<img src=""img/pink-r.png"" border=""10"">","null","trial","32","","1,0","3:go_c","1",""
"null","","html-keyboard-response","486","495583","0.0-6.0-2.88","","<div style=""font-size:60px;"">+</div>","null","","","","","","",""
"290.8599999936996","","image-keyboard-response","487","495875","0.0-6.0-0.89","","img/green.png","32","trial","32","true","0.8,0.2","1:go_a","",""
"null","","html-keyboard-response","488","496876","0.0-6.0-1.89","","<img src=""img/green-r.png"" border=""10"">","null","trial","32","","0.8,0.2","1:go_a","1",""
"null","","html-keyboard-response","489","497878","0.0-6.0-2.89","","<div style=""font-size:60px;"">+</div>","null","","","","","","",""
"444.4199999998091","","image-keyboard-response","490","498324","0.0-6.0-0.90","","img/grey.png","32","trial","null","false","0.2,0.8","2:nogo_b","",""
"null","","html-keyboard-response","491","499330","0.0-6.0-1.90","","<img src=""img/grey-n.png"" border=""10"">","null","trial","null","","0.2,0.8","2:nogo_b","0",""
"null","","html-keyboard-response","492","500331","0.0-6.0-2.90","","<div style=""font-size:60px;"">+</div>","null","","","","","","",""
"275.15000000130385","","image-keyboard-response","493","500608","0.0-6.0-0.91","","img/purple.png","32","trial","null","false","0,1","4:nogo_d","",""
"null","","html-keyboard-response","494","501611","0.0-6.0-1.91","","<img src=""img/purple-n.png"" border=""10"">","null","trial","null","","0,1","4:nogo_d","0",""
"null","","html-keyboard-response","495","502613","0.0-6.0-2.91","","<div style=""font-size:60px;"">+</div>","null","","","","","","",""
"219.600000011269","","image-keyboard-response","496","502835","0.0-6.0-0.92","","img/pink.png","32","trial","32","true","1,0","3:go_c","",""
"null","","html-keyboard-response","497","503838","0.0-6.0-1.92","","<img src=""img/pink-r.png"" border=""10"">","null","trial","32","","1,0","3:go_c","1",""
"null","","html-keyboard-response","498","504839","0.0-6.0-2.92","","<div style=""font-size:60px;"">+</div>","null","","","","","","",""
"381.9400000065798","","image-keyboard-response","499","505223","0.0-6.0-0.93","","img/purple.png","32","trial","null","false","0,1","4:nogo_d","",""
"null","","html-keyboard-response","500","506226","0.0-6.0-1.93","","<img src=""img/purple-n.png"" border=""10"">","null","trial","null","","0,1","4:nogo_d","0",""
"null","","html-keyboard-response","501","507228","0.0-6.0-2.93","","<div style=""font-size:60px;"">+</div>","null","","","","","","",""
"184.62999998882879","","image-keyboard-response","502","507415","0.0-6.0-0.94","","img/grey.png","32","trial","null","false","0.2,0.8","2:nogo_b","",""
"null","","html-keyboard-response","503","508418","0.0-6.0-1.94","","<img src=""img/grey-n.png"" border=""10"">","null","trial","null","","0.2,0.8","2:nogo_b","0",""
"null","","html-keyboard-response","504","509419","0.0-6.0-2.94","","<div style=""font-size:60px;"">+</div>","null","","","","","","",""
"563.3350000134669","","image-keyboard-response","505","509984","0.0-6.0-0.95","","img/green.png","32","trial","32","true","0.8,0.2","1:go_a","",""
"null","","html-keyboard-response","506","510987","0.0-6.0-1.95","","<img src=""img/green-n.png"" border=""10"">","null","trial","32","","0.8,0.2","1:go_a","0",""
"null","","html-keyboard-response","507","511989","0.0-6.0-2.95","","<div style=""font-size:60px;"">+</div>","null","","","","","","",""
"620.215000002645","","image-keyboard-response","508","512611","0.0-6.0-0.96","","img/purple.png","32","trial","null","false","0,1","4:nogo_d","",""
"null","","html-keyboard-response","509","513614","0.0-6.0-1.96","","<img src=""img/purple-n.png"" border=""10"">","null","trial","null","","0,1","4:nogo_d","0",""
"null","","html-keyboard-response","510","514615","0.0-6.0-2.96","","<div style=""font-size:60px;"">+</div>","null","","","","","","",""
"764.790000001085","","image-keyboard-response","511","515382","0.0-6.0-0.97","","img/pink.png","32","trial","32","true","1,0","3:go_c","",""
"null","","html-keyboard-response","512","516385","0.0-6.0-1.97","","<img src=""img/pink-r.png"" border=""10"">","null","trial","32","","1,0","3:go_c","1",""
"null","","html-keyboard-response","513","517386","0.0-6.0-2.97","","<div style=""font-size:60px;"">+</div>","null","","","","","","",""
"110.50500000419561","","image-keyboard-response","514","517499","0.0-6.0-0.98","","img/grey.png","32","trial","null","false","0.2,0.8","2:nogo_b","",""
"null","","html-keyboard-response","515","518502","0.0-6.0-1.98","","<img src=""img/grey-r.png"" border=""10"">","null","trial","null","","0.2,0.8","2:nogo_b","1",""
"null","","html-keyboard-response","516","519503","0.0-6.0-2.98","","<div style=""font-size:60px;"">+</div>","null","","","","","","",""
"418.38499999721535","","image-keyboard-response","517","519923","0.0-6.0-0.99","","img/green.png","32","trial","32","true","0.8,0.2","1:go_a","",""
"null","","html-keyboard-response","518","520926","0.0-6.0-1.99","","<img src=""img/green-r.png"" border=""10"">","null","trial","32","","0.8,0.2","1:go_a","1",""
"null","","html-keyboard-response","519","521928","0.0-6.0-2.99","","<div style=""font-size:60px;"">+</div>","null","","","","","","",""
"311.2249999976484","","image-keyboard-response","520","522241","0.0-6.0-0.100","","img/purple.png","32","trial","null","false","0,1","4:nogo_d","",""
"null","","html-keyboard-response","521","523244","0.0-6.0-1.100","","<img src=""img/purple-n.png"" border=""10"">","null","trial","null","","0,1","4:nogo_d","0",""
"null","","html-keyboard-response","522","524245","0.0-6.0-2.100","","<div style=""font-size:60px;"">+</div>","null","","","","","","",""
"152.22499999799766","","image-keyboard-response","523","524399","0.0-6.0-0.101","","img/pink.png","32","trial","32","true","1,0","3:go_c","",""
"null","","html-keyboard-response","524","525403","0.0-6.0-1.101","","<img src=""img/pink-r.png"" border=""10"">","null","trial","32","","1,0","3:go_c","1",""
"null","","html-keyboard-response","525","526404","0.0-6.0-2.101","","<div style=""font-size:60px;"">+</div>","null","","","","","","",""
"242.6899999991292","","image-keyboard-response","526","526648","0.0-6.0-0.102","","img/green.png","32","trial","32","true","0.8,0.2","1:go_a","",""
"null","","html-keyboard-response","527","527651","0.0-6.0-1.102","","<img src=""img/green-r.png"" border=""10"">","null","trial","32","","0.8,0.2","1:go_a","1",""
"null","","html-keyboard-response","528","528653","0.0-6.0-2.102","","<div style=""font-size:60px;"">+</div>","null","","","","","","",""
"317.960000000312","","image-keyboard-response","529","528972","0.0-6.0-0.103","","img/grey.png","32","trial","null","false","0.2,0.8","2:nogo_b","",""
"null","","html-keyboard-response","530","529976","0.0-6.0-1.103","","<img src=""img/grey-n.png"" border=""10"">","null","trial","null","","0.2,0.8","2:nogo_b","0",""
"null","","html-keyboard-response","531","530977","0.0-6.0-2.103","","<div style=""font-size:60px;"">+</div>","null","","","","","","",""
"31.94499999517575","","image-keyboard-response","532","531009","0.0-6.0-0.104","","img/grey.png","32","trial","null","false","0.2,0.8","2:nogo_b","",""
"null","","html-keyboard-response","533","532011","0.0-6.0-1.104","","<img src=""img/grey-n.png"" border=""10"">","null","trial","null","","0.2,0.8","2:nogo_b","0",""
"null","","html-keyboard-response","534","533013","0.0-6.0-2.104","","<div style=""font-size:60px;"">+</div>","null","","","","","","",""
"235.8150000072783","","image-keyboard-response","535","533250","0.0-6.0-0.105","","img/purple.png","32","trial","null","false","0,1","4:nogo_d","",""
"null","","html-keyboard-response","536","534254","0.0-6.0-1.105","","<img src=""img/purple-n.png"" border=""10"">","null","trial","null","","0,1","4:nogo_d","0",""
"null","","html-keyboard-response","537","535255","0.0-6.0-2.105","","<div style=""font-size:60px;"">+</div>","null","","","","","","",""
"250.54500000260305","","image-keyboard-response","538","535507","0.0-6.0-0.106","","img/pink.png","32","trial","32","true","1,0","3:go_c","",""
"null","","html-keyboard-response","539","536510","0.0-6.0-1.106","","<img src=""img/pink-r.png"" border=""10"">","null","trial","32","","1,0","3:go_c","1",""
"null","","html-keyboard-response","540","537511","0.0-6.0-2.106","","<div style=""font-size:60px;"">+</div>","null","","","","","","",""
"305.6450000003679","","image-keyboard-response","541","537819","0.0-6.0-0.107","","img/green.png","32","trial","32","true","0.8,0.2","1:go_a","",""
"null","","html-keyboard-response","542","538822","0.0-6.0-1.107","","<img src=""img/green-r.png"" border=""10"">","null","trial","32","","0.8,0.2","1:go_a","1",""
"null","","html-keyboard-response","543","539823","0.0-6.0-2.107","","<div style=""font-size:60px;"">+</div>","null","","","","","","",""
"348.6200000043027","","image-keyboard-response","544","540174","0.0-6.0-0.108","","img/green.png","32","trial","32","true","0.8,0.2","1:go_a","",""
"null","","html-keyboard-response","545","541177","0.0-6.0-1.108","","<img src=""img/green-r.png"" border=""10"">","null","trial","32","","0.8,0.2","1:go_a","1",""
"null","","html-keyboard-response","546","542178","0.0-6.0-2.108","","<div style=""font-size:60px;"">+</div>","null","","","","","","",""
"282.695000001695","","image-keyboard-response","547","542463","0.0-6.0-0.109","","img/purple.png","32","trial","null","false","0,1","4:nogo_d","",""
"null","","html-keyboard-response","548","543466","0.0-6.0-1.109","","<img src=""img/purple-n.png"" border=""10"">","null","trial","null","","0,1","4:nogo_d","0",""
"null","","html-keyboard-response","549","544467","0.0-6.0-2.109","","<div style=""font-size:60px;"">+</div>","null","","","","","","",""
"208.9750000013737","","image-keyboard-response","550","544679","0.0-6.0-0.110","","img/grey.png","32","trial","null","false","0.2,0.8","2:nogo_b","",""
"null","","html-keyboard-response","551","545682","0.0-6.0-1.110","","<img src=""img/grey-n.png"" border=""10"">","null","trial","null","","0.2,0.8","2:nogo_b","0",""
"null","","html-keyboard-response","552","546683","0.0-6.0-2.110","","<div style=""font-size:60px;"">+</div>","null","","","","","","",""
"196.4599999919301","","image-keyboard-response","553","546880","0.0-6.0-0.111","","img/pink.png","32","trial","32","true","1,0","3:go_c","",""
"null","","html-keyboard-response","554","547883","0.0-6.0-1.111","","<img src=""img/pink-r.png"" border=""10"">","null","trial","32","","1,0","3:go_c","1",""
"null","","html-keyboard-response","555","548885","0.0-6.0-2.111","","<div style=""font-size:60px;"">+</div>","null","","","","","","",""
"310.25000000954606","","image-keyboard-response","556","549197","0.0-6.0-0.112","","img/pink.png","32","trial","32","true","1,0","3:go_c","",""
"null","","html-keyboard-response","557","550200","0.0-6.0-1.112","","<img src=""img/pink-r.png"" border=""10"">","null","trial","32","","1,0","3:go_c","1",""
"null","","html-keyboard-response","558","551201","0.0-6.0-2.112","","<div style=""font-size:60px;"">+</div>","null","","","","","","",""
"286.75499999371823","","image-keyboard-response","559","551490","0.0-6.0-0.113","","img/grey.png","32","trial","null","false","0.2,0.8","2:nogo_b","",""
"null","","html-keyboard-response","560","552493","0.0-6.0-1.113","","<img src=""img/grey-r.png"" border=""10"">","null","trial","null","","0.2,0.8","2:nogo_b","1",""
"null","","html-keyboard-response","561","553495","0.0-6.0-2.113","","<div style=""font-size:60px;"">+</div>","null","","","","","","",""
"363.90000001119915","","image-keyboard-response","562","553860","0.0-6.0-0.114","","img/purple.png","32","trial","null","false","0,1","4:nogo_d","",""
"null","","html-keyboard-response","563","554862","0.0-6.0-1.114","","<img src=""img/purple-n.png"" border=""10"">","null","trial","null","","0,1","4:nogo_d","0",""
"null","","html-keyboard-response","564","555863","0.0-6.0-2.114","","<div style=""font-size:60px;"">+</div>","null","","","","","","",""
"21.999999997206032","","image-keyboard-response","565","555887","0.0-6.0-0.115","","img/green.png","32","trial","32","true","0.8,0.2","1:go_a","",""
"null","","html-keyboard-response","566","556890","0.0-6.0-1.115","","<img src=""img/green-r.png"" border=""10"">","null","trial","32","","0.8,0.2","1:go_a","1",""
"null","","html-keyboard-response","567","557891","0.0-6.0-2.115","","<div style=""font-size:60px;"">+</div>","null","","","","","","",""
"263.1249999976717","","image-keyboard-response","568","558155","0.0-6.0-0.116","","img/green.png","32","trial","32","true","0.8,0.2","1:go_a","",""
"null","","html-keyboard-response","569","559159","0.0-6.0-1.116","","<img src=""img/green-r.png"" border=""10"">","null","trial","32","","0.8,0.2","1:go_a","1",""
"null","","html-keyboard-response","570","560160","0.0-6.0-2.116","","<div style=""font-size:60px;"">+</div>","null","","","","","","",""
"364.43999999028165","","image-keyboard-response","571","560527","0.0-6.0-0.117","","img/pink.png","32","trial","32","true","1,0","3:go_c","",""
"null","","html-keyboard-response","572","561530","0.0-6.0-1.117","","<img src=""img/pink-r.png"" border=""10"">","null","trial","32","","1,0","3:go_c","1",""
"null","","html-keyboard-response","573","562532","0.0-6.0-2.117","","<div style=""font-size:60px;"">+</div>","null","","","","","","",""
"520.6600000092294","","image-keyboard-response","574","563058","0.0-6.0-0.118","","img/purple.png","32","trial","null","false","0,1","4:nogo_d","",""
"null","","html-keyboard-response","575","564061","0.0-6.0-1.118","","<img src=""img/purple-n.png"" border=""10"">","null","trial","null","","0,1","4:nogo_d","0",""
"null","","html-keyboard-response","576","565063","0.0-6.0-2.118","","<div style=""font-size:60px;"">+</div>","null","","","","","","",""
"245.13500000466593","","image-keyboard-response","577","565311","0.0-6.0-0.119","","img/grey.png","32","trial","null","false","0.2,0.8","2:nogo_b","",""
"null","","html-keyboard-response","578","566318","0.0-6.0-1.119","","<img src=""img/grey-n.png"" border=""10"">","null","trial","null","","0.2,0.8","2:nogo_b","0",""
"null","","html-keyboard-response","579","567319","0.0-6.0-2.119","","<div style=""font-size:60px;"">+</div>","null","","","","","","",""
"37274.090000006254","","instructions","580","604595","0.0-7.0","[{""page_index"":0,""viewing_time"":37273.93500000471}]","","","","","","","","",""
"1092.5100000022212","","image-keyboard-response","581","605688","0.0-8.0-0.0","","img/orange.png","32","trial","null","false","0.4,0.6","4:nogo_d","",""
"null","","html-keyboard-response","582","606691","0.0-8.0-1.0","","<img src=""img/orange-n.png"" border=""10"">","null","trial","null","","0.4,0.6","4:nogo_d","0",""
"null","","html-keyboard-response","583","607693","0.0-8.0-2.0","","<div style=""font-size:60px;"">+</div>","null","","","","","","",""
"229.86999999557156","","image-keyboard-response","584","607924","0.0-8.0-0.1","","img/purple.png","32","trial","32","true","0.6,0.4","3:go_c","",""
"null","","html-keyboard-response","585","608927","0.0-8.0-1.1","","<img src=""img/purple-n.png"" border=""10"">","null","trial","32","","0.6,0.4","3:go_c","0",""
"null","","html-keyboard-response","586","609929","0.0-8.0-2.1","","<div style=""font-size:60px;"">+</div>","null","","","","","","",""
"128.5199999983888","","image-keyboard-response","587","610059","0.0-8.0-0.2","","img/grey.png","32","trial","32","true","0.6,0.4","1:go_a","",""
"null","","html-keyboard-response","588","611061","0.0-8.0-1.2","","<img src=""img/grey-r.png"" border=""10"">","null","trial","32","","0.6,0.4","1:go_a","1",""
"null","","html-keyboard-response","589","612063","0.0-8.0-2.2","","<div style=""font-size:60px;"">+</div>","null","","","","","","",""
"498.47500000032596","","image-keyboard-response","590","612564","0.0-8.0-0.3","","img/red.png","32","trial","null","false","0.4,0.6","2:nogo_b","",""
"null","","html-keyboard-response","591","613567","0.0-8.0-1.3","","<img src=""img/red-r.png"" border=""10"">","null","trial","null","","0.4,0.6","2:nogo_b","1",""
"null","","html-keyboard-response","592","614568","0.0-8.0-2.3","","<div style=""font-size:60px;"">+</div>","null","","","","","","",""
"438.1299999949988","","image-keyboard-response","593","615007","0.0-8.0-0.4","","img/red.png","32","trial","null","false","0.4,0.6","2:nogo_b","",""
"null","","html-keyboard-response","594","616011","0.0-8.0-1.4","","<img src=""img/red-r.png"" border=""10"">","null","trial","null","","0.4,0.6","2:nogo_b","1",""
"null","","html-keyboard-response","595","617013","0.0-8.0-2.4","","<div style=""font-size:60px;"">+</div>","null","","","","","","",""
"295.8050000015646","","image-keyboard-response","596","617311","0.0-8.0-0.5","","img/orange.png","32","trial","null","false","0.4,0.6","4:nogo_d","",""
"null","","html-keyboard-response","597","618314","0.0-8.0-1.5","","<img src=""img/orange-r.png"" border=""10"">","null","trial","null","","0.4,0.6","4:nogo_d","1",""
"null","","html-keyboard-response","598","619315","0.0-8.0-2.5","","<div style=""font-size:60px;"">+</div>","null","","","","","","",""
"347.40500000771135","","image-keyboard-response","599","619664","0.0-8.0-0.6","","img/grey.png","32","trial","32","true","0.6,0.4","1:go_a","",""
"null","","html-keyboard-response","600","620667","0.0-8.0-1.6","","<img src=""img/grey-n.png"" border=""10"">","null","trial","32","","0.6,0.4","1:go_a","0",""
"null","","html-keyboard-response","601","621668","0.0-8.0-2.6","","<div style=""font-size:60px;"">+</div>","null","","","","","","",""
"450.59999999648426","","image-keyboard-response","602","622121","0.0-8.0-0.7","","img/purple.png","32","trial","32","true","0.6,0.4","3:go_c","",""
"null","","html-keyboard-response","603","623124","0.0-8.0-1.7","","<img src=""img/purple-r.png"" border=""10"">","null","trial","32","","0.6,0.4","3:go_c","1",""
"null","","html-keyboard-response","604","624125","0.0-8.0-2.7","","<div style=""font-size:60px;"">+</div>","null","","","","","","",""
"292.0949999970617","","image-keyboard-response","605","624418","0.0-8.0-0.8","","img/orange.png","32","trial","null","false","0.4,0.6","4:nogo_d","",""
"null","","html-keyboard-response","606","625421","0.0-8.0-1.8","","<img src=""img/orange-n.png"" border=""10"">","null","trial","null","","0.4,0.6","4:nogo_d","0",""
"null","","html-keyboard-response","607","626423","0.0-8.0-2.8","","<div style=""font-size:60px;"">+</div>","null","","","","","","",""
"564.2599999991944","","image-keyboard-response","608","626989","0.0-8.0-0.9","","img/purple.png","32","trial","32","true","0.6,0.4","3:go_c","",""
"null","","html-keyboard-response","609","627992","0.0-8.0-1.9","","<img src=""img/purple-n.png"" border=""10"">","null","trial","32","","0.6,0.4","3:go_c","0",""
"null","","html-keyboard-response","610","628994","0.0-8.0-2.9","","<div style=""font-size:60px;"">+</div>","null","","","","","","",""
"363.1349999923259","","image-keyboard-response","611","629359","0.0-8.0-0.10","","img/red.png","32","trial","null","false","0.4,0.6","2:nogo_b","",""
"null","","html-keyboard-response","612","630361","0.0-8.0-1.10","","<img src=""img/red-r.png"" border=""10"">","null","trial","null","","0.4,0.6","2:nogo_b","1",""
"null","","html-keyboard-response","613","631363","0.0-8.0-2.10","","<div style=""font-size:60px;"">+</div>","null","","","","","","",""
"252.44999999995343","","image-keyboard-response","614","631617","0.0-8.0-0.11","","img/grey.png","32","trial","32","true","0.6,0.4","1:go_a","",""
"null","","html-keyboard-response","615","632620","0.0-8.0-1.11","","<img src=""img/grey-r.png"" border=""10"">","null","trial","32","","0.6,0.4","1:go_a","1",""
"null","","html-keyboard-response","616","633621","0.0-8.0-2.11","","<div style=""font-size:60px;"">+</div>","null","","","","","","",""
"362.1150000108173","","image-keyboard-response","617","633985","0.0-8.0-0.12","","img/red.png","32","trial","null","false","0.4,0.6","2:nogo_b","",""
"null","","html-keyboard-response","618","634988","0.0-8.0-1.12","","<img src=""img/red-n.png"" border=""10"">","null","trial","null","","0.4,0.6","2:nogo_b","0",""
"null","","html-keyboard-response","619","635990","0.0-8.0-2.12","","<div style=""font-size:60px;"">+</div>","null","","","","","","",""
"658.9200000016717","","image-keyboard-response","620","636651","0.0-8.0-0.13","","img/grey.png","32","trial","32","true","0.6,0.4","1:go_a","",""
"null","","html-keyboard-response","621","637654","0.0-8.0-1.13","","<img src=""img/grey-r.png"" border=""10"">","null","trial","32","","0.6,0.4","1:go_a","1",""
"null","","html-keyboard-response","622","638655","0.0-8.0-2.13","","<div style=""font-size:60px;"">+</div>","null","","","","","","",""
"614.819999987958","","image-keyboard-response","623","639272","0.0-8.0-0.14","","img/purple.png","32","trial","32","true","0.6,0.4","3:go_c","",""
"null","","html-keyboard-response","624","640276","0.0-8.0-1.14","","<img src=""img/purple-r.png"" border=""10"">","null","trial","32","","0.6,0.4","3:go_c","1",""
"null","","html-keyboard-response","625","641278","0.0-8.0-2.14","","<div style=""font-size:60px;"">+</div>","null","","","","","","",""
"1064.7400000016205","","image-keyboard-response","626","642345","0.0-8.0-0.15","","img/orange.png","32","trial","null","false","0.4,0.6","4:nogo_d","",""
"null","","html-keyboard-response","627","643347","0.0-8.0-1.15","","<img src=""img/orange-n.png"" border=""10"">","null","trial","null","","0.4,0.6","4:nogo_d","0",""
"null","","html-keyboard-response","628","644349","0.0-8.0-2.15","","<div style=""font-size:60px;"">+</div>","null","","","","","","",""
"717.4950000044191","","image-keyboard-response","629","645068","0.0-8.0-0.16","","img/grey.png","32","trial","32","true","0.6,0.4","1:go_a","",""
"null","","html-keyboard-response","630","646069","0.0-8.0-1.16","","<img src=""img/grey-r.png"" border=""10"">","null","trial","32","","0.6,0.4","1:go_a","1",""
"null","","html-keyboard-response","631","647071","0.0-8.0-2.16","","<div style=""font-size:60px;"">+</div>","null","","","","","","",""
"46.155000003636815","","image-keyboard-response","632","647119","0.0-8.0-0.17","","img/red.png","32","trial","null","false","0.4,0.6","2:nogo_b","",""
"null","","html-keyboard-response","633","648122","0.0-8.0-1.17","","<img src=""img/red-r.png"" border=""10"">","null","trial","null","","0.4,0.6","2:nogo_b","1",""
"null","","html-keyboard-response","634","649123","0.0-8.0-2.17","","<div style=""font-size:60px;"">+</div>","null","","","","","","",""
"268.7750000040978","","image-keyboard-response","635","649394","0.0-8.0-0.18","","img/orange.png","32","trial","null","false","0.4,0.6","4:nogo_d","",""
"null","","html-keyboard-response","636","650397","0.0-8.0-1.18","","<img src=""img/orange-r.png"" border=""10"">","null","trial","null","","0.4,0.6","4:nogo_d","1",""
"null","","html-keyboard-response","637","651399","0.0-8.0-2.18","","<div style=""font-size:60px;"">+</div>","null","","","","","","",""
"324.56000000820495","","image-keyboard-response","638","651726","0.0-8.0-0.19","","img/purple.png","32","trial","32","true","0.6,0.4","3:go_c","",""
"null","","html-keyboard-response","639","652729","0.0-8.0-1.19","","<img src=""img/purple-r.png"" border=""10"">","null","trial","32","","0.6,0.4","3:go_c","1",""
"null","","html-keyboard-response","640","653730","0.0-8.0-2.19","","<div style=""font-size:60px;"">+</div>","null","","","","","","",""
"494.78500000259373","","image-keyboard-response","641","654227","0.0-8.0-0.20","","img/purple.png","32","trial","32","true","0.6,0.4","3:go_c","",""
"null","","html-keyboard-response","642","655230","0.0-8.0-1.20","","<img src=""img/purple-n.png"" border=""10"">","null","trial","32","","0.6,0.4","3:go_c","0",""
"null","","html-keyboard-response","643","656232","0.0-8.0-2.20","","<div style=""font-size:60px;"">+</div>","null","","","","","","",""
"614.4700000004377","","image-keyboard-response","644","656848","0.0-8.0-0.21","","img/orange.png","32","trial","null","false","0.4,0.6","4:nogo_d","",""
"null","","html-keyboard-response","645","657851","0.0-8.0-1.21","","<img src=""img/orange-n.png"" border=""10"">","null","trial","null","","0.4,0.6","4:nogo_d","0",""
"null","","html-keyboard-response","646","658853","0.0-8.0-2.21","","<div style=""font-size:60px;"">+</div>","null","","","","","","",""
"681.349999998929","","image-keyboard-response","647","659535","0.0-8.0-0.22","","img/grey.png","32","trial","32","true","0.6,0.4","1:go_a","",""
"null","","html-keyboard-response","648","660538","0.0-8.0-1.22","","<img src=""img/grey-n.png"" border=""10"">","null","trial","32","","0.6,0.4","1:go_a","0",""
"null","","html-keyboard-response","649","661540","0.0-8.0-2.22","","<div style=""font-size:60px;"">+</div>","null","","","","","","",""
"377.31999999959953","","image-keyboard-response","650","661919","0.0-8.0-0.23","","img/red.png","32","trial","null","false","0.4,0.6","2:nogo_b","",""
"null","","html-keyboard-response","651","662922","0.0-8.0-1.23","","<img src=""img/red-n.png"" border=""10"">","null","trial","null","","0.4,0.6","2:nogo_b","0",""
"null","","html-keyboard-response","652","663923","0.0-8.0-2.23","","<div style=""font-size:60px;"">+</div>","null","","","","","","",""
"740.0800000032177","","image-keyboard-response","653","664664","0.0-8.0-0.24","","img/orange.png","32","trial","null","false","0.4,0.6","4:nogo_d","",""
"null","","html-keyboard-response","654","665671","0.0-8.0-1.24","","<img src=""img/orange-r.png"" border=""10"">","null","trial","null","","0.4,0.6","4:nogo_d","1",""
"null","","html-keyboard-response","655","666672","0.0-8.0-2.24","","<div style=""font-size:60px;"">+</div>","null","","","","","","",""
"237.35000001033768","","image-keyboard-response","656","666911","0.0-8.0-0.25","","img/purple.png","32","trial","32","true","0.6,0.4","3:go_c","",""
"null","","html-keyboard-response","657","667914","0.0-8.0-1.25","","<img src=""img/purple-r.png"" border=""10"">","null","trial","32","","0.6,0.4","3:go_c","1",""
"null","","html-keyboard-response","658","668916","0.0-8.0-2.25","","<div style=""font-size:60px;"">+</div>","null","","","","","","",""
"391.1999999982072","","image-keyboard-response","659","669311","0.0-8.0-0.26","","img/red.png","32","trial","null","false","0.4,0.6","2:nogo_b","",""
"null","","html-keyboard-response","660","670316","0.0-8.0-1.26","","<img src=""img/red-n.png"" border=""10"">","null","trial","null","","0.4,0.6","2:nogo_b","0",""
"null","","html-keyboard-response","661","671317","0.0-8.0-2.26","","<div style=""font-size:60px;"">+</div>","null","","","","","","",""
"269.29999999993015","","image-keyboard-response","662","671588","0.0-8.0-0.27","","img/grey.png","32","trial","32","true","0.6,0.4","1:go_a","",""
"null","","html-keyboard-response","663","672591","0.0-8.0-1.27","","<img src=""img/grey-n.png"" border=""10"">","null","trial","32","","0.6,0.4","1:go_a","0",""
"null","","html-keyboard-response","664","673593","0.0-8.0-2.27","","<div style=""font-size:60px;"">+</div>","null","","","","","","",""
"227.14499999710824","","image-keyboard-response","665","673822","0.0-8.0-0.28","","img/purple.png","32","trial","32","true","0.6,0.4","3:go_c","",""
"null","","html-keyboard-response","666","674825","0.0-8.0-1.28","","<img src=""img/purple-r.png"" border=""10"">","null","trial","32","","0.6,0.4","3:go_c","1",""
"null","","html-keyboard-response","667","675827","0.0-8.0-2.28","","<div style=""font-size:60px;"">+</div>","null","","","","","","",""
