"rt","url","trial_type","trial_index","time_elapsed","internal_node_id","view_history","stimulus","key_press","test_part","correct_response","correct","use_rew","which_stim","reward","responses"
"19648.600000014994","consent.html","external-html","0","19795","0.0-0.0","","","","","","","","","",""
"153315.74499999988","","instructions","1","173115","0.0-1.0","[{""page_index"":0,""viewing_time"":4010.8450000116136},{""page_index"":1,""viewing_time"":93232.12000000058},{""page_index"":2,""viewing_time"":4914.92000001017},{""page_index"":3,""viewing_time"":18178.569999989122},{""page_index"":4,""viewing_time"":10066.690000006929},{""page_index"":5,""viewing_time"":7097.064999979921},{""page_index"":6,""viewing_time"":15812.845000007655}]","","","","","","","","",""
"483.5449999955017","","image-keyboard-response","2","173603","0.0-2.0-0.0","","img/test1.PNG","32","practice","32","true","","","",""
"null","","html-keyboard-response","3","174616","0.0-2.0-1.0","","<img src=""img/test1-reward.PNG"" border=""10px; grey"">","null","","","","","","",""
"null","","html-keyboard-response","4","175628","0.0-2.0-2.0","","<div style=""font-size:60px;"">+</div>","null","","","","","","",""
"null","","image-keyboard-response","5","177146","0.0-2.0-0.1","","img/test2.PNG","null","practice","null","true","","","",""
"null","","html-keyboard-response","6","178162","0.0-2.0-1.1","","<img src=""img/test2-reward.PNG"">","null","","","","","","",""
"null","","html-keyboard-response","7","179164","0.0-2.0-2.1","","<div style=""font-size:60px;"">+</div>","null","","","","","","",""
"null","","image-keyboard-response","8","180681","0.0-2.0-0.2","","img/test3.PNG","null","practice","null","true","","","",""
"null","","html-keyboard-response","9","181683","0.0-2.0-1.2","","<img src=""img/test3-reward.PNG"">","null","","","","","","",""
"null","","html-keyboard-response","10","182685","0.0-2.0-2.2","","<div style=""font-size:60px;"">+</div>","null","","","","","","",""
"576.6350000048988","","image-keyboard-response","11","183264","0.0-2.0-0.3","","img/test1.PNG","32","practice","32","true","","","",""
"null","","html-keyboard-response","12","184277","0.0-2.0-1.3","","<img src=""img/test1-reward.PNG"" border=""10px; grey"">","null","","","","","","",""
"null","","html-keyboard-response","13","185293","0.0-2.0-2.3","","<div style=""font-size:60px;"">+</div>","null","","","","","","",""
"null","","image-keyboard-response","14","186810","0.0-2.0-0.4","","img/test2.PNG","null","practice","null","true","","","",""
"null","","html-keyboard-response","15","187826","0.0-2.0-1.4","","<img src=""img/test2-reward.PNG"">","null","","","","","","",""
"null","","html-keyboard-response","16","188833","0.0-2.0-2.4","","<div style=""font-size:60px;"">+</div>","null","","","","","","",""
"null","","image-keyboard-response","17","190350","0.0-2.0-0.5","","img/test3.PNG","null","practice","null","true","","","",""
"null","","html-keyboard-response","18","191360","0.0-2.0-1.5","","<img src=""img/test3-reward.PNG"">","null","","","","","","",""
"null","","html-keyboard-response","19","192376","0.0-2.0-2.5","","<div style=""font-size:60px;"">+</div>","null","","","","","","",""
"null","","image-keyboard-response","20","193885","0.0-2.0-0.6","","img/test3.PNG","null","practice","null","true","","","",""
"null","","html-keyboard-response","21","194892","0.0-2.0-1.6","","<img src=""img/test3-reward.PNG"">","null","","","","","","",""
"null","","html-keyboard-response","22","195908","0.0-2.0-2.6","","<div style=""font-size:60px;"">+</div>","null","","","","","","",""
"418.41500002192333","","image-keyboard-response","23","196329","0.0-2.0-0.7","","img/test1.PNG","32","practice","32","true","","","",""
"null","","html-keyboard-response","24","197342","0.0-2.0-1.7","","<img src=""img/test1-reward.PNG"" border=""10px; grey"">","null","","","","","","",""
"null","","html-keyboard-response","25","198353","0.0-2.0-2.7","","<div style=""font-size:60px;"">+</div>","null","","","","","","",""
"null","","image-keyboard-response","26","199856","0.0-2.0-0.8","","img/test2.PNG","null","practice","null","true","","","",""
"null","","html-keyboard-response","27","200865","0.0-2.0-1.8","","<img src=""img/test2-reward.PNG"">","null","","","","","","",""
"null","","html-keyboard-response","28","201879","0.0-2.0-2.8","","<div style=""font-size:60px;"">+</div>","null","","","","","","",""
"null","","image-keyboard-response","29","203397","0.0-2.0-0.9","","img/test3.PNG","null","practice","null","true","","","",""
"null","","html-keyboard-response","30","204414","0.0-2.0-1.9","","<img src=""img/test3-reward.PNG"">","null","","","","","","",""
"null","","html-keyboard-response","31","205421","0.0-2.0-2.9","","<div style=""font-size:60px;"">+</div>","null","","","","","","",""
"462.230000004638","","image-keyboard-response","32","205886","0.0-2.0-0.10","","img/test1.PNG","32","practice","32","true","","","",""
"null","","html-keyboard-response","33","206899","0.0-2.0-1.10","","<img src=""img/test1-reward.PNG"" border=""10px; grey"">","null","","","","","","",""
"null","","html-keyboard-response","34","207911","0.0-2.0-2.10","","<div style=""font-size:60px;"">+</div>","null","","","","","","",""
"null","","image-keyboard-response","35","209428","0.0-2.0-0.11","","img/test2.PNG","null","practice","null","true","","","",""
"null","","html-keyboard-response","36","210444","0.0-2.0-1.11","","<img src=""img/test2-reward.PNG"">","null","","","","","","",""
"null","","html-keyboard-response","37","211459","0.0-2.0-2.11","","<div style=""font-size:60px;"">+</div>","null","","","","","","",""
"2917.6649999863002","","instructions","38","214377","0.0-3.0","[{""page_index"":0,""viewing_time"":2917.0949999825098}]","","","","","","","","",""
"946.6300000203773","","image-keyboard-response","39","215328","0.0-4.0-0.0","","img/yellow.png","32","trial","null","false","0.2,0.8","2:nogo_b","",""
"null","","html-keyboard-response","40","216332","0.0-4.0-1.0","","<img src=""img/yellow-n.png"" border=""10"">","null","trial","null","","0.2,0.8","2:nogo_b","0",""
"null","","html-keyboard-response","41","217338","0.0-4.0-2.0","","<div style=""font-size:60px;"">+</div>","null","","","","","","",""
"723.7500000046566","","image-keyboard-response","42","218064","0.0-4.0-0.1","","img/grey.png","32","trial","32","true","0.8,0.2","1:go_a","",""
"null","","html-keyboard-response","43","219083","0.0-4.0-1.1","","<img src=""img/grey-r.png"" border=""10"">","null","trial","32","","0.8,0.2","1:go_a","1",""
"null","","html-keyboard-response","44","220100","0.0-4.0-2.1","","<div style=""font-size:60px;"">+</div>","null","","","","","","",""
"null","","image-keyboard-response","45","221615","0.0-4.0-0.2","","img/yellow.png","null","trial","null","true","0.2,0.8","2:nogo_b","",""
"null","","html-keyboard-response","46","222628","0.0-4.0-1.2","","<img src=""img/yellow-r.png"">","null","trial","null","","0.2,0.8","2:nogo_b","1",""
"null","","html-keyboard-response","47","223650","0.0-4.0-2.2","","<div style=""font-size:60px;"">+</div>","null","","","","","","",""
"696.9500000122935","","image-keyboard-response","48","224349","0.0-4.0-0.3","","img/grey.png","32","trial","32","true","0.8,0.2","1:go_a","",""
"null","","html-keyboard-response","49","225361","0.0-4.0-1.3","","<img src=""img/grey-r.png"" border=""10"">","null","trial","32","","0.8,0.2","1:go_a","1",""
"null","","html-keyboard-response","50","226369","0.0-4.0-2.3","","<div style=""font-size:60px;"">+</div>","null","","","","","","",""
"964.0350000117905","","image-keyboard-response","51","227335","0.0-4.0-0.4","","img/yellow.png","32","trial","null","false","0.2,0.8","2:nogo_b","",""
"null","","html-keyboard-response","52","228347","0.0-4.0-1.4","","<img src=""img/yellow-n.png"" border=""10"">","null","trial","null","","0.2,0.8","2:nogo_b","0",""
"null","","html-keyboard-response","53","229359","0.0-4.0-2.4","","<div style=""font-size:60px;"">+</div>","null","","","","","","",""
"602.6350000174716","","image-keyboard-response","54","229964","0.0-4.0-0.5","","img/grey.png","32","trial","32","true","0.8,0.2","1:go_a","",""
"null","","html-keyboard-response","55","230968","0.0-4.0-1.5","","<img src=""img/grey-n.png"" border=""10"">","null","trial","32","","0.8,0.2","1:go_a","0",""
"null","","html-keyboard-response","56","231984","0.0-4.0-2.5","","<div style=""font-size:60px;"">+</div>","null","","","","","","",""
"null","","image-keyboard-response","57","233490","0.0-4.0-0.6","","img/yellow.png","null","trial","null","true","0.2,0.8","2:nogo_b","",""
"null","","html-keyboard-response","58","234507","0.0-4.0-1.6","","<img src=""img/yellow-r.png"">","null","trial","null","","0.2,0.8","2:nogo_b","1",""
"null","","html-keyboard-response","59","235517","0.0-4.0-2.6","","<div style=""font-size:60px;"">+</div>","null","","","","","","",""
"640.8550000051036","","image-keyboard-response","60","236160","0.0-4.0-0.7","","img/grey.png","32","trial","32","true","0.8,0.2","1:go_a","",""
"null","","html-keyboard-response","61","237166","0.0-4.0-1.7","","<img src=""img/grey-n.png"" border=""10"">","null","trial","32","","0.8,0.2","1:go_a","0",""
"null","","html-keyboard-response","62","238178","0.0-4.0-2.7","","<div style=""font-size:60px;"">+</div>","null","","","","","","",""
"624.9899999820627","","image-keyboard-response","63","238805","0.0-4.0-0.8","","img/yellow.png","32","trial","null","false","0.2,0.8","2:nogo_b","",""
"null","","html-keyboard-response","64","239808","0.0-4.0-1.8","","<img src=""img/yellow-n.png"" border=""10"">","null","trial","null","","0.2,0.8","2:nogo_b","0",""
"null","","html-keyboard-response","65","240825","0.0-4.0-2.8","","<div style=""font-size:60px;"">+</div>","null","","","","","","",""
"863.309999986086","","image-keyboard-response","66","241690","0.0-4.0-0.9","","img/grey.png","32","trial","32","true","0.8,0.2","1:go_a","",""
"null","","html-keyboard-response","67","242704","0.0-4.0-1.9","","<img src=""img/grey-r.png"" border=""10"">","null","trial","32","","0.8,0.2","1:go_a","1",""
"null","","html-keyboard-response","68","243718","0.0-4.0-2.9","","<div style=""font-size:60px;"">+</div>","null","","","","","","",""
"864.2399999953341","","image-keyboard-response","69","244584","0.0-4.0-0.10","","img/grey.png","32","trial","32","true","0.8,0.2","1:go_a","",""
"null","","html-keyboard-response","70","245603","0.0-4.0-1.10","","<img src=""img/grey-r.png"" border=""10"">","null","trial","32","","0.8,0.2","1:go_a","1",""
"null","","html-keyboard-response","71","246605","0.0-4.0-2.10","","<div style=""font-size:60px;"">+</div>","null","","","","","","",""
"null","","image-keyboard-response","72","248121","0.0-4.0-0.11","","img/yellow.png","null","trial","null","true","0.2,0.8","2:nogo_b","",""
"null","","html-keyboard-response","73","249126","0.0-4.0-1.11","","<img src=""img/yellow-r.png"">","null","trial","null","","0.2,0.8","2:nogo_b","1",""
"null","","html-keyboard-response","74","250141","0.0-4.0-2.11","","<div style=""font-size:60px;"">+</div>","null","","","","","","",""
"440.6449999951292","","image-keyboard-response","75","250583","0.0-4.0-0.12","","img/grey.png","32","trial","32","true","0.8,0.2","1:go_a","",""
"null","","html-keyboard-response","76","251600","0.0-4.0-1.12","","<img src=""img/grey-n.png"" border=""10"">","null","trial","32","","0.8,0.2","1:go_a","0",""
"null","","html-keyboard-response","77","252612","0.0-4.0-2.12","","<div style=""font-size:60px;"">+</div>","null","","","","","","",""
"585.4500000132248","","image-keyboard-response","78","253199","0.0-4.0-0.13","","img/yellow.png","32","trial","null","false","0.2,0.8","2:nogo_b","",""
"null","","html-keyboard-response","79","254211","0.0-4.0-1.13","","<img src=""img/yellow-n.png"" border=""10"">","null","trial","null","","0.2,0.8","2:nogo_b","0",""
"null","","html-keyboard-response","80","255222","0.0-4.0-2.13","","<div style=""font-size:60px;"">+</div>","null","","","","","","",""
"658.2800000032876","","image-keyboard-response","81","255881","0.0-4.0-0.14","","img/grey.png","32","trial","32","true","0.8,0.2","1:go_a","",""
"null","","html-keyboard-response","82","256885","0.0-4.0-1.14","","<img src=""img/grey-n.png"" border=""10"">","null","trial","32","","0.8,0.2","1:go_a","0",""
"null","","html-keyboard-response","83","257900","0.0-4.0-2.14","","<div style=""font-size:60px;"">+</div>","null","","","","","","",""
"636.0899999854155","","image-keyboard-response","84","258537","0.0-4.0-0.15","","img/yellow.png","32","trial","null","false","0.2,0.8","2:nogo_b","",""
"null","","html-keyboard-response","85","259541","0.0-4.0-1.15","","<img src=""img/yellow-r.png"" border=""10"">","null","trial","null","","0.2,0.8","2:nogo_b","1",""
"null","","html-keyboard-response","86","260547","0.0-4.0-2.15","","<div style=""font-size:60px;"">+</div>","null","","","","","","",""
"755.5949999950826","","image-keyboard-response","87","261304","0.0-4.0-0.16","","img/yellow.png","32","trial","null","false","0.2,0.8","2:nogo_b","",""
"null","","html-keyboard-response","88","262309","0.0-4.0-1.16","","<img src=""img/yellow-n.png"" border=""10"">","null","trial","null","","0.2,0.8","2:nogo_b","0",""
"null","","html-keyboard-response","89","263325","0.0-4.0-2.16","","<div style=""font-size:60px;"">+</div>","null","","","","","","",""
"795.2749999822117","","image-keyboard-response","90","264121","0.0-4.0-0.17","","img/grey.png","32","trial","32","true","0.8,0.2","1:go_a","",""
"null","","html-keyboard-response","91","265137","0.0-4.0-1.17","","<img src=""img/grey-r.png"" border=""10"">","null","trial","32","","0.8,0.2","1:go_a","1",""
"null","","html-keyboard-response","92","266151","0.0-4.0-2.17","","<div style=""font-size:60px;"">+</div>","null","","","","","","",""
"1097.1600000048056","","image-keyboard-response","93","267249","0.0-4.0-0.18","","img/yellow.png","32","trial","null","false","0.2,0.8","2:nogo_b","",""
"null","","html-keyboard-response","94","268258","0.0-4.0-1.18","","<img src=""img/yellow-n.png"" border=""10"">","null","trial","null","","0.2,0.8","2:nogo_b","0",""
"null","","html-keyboard-response","95","269265","0.0-4.0-2.18","","<div style=""font-size:60px;"">+</div>","null","","","","","","",""
"647.2549999889452","","image-keyboard-response","96","269913","0.0-4.0-0.19","","img/grey.png","32","trial","32","true","0.8,0.2","1:go_a","",""
"null","","html-keyboard-response","97","270925","0.0-4.0-1.19","","<img src=""img/grey-n.png"" border=""10"">","null","trial","32","","0.8,0.2","1:go_a","0",""
"null","","html-keyboard-response","98","271940","0.0-4.0-2.19","","<div style=""font-size:60px;"">+</div>","null","","","","","","",""
"890.2250000101048","","image-keyboard-response","99","272832","0.0-4.0-0.20","","img/grey.png","32","trial","32","true","0.8,0.2","1:go_a","",""
"null","","html-keyboard-response","100","273846","0.0-4.0-1.20","","<img src=""img/grey-r.png"" border=""10"">","null","trial","32","","0.8,0.2","1:go_a","1",""
"null","","html-keyboard-response","101","274850","0.0-4.0-2.20","","<div style=""font-size:60px;"">+</div>","null","","","","","","",""
"null","","image-keyboard-response","102","276364","0.0-4.0-0.21","","img/yellow.png","null","trial","null","true","0.2,0.8","2:nogo_b","",""
"null","","html-keyboard-response","103","277376","0.0-4.0-1.21","","<img src=""img/yellow-n.png"">","null","trial","null","","0.2,0.8","2:nogo_b","0",""
"null","","html-keyboard-response","104","278385","0.0-4.0-2.21","","<div style=""font-size:60px;"">+</div>","null","","","","","","",""
"508.8099999993574","","image-keyboard-response","105","278896","0.0-4.0-0.22","","img/grey.png","32","trial","32","true","0.8,0.2","1:go_a","",""
"null","","html-keyboard-response","106","279914","0.0-4.0-1.22","","<img src=""img/grey-r.png"" border=""10"">","null","trial","32","","0.8,0.2","1:go_a","1",""
"null","","html-keyboard-response","107","280921","0.0-4.0-2.22","","<div style=""font-size:60px;"">+</div>","null","","","","","","",""
"null","","image-keyboard-response","108","282435","0.0-4.0-0.23","","img/yellow.png","null","trial","null","true","0.2,0.8","2:nogo_b","",""
"null","","html-keyboard-response","109","283448","0.0-4.0-1.23","","<img src=""img/yellow-n.png"">","null","trial","null","","0.2,0.8","2:nogo_b","0",""
"null","","html-keyboard-response","110","284456","0.0-4.0-2.23","","<div style=""font-size:60px;"">+</div>","null","","","","","","",""
"466.2450000178069","","image-keyboard-response","111","284923","0.0-4.0-0.24","","img/grey.png","32","trial","32","true","0.8,0.2","1:go_a","",""
"null","","html-keyboard-response","112","285942","0.0-4.0-1.24","","<img src=""img/grey-r.png"" border=""10"">","null","trial","32","","0.8,0.2","1:go_a","1",""
"null","","html-keyboard-response","113","286952","0.0-4.0-2.24","","<div style=""font-size:60px;"">+</div>","null","","","","","","",""
"null","","image-keyboard-response","114","288467","0.0-4.0-0.25","","img/yellow.png","null","trial","null","true","0.2,0.8","2:nogo_b","",""
"null","","html-keyboard-response","115","289487","0.0-4.0-1.25","","<img src=""img/yellow-r.png"">","null","trial","null","","0.2,0.8","2:nogo_b","1",""
"null","","html-keyboard-response","116","290492","0.0-4.0-2.25","","<div style=""font-size:60px;"">+</div>","null","","","","","","",""
"null","","image-keyboard-response","117","291998","0.0-4.0-0.26","","img/yellow.png","null","trial","null","true","0.2,0.8","2:nogo_b","",""
"null","","html-keyboard-response","118","293015","0.0-4.0-1.26","","<img src=""img/yellow-r.png"">","null","trial","null","","0.2,0.8","2:nogo_b","1",""
"null","","html-keyboard-response","119","294023","0.0-4.0-2.26","","<div style=""font-size:60px;"">+</div>","null","","","","","","",""
"471.3399999891408","","image-keyboard-response","120","294495","0.0-4.0-0.27","","img/grey.png","32","trial","32","true","0.8,0.2","1:go_a","",""
"null","","html-keyboard-response","121","295501","0.0-4.0-1.27","","<img src=""img/grey-r.png"" border=""10"">","null","trial","32","","0.8,0.2","1:go_a","1",""
"null","","html-keyboard-response","122","296516","0.0-4.0-2.27","","<div style=""font-size:60px;"">+</div>","null","","","","","","",""
"1039.1400000080466","","image-keyboard-response","123","297556","0.0-4.0-0.28","","img/yellow.png","32","trial","null","false","0.2,0.8","2:nogo_b","",""
"null","","html-keyboard-response","124","298574","0.0-4.0-1.28","","<img src=""img/yellow-r.png"" border=""10"">","null","trial","null","","0.2,0.8","2:nogo_b","1",""
"null","","html-keyboard-response","125","299583","0.0-4.0-2.28","","<div style=""font-size:60px;"">+</div>","null","","","","","","",""
"1032.3149999894667","","image-keyboard-response","126","300617","0.0-4.0-0.29","","img/grey.png","32","trial","32","true","0.8,0.2","1:go_a","",""
"null","","html-keyboard-response","127","301621","0.0-4.0-1.29","","<img src=""img/grey-n.png"" border=""10"">","null","trial","32","","0.8,0.2","1:go_a","0",""
"null","","html-keyboard-response","128","302630","0.0-4.0-2.29","","<div style=""font-size:60px;"">+</div>","null","","","","","","",""
"636.8950000032783","","image-keyboard-response","129","303268","0.0-4.0-0.30","","img/grey.png","32","trial","32","true","0.8,0.2","1:go_a","",""
"null","","html-keyboard-response","130","304278","0.0-4.0-1.30","","<img src=""img/grey-r.png"" border=""10"">","null","trial","32","","0.8,0.2","1:go_a","1",""
"null","","html-keyboard-response","131","305294","0.0-4.0-2.30","","<div style=""font-size:60px;"">+</div>","null","","","","","","",""
"null","","image-keyboard-response","132","306802","0.0-4.0-0.31","","img/yellow.png","null","trial","null","true","0.2,0.8","2:nogo_b","",""
"null","","html-keyboard-response","133","307808","0.0-4.0-1.31","","<img src=""img/yellow-n.png"">","null","trial","null","","0.2,0.8","2:nogo_b","0",""
"null","","html-keyboard-response","134","308819","0.0-4.0-2.31","","<div style=""font-size:60px;"">+</div>","null","","","","","","",""
"806.8199999979697","","image-keyboard-response","135","309628","0.0-4.0-0.32","","img/yellow.png","32","trial","null","false","0.2,0.8","2:nogo_b","",""
"null","","html-keyboard-response","136","310641","0.0-4.0-1.32","","<img src=""img/yellow-n.png"" border=""10"">","null","trial","null","","0.2,0.8","2:nogo_b","0",""
"null","","html-keyboard-response","137","311649","0.0-4.0-2.32","","<div style=""font-size:60px;"">+</div>","null","","","","","","",""
"706.1199999880046","","image-keyboard-response","138","312357","0.0-4.0-0.33","","img/grey.png","32","trial","32","true","0.8,0.2","1:go_a","",""
"null","","html-keyboard-response","139","313370","0.0-4.0-1.33","","<img src=""img/grey-r.png"" border=""10"">","null","trial","32","","0.8,0.2","1:go_a","1",""
"null","","html-keyboard-response","140","314381","0.0-4.0-2.33","","<div style=""font-size:60px;"">+</div>","null","","","","","","",""
"753.3800000092015","","image-keyboard-response","141","315136","0.0-4.0-0.34","","img/grey.png","32","trial","32","true","0.8,0.2","1:go_a","",""
"null","","html-keyboard-response","142","316143","0.0-4.0-1.34","","<img src=""img/grey-r.png"" border=""10"">","null","trial","32","","0.8,0.2","1:go_a","1",""
"null","","html-keyboard-response","143","317147","0.0-4.0-2.34","","<div style=""font-size:60px;"">+</div>","null","","","","","","",""
"null","","image-keyboard-response","144","318649","0.0-4.0-0.35","","img/yellow.png","null","trial","null","true","0.2,0.8","2:nogo_b","",""
"null","","html-keyboard-response","145","319668","0.0-4.0-1.35","","<img src=""img/yellow-n.png"">","null","trial","null","","0.2,0.8","2:nogo_b","0",""
"null","","html-keyboard-response","146","320671","0.0-4.0-2.35","","<div style=""font-size:60px;"">+</div>","null","","","","","","",""
"null","","image-keyboard-response","147","322178","0.0-4.0-0.36","","img/yellow.png","null","trial","null","true","0.2,0.8","2:nogo_b","",""
"null","","html-keyboard-response","148","323193","0.0-4.0-1.36","","<img src=""img/yellow-r.png"">","null","trial","null","","0.2,0.8","2:nogo_b","1",""
"null","","html-keyboard-response","149","324198","0.0-4.0-2.36","","<div style=""font-size:60px;"">+</div>","null","","","","","","",""
"679.1499999817461","","image-keyboard-response","150","324878","0.0-4.0-0.37","","img/grey.png","32","trial","32","true","0.8,0.2","1:go_a","",""
"null","","html-keyboard-response","151","325893","0.0-4.0-1.37","","<img src=""img/grey-r.png"" border=""10"">","null","trial","32","","0.8,0.2","1:go_a","1",""
"null","","html-keyboard-response","152","326906","0.0-4.0-2.37","","<div style=""font-size:60px;"">+</div>","null","","","","","","",""
"679.7150000056718","","image-keyboard-response","153","327587","0.0-4.0-0.38","","img/grey.png","32","trial","32","true","0.8,0.2","1:go_a","",""
"null","","html-keyboard-response","154","328595","0.0-4.0-1.38","","<img src=""img/grey-n.png"" border=""10"">","null","trial","32","","0.8,0.2","1:go_a","0",""
"null","","html-keyboard-response","155","329602","0.0-4.0-2.38","","<div style=""font-size:60px;"">+</div>","null","","","","","","",""
"null","","image-keyboard-response","156","331111","0.0-4.0-0.39","","img/yellow.png","null","trial","null","true","0.2,0.8","2:nogo_b","",""
"null","","html-keyboard-response","157","332124","0.0-4.0-1.39","","<img src=""img/yellow-r.png"">","null","trial","null","","0.2,0.8","2:nogo_b","1",""
"null","","html-keyboard-response","158","333142","0.0-4.0-2.39","","<div style=""font-size:60px;"">+</div>","null","","","","","","",""
"null","","image-keyboard-response","159","334651","0.0-4.0-0.40","","img/yellow.png","null","trial","null","true","0.2,0.8","2:nogo_b","",""
"null","","html-keyboard-response","160","335656","0.0-4.0-1.40","","<img src=""img/yellow-n.png"">","null","trial","null","","0.2,0.8","2:nogo_b","0",""
"null","","html-keyboard-response","161","336660","0.0-4.0-2.40","","<div style=""font-size:60px;"">+</div>","null","","","","","","",""
"595.5099999846425","","image-keyboard-response","162","337257","0.0-4.0-0.41","","img/grey.png","32","trial","32","true","0.8,0.2","1:go_a","",""
"null","","html-keyboard-response","163","338264","0.0-4.0-1.41","","<img src=""img/grey-n.png"" border=""10"">","null","trial","32","","0.8,0.2","1:go_a","0",""
"null","","html-keyboard-response","164","339281","0.0-4.0-2.41","","<div style=""font-size:60px;"">+</div>","null","","","","","","",""
"620.2449999982491","","image-keyboard-response","165","339903","0.0-4.0-0.42","","img/yellow.png","32","trial","null","false","0.2,0.8","2:nogo_b","",""
"null","","html-keyboard-response","166","340915","0.0-4.0-1.42","","<img src=""img/yellow-r.png"" border=""10"">","null","trial","null","","0.2,0.8","2:nogo_b","1",""
"null","","html-keyboard-response","167","341926","0.0-4.0-2.42","","<div style=""font-size:60px;"">+</div>","null","","","","","","",""
"840.7000000006519","","image-keyboard-response","168","342768","0.0-4.0-0.43","","img/grey.png","32","trial","32","true","0.8,0.2","1:go_a","",""
"null","","html-keyboard-response","169","343780","0.0-4.0-1.43","","<img src=""img/grey-n.png"" border=""10"">","null","trial","32","","0.8,0.2","1:go_a","0",""
"null","","html-keyboard-response","170","344784","0.0-4.0-2.43","","<div style=""font-size:60px;"">+</div>","null","","","","","","",""
"820.4350000014529","","image-keyboard-response","171","345606","0.0-4.0-0.44","","img/grey.png","32","trial","32","true","0.8,0.2","1:go_a","",""
"null","","html-keyboard-response","172","346617","0.0-4.0-1.44","","<img src=""img/grey-r.png"" border=""10"">","null","trial","32","","0.8,0.2","1:go_a","1",""
"null","","html-keyboard-response","173","347634","0.0-4.0-2.44","","<div style=""font-size:60px;"">+</div>","null","","","","","","",""
"844.3699999770615","","image-keyboard-response","174","348479","0.0-4.0-0.45","","img/yellow.png","32","trial","null","false","0.2,0.8","2:nogo_b","",""
"null","","html-keyboard-response","175","349495","0.0-4.0-1.45","","<img src=""img/yellow-r.png"" border=""10"">","null","trial","null","","0.2,0.8","2:nogo_b","1",""
"null","","html-keyboard-response","176","350501","0.0-4.0-2.45","","<div style=""font-size:60px;"">+</div>","null","","","","","","",""
"1047.244999994291","","image-keyboard-response","177","351550","0.0-4.0-0.46","","img/yellow.png","32","trial","null","false","0.2,0.8","2:nogo_b","",""
"null","","html-keyboard-response","178","352557","0.0-4.0-1.46","","<img src=""img/yellow-n.png"" border=""10"">","null","trial","null","","0.2,0.8","2:nogo_b","0",""
"null","","html-keyboard-response","179","353572","0.0-4.0-2.46","","<div style=""font-size:60px;"">+</div>","null","","","","","","",""
"775.1700000080746","","image-keyboard-response","180","354348","0.0-4.0-0.47","","img/grey.png","32","trial","32","true","0.8,0.2","1:go_a","",""
"null","","html-keyboard-response","181","355357","0.0-4.0-1.47","","<img src=""img/grey-r.png"" border=""10"">","null","trial","32","","0.8,0.2","1:go_a","1",""
"null","","html-keyboard-response","182","356372","0.0-4.0-2.47","","<div style=""font-size:60px;"">+</div>","null","","","","","","",""
"1001.9549999851733","","image-keyboard-response","183","357376","0.0-4.0-0.48","","img/yellow.png","32","trial","null","false","0.2,0.8","2:nogo_b","",""
"null","","html-keyboard-response","184","358384","0.0-4.0-1.48","","<img src=""img/yellow-n.png"" border=""10"">","null","trial","null","","0.2,0.8","2:nogo_b","0",""
"null","","html-keyboard-response","185","359397","0.0-4.0-2.48","","<div style=""font-size:60px;"">+</div>","null","","","","","","",""
"754.4549999875017","","image-keyboard-response","186","360153","0.0-4.0-0.49","","img/grey.png","32","trial","32","true","0.8,0.2","1:go_a","",""
"null","","html-keyboard-response","187","361158","0.0-4.0-1.49","","<img src=""img/grey-r.png"" border=""10"">","null","trial","32","","0.8,0.2","1:go_a","1",""
"null","","html-keyboard-response","188","362168","0.0-4.0-2.49","","<div style=""font-size:60px;"">+</div>","null","","","","","","",""
"644.5949999906588","","image-keyboard-response","189","362813","0.0-4.0-0.50","","img/grey.png","32","trial","32","true","0.8,0.2","1:go_a","",""
"null","","html-keyboard-response","190","363818","0.0-4.0-1.50","","<img src=""img/grey-r.png"" border=""10"">","null","trial","32","","0.8,0.2","1:go_a","1",""
"null","","html-keyboard-response","191","364831","0.0-4.0-2.50","","<div style=""font-size:60px;"">+</div>","null","","","","","","",""
"null","","image-keyboard-response","192","366340","0.0-4.0-0.51","","img/yellow.png","null","trial","null","true","0.2,0.8","2:nogo_b","",""
"null","","html-keyboard-response","193","367354","0.0-4.0-1.51","","<img src=""img/yellow-r.png"">","null","trial","null","","0.2,0.8","2:nogo_b","1",""
"null","","html-keyboard-response","194","368365","0.0-4.0-2.51","","<div style=""font-size:60px;"">+</div>","null","","","","","","",""
"null","","image-keyboard-response","195","369872","0.0-4.0-0.52","","img/yellow.png","null","trial","null","true","0.2,0.8","2:nogo_b","",""
"null","","html-keyboard-response","196","370875","0.0-4.0-1.52","","<img src=""img/yellow-n.png"">","null","trial","null","","0.2,0.8","2:nogo_b","0",""
"null","","html-keyboard-response","197","371877","0.0-4.0-2.52","","<div style=""font-size:60px;"">+</div>","null","","","","","","",""
"699.7949999931734","","image-keyboard-response","198","372578","0.0-4.0-0.53","","img/grey.png","32","trial","32","true","0.8,0.2","1:go_a","",""
"null","","html-keyboard-response","199","373595","0.0-4.0-1.53","","<img src=""img/grey-r.png"" border=""10"">","null","trial","32","","0.8,0.2","1:go_a","1",""
"null","","html-keyboard-response","200","374611","0.0-4.0-2.53","","<div style=""font-size:60px;"">+</div>","null","","","","","","",""
"null","","image-keyboard-response","201","376118","0.0-4.0-0.54","","img/yellow.png","null","trial","null","true","0.2,0.8","2:nogo_b","",""
"null","","html-keyboard-response","202","377132","0.0-4.0-1.54","","<img src=""img/yellow-r.png"">","null","trial","null","","0.2,0.8","2:nogo_b","1",""
"null","","html-keyboard-response","203","378136","0.0-4.0-2.54","","<div style=""font-size:60px;"">+</div>","null","","","","","","",""
"794.9300000036601","","image-keyboard-response","204","378932","0.0-4.0-0.55","","img/grey.png","32","trial","32","true","0.8,0.2","1:go_a","",""
"null","","html-keyboard-response","205","379937","0.0-4.0-1.55","","<img src=""img/grey-r.png"" border=""10"">","null","trial","32","","0.8,0.2","1:go_a","1",""
"null","","html-keyboard-response","206","380952","0.0-4.0-2.55","","<div style=""font-size:60px;"">+</div>","null","","","","","","",""
"811.985000007553","","image-keyboard-response","207","381765","0.0-4.0-0.56","","img/grey.png","32","trial","32","true","0.8,0.2","1:go_a","",""
"null","","html-keyboard-response","208","382780","0.0-4.0-1.56","","<img src=""img/grey-r.png"" border=""10"">","null","trial","32","","0.8,0.2","1:go_a","1",""
"null","","html-keyboard-response","209","383787","0.0-4.0-2.56","","<div style=""font-size:60px;"">+</div>","null","","","","","","",""
"716.4999999804422","","image-keyboard-response","210","384505","0.0-4.0-0.57","","img/yellow.png","32","trial","null","false","0.2,0.8","2:nogo_b","",""
"null","","html-keyboard-response","211","385516","0.0-4.0-1.57","","<img src=""img/yellow-n.png"" border=""10"">","null","trial","null","","0.2,0.8","2:nogo_b","0",""
"null","","html-keyboard-response","212","386525","0.0-4.0-2.57","","<div style=""font-size:60px;"">+</div>","null","","","","","","",""
"null","","image-keyboard-response","213","388027","0.0-4.0-0.58","","img/yellow.png","null","trial","null","true","0.2,0.8","2:nogo_b","",""
"null","","html-keyboard-response","214","389034","0.0-4.0-1.58","","<img src=""img/yellow-r.png"">","null","trial","null","","0.2,0.8","2:nogo_b","1",""
"null","","html-keyboard-response","215","390048","0.0-4.0-2.58","","<div style=""font-size:60px;"">+</div>","null","","","","","","",""
"549.4550000003073","","image-keyboard-response","216","390599","0.0-4.0-0.59","","img/grey.png","32","trial","32","true","0.8,0.2","1:go_a","",""
"null","","html-keyboard-response","217","391608","0.0-4.0-1.59","","<img src=""img/grey-r.png"" border=""10"">","null","trial","32","","0.8,0.2","1:go_a","1",""
"null","","html-keyboard-response","218","392617","0.0-4.0-2.59","","<div style=""font-size:60px;"">+</div>","null","","","","","","",""
"2828.509999992093","","instructions","219","395446","0.0-5.0","[{""page_index"":0,""viewing_time"":2828.2100000069477}]","","","","","","","","",""
"998.6450000142213","","image-keyboard-response","220","396447","0.0-6.0-0.0","","img/green.png","32","trial","32","true","0.8,0.2","1:go_a","",""
"null","","html-keyboard-response","221","397453","0.0-6.0-1.0","","<img src=""img/green-n.png"" border=""10"">","null","trial","32","","0.8,0.2","1:go_a","0",""
"null","","html-keyboard-response","222","398465","0.0-6.0-2.0","","<div style=""font-size:60px;"">+</div>","null","","","","","","",""
"896.4949999935925","","image-keyboard-response","223","399362","0.0-6.0-0.1","","img/purple.png","32","trial","null","false","0.2,0.8","2:nogo_b","",""
"null","","html-keyboard-response","224","400374","0.0-6.0-1.1","","<img src=""img/purple-n.png"" border=""10"">","null","trial","null","","0.2,0.8","2:nogo_b","0",""
"null","","html-keyboard-response","225","401384","0.0-6.0-2.1","","<div style=""font-size:60px;"">+</div>","null","","","","","","",""
"735.4899999918416","","image-keyboard-response","226","402121","0.0-6.0-0.2","","img/red.png","32","trial","32","true","0.8,0.2","3:go_c","",""
"null","","html-keyboard-response","227","403137","0.0-6.0-1.2","","<img src=""img/red-r.png"" border=""10"">","null","trial","32","","0.8,0.2","3:go_c","1",""
"null","","html-keyboard-response","228","404153","0.0-6.0-2.2","","<div style=""font-size:60px;"">+</div>","null","","","","","","",""
"863.630000007106","","image-keyboard-response","229","405015","0.0-6.0-0.3","","img/orange.png","32","trial","null","false","0.2,0.8","4:nogo_d","",""
"null","","html-keyboard-response","230","406033","0.0-6.0-1.3","","<img src=""img/orange-n.png"" border=""10"">","null","trial","null","","0.2,0.8","4:nogo_d","0",""
"null","","html-keyboard-response","231","407043","0.0-6.0-2.3","","<div style=""font-size:60px;"">+</div>","null","","","","","","",""
"840.2399999904446","","image-keyboard-response","232","407885","0.0-6.0-0.4","","img/orange.png","32","trial","null","false","0.2,0.8","4:nogo_d","",""
"null","","html-keyboard-response","233","408899","0.0-6.0-1.4","","<img src=""img/orange-n.png"" border=""10"">","null","trial","null","","0.2,0.8","4:nogo_d","0",""
"null","","html-keyboard-response","234","409916","0.0-6.0-2.4","","<div style=""font-size:60px;"">+</div>","null","","","","","","",""
"1026.5800000051968","","image-keyboard-response","235","410944","0.0-6.0-0.5","","img/purple.png","32","trial","null","false","0.2,0.8","2:nogo_b","",""
"null","","html-keyboard-response","236","411952","0.0-6.0-1.5","","<img src=""img/purple-n.png"" border=""10"">","null","trial","null","","0.2,0.8","2:nogo_b","0",""
"null","","html-keyboard-response","237","412966","0.0-6.0-2.5","","<div style=""font-size:60px;"">+</div>","null","","","","","","",""
"772.7299999969546","","image-keyboard-response","238","413740","0.0-6.0-0.6","","img/green.png","32","trial","32","true","0.8,0.2","1:go_a","",""
"null","","html-keyboard-response","239","414746","0.0-6.0-1.6","","<img src=""img/green-r.png"" border=""10"">","null","trial","32","","0.8,0.2","1:go_a","1",""
"null","","html-keyboard-response","240","415752","0.0-6.0-2.6","","<div style=""font-size:60px;"">+</div>","null","","","","","","",""
"633.7249999924097","","image-keyboard-response","241","416387","0.0-6.0-0.7","","img/red.png","32","trial","32","true","0.8,0.2","3:go_c","",""
"null","","html-keyboard-response","242","417394","0.0-6.0-1.7","","<img src=""img/red-r.png"" border=""10"">","null","trial","32","","0.8,0.2","3:go_c","1",""
"null","","html-keyboard-response","243","418406","0.0-6.0-2.7","","<div style=""font-size:60px;"">+</div>","null","","","","","","",""
"null","","image-keyboard-response","244","419908","0.0-6.0-0.8","","img/orange.png","null","trial","null","true","0.2,0.8","4:nogo_d","",""
"null","","html-keyboard-response","245","420919","0.0-6.0-1.8","","<img src=""img/orange-r.png"">","null","trial","null","","0.2,0.8","4:nogo_d","1",""
"null","","html-keyboard-response","246","421923","0.0-6.0-2.8","","<div style=""font-size:60px;"">+</div>","null","","","","","","",""
"null","","image-keyboard-response","247","423436","0.0-6.0-0.9","","img/purple.png","null","trial","null","true","0.2,0.8","2:nogo_b","",""
"null","","html-keyboard-response","248","424453","0.0-6.0-1.9","","<img src=""img/purple-r.png"">","null","trial","null","","0.2,0.8","2:nogo_b","1",""
"null","","html-keyboard-response","249","425456","0.0-6.0-2.9","","<div style=""font-size:60px;"">+</div>","null","","","","","","",""
"712.96999999322","","image-keyboard-response","250","426170","0.0-6.0-0.10","","img/green.png","32","trial","32","true","0.8,0.2","1:go_a","",""
"null","","html-keyboard-response","251","427188","0.0-6.0-1.10","","<img src=""img/green-n.png"" border=""10"">","null","trial","32","","0.8,0.2","1:go_a","0",""
"null","","html-keyboard-response","252","428203","0.0-6.0-2.10","","<div style=""font-size:60px;"">+</div>","null","","","","","","",""
"664.4150000065565","","image-keyboard-response","253","428869","0.0-6.0-0.11","","img/red.png","32","trial","32","true","0.8,0.2","3:go_c","",""
"null","","html-keyboard-response","254","429887","0.0-6.0-1.11","","<img src=""img/red-r.png"" border=""10"">","null","trial","32","","0.8,0.2","3:go_c","1",""
"null","","html-keyboard-response","255","430896","0.0-6.0-2.11","","<div style=""font-size:60px;"">+</div>","null","","","","","","",""
"827.6699999987613","","image-keyboard-response","256","431725","0.0-6.0-0.12","","img/green.png","32","trial","32","true","0.8,0.2","1:go_a","",""
"null","","html-keyboard-response","257","432733","0.0-6.0-1.12","","<img src=""img/green-r.png"" border=""10"">","null","trial","32","","0.8,0.2","1:go_a","1",""
"null","","html-keyboard-response","258","433737","0.0-6.0-2.12","","<div style=""font-size:60px;"">+</div>","null","","","","","","",""
"830.6250000023283","","image-keyboard-response","259","434569","0.0-6.0-0.13","","img/orange.png","32","trial","null","false","0.2,0.8","4:nogo_d","",""
"null","","html-keyboard-response","260","435576","0.0-6.0-1.13","","<img src=""img/orange-n.png"" border=""10"">","null","trial","null","","0.2,0.8","4:nogo_d","0",""
"null","","html-keyboard-response","261","436593","0.0-6.0-2.13","","<div style=""font-size:60px;"">+</div>","null","","","","","","",""
"770.1299999898765","","image-keyboard-response","262","437365","0.0-6.0-0.14","","img/purple.png","32","trial","null","false","0.2,0.8","2:nogo_b","",""
"null","","html-keyboard-response","263","438381","0.0-6.0-1.14","","<img src=""img/purple-r.png"" border=""10"">","null","trial","null","","0.2,0.8","2:nogo_b","1",""
"null","","html-keyboard-response","264","439388","0.0-6.0-2.14","","<div style=""font-size:60px;"">+</div>","null","","","","","","",""
"625.4299999854993","","image-keyboard-response","265","440014","0.0-6.0-0.15","","img/red.png","32","trial","32","true","0.8,0.2","3:go_c","",""
"null","","html-keyboard-response","266","441029","0.0-6.0-1.15","","<img src=""img/red-r.png"" border=""10"">","null","trial","32","","0.8,0.2","3:go_c","1",""
"null","","html-keyboard-response","267","442037","0.0-6.0-2.15","","<div style=""font-size:60px;"">+</div>","null","","","","","","",""
"null","","image-keyboard-response","268","443543","0.0-6.0-0.16","","img/orange.png","null","trial","null","true","0.2,0.8","4:nogo_d","",""
"null","","html-keyboard-response","269","444556","0.0-6.0-1.16","","<img src=""img/orange-n.png"">","null","trial","null","","0.2,0.8","4:nogo_d","0",""
"null","","html-keyboard-response","270","445559","0.0-6.0-2.16","","<div style=""font-size:60px;"">+</div>","null","","","","","","",""
"604.3599999975413","","image-keyboard-response","271","446165","0.0-6.0-0.17","","img/green.png","32","trial","32","true","0.8,0.2","1:go_a","",""
"null","","html-keyboard-response","272","447169","0.0-6.0-1.17","","<img src=""img/green-n.png"" border=""10"">","null","trial","32","","0.8,0.2","1:go_a","0",""
"null","","html-keyboard-response","273","448178","0.0-6.0-2.17","","<div style=""font-size:60px;"">+</div>","null","","","","","","",""
"1105.6149999785703","","image-keyboard-response","274","449285","0.0-6.0-0.18","","img/purple.png","32","trial","null","false","0.2,0.8","2:nogo_b","",""
"null","","html-keyboard-response","275","450292","0.0-6.0-1.18","","<img src=""img/purple-n.png"" border=""10"">","null","trial","null","","0.2,0.8","2:nogo_b","0",""
"null","","html-keyboard-response","276","451306","0.0-6.0-2.18","","<div style=""font-size:60px;"">+</div>","null","","","","","","",""
"602.6950000086799","","image-keyboard-response","277","451910","0.0-6.0-0.19","","img/red.png","32","trial","32","true","0.8,0.2","3:go_c","",""
"null","","html-keyboard-response","278","452928","0.0-6.0-1.19","","<img src=""img/red-r.png"" border=""10"">","null","trial","32","","0.8,0.2","3:go_c","1",""
"null","","html-keyboard-response","279","453937","0.0-6.0-2.19","","<div style=""font-size:60px;"">+</div>","null","","","","","","",""
"null","","image-keyboard-response","280","455449","0.0-6.0-0.20","","img/orange.png","null","trial","null","true","0.2,0.8","4:nogo_d","",""
"null","","html-keyboard-response","281","456462","0.0-6.0-1.20","","<img src=""img/orange-n.png"">","null","trial","null","","0.2,0.8","4:nogo_d","0",""
"null","","html-keyboard-response","282","457463","0.0-6.0-2.20","","<div style=""font-size:60px;"">+</div>","null","","","","","","",""
"834.1650000074878","","image-keyboard-response","283","458298","0.0-6.0-0.21","","img/green.png","32","trial","32","true","0.8,0.2","1:go_a","",""
"null","","html-keyboard-response","284","459302","0.0-6.0-1.21","","<img src=""img/green-r.png"" border=""10"">","null","trial","32","","0.8,0.2","1:go_a","1",""
"null","","html-keyboard-response","285","460309","0.0-6.0-2.21","","<div style=""font-size:60px;"">+</div>","null","","","","","","",""
"null","","image-keyboard-response","286","461813","0.0-6.0-0.22","","img/purple.png","null","trial","null","true","0.2,0.8","2:nogo_b","",""
"null","","html-keyboard-response","287","462825","0.0-6.0-1.22","","<img src=""img/purple-r.png"">","null","trial","null","","0.2,0.8","2:nogo_b","1",""
"null","","html-keyboard-response","288","463837","0.0-6.0-2.22","","<div style=""font-size:60px;"">+</div>","null","","","","","","",""
"614.6599999919999","","image-keyboard-response","289","464453","0.0-6.0-0.23","","img/red.png","32","trial","32","true","0.8,0.2","3:go_c","",""
"null","","html-keyboard-response","290","465475","0.0-6.0-1.23","","<img src=""img/red-r.png"" border=""10"">","null","trial","32","","0.8,0.2","3:go_c","1",""
"null","","html-keyboard-response","291","466480","0.0-6.0-2.23","","<div style=""font-size:60px;"">+</div>","null","","","","","","",""
"null","","image-keyboard-response","292","467992","0.0-6.0-0.24","","img/purple.png","null","trial","null","true","0.2,0.8","2:nogo_b","",""
"null","","html-keyboard-response","293","469006","0.0-6.0-1.24","","<img src=""img/purple-r.png"">","null","trial","null","","0.2,0.8","2:nogo_b","1",""
"null","","html-keyboard-response","294","470019","0.0-6.0-2.24","","<div style=""font-size:60px;"">+</div>","null","","","","","","",""
"null","","image-keyboard-response","295","471531","0.0-6.0-0.25","","img/orange.png","null","trial","null","true","0.2,0.8","4:nogo_d","",""
"null","","html-keyboard-response","296","472538","0.0-6.0-1.25","","<img src=""img/orange-r.png"">","null","trial","null","","0.2,0.8","4:nogo_d","1",""
"null","","html-keyboard-response","297","473543","0.0-6.0-2.25","","<div style=""font-size:60px;"">+</div>","null","","","","","","",""
"576.6599999915343","","image-keyboard-response","298","474121","0.0-6.0-0.26","","img/red.png","32","trial","32","true","0.8,0.2","3:go_c","",""
"null","","html-keyboard-response","299","475140","0.0-6.0-1.26","","<img src=""img/red-n.png"" border=""10"">","null","trial","32","","0.8,0.2","3:go_c","0",""
"null","","html-keyboard-response","300","476151","0.0-6.0-2.26","","<div style=""font-size:60px;"">+</div>","null","","","","","","",""
"618.255000008503","","image-keyboard-response","301","476770","0.0-6.0-0.27","","img/green.png","32","trial","32","true","0.8,0.2","1:go_a","",""
"null","","html-keyboard-response","302","477786","0.0-6.0-1.27","","<img src=""img/green-n.png"" border=""10"">","null","trial","32","","0.8,0.2","1:go_a","0",""
"null","","html-keyboard-response","303","478794","0.0-6.0-2.27","","<div style=""font-size:60px;"">+</div>","null","","","","","","",""
"869.4400000094902","","image-keyboard-response","304","479665","0.0-6.0-0.28","","img/green.png","32","trial","32","true","0.8,0.2","1:go_a","",""
"null","","html-keyboard-response","305","480668","0.0-6.0-1.28","","<img src=""img/green-r.png"" border=""10"">","null","trial","32","","0.8,0.2","1:go_a","1",""
"null","","html-keyboard-response","306","481683","0.0-6.0-2.28","","<div style=""font-size:60px;"">+</div>","null","","","","","","",""
"913.1899999920279","","image-keyboard-response","307","482598","0.0-6.0-0.29","","img/purple.png","32","trial","null","false","0.2,0.8","2:nogo_b","",""
"null","","html-keyboard-response","308","483606","0.0-6.0-1.29","","<img src=""img/purple-n.png"" border=""10"">","null","trial","null","","0.2,0.8","2:nogo_b","0",""
"null","","html-keyboard-response","309","484623","0.0-6.0-2.29","","<div style=""font-size:60px;"">+</div>","null","","","","","","",""
"629.1550000023562","","image-keyboard-response","310","485257","0.0-6.0-0.30","","img/red.png","32","trial","32","true","0.8,0.2","3:go_c","",""
"null","","html-keyboard-response","311","486274","0.0-6.0-1.30","","<img src=""img/red-r.png"" border=""10"">","null","trial","32","","0.8,0.2","3:go_c","1",""
"null","","html-keyboard-response","312","487279","0.0-6.0-2.30","","<div style=""font-size:60px;"">+</div>","null","","","","","","",""
"null","","image-keyboard-response","313","488786","0.0-6.0-0.31","","img/orange.png","null","trial","null","true","0.2,0.8","4:nogo_d","",""
"null","","html-keyboard-response","314","489803","0.0-6.0-1.31","","<img src=""img/orange-r.png"">","null","trial","null","","0.2,0.8","4:nogo_d","1",""
"null","","html-keyboard-response","315","490820","0.0-6.0-2.31","","<div style=""font-size:60px;"">+</div>","null","","","","","","",""
"null","","image-keyboard-response","316","492336","0.0-6.0-0.32","","img/purple.png","null","trial","null","true","0.2,0.8","2:nogo_b","",""
"null","","html-keyboard-response","317","493348","0.0-6.0-1.32","","<img src=""img/purple-r.png"">","null","trial","null","","0.2,0.8","2:nogo_b","1",""
"null","","html-keyboard-response","318","494355","0.0-6.0-2.32","","<div style=""font-size:60px;"">+</div>","null","","","","","","",""
"722.3250000097323","","image-keyboard-response","319","495079","0.0-6.0-0.33","","img/green.png","32","trial","32","true","0.8,0.2","1:go_a","",""
"null","","html-keyboard-response","320","496094","0.0-6.0-1.33","","<img src=""img/green-r.png"" border=""10"">","null","trial","32","","0.8,0.2","1:go_a","1",""
"null","","html-keyboard-response","321","497109","0.0-6.0-2.33","","<div style=""font-size:60px;"">+</div>","null","","","","","","",""
"602.2700000030454","","image-keyboard-response","322","497713","0.0-6.0-0.34","","img/red.png","32","trial","32","true","0.8,0.2","3:go_c","",""
"null","","html-keyboard-response","323","498726","0.0-6.0-1.34","","<img src=""img/red-n.png"" border=""10"">","null","trial","32","","0.8,0.2","3:go_c","0",""
"null","","html-keyboard-response","324","499733","0.0-6.0-2.34","","<div style=""font-size:60px;"">+</div>","null","","","","","","",""
"null","","image-keyboard-response","325","501240","0.0-6.0-0.35","","img/orange.png","null","trial","null","true","0.2,0.8","4:nogo_d","",""
"null","","html-keyboard-response","326","502256","0.0-6.0-1.35","","<img src=""img/orange-r.png"">","null","trial","null","","0.2,0.8","4:nogo_d","1",""
"null","","html-keyboard-response","327","503266","0.0-6.0-2.35","","<div style=""font-size:60px;"">+</div>","null","","","","","","",""
"644.2899999965448","","image-keyboard-response","328","503912","0.0-6.0-0.36","","img/green.png","32","trial","32","true","0.8,0.2","1:go_a","",""
"null","","html-keyboard-response","329","504915","0.0-6.0-1.36","","<img src=""img/green-r.png"" border=""10"">","null","trial","32","","0.8,0.2","1:go_a","1",""
"null","","html-keyboard-response","330","505924","0.0-6.0-2.36","","<div style=""font-size:60px;"">+</div>","null","","","","","","",""
"1083.665000012843","","image-keyboard-response","331","507009","0.0-6.0-0.37","","img/purple.png","32","trial","null","false","0.2,0.8","2:nogo_b","",""
"null","","html-keyboard-response","332","508021","0.0-6.0-1.37","","<img src=""img/purple-n.png"" border=""10"">","null","trial","null","","0.2,0.8","2:nogo_b","0",""
"null","","html-keyboard-response","333","509023","0.0-6.0-2.37","","<div style=""font-size:60px;"">+</div>","null","","","","","","",""
"594.1949999833014","","image-keyboard-response","334","509618","0.0-6.0-0.38","","img/red.png","32","trial","32","true","0.8,0.2","3:go_c","",""
"null","","html-keyboard-response","335","510634","0.0-6.0-1.38","","<img src=""img/red-n.png"" border=""10"">","null","trial","32","","0.8,0.2","3:go_c","0",""
"null","","html-keyboard-response","336","511649","0.0-6.0-2.38","","<div style=""font-size:60px;"">+</div>","null","","","","","","",""
"511.43000001320615","","image-keyboard-response","337","512161","0.0-6.0-0.39","","img/orange.png","32","trial","null","false","0.2,0.8","4:nogo_d","",""
"null","","html-keyboard-response","338","513167","0.0-6.0-1.39","","<img src=""img/orange-r.png"" border=""10"">","null","trial","null","","0.2,0.8","4:nogo_d","1",""
"null","","html-keyboard-response","339","514179","0.0-6.0-2.39","","<div style=""font-size:60px;"">+</div>","null","","","","","","",""
"null","","image-keyboard-response","340","515695","0.0-6.0-0.40","","img/red.png","null","trial","32","false","0.8,0.2","3:go_c","",""
"null","","html-keyboard-response","341","516708","0.0-6.0-1.40","","<img src=""img/red-n.png"">","null","trial","32","","0.8,0.2","3:go_c","0",""
"null","","html-keyboard-response","342","517717","0.0-6.0-2.40","","<div style=""font-size:60px;"">+</div>","null","","","","","","",""
"null","","image-keyboard-response","343","519231","0.0-6.0-0.41","","img/purple.png","null","trial","null","true","0.2,0.8","2:nogo_b","",""
"null","","html-keyboard-response","344","520244","0.0-6.0-1.41","","<img src=""img/purple-n.png"">","null","trial","null","","0.2,0.8","2:nogo_b","0",""
"null","","html-keyboard-response","345","521251","0.0-6.0-2.41","","<div style=""font-size:60px;"">+</div>","null","","","","","","",""
"675.569999992149","","image-keyboard-response","346","521928","0.0-6.0-0.42","","img/orange.png","32","trial","null","false","0.2,0.8","4:nogo_d","",""
"null","","html-keyboard-response","347","522939","0.0-6.0-1.42","","<img src=""img/orange-r.png"" border=""10"">","null","trial","null","","0.2,0.8","4:nogo_d","1",""
"null","","html-keyboard-response","348","523955","0.0-6.0-2.42","","<div style=""font-size:60px;"">+</div>","null","","","","","","",""
"495.64499998814426","","image-keyboard-response","349","524452","0.0-6.0-0.43","","img/green.png","32","trial","32","true","0.8,0.2","1:go_a","",""
"null","","html-keyboard-response","350","525468","0.0-6.0-1.43","","<img src=""img/green-r.png"" border=""10"">","null","trial","32","","0.8,0.2","1:go_a","1",""
"null","","html-keyboard-response","351","526464","0.0-6.0-2.43","","<div style=""font-size:60px;"">+</div>","null","","","","","","",""
"706.0599999967963","","image-keyboard-response","352","527172","0.0-6.0-0.44","","img/red.png","32","trial","32","true","0.8,0.2","3:go_c","",""
"null","","html-keyboard-response","353","528187","0.0-6.0-1.44","","<img src=""img/red-r.png"" border=""10"">","null","trial","32","","0.8,0.2","3:go_c","1",""
"null","","html-keyboard-response","354","529192","0.0-6.0-2.44","","<div style=""font-size:60px;"">+</div>","null","","","","","","",""
"909.0100000030361","","image-keyboard-response","355","530103","0.0-6.0-0.45","","img/orange.png","32","trial","null","false","0.2,0.8","4:nogo_d","",""
"null","","html-keyboard-response","356","531109","0.0-6.0-1.45","","<img src=""img/orange-n.png"" border=""10"">","null","trial","null","","0.2,0.8","4:nogo_d","0",""
"null","","html-keyboard-response","357","532126","0.0-6.0-2.45","","<div style=""font-size:60px;"">+</div>","null","","","","","","",""
"null","","image-keyboard-response","358","533640","0.0-6.0-0.46","","img/purple.png","null","trial","null","true","0.2,0.8","2:nogo_b","",""
"null","","html-keyboard-response","359","534660","0.0-6.0-1.46","","<img src=""img/purple-n.png"">","null","trial","null","","0.2,0.8","2:nogo_b","0",""
"null","","html-keyboard-response","360","535663","0.0-6.0-2.46","","<div style=""font-size:60px;"">+</div>","null","","","","","","",""
"574.7600000177044","","image-keyboard-response","361","536239","0.0-6.0-0.47","","img/green.png","32","trial","32","true","0.8,0.2","1:go_a","",""
"null","","html-keyboard-response","362","537250","0.0-6.0-1.47","","<img src=""img/green-r.png"" border=""10"">","null","trial","32","","0.8,0.2","1:go_a","1",""
"null","","html-keyboard-response","363","538266","0.0-6.0-2.47","","<div style=""font-size:60px;"">+</div>","null","","","","","","",""
"781.4350000116974","","image-keyboard-response","364","539049","0.0-6.0-0.48","","img/red.png","32","trial","32","true","0.8,0.2","3:go_c","",""
"null","","html-keyboard-response","365","540058","0.0-6.0-1.48","","<img src=""img/red-r.png"" border=""10"">","null","trial","32","","0.8,0.2","3:go_c","1",""
"null","","html-keyboard-response","366","541066","0.0-6.0-2.48","","<div style=""font-size:60px;"">+</div>","null","","","","","","",""
"833.7549999996554","","image-keyboard-response","367","541901","0.0-6.0-0.49","","img/orange.png","32","trial","null","false","0.2,0.8","4:nogo_d","",""
"null","","html-keyboard-response","368","542905","0.0-6.0-1.49","","<img src=""img/orange-n.png"" border=""10"">","null","trial","null","","0.2,0.8","4:nogo_d","0",""
"null","","html-keyboard-response","369","543919","0.0-6.0-2.49","","<div style=""font-size:60px;"">+</div>","null","","","","","","",""
"774.6699999843258","","image-keyboard-response","370","544695","0.0-6.0-0.50","","img/green.png","32","trial","32","true","0.8,0.2","1:go_a","",""
"null","","html-keyboard-response","371","545707","0.0-6.0-1.50","","<img src=""img/green-r.png"" border=""10"">","null","trial","32","","0.8,0.2","1:go_a","1",""
"null","","html-keyboard-response","372","546725","0.0-6.0-2.50","","<div style=""font-size:60px;"">+</div>","null","","","","","","",""
"null","","image-keyboard-response","373","548238","0.0-6.0-0.51","","img/purple.png","null","trial","null","true","0.2,0.8","2:nogo_b","",""
"null","","html-keyboard-response","374","549254","0.0-6.0-1.51","","<img src=""img/purple-r.png"">","null","trial","null","","0.2,0.8","2:nogo_b","1",""
"null","","html-keyboard-response","375","550261","0.0-6.0-2.51","","<div style=""font-size:60px;"">+</div>","null","","","","","","",""
"576.1449999990873","","image-keyboard-response","376","550838","0.0-6.0-0.52","","img/red.png","32","trial","32","true","0.8,0.2","3:go_c","",""
"null","","html-keyboard-response","377","551847","0.0-6.0-1.52","","<img src=""img/red-r.png"" border=""10"">","null","trial","32","","0.8,0.2","3:go_c","1",""
"null","","html-keyboard-response","378","552864","0.0-6.0-2.52","","<div style=""font-size:60px;"">+</div>","null","","","","","","",""
"637.7499999944121","","image-keyboard-response","379","553503","0.0-6.0-0.53","","img/green.png","32","trial","32","true","0.8,0.2","1:go_a","",""
"null","","html-keyboard-response","380","554522","0.0-6.0-1.53","","<img src=""img/green-n.png"" border=""10"">","null","trial","32","","0.8,0.2","1:go_a","0",""
"null","","html-keyboard-response","381","555528","0.0-6.0-2.53","","<div style=""font-size:60px;"">+</div>","null","","","","","","",""
"721.8799999973271","","image-keyboard-response","382","556251","0.0-6.0-0.54","","img/orange.png","32","trial","null","false","0.2,0.8","4:nogo_d","",""
"null","","html-keyboard-response","383","557264","0.0-6.0-1.54","","<img src=""img/orange-r.png"" border=""10"">","null","trial","null","","0.2,0.8","4:nogo_d","1",""
"null","","html-keyboard-response","384","558280","0.0-6.0-2.54","","<div style=""font-size:60px;"">+</div>","null","","","","","","",""
"null","","image-keyboard-response","385","559782","0.0-6.0-0.55","","img/purple.png","null","trial","null","true","0.2,0.8","2:nogo_b","",""
"null","","html-keyboard-response","386","560796","0.0-6.0-1.55","","<img src=""img/purple-r.png"">","null","trial","null","","0.2,0.8","2:nogo_b","1",""
"null","","html-keyboard-response","387","561811","0.0-6.0-2.55","","<div style=""font-size:60px;"">+</div>","null","","","","","","",""
"null","","image-keyboard-response","388","563324","0.0-6.0-0.56","","img/purple.png","null","trial","null","true","0.2,0.8","2:nogo_b","",""
"null","","html-keyboard-response","389","564329","0.0-6.0-1.56","","<img src=""img/purple-r.png"">","null","trial","null","","0.2,0.8","2:nogo_b","1",""
"null","","html-keyboard-response","390","565343","0.0-6.0-2.56","","<div style=""font-size:60px;"">+</div>","null","","","","","","",""
"906.025000003865","","image-keyboard-response","391","566252","0.0-6.0-0.57","","img/orange.png","32","trial","null","false","0.2,0.8","4:nogo_d","",""
"null","","html-keyboard-response","392","567267","0.0-6.0-1.57","","<img src=""img/orange-n.png"" border=""10"">","null","trial","null","","0.2,0.8","4:nogo_d","0",""
"null","","html-keyboard-response","393","568279","0.0-6.0-2.57","","<div style=""font-size:60px;"">+</div>","null","","","","","","",""
"750.915000011446","","image-keyboard-response","394","569031","0.0-6.0-0.58","","img/green.png","32","trial","32","true","0.8,0.2","1:go_a","",""
"null","","html-keyboard-response","395","570040","0.0-6.0-1.58","","<img src=""img/green-r.png"" border=""10"">","null","trial","32","","0.8,0.2","1:go_a","1",""
"null","","html-keyboard-response","396","571045","0.0-6.0-2.58","","<div style=""font-size:60px;"">+</div>","null","","","","","","",""
"616.6300000040792","","image-keyboard-response","397","571663","0.0-6.0-0.59","","img/red.png","32","trial","32","true","0.8,0.2","3:go_c","",""
"null","","html-keyboard-response","398","572672","0.0-6.0-1.59","","<img src=""img/red-r.png"" border=""10"">","null","trial","32","","0.8,0.2","3:go_c","1",""
"null","","html-keyboard-response","399","573689","0.0-6.0-2.59","","<div style=""font-size:60px;"">+</div>","null","","","","","","",""
"848.9800000097603","","image-keyboard-response","400","574540","0.0-6.0-0.60","","img/red.png","32","trial","32","true","0.8,0.2","3:go_c","",""
"null","","html-keyboard-response","401","575551","0.0-6.0-1.60","","<img src=""img/red-r.png"" border=""10"">","null","trial","32","","0.8,0.2","3:go_c","1",""
"null","","html-keyboard-response","402","576564","0.0-6.0-2.60","","<div style=""font-size:60px;"">+</div>","null","","","","","","",""
"1084.5899999840185","","image-keyboard-response","403","577651","0.0-6.0-0.61","","img/orange.png","32","trial","null","false","0.2,0.8","4:nogo_d","",""
"null","","html-keyboard-response","404","578665","0.0-6.0-1.61","","<img src=""img/orange-n.png"" border=""10"">","null","trial","null","","0.2,0.8","4:nogo_d","0",""
"null","","html-keyboard-response","405","579677","0.0-6.0-2.61","","<div style=""font-size:60px;"">+</div>","null","","","","","","",""
"600.2150000131223","","image-keyboard-response","406","580279","0.0-6.0-0.62","","img/green.png","32","trial","32","true","0.8,0.2","1:go_a","",""
"null","","html-keyboard-response","407","581295","0.0-6.0-1.62","","<img src=""img/green-r.png"" border=""10"">","null","trial","32","","0.8,0.2","1:go_a","1",""
"null","","html-keyboard-response","408","582302","0.0-6.0-2.62","","<div style=""font-size:60px;"">+</div>","null","","","","","","",""
"null","","image-keyboard-response","409","583815","0.0-6.0-0.63","","img/purple.png","null","trial","null","true","0.2,0.8","2:nogo_b","",""
"null","","html-keyboard-response","410","584819","0.0-6.0-1.63","","<img src=""img/purple-n.png"">","null","trial","null","","0.2,0.8","2:nogo_b","0",""
"null","","html-keyboard-response","411","585841","0.0-6.0-2.63","","<div style=""font-size:60px;"">+</div>","null","","","","","","",""
"null","","image-keyboard-response","412","587345","0.0-6.0-0.64","","img/purple.png","null","trial","null","true","0.2,0.8","2:nogo_b","",""
"null","","html-keyboard-response","413","588350","0.0-6.0-1.64","","<img src=""img/purple-r.png"">","null","trial","null","","0.2,0.8","2:nogo_b","1",""
"null","","html-keyboard-response","414","589365","0.0-6.0-2.64","","<div style=""font-size:60px;"">+</div>","null","","","","","","",""
"705.2400000102352","","image-keyboard-response","415","590072","0.0-6.0-0.65","","img/green.png","32","trial","32","true","0.8,0.2","1:go_a","",""
"null","","html-keyboard-response","416","591090","0.0-6.0-1.65","","<img src=""img/green-r.png"" border=""10"">","null","trial","32","","0.8,0.2","1:go_a","1",""
"null","","html-keyboard-response","417","592095","0.0-6.0-2.65","","<div style=""font-size:60px;"">+</div>","null","","","","","","",""
"625.4549999721348","","image-keyboard-response","418","592724","0.0-6.0-0.66","","img/red.png","32","trial","32","true","0.8,0.2","3:go_c","",""
"null","","html-keyboard-response","419","593735","0.0-6.0-1.66","","<img src=""img/red-r.png"" border=""10"">","null","trial","32","","0.8,0.2","3:go_c","1",""
"null","","html-keyboard-response","420","594742","0.0-6.0-2.66","","<div style=""font-size:60px;"">+</div>","null","","","","","","",""
"null","","image-keyboard-response","421","596243","0.0-6.0-0.67","","img/orange.png","null","trial","null","true","0.2,0.8","4:nogo_d","",""
"null","","html-keyboard-response","422","597262","0.0-6.0-1.67","","<img src=""img/orange-r.png"">","null","trial","null","","0.2,0.8","4:nogo_d","1",""
"null","","html-keyboard-response","423","598265","0.0-6.0-2.67","","<div style=""font-size:60px;"">+</div>","null","","","","","","",""
"624.2499999934807","","image-keyboard-response","424","598891","0.0-6.0-0.68","","img/green.png","32","trial","32","true","0.8,0.2","1:go_a","",""
"null","","html-keyboard-response","425","599896","0.0-6.0-1.68","","<img src=""img/green-r.png"" border=""10"">","null","trial","32","","0.8,0.2","1:go_a","1",""
"null","","html-keyboard-response","426","600906","0.0-6.0-2.68","","<div style=""font-size:60px;"">+</div>","null","","","","","","",""
"null","","image-keyboard-response","427","602420","0.0-6.0-0.69","","img/orange.png","null","trial","null","true","0.2,0.8","4:nogo_d","",""
"null","","html-keyboard-response","428","603430","0.0-6.0-1.69","","<img src=""img/orange-n.png"">","null","trial","null","","0.2,0.8","4:nogo_d","0",""
"null","","html-keyboard-response","429","604442","0.0-6.0-2.69","","<div style=""font-size:60px;"">+</div>","null","","","","","","",""
"null","","image-keyboard-response","430","605950","0.0-6.0-0.70","","img/purple.png","null","trial","null","true","0.2,0.8","2:nogo_b","",""
"null","","html-keyboard-response","431","606953","0.0-6.0-1.70","","<img src=""img/purple-r.png"">","null","trial","null","","0.2,0.8","2:nogo_b","1",""
"null","","html-keyboard-response","432","607961","0.0-6.0-2.70","","<div style=""font-size:60px;"">+</div>","null","","","","","","",""
"442.204999999376","","image-keyboard-response","433","608404","0.0-6.0-0.71","","img/red.png","32","trial","32","true","0.8,0.2","3:go_c","",""
"null","","html-keyboard-response","434","609411","0.0-6.0-1.71","","<img src=""img/red-n.png"" border=""10"">","null","trial","32","","0.8,0.2","3:go_c","0",""
"null","","html-keyboard-response","435","610428","0.0-6.0-2.71","","<div style=""font-size:60px;"">+</div>","null","","","","","","",""
"503.91999998828396","","image-keyboard-response","436","610933","0.0-6.0-0.72","","img/purple.png","32","trial","null","false","0.2,0.8","2:nogo_b","",""
"null","","html-keyboard-response","437","611939","0.0-6.0-1.72","","<img src=""img/purple-n.png"" border=""10"">","null","trial","null","","0.2,0.8","2:nogo_b","0",""
"null","","html-keyboard-response","438","612949","0.0-6.0-2.72","","<div style=""font-size:60px;"">+</div>","null","","","","","","",""
"620.9500000113621","","image-keyboard-response","439","613572","0.0-6.0-0.73","","img/orange.png","32","trial","null","false","0.2,0.8","4:nogo_d","",""
"null","","html-keyboard-response","440","614590","0.0-6.0-1.73","","<img src=""img/orange-n.png"" border=""10"">","null","trial","null","","0.2,0.8","4:nogo_d","0",""
"null","","html-keyboard-response","441","615603","0.0-6.0-2.73","","<div style=""font-size:60px;"">+</div>","null","","","","","","",""
"698.0850000109058","","image-keyboard-response","442","616303","0.0-6.0-0.74","","img/red.png","32","trial","32","true","0.8,0.2","3:go_c","",""
"null","","html-keyboard-response","443","617314","0.0-6.0-1.74","","<img src=""img/red-n.png"" border=""10"">","null","trial","32","","0.8,0.2","3:go_c","0",""
"null","","html-keyboard-response","444","618317","0.0-6.0-2.74","","<div style=""font-size:60px;"">+</div>","null","","","","","","",""
"524.4850000017323","","image-keyboard-response","445","618843","0.0-6.0-0.75","","img/green.png","32","trial","32","true","0.8,0.2","1:go_a","",""
"null","","html-keyboard-response","446","619850","0.0-6.0-1.75","","<img src=""img/green-r.png"" border=""10"">","null","trial","32","","0.8,0.2","1:go_a","1",""
"null","","html-keyboard-response","447","620864","0.0-6.0-2.75","","<div style=""font-size:60px;"">+</div>","null","","","","","","",""
"null","","image-keyboard-response","448","622371","0.0-6.0-0.76","","img/purple.png","null","trial","null","true","0.2,0.8","2:nogo_b","",""
"null","","html-keyboard-response","449","623376","0.0-6.0-1.76","","<img src=""img/purple-r.png"">","null","trial","null","","0.2,0.8","2:nogo_b","1",""
"null","","html-keyboard-response","450","624387","0.0-6.0-2.76","","<div style=""font-size:60px;"">+</div>","null","","","","","","",""
"732.0400000025984","","image-keyboard-response","451","625121","0.0-6.0-0.77","","img/green.png","32","trial","32","true","0.8,0.2","1:go_a","",""
"null","","html-keyboard-response","452","626134","0.0-6.0-1.77","","<img src=""img/green-r.png"" border=""10"">","null","trial","32","","0.8,0.2","1:go_a","1",""
"null","","html-keyboard-response","453","627148","0.0-6.0-2.77","","<div style=""font-size:60px;"">+</div>","null","","","","","","",""
"707.3549999913666","","image-keyboard-response","454","627857","0.0-6.0-0.78","","img/red.png","32","trial","32","true","0.8,0.2","3:go_c","",""
"null","","html-keyboard-response","455","628875","0.0-6.0-1.78","","<img src=""img/red-r.png"" border=""10"">","null","trial","32","","0.8,0.2","3:go_c","1",""
"null","","html-keyboard-response","456","629888","0.0-6.0-2.78","","<div style=""font-size:60px;"">+</div>","null","","","","","","",""
"null","","image-keyboard-response","457","631396","0.0-6.0-0.79","","img/orange.png","null","trial","null","true","0.2,0.8","4:nogo_d","",""
"null","","html-keyboard-response","458","632416","0.0-6.0-1.79","","<img src=""img/orange-r.png"">","null","trial","null","","0.2,0.8","4:nogo_d","1",""
"null","","html-keyboard-response","459","633427","0.0-6.0-2.79","","<div style=""font-size:60px;"">+</div>","null","","","","","","",""
"667.5549999927171","","image-keyboard-response","460","634096","0.0-6.0-0.80","","img/red.png","32","trial","32","true","0.8,0.2","3:go_c","",""
"null","","html-keyboard-response","461","635114","0.0-6.0-1.80","","<img src=""img/red-r.png"" border=""10"">","null","trial","32","","0.8,0.2","3:go_c","1",""
"null","","html-keyboard-response","462","636122","0.0-6.0-2.80","","<div style=""font-size:60px;"">+</div>","null","","","","","","",""
"1161.3849999848753","","image-keyboard-response","463","637285","0.0-6.0-0.81","","img/purple.png","32","trial","null","false","0.2,0.8","2:nogo_b","",""
"null","","html-keyboard-response","464","638293","0.0-6.0-1.81","","<img src=""img/purple-n.png"" border=""10"">","null","trial","null","","0.2,0.8","2:nogo_b","0",""
"null","","html-keyboard-response","465","639309","0.0-6.0-2.81","","<div style=""font-size:60px;"">+</div>","null","","","","","","",""
"null","","image-keyboard-response","466","640811","0.0-6.0-0.82","","img/orange.png","null","trial","null","true","0.2,0.8","4:nogo_d","",""
"null","","html-keyboard-response","467","641829","0.0-6.0-1.82","","<img src=""img/orange-n.png"">","null","trial","null","","0.2,0.8","4:nogo_d","0",""
"null","","html-keyboard-response","468","642844","0.0-6.0-2.82","","<div style=""font-size:60px;"">+</div>","null","","","","","","",""
"545.7250000035856","","image-keyboard-response","469","643391","0.0-6.0-0.83","","img/green.png","32","trial","32","true","0.8,0.2","1:go_a","",""
"null","","html-keyboard-response","470","644411","0.0-6.0-1.83","","<img src=""img/green-r.png"" border=""10"">","null","trial","32","","0.8,0.2","1:go_a","1",""
"null","","html-keyboard-response","471","645419","0.0-6.0-2.83","","<div style=""font-size:60px;"">+</div>","null","","","","","","",""
"616.0500000114553","","image-keyboard-response","472","646028","0.0-6.0-0.84","","img/red.png","32","trial","32","true","0.8,0.2","3:go_c","",""
"null","","html-keyboard-response","473","647037","0.0-6.0-1.84","","<img src=""img/red-r.png"" border=""10"">","null","trial","32","","0.8,0.2","3:go_c","1",""
"null","","html-keyboard-response","474","648055","0.0-6.0-2.84","","<div style=""font-size:60px;"">+</div>","null","","","","","","",""
"null","","image-keyboard-response","475","649557","0.0-6.0-0.85","","img/orange.png","null","trial","null","true","0.2,0.8","4:nogo_d","",""
"null","","html-keyboard-response","476","650572","0.0-6.0-1.85","","<img src=""img/orange-r.png"">","null","trial","null","","0.2,0.8","4:nogo_d","1",""
"null","","html-keyboard-response","477","651577","0.0-6.0-2.85","","<div style=""font-size:60px;"">+</div>","null","","","","","","",""
"674.7749999922235","","image-keyboard-response","478","652253","0.0-6.0-0.86","","img/green.png","32","trial","32","true","0.8,0.2","1:go_a","",""
"null","","html-keyboard-response","479","653257","0.0-6.0-1.86","","<img src=""img/green-r.png"" border=""10"">","null","trial","32","","0.8,0.2","1:go_a","1",""
"null","","html-keyboard-response","480","654269","0.0-6.0-2.86","","<div style=""font-size:60px;"">+</div>","null","","","","","","",""
"null","","image-keyboard-response","481","655786","0.0-6.0-0.87","","img/purple.png","null","trial","null","true","0.2,0.8","2:nogo_b","",""
"null","","html-keyboard-response","482","656793","0.0-6.0-1.87","","<img src=""img/purple-r.png"">","null","trial","null","","0.2,0.8","2:nogo_b","1",""
"null","","html-keyboard-response","483","657796","0.0-6.0-2.87","","<div style=""font-size:60px;"">+</div>","null","","","","","","",""
"null","","image-keyboard-response","484","659299","0.0-6.0-0.88","","img/purple.png","null","trial","null","true","0.2,0.8","2:nogo_b","",""
"null","","html-keyboard-response","485","660317","0.0-6.0-1.88","","<img src=""img/purple-r.png"">","null","trial","null","","0.2,0.8","2:nogo_b","1",""
"null","","html-keyboard-response","486","661319","0.0-6.0-2.88","","<div style=""font-size:60px;"">+</div>","null","","","","","","",""
"644.2699999897741","","image-keyboard-response","487","661965","0.0-6.0-0.89","","img/red.png","32","trial","32","true","0.8,0.2","3:go_c","",""
"null","","html-keyboard-response","488","662977","0.0-6.0-1.89","","<img src=""img/red-r.png"" border=""10"">","null","trial","32","","0.8,0.2","3:go_c","1",""
"null","","html-keyboard-response","489","663993","0.0-6.0-2.89","","<div style=""font-size:60px;"">+</div>","null","","","","","","",""
"555.419999989681","","image-keyboard-response","490","664550","0.0-6.0-0.90","","img/green.png","32","trial","32","true","0.8,0.2","1:go_a","",""
"null","","html-keyboard-response","491","665568","0.0-6.0-1.90","","<img src=""img/green-r.png"" border=""10"">","null","trial","32","","0.8,0.2","1:go_a","1",""
"null","","html-keyboard-response","492","666575","0.0-6.0-2.90","","<div style=""font-size:60px;"">+</div>","null","","","","","","",""
"null","","image-keyboard-response","493","668076","0.0-6.0-0.91","","img/orange.png","null","trial","null","true","0.2,0.8","4:nogo_d","",""
"null","","html-keyboard-response","494","669093","0.0-6.0-1.91","","<img src=""img/orange-r.png"">","null","trial","null","","0.2,0.8","4:nogo_d","1",""
"null","","html-keyboard-response","495","670100","0.0-6.0-2.91","","<div style=""font-size:60px;"">+</div>","null","","","","","","",""
"543.6699999845587","","image-keyboard-response","496","670645","0.0-6.0-0.92","","img/red.png","32","trial","32","true","0.8,0.2","3:go_c","",""
"null","","html-keyboard-response","497","671657","0.0-6.0-1.92","","<img src=""img/red-r.png"" border=""10"">","null","trial","32","","0.8,0.2","3:go_c","1",""
"null","","html-keyboard-response","498","672672","0.0-6.0-2.92","","<div style=""font-size:60px;"">+</div>","null","","","","","","",""
"623.040000005858","","image-keyboard-response","499","673296","0.0-6.0-0.93","","img/orange.png","32","trial","null","false","0.2,0.8","4:nogo_d","",""
"null","","html-keyboard-response","500","674309","0.0-6.0-1.93","","<img src=""img/orange-n.png"" border=""10"">","null","trial","null","","0.2,0.8","4:nogo_d","0",""
"null","","html-keyboard-response","501","675313","0.0-6.0-2.93","","<div style=""font-size:60px;"">+</div>","null","","","","","","",""
"626.5049999929033","","image-keyboard-response","502","675941","0.0-6.0-0.94","","img/green.png","32","trial","32","true","0.8,0.2","1:go_a","",""
"null","","html-keyboard-response","503","676954","0.0-6.0-1.94","","<img src=""img/green-r.png"" border=""10"">","null","trial","32","","0.8,0.2","1:go_a","1",""
"null","","html-keyboard-response","504","677961","0.0-6.0-2.94","","<div style=""font-size:60px;"">+</div>","null","","","","","","",""
"586.524999991525","","image-keyboard-response","505","678549","0.0-6.0-0.95","","img/purple.png","32","trial","null","false","0.2,0.8","2:nogo_b","",""
"null","","html-keyboard-response","506","679557","0.0-6.0-1.95","","<img src=""img/purple-n.png"" border=""10"">","null","trial","null","","0.2,0.8","2:nogo_b","0",""
"null","","html-keyboard-response","507","680562","0.0-6.0-2.95","","<div style=""font-size:60px;"">+</div>","null","","","","","","",""
"542.5899999972899","","image-keyboard-response","508","681106","0.0-6.0-0.96","","img/red.png","32","trial","32","true","0.8,0.2","3:go_c","",""
"null","","html-keyboard-response","509","682111","0.0-6.0-1.96","","<img src=""img/red-r.png"" border=""10"">","null","trial","32","","0.8,0.2","3:go_c","1",""
"null","","html-keyboard-response","510","683126","0.0-6.0-2.96","","<div style=""font-size:60px;"">+</div>","null","","","","","","",""
"null","","image-keyboard-response","511","684639","0.0-6.0-0.97","","img/orange.png","null","trial","null","true","0.2,0.8","4:nogo_d","",""
"null","","html-keyboard-response","512","685644","0.0-6.0-1.97","","<img src=""img/orange-r.png"">","null","trial","null","","0.2,0.8","4:nogo_d","1",""
"null","","html-keyboard-response","513","686648","0.0-6.0-2.97","","<div style=""font-size:60px;"">+</div>","null","","","","","","",""
"725.4050000046846","","image-keyboard-response","514","687375","0.0-6.0-0.98","","img/green.png","32","trial","32","true","0.8,0.2","1:go_a","",""
"null","","html-keyboard-response","515","688381","0.0-6.0-1.98","","<img src=""img/green-r.png"" border=""10"">","null","trial","32","","0.8,0.2","1:go_a","1",""
"null","","html-keyboard-response","516","689387","0.0-6.0-2.98","","<div style=""font-size:60px;"">+</div>","null","","","","","","",""
"null","","image-keyboard-response","517","690897","0.0-6.0-0.99","","img/purple.png","null","trial","null","true","0.2,0.8","2:nogo_b","",""
"null","","html-keyboard-response","518","691912","0.0-6.0-1.99","","<img src=""img/purple-n.png"">","null","trial","null","","0.2,0.8","2:nogo_b","0",""
"null","","html-keyboard-response","519","692915","0.0-6.0-2.99","","<div style=""font-size:60px;"">+</div>","null","","","","","","",""
"null","","image-keyboard-response","520","694426","0.0-6.0-0.100","","img/orange.png","null","trial","null","true","0.2,0.8","4:nogo_d","",""
"null","","html-keyboard-response","521","695439","0.0-6.0-1.100","","<img src=""img/orange-r.png"">","null","trial","null","","0.2,0.8","4:nogo_d","1",""
"null","","html-keyboard-response","522","696453","0.0-6.0-2.100","","<div style=""font-size:60px;"">+</div>","null","","","","","","",""
"534.220000001369","","image-keyboard-response","523","696988","0.0-6.0-0.101","","img/red.png","32","trial","32","true","0.8,0.2","3:go_c","",""
"null","","html-keyboard-response","524","697995","0.0-6.0-1.101","","<img src=""img/red-r.png"" border=""10"">","null","trial","32","","0.8,0.2","3:go_c","1",""
"null","","html-keyboard-response","525","699005","0.0-6.0-2.101","","<div style=""font-size:60px;"">+</div>","null","","","","","","",""
"560.2450000005774","","image-keyboard-response","526","699567","0.0-6.0-0.102","","img/green.png","32","trial","32","true","0.8,0.2","1:go_a","",""
"null","","html-keyboard-response","527","700570","0.0-6.0-1.102","","<img src=""img/green-r.png"" border=""10"">","null","trial","32","","0.8,0.2","1:go_a","1",""
"null","","html-keyboard-response","528","701582","0.0-6.0-2.102","","<div style=""font-size:60px;"">+</div>","null","","","","","","",""
"null","","image-keyboard-response","529","703086","0.0-6.0-0.103","","img/purple.png","null","trial","null","true","0.2,0.8","2:nogo_b","",""
"null","","html-keyboard-response","530","704101","0.0-6.0-1.103","","<img src=""img/purple-r.png"">","null","trial","null","","0.2,0.8","2:nogo_b","1",""
"null","","html-keyboard-response","531","705107","0.0-6.0-2.103","","<div style=""font-size:60px;"">+</div>","null","","","","","","",""
"null","","image-keyboard-response","532","706625","0.0-6.0-0.104","","img/purple.png","null","trial","null","true","0.2,0.8","2:nogo_b","",""
"null","","html-keyboard-response","533","707634","0.0-6.0-1.104","","<img src=""img/purple-r.png"">","null","trial","null","","0.2,0.8","2:nogo_b","1",""
"null","","html-keyboard-response","534","708643","0.0-6.0-2.104","","<div style=""font-size:60px;"">+</div>","null","","","","","","",""
"null","","image-keyboard-response","535","710156","0.0-6.0-0.105","","img/orange.png","null","trial","null","true","0.2,0.8","4:nogo_d","",""
"null","","html-keyboard-response","536","711162","0.0-6.0-1.105","","<img src=""img/orange-r.png"">","null","trial","null","","0.2,0.8","4:nogo_d","1",""
"null","","html-keyboard-response","537","712168","0.0-6.0-2.105","","<div style=""font-size:60px;"">+</div>","null","","","","","","",""
"574.5699999970384","","image-keyboard-response","538","712745","0.0-6.0-0.106","","img/green.png","32","trial","32","true","0.8,0.2","1:go_a","",""
"null","","html-keyboard-response","539","713755","0.0-6.0-1.106","","<img src=""img/green-r.png"" border=""10"">","null","trial","32","","0.8,0.2","1:go_a","1",""
"null","","html-keyboard-response","540","714757","0.0-6.0-2.106","","<div style=""font-size:60px;"">+</div>","null","","","","","","",""
"643.034999986412","","image-keyboard-response","541","715402","0.0-6.0-0.107","","img/red.png","32","trial","32","true","0.8,0.2","3:go_c","",""
"null","","html-keyboard-response","542","716415","0.0-6.0-1.107","","<img src=""img/red-r.png"" border=""10"">","null","trial","32","","0.8,0.2","3:go_c","1",""
"null","","html-keyboard-response","543","717418","0.0-6.0-2.107","","<div style=""font-size:60px;"">+</div>","null","","","","","","",""
"null","","image-keyboard-response","544","718931","0.0-6.0-0.108","","img/orange.png","null","trial","null","true","0.2,0.8","4:nogo_d","",""
"null","","html-keyboard-response","545","719949","0.0-6.0-1.108","","<img src=""img/orange-r.png"">","null","trial","null","","0.2,0.8","4:nogo_d","1",""
"null","","html-keyboard-response","546","720964","0.0-6.0-2.108","","<div style=""font-size:60px;"">+</div>","null","","","","","","",""
"582.9850000154693","","image-keyboard-response","547","721549","0.0-6.0-0.109","","img/red.png","32","trial","32","true","0.8,0.2","3:go_c","",""
"null","","html-keyboard-response","548","722563","0.0-6.0-1.109","","<img src=""img/red-r.png"" border=""10"">","null","trial","32","","0.8,0.2","3:go_c","1",""
"null","","html-keyboard-response","549","723580","0.0-6.0-2.109","","<div style=""font-size:60px;"">+</div>","null","","","","","","",""
"532.2349999914877","","image-keyboard-response","550","724114","0.0-6.0-0.110","","img/purple.png","32","trial","null","false","0.2,0.8","2:nogo_b","",""
"null","","html-keyboard-response","551","725117","0.0-6.0-1.110","","<img src=""img/purple-n.png"" border=""10"">","null","trial","null","","0.2,0.8","2:nogo_b","0",""
"null","","html-keyboard-response","552","726126","0.0-6.0-2.110","","<div style=""font-size:60px;"">+</div>","null","","","","","","",""
"622.3100000061095","","image-keyboard-response","553","726750","0.0-6.0-0.111","","img/green.png","32","trial","32","true","0.8,0.2","1:go_a","",""
"null","","html-keyboard-response","554","727755","0.0-6.0-1.111","","<img src=""img/green-n.png"" border=""10"">","null","trial","32","","0.8,0.2","1:go_a","0",""
"null","","html-keyboard-response","555","728773","0.0-6.0-2.111","","<div style=""font-size:60px;"">+</div>","null","","","","","","",""
"674.6450000209734","","image-keyboard-response","556","729449","0.0-6.0-0.112","","img/red.png","32","trial","32","true","0.8,0.2","3:go_c","",""
"null","","html-keyboard-response","557","730464","0.0-6.0-1.112","","<img src=""img/red-r.png"" border=""10"">","null","trial","32","","0.8,0.2","3:go_c","1",""
"null","","html-keyboard-response","558","731482","0.0-6.0-2.112","","<div style=""font-size:60px;"">+</div>","null","","","","","","",""
"549.1850000107661","","image-keyboard-response","559","732034","0.0-6.0-0.113","","img/purple.png","32","trial","null","false","0.2,0.8","2:nogo_b","",""
"null","","html-keyboard-response","560","733046","0.0-6.0-1.113","","<img src=""img/purple-n.png"" border=""10"">","null","trial","null","","0.2,0.8","2:nogo_b","0",""
"null","","html-keyboard-response","561","734054","0.0-6.0-2.113","","<div style=""font-size:60px;"">+</div>","null","","","","","","",""
"null","","image-keyboard-response","562","735558","0.0-6.0-0.114","","img/orange.png","null","trial","null","true","0.2,0.8","4:nogo_d","",""
"null","","html-keyboard-response","563","736575","0.0-6.0-1.114","","<img src=""img/orange-r.png"">","null","trial","null","","0.2,0.8","4:nogo_d","1",""
"null","","html-keyboard-response","564","737579","0.0-6.0-2.114","","<div style=""font-size:60px;"">+</div>","null","","","","","","",""
"597.8449999820441","","image-keyboard-response","565","738178","0.0-6.0-0.115","","img/green.png","32","trial","32","true","0.8,0.2","1:go_a","",""
"null","","html-keyboard-response","566","739189","0.0-6.0-1.115","","<img src=""img/green-n.png"" border=""10"">","null","trial","32","","0.8,0.2","1:go_a","0",""
"null","","html-keyboard-response","567","740199","0.0-6.0-2.115","","<div style=""font-size:60px;"">+</div>","null","","","","","","",""
"657.7800000086427","","image-keyboard-response","568","740858","0.0-6.0-0.116","","img/orange.png","32","trial","null","false","0.2,0.8","4:nogo_d","",""
"null","","html-keyboard-response","569","741874","0.0-6.0-1.116","","<img src=""img/orange-n.png"" border=""10"">","null","trial","null","","0.2,0.8","4:nogo_d","0",""
"null","","html-keyboard-response","570","742887","0.0-6.0-2.116","","<div style=""font-size:60px;"">+</div>","null","","","","","","",""
"711.1900000018068","","image-keyboard-response","571","743599","0.0-6.0-0.117","","img/purple.png","32","trial","null","false","0.2,0.8","2:nogo_b","",""
"null","","html-keyboard-response","572","744608","0.0-6.0-1.117","","<img src=""img/purple-n.png"" border=""10"">","null","trial","null","","0.2,0.8","2:nogo_b","0",""
"null","","html-keyboard-response","573","745622","0.0-6.0-2.117","","<div style=""font-size:60px;"">+</div>","null","","","","","","",""
"786.6999999969266","","image-keyboard-response","574","746411","0.0-6.0-0.118","","img/green.png","32","trial","32","true","0.8,0.2","1:go_a","",""
"null","","html-keyboard-response","575","747417","0.0-6.0-1.118","","<img src=""img/green-n.png"" border=""10"">","null","trial","32","","0.8,0.2","1:go_a","0",""
"null","","html-keyboard-response","576","748422","0.0-6.0-2.118","","<div style=""font-size:60px;"">+</div>","null","","","","","","",""
"507.37999999546446","","image-keyboard-response","577","748931","0.0-6.0-0.119","","img/red.png","32","trial","32","true","0.8,0.2","3:go_c","",""
"null","","html-keyboard-response","578","749948","0.0-6.0-1.119","","<img src=""img/red-r.png"" border=""10"">","null","trial","32","","0.8,0.2","3:go_c","1",""
"null","","html-keyboard-response","579","750961","0.0-6.0-2.119","","<div style=""font-size:60px;"">+</div>","null","","","","","","",""
"3228.480000019772","","instructions","580","754190","0.0-7.0","[{""page_index"":0,""viewing_time"":3227.9149999958463}]","","","","","","","","",""
"1365.575000003446","","image-keyboard-response","581","755559","0.0-8.0-0.0","","img/green.png","32","trial","32","true","0.6,0.4","1:go_a","",""
"null","","html-keyboard-response","582","756567","0.0-8.0-1.0","","<img src=""img/green-r.png"" border=""10"">","null","trial","32","","0.6,0.4","1:go_a","1",""
"null","","html-keyboard-response","583","757576","0.0-8.0-2.0","","<div style=""font-size:60px;"">+</div>","null","","","","","","",""
"652.9349999909755","","image-keyboard-response","584","758230","0.0-8.0-0.1","","img/red.png","32","trial","null","false","0.4,0.6","4:nogo_d","",""
"null","","html-keyboard-response","585","759235","0.0-8.0-1.1","","<img src=""img/red-r.png"" border=""10"">","null","trial","null","","0.4,0.6","4:nogo_d","1",""
"null","","html-keyboard-response","586","760243","0.0-8.0-2.1","","<div style=""font-size:60px;"">+</div>","null","","","","","","",""
"886.1000000033528","","image-keyboard-response","587","761131","0.0-8.0-0.2","","img/grey.png","32","trial","32","true","0.6,0.4","3:go_c","",""
"null","","html-keyboard-response","588","762146","0.0-8.0-1.2","","<img src=""img/grey-n.png"" border=""10"">","null","trial","32","","0.6,0.4","3:go_c","0",""
"null","","html-keyboard-response","589","763157","0.0-8.0-2.2","","<div style=""font-size:60px;"">+</div>","null","","","","","","",""
"656.4000000071246","","image-keyboard-response","590","763815","0.0-8.0-0.3","","img/orange.png","32","trial","null","false","0.4,0.6","2:nogo_b","",""
"null","","html-keyboard-response","591","764825","0.0-8.0-1.3","","<img src=""img/orange-n.png"" border=""10"">","null","trial","null","","0.4,0.6","2:nogo_b","0",""
"null","","html-keyboard-response","592","765830","0.0-8.0-2.3","","<div style=""font-size:60px;"">+</div>","null","","","","","","",""
"551.6099999949802","","image-keyboard-response","593","766384","0.0-8.0-0.4","","img/green.png","32","trial","32","true","0.6,0.4","1:go_a","",""
"null","","html-keyboard-response","594","767403","0.0-8.0-1.4","","<img src=""img/green-r.png"" border=""10"">","null","trial","32","","0.6,0.4","1:go_a","1",""
"null","","html-keyboard-response","595","768460","0.0-8.0-2.4","","<div style=""font-size:60px;"">+</div>","null","","","","","","",""
"null","","image-keyboard-response","596","769968","0.0-8.0-0.5","","img/grey.png","null","trial","32","false","0.6,0.4","3:go_c","",""
"null","","html-keyboard-response","597","770984","0.0-8.0-1.5","","<img src=""img/grey-n.png"">","null","trial","32","","0.6,0.4","3:go_c","0",""
"null","","html-keyboard-response","598","772000","0.0-8.0-2.5","","<div style=""font-size:60px;"">+</div>","null","","","","","","",""
"599.0849999943748","","image-keyboard-response","599","772601","0.0-8.0-0.6","","img/red.png","32","trial","null","false","0.4,0.6","4:nogo_d","",""
"null","","html-keyboard-response","600","773618","0.0-8.0-1.6","","<img src=""img/red-r.png"" border=""10"">","null","trial","null","","0.4,0.6","4:nogo_d","1",""
"null","","html-keyboard-response","601","774626","0.0-8.0-2.6","","<div style=""font-size:60px;"">+</div>","null","","","","","","",""
"null","","image-keyboard-response","602","776129","0.0-8.0-0.7","","img/orange.png","null","trial","null","true","0.4,0.6","2:nogo_b","",""
"null","","html-keyboard-response","603","777142","0.0-8.0-1.7","","<img src=""img/orange-r.png"">","null","trial","null","","0.4,0.6","2:nogo_b","1",""
"null","","html-keyboard-response","604","778157","0.0-8.0-2.7","","<div style=""font-size:60px;"">+</div>","null","","","","","","",""
"536.4750000007916","","image-keyboard-response","605","778695","0.0-8.0-0.8","","img/green.png","32","trial","32","true","0.6,0.4","1:go_a","",""
"null","","html-keyboard-response","606","779711","0.0-8.0-1.8","","<img src=""img/green-r.png"" border=""10"">","null","trial","32","","0.6,0.4","1:go_a","1",""
"null","","html-keyboard-response","607","780713","0.0-8.0-2.8","","<div style=""font-size:60px;"">+</div>","null","","","","","","",""
"null","","image-keyboard-response","608","782225","0.0-8.0-0.9","","img/grey.png","null","trial","32","false","0.6,0.4","3:go_c","",""
"null","","html-keyboard-response","609","783239","0.0-8.0-1.9","","<img src=""img/grey-r.png"">","null","trial","32","","0.6,0.4","3:go_c","1",""
"null","","html-keyboard-response","610","784246","0.0-8.0-2.9","","<div style=""font-size:60px;"">+</div>","null","","","","","","",""
"550.4749999963678","","image-keyboard-response","611","784798","0.0-8.0-0.10","","img/red.png","32","trial","null","false","0.4,0.6","4:nogo_d","",""
"null","","html-keyboard-response","612","785803","0.0-8.0-1.10","","<img src=""img/red-r.png"" border=""10"">","null","trial","null","","0.4,0.6","4:nogo_d","1",""
"null","","html-keyboard-response","613","786807","0.0-8.0-2.10","","<div style=""font-size:60px;"">+</div>","null","","","","","","",""
"null","","image-keyboard-response","614","788324","0.0-8.0-0.11","","img/orange.png","null","trial","null","true","0.4,0.6","2:nogo_b","",""
"null","","html-keyboard-response","615","789327","0.0-8.0-1.11","","<img src=""img/orange-n.png"">","null","trial","null","","0.4,0.6","2:nogo_b","0",""
"null","","html-keyboard-response","616","790335","0.0-8.0-2.11","","<div style=""font-size:60px;"">+</div>","null","","","","","","",""
"null","","image-keyboard-response","617","791840","0.0-8.0-0.12","","img/grey.png","null","trial","32","false","0.6,0.4","3:go_c","",""
"null","","html-keyboard-response","618","792844","0.0-8.0-1.12","","<img src=""img/grey-r.png"">","null","trial","32","","0.6,0.4","3:go_c","1",""
"null","","html-keyboard-response","619","793852","0.0-8.0-2.12","","<div style=""font-size:60px;"">+</div>","null","","","","","","",""
"594.0950000076555","","image-keyboard-response","620","794447","0.0-8.0-0.13","","img/red.png","32","trial","null","false","0.4,0.6","4:nogo_d","",""
"null","","html-keyboard-response","621","795465","0.0-8.0-1.13","","<img src=""img/red-r.png"" border=""10"">","null","trial","null","","0.4,0.6","4:nogo_d","1",""
"null","","html-keyboard-response","622","796468","0.0-8.0-2.13","","<div style=""font-size:60px;"">+</div>","null","","","","","","",""
"null","","image-keyboard-response","623","797983","0.0-8.0-0.14","","img/orange.png","null","trial","null","true","0.4,0.6","2:nogo_b","",""
"null","","html-keyboard-response","624","798999","0.0-8.0-1.14","","<img src=""img/orange-n.png"">","null","trial","null","","0.4,0.6","2:nogo_b","0",""
"null","","html-keyboard-response","625","800004","0.0-8.0-2.14","","<div style=""font-size:60px;"">+</div>","null","","","","","","",""
"630.0950000004377","","image-keyboard-response","626","800636","0.0-8.0-0.15","","img/green.png","32","trial","32","true","0.6,0.4","1:go_a","",""
"null","","html-keyboard-response","627","801640","0.0-8.0-1.15","","<img src=""img/green-n.png"" border=""10"">","null","trial","32","","0.6,0.4","1:go_a","0",""
"null","","html-keyboard-response","628","802647","0.0-8.0-2.15","","<div style=""font-size:60px;"">+</div>","null","","","","","","",""
"662.6999999862164","","image-keyboard-response","629","803311","0.0-8.0-0.16","","img/green.png","32","trial","32","true","0.6,0.4","1:go_a","",""
"null","","html-keyboard-response","630","804322","0.0-8.0-1.16","","<img src=""img/green-n.png"" border=""10"">","null","trial","32","","0.6,0.4","1:go_a","0",""
"null","","html-keyboard-response","631","805330","0.0-8.0-2.16","","<div style=""font-size:60px;"">+</div>","null","","","","","","",""
"null","","image-keyboard-response","632","806838","0.0-8.0-0.17","","img/orange.png","null","trial","null","true","0.4,0.6","2:nogo_b","",""
"null","","html-keyboard-response","633","807855","0.0-8.0-1.17","","<img src=""img/orange-r.png"">","null","trial","null","","0.4,0.6","2:nogo_b","1",""
"null","","html-keyboard-response","634","808861","0.0-8.0-2.17","","<div style=""font-size:60px;"">+</div>","null","","","","","","",""
"612.1700000076089","","image-keyboard-response","635","809474","0.0-8.0-0.18","","img/red.png","32","trial","null","false","0.4,0.6","4:nogo_d","",""
"null","","html-keyboard-response","636","810487","0.0-8.0-1.18","","<img src=""img/red-n.png"" border=""10"">","null","trial","null","","0.4,0.6","4:nogo_d","0",""
"null","","html-keyboard-response","637","811505","0.0-8.0-2.18","","<div style=""font-size:60px;"">+</div>","null","","","","","","",""
"543.1600000010803","","image-keyboard-response","638","812050","0.0-8.0-0.19","","img/grey.png","32","trial","32","true","0.6,0.4","3:go_c","",""
"null","","html-keyboard-response","639","813064","0.0-8.0-1.19","","<img src=""img/grey-n.png"" border=""10"">","null","trial","32","","0.6,0.4","3:go_c","0",""
"null","","html-keyboard-response","640","814066","0.0-8.0-2.19","","<div style=""font-size:60px;"">+</div>","null","","","","","","",""
"829.4949999835808","","image-keyboard-response","641","814898","0.0-8.0-0.20","","img/red.png","32","trial","null","false","0.4,0.6","4:nogo_d","",""
"null","","html-keyboard-response","642","815905","0.0-8.0-1.20","","<img src=""img/red-n.png"" border=""10"">","null","trial","null","","0.4,0.6","4:nogo_d","0",""
"null","","html-keyboard-response","643","816912","0.0-8.0-2.20","","<div style=""font-size:60px;"">+</div>","null","","","","","","",""
"430.3950000030454","","image-keyboard-response","644","817344","0.0-8.0-0.21","","img/green.png","32","trial","32","true","0.6,0.4","1:go_a","",""
"null","","html-keyboard-response","645","818361","0.0-8.0-1.21","","<img src=""img/green-r.png"" border=""10"">","null","trial","32","","0.6,0.4","1:go_a","1",""
"null","","html-keyboard-response","646","819363","0.0-8.0-2.21","","<div style=""font-size:60px;"">+</div>","null","","","","","","",""
"822.0250000013039","","image-keyboard-response","647","820187","0.0-8.0-0.22","","img/orange.png","32","trial","null","false","0.4,0.6","2:nogo_b","",""
"null","","html-keyboard-response","648","821199","0.0-8.0-1.22","","<img src=""img/orange-r.png"" border=""10"">","null","trial","null","","0.4,0.6","2:nogo_b","1",""
"null","","html-keyboard-response","649","822215","0.0-8.0-2.22","","<div style=""font-size:60px;"">+</div>","null","","","","","","",""
"null","","image-keyboard-response","650","823733","0.0-8.0-0.23","","img/grey.png","null","trial","32","false","0.6,0.4","3:go_c","",""
"null","","html-keyboard-response","651","824749","0.0-8.0-1.23","","<img src=""img/grey-n.png"">","null","trial","32","","0.6,0.4","3:go_c","0",""
"null","","html-keyboard-response","652","825756","0.0-8.0-2.23","","<div style=""font-size:60px;"">+</div>","null","","","","","","",""
"null","","image-keyboard-response","653","827267","0.0-8.0-0.24","","img/red.png","null","trial","null","true","0.4,0.6","4:nogo_d","",""
"null","","html-keyboard-response","654","828282","0.0-8.0-1.24","","<img src=""img/red-n.png"">","null","trial","null","","0.4,0.6","4:nogo_d","0",""
"null","","html-keyboard-response","655","829297","0.0-8.0-2.24","","<div style=""font-size:60px;"">+</div>","null","","","","","","",""
"null","","image-keyboard-response","656","830806","0.0-8.0-0.25","","img/grey.png","null","trial","32","false","0.6,0.4","3:go_c","",""
"null","","html-keyboard-response","657","831815","0.0-8.0-1.25","","<img src=""img/grey-n.png"">","null","trial","32","","0.6,0.4","3:go_c","0",""
"null","","html-keyboard-response","658","832828","0.0-8.0-2.25","","<div style=""font-size:60px;"">+</div>","null","","","","","","",""
"388.74500000383705","","image-keyboard-response","659","833218","0.0-8.0-0.26","","img/green.png","32","trial","32","true","0.6,0.4","1:go_a","",""
"null","","html-keyboard-response","660","834234","0.0-8.0-1.26","","<img src=""img/green-r.png"" border=""10"">","null","trial","32","","0.6,0.4","1:go_a","1",""
"null","","html-keyboard-response","661","835237","0.0-8.0-2.26","","<div style=""font-size:60px;"">+</div>","null","","","","","","",""
"469.76000000722706","","image-keyboard-response","662","835708","0.0-8.0-0.27","","img/orange.png","32","trial","null","false","0.4,0.6","2:nogo_b","",""
"null","","html-keyboard-response","663","836718","0.0-8.0-1.27","","<img src=""img/orange-n.png"" border=""10"">","null","trial","null","","0.4,0.6","2:nogo_b","0",""
"null","","html-keyboard-response","664","837735","0.0-8.0-2.27","","<div style=""font-size:60px;"">+</div>","null","","","","","","",""
"565.2750000008382","","image-keyboard-response","665","838302","0.0-8.0-0.28","","img/green.png","32","trial","32","true","0.6,0.4","1:go_a","",""
"null","","html-keyboard-response","666","839309","0.0-8.0-1.28","","<img src=""img/green-n.png"" border=""10"">","null","trial","32","","0.6,0.4","1:go_a","0",""
"null","","html-keyboard-response","667","840321","0.0-8.0-2.28","","<div style=""font-size:60px;"">+</div>","null","","","","","","",""
"933.5600000049453","","image-keyboard-response","668","841259","0.0-8.0-0.29","","img/grey.png","32","trial","32","true","0.6,0.4","3:go_c","",""
"null","","html-keyboard-response","669","842268","0.0-8.0-1.29","","<img src=""img/grey-n.png"" border=""10"">","null","trial","32","","0.6,0.4","3:go_c","0",""
"null","","html-keyboard-response","670","843275","0.0-8.0-2.29","","<div style=""font-size:60px;"">+</div>","null","","","","","","",""
"504.6600000059698","","image-keyboard-response","671","843781","0.0-8.0-0.30","","img/red.png","32","trial","null","false","0.4,0.6","4:nogo_d","",""
"null","","html-keyboard-response","672","844791","0.0-8.0-1.30","","<img src=""img/red-n.png"" border=""10"">","null","trial","null","","0.4,0.6","4:nogo_d","0",""
"null","","html-keyboard-response","673","845846","0.0-8.0-2.30","","<div style=""font-size:60px;"">+</div>","null","","","","","","",""
"516.5949999936856","","image-keyboard-response","674","846365","0.0-8.0-0.31","","img/orange.png","32","trial","null","false","0.4,0.6","2:nogo_b","",""
