"rt","url","trial_type","trial_index","time_elapsed","internal_node_id","view_history","stimulus","key_press","test_part","correct_response","correct","use_rew","which_stim","reward","responses"
"16532.400000572205","consent.html","external-html","0","16598","0.0-0.0","","","","","","","","","",""
"203841.4000005722","","instructions","1","220443","0.0-1.0","[{""page_index"":0,""viewing_time"":5950.300000190735},{""page_index"":1,""viewing_time"":68048.10000038147},{""page_index"":2,""viewing_time"":8501},{""page_index"":3,""viewing_time"":65631.5999994278},{""page_index"":4,""viewing_time"":25331.900000572205},{""page_index"":5,""viewing_time"":6135.800000190735},{""page_index"":6,""viewing_time"":24241.79999923706}]","","","","","","","","",""
"1016.1999998092651","","image-keyboard-response","2","221460","0.0-2.0-0.0","","img/test1.PNG","32","practice","32","true","","","",""
"null","","html-keyboard-response","3","222464","0.0-2.0-1.0","","<img src=""img/test1-reward.PNG"" border=""10px; grey"">","null","","","","","","",""
"null","","html-keyboard-response","4","223467","0.0-2.0-2.0","","<div style=""font-size:60px;"">+</div>","null","","","","","","",""
"null","","image-keyboard-response","5","224969","0.0-2.0-0.1","","img/test2.PNG","null","practice","null","true","","","",""
"null","","html-keyboard-response","6","225972","0.0-2.0-1.1","","<img src=""img/test2-reward.PNG"">","null","","","","","","",""
"null","","html-keyboard-response","7","226974","0.0-2.0-2.1","","<div style=""font-size:60px;"">+</div>","null","","","","","","",""
"null","","image-keyboard-response","8","228476","0.0-2.0-0.2","","img/test3.PNG","null","practice","null","true","","","",""
"null","","html-keyboard-response","9","229477","0.0-2.0-1.2","","<img src=""img/test3-reward.PNG"">","null","","","","","","",""
"null","","html-keyboard-response","10","230480","0.0-2.0-2.2","","<div style=""font-size:60px;"">+</div>","null","","","","","","",""
"null","","image-keyboard-response","11","231982","0.0-2.0-0.3","","img/test3.PNG","null","practice","null","true","","","",""
"null","","html-keyboard-response","12","232983","0.0-2.0-1.3","","<img src=""img/test3-reward.PNG"">","null","","","","","","",""
"null","","html-keyboard-response","13","233987","0.0-2.0-2.3","","<div style=""font-size:60px;"">+</div>","null","","","","","","",""
"null","","image-keyboard-response","14","235489","0.0-2.0-0.4","","img/test2.PNG","null","practice","null","true","","","",""
"null","","html-keyboard-response","15","236492","0.0-2.0-1.4","","<img src=""img/test2-reward.PNG"">","null","","","","","","",""
"null","","html-keyboard-response","16","237494","0.0-2.0-2.4","","<div style=""font-size:60px;"">+</div>","null","","","","","","",""
"501.3999996185303","","image-keyboard-response","17","237997","0.0-2.0-0.5","","img/test1.PNG","32","practice","32","true","","","",""
"null","","html-keyboard-response","18","239003","0.0-2.0-1.5","","<img src=""img/test1-reward.PNG"" border=""10px; grey"">","null","","","","","","",""
"null","","html-keyboard-response","19","240008","0.0-2.0-2.5","","<div style=""font-size:60px;"">+</div>","null","","","","","","",""
"722.8000001907349","","image-keyboard-response","20","240732","0.0-2.0-0.6","","img/test1.PNG","32","practice","32","true","","","",""
"null","","html-keyboard-response","21","241738","0.0-2.0-1.6","","<img src=""img/test1-reward.PNG"" border=""10px; grey"">","null","","","","","","",""
"null","","html-keyboard-response","22","242739","0.0-2.0-2.6","","<div style=""font-size:60px;"">+</div>","null","","","","","","",""
"null","","image-keyboard-response","23","244242","0.0-2.0-0.7","","img/test3.PNG","null","practice","null","true","","","",""
"null","","html-keyboard-response","24","245244","0.0-2.0-1.7","","<img src=""img/test3-reward.PNG"">","null","","","","","","",""
"null","","html-keyboard-response","25","246247","0.0-2.0-2.7","","<div style=""font-size:60px;"">+</div>","null","","","","","","",""
"null","","image-keyboard-response","26","247749","0.0-2.0-0.8","","img/test2.PNG","null","practice","null","true","","","",""
"null","","html-keyboard-response","27","248751","0.0-2.0-1.8","","<img src=""img/test2-reward.PNG"">","null","","","","","","",""
"null","","html-keyboard-response","28","249753","0.0-2.0-2.8","","<div style=""font-size:60px;"">+</div>","null","","","","","","",""
"null","","image-keyboard-response","29","251256","0.0-2.0-0.9","","img/test2.PNG","null","practice","null","true","","","",""
"null","","html-keyboard-response","30","252257","0.0-2.0-1.9","","<img src=""img/test2-reward.PNG"">","null","","","","","","",""
"null","","html-keyboard-response","31","253261","0.0-2.0-2.9","","<div style=""font-size:60px;"">+</div>","null","","","","","","",""
"null","","image-keyboard-response","32","254768","0.0-2.0-0.10","","img/test3.PNG","null","practice","null","true","","","",""
"null","","html-keyboard-response","33","255773","0.0-2.0-1.10","","<img src=""img/test3-reward.PNG"">","null","","","","","","",""
"null","","html-keyboard-response","34","256774","0.0-2.0-2.10","","<div style=""font-size:60px;"">+</div>","null","","","","","","",""
"684.7000007629395","","image-keyboard-response","35","257461","0.0-2.0-0.11","","img/test1.PNG","32","practice","32","true","","","",""
"null","","html-keyboard-response","36","258463","0.0-2.0-1.11","","<img src=""img/test1-reward.PNG"" border=""10px; grey"">","null","","","","","","",""
"null","","html-keyboard-response","37","259464","0.0-2.0-2.11","","<div style=""font-size:60px;"">+</div>","null","","","","","","",""
"54031.199999809265","","instructions","38","313497","0.0-3.0","[{""page_index"":0,""viewing_time"":54030.800000190735}]","","","","","","","","",""
"1282.6000003814697","","image-keyboard-response","39","314781","0.0-4.0-0.0","","img/green.png","32","trial","32","true","0.8,0.2","1:go_a","",""
"null","","html-keyboard-response","40","315788","0.0-4.0-1.0","","<img src=""img/green-n.png"" border=""10"">","null","trial","32","","0.8,0.2","1:go_a","0",""
"null","","html-keyboard-response","41","316793","0.0-4.0-2.0","","<div style=""font-size:60px;"">+</div>","null","","","","","","",""
"826.2999992370605","","image-keyboard-response","42","317620","0.0-4.0-0.1","","img/grey.png","32","trial","null","false","0.2,0.8","2:nogo_b","",""
"null","","html-keyboard-response","43","318622","0.0-4.0-1.1","","<img src=""img/grey-n.png"" border=""10"">","null","trial","null","","0.2,0.8","2:nogo_b","0",""
"null","","html-keyboard-response","44","319624","0.0-4.0-2.1","","<div style=""font-size:60px;"">+</div>","null","","","","","","",""
"null","","image-keyboard-response","45","321126","0.0-4.0-0.2","","img/green.png","null","trial","32","false","0.8,0.2","1:go_a","",""
"null","","html-keyboard-response","46","322128","0.0-4.0-1.2","","<img src=""img/green-n.png"">","null","trial","32","","0.8,0.2","1:go_a","0",""
"null","","html-keyboard-response","47","323133","0.0-4.0-2.2","","<div style=""font-size:60px;"">+</div>","null","","","","","","",""
"null","","image-keyboard-response","48","324639","0.0-4.0-0.3","","img/grey.png","null","trial","null","true","0.2,0.8","2:nogo_b","",""
"null","","html-keyboard-response","49","325641","0.0-4.0-1.3","","<img src=""img/grey-r.png"">","null","trial","null","","0.2,0.8","2:nogo_b","1",""
"null","","html-keyboard-response","50","326645","0.0-4.0-2.3","","<div style=""font-size:60px;"">+</div>","null","","","","","","",""
"542.1999998092651","","image-keyboard-response","51","327189","0.0-4.0-0.4","","img/grey.png","32","trial","null","false","0.2,0.8","2:nogo_b","",""
"null","","html-keyboard-response","52","328213","0.0-4.0-1.4","","<img src=""img/grey-n.png"" border=""10"">","null","trial","null","","0.2,0.8","2:nogo_b","0",""
"null","","html-keyboard-response","53","329215","0.0-4.0-2.4","","<div style=""font-size:60px;"">+</div>","null","","","","","","",""
"955.8999996185303","","image-keyboard-response","54","330173","0.0-4.0-0.5","","img/green.png","32","trial","32","true","0.8,0.2","1:go_a","",""
"null","","html-keyboard-response","55","331178","0.0-4.0-1.5","","<img src=""img/green-r.png"" border=""10"">","null","trial","32","","0.8,0.2","1:go_a","1",""
"null","","html-keyboard-response","56","332179","0.0-4.0-2.5","","<div style=""font-size:60px;"">+</div>","null","","","","","","",""
"584.8000001907349","","image-keyboard-response","57","332765","0.0-4.0-0.6","","img/green.png","32","trial","32","true","0.8,0.2","1:go_a","",""
"null","","html-keyboard-response","58","333771","0.0-4.0-1.6","","<img src=""img/green-n.png"" border=""10"">","null","trial","32","","0.8,0.2","1:go_a","0",""
"null","","html-keyboard-response","59","334775","0.0-4.0-2.6","","<div style=""font-size:60px;"">+</div>","null","","","","","","",""
"755.7000007629395","","image-keyboard-response","60","335532","0.0-4.0-0.7","","img/grey.png","32","trial","null","false","0.2,0.8","2:nogo_b","",""
"null","","html-keyboard-response","61","336535","0.0-4.0-1.7","","<img src=""img/grey-n.png"" border=""10"">","null","trial","null","","0.2,0.8","2:nogo_b","0",""
"null","","html-keyboard-response","62","337536","0.0-4.0-2.7","","<div style=""font-size:60px;"">+</div>","null","","","","","","",""
"643.6000003814697","","image-keyboard-response","63","338181","0.0-4.0-0.8","","img/green.png","32","trial","32","true","0.8,0.2","1:go_a","",""
"null","","html-keyboard-response","64","339184","0.0-4.0-1.8","","<img src=""img/green-r.png"" border=""10"">","null","trial","32","","0.8,0.2","1:go_a","1",""
"null","","html-keyboard-response","65","340185","0.0-4.0-2.8","","<div style=""font-size:60px;"">+</div>","null","","","","","","",""
"977.8000001907349","","image-keyboard-response","66","341164","0.0-4.0-0.9","","img/grey.png","32","trial","null","false","0.2,0.8","2:nogo_b","",""
"null","","html-keyboard-response","67","342170","0.0-4.0-1.9","","<img src=""img/grey-n.png"" border=""10"">","null","trial","null","","0.2,0.8","2:nogo_b","0",""
"null","","html-keyboard-response","68","343172","0.0-4.0-2.9","","<div style=""font-size:60px;"">+</div>","null","","","","","","",""
"911.5","","image-keyboard-response","69","344085","0.0-4.0-0.10","","img/grey.png","32","trial","null","false","0.2,0.8","2:nogo_b","",""
"null","","html-keyboard-response","70","345089","0.0-4.0-1.10","","<img src=""img/grey-n.png"" border=""10"">","null","trial","null","","0.2,0.8","2:nogo_b","0",""
"null","","html-keyboard-response","71","346090","0.0-4.0-2.10","","<div style=""font-size:60px;"">+</div>","null","","","","","","",""
"498.5999994277954","","image-keyboard-response","72","346590","0.0-4.0-0.11","","img/green.png","32","trial","32","true","0.8,0.2","1:go_a","",""
"null","","html-keyboard-response","73","347593","0.0-4.0-1.11","","<img src=""img/green-r.png"" border=""10"">","null","trial","32","","0.8,0.2","1:go_a","1",""
"null","","html-keyboard-response","74","348595","0.0-4.0-2.11","","<div style=""font-size:60px;"">+</div>","null","","","","","","",""
"null","","image-keyboard-response","75","350097","0.0-4.0-0.12","","img/grey.png","null","trial","null","true","0.2,0.8","2:nogo_b","",""
"null","","html-keyboard-response","76","351099","0.0-4.0-1.12","","<img src=""img/grey-r.png"">","null","trial","null","","0.2,0.8","2:nogo_b","1",""
"null","","html-keyboard-response","77","352101","0.0-4.0-2.12","","<div style=""font-size:60px;"">+</div>","null","","","","","","",""
"662.6999998092651","","image-keyboard-response","78","352765","0.0-4.0-0.13","","img/green.png","32","trial","32","true","0.8,0.2","1:go_a","",""
"null","","html-keyboard-response","79","353767","0.0-4.0-1.13","","<img src=""img/green-r.png"" border=""10"">","null","trial","32","","0.8,0.2","1:go_a","1",""
"null","","html-keyboard-response","80","354770","0.0-4.0-2.13","","<div style=""font-size:60px;"">+</div>","null","","","","","","",""
"null","","image-keyboard-response","81","356272","0.0-4.0-0.14","","img/grey.png","null","trial","null","true","0.2,0.8","2:nogo_b","",""
"null","","html-keyboard-response","82","357275","0.0-4.0-1.14","","<img src=""img/grey-r.png"">","null","trial","null","","0.2,0.8","2:nogo_b","1",""
"null","","html-keyboard-response","83","358280","0.0-4.0-2.14","","<div style=""font-size:60px;"">+</div>","null","","","","","","",""
"522.6999998092651","","image-keyboard-response","84","358805","0.0-4.0-0.15","","img/green.png","32","trial","32","true","0.8,0.2","1:go_a","",""
"null","","html-keyboard-response","85","359807","0.0-4.0-1.15","","<img src=""img/green-n.png"" border=""10"">","null","trial","32","","0.8,0.2","1:go_a","0",""
"null","","html-keyboard-response","86","360808","0.0-4.0-2.15","","<div style=""font-size:60px;"">+</div>","null","","","","","","",""
"null","","image-keyboard-response","87","362310","0.0-4.0-0.16","","img/grey.png","null","trial","null","true","0.2,0.8","2:nogo_b","",""
"null","","html-keyboard-response","88","363313","0.0-4.0-1.16","","<img src=""img/grey-r.png"">","null","trial","null","","0.2,0.8","2:nogo_b","1",""
"null","","html-keyboard-response","89","364314","0.0-4.0-2.16","","<div style=""font-size:60px;"">+</div>","null","","","","","","",""
"505.19999980926514","","image-keyboard-response","90","364821","0.0-4.0-0.17","","img/green.png","32","trial","32","true","0.8,0.2","1:go_a","",""
"null","","html-keyboard-response","91","365823","0.0-4.0-1.17","","<img src=""img/green-r.png"" border=""10"">","null","trial","32","","0.8,0.2","1:go_a","1",""
"null","","html-keyboard-response","92","366824","0.0-4.0-2.17","","<div style=""font-size:60px;"">+</div>","null","","","","","","",""
"null","","image-keyboard-response","93","368326","0.0-4.0-0.18","","img/green.png","null","trial","32","false","0.8,0.2","1:go_a","",""
"null","","html-keyboard-response","94","369327","0.0-4.0-1.18","","<img src=""img/green-n.png"">","null","trial","32","","0.8,0.2","1:go_a","0",""
"null","","html-keyboard-response","95","370329","0.0-4.0-2.18","","<div style=""font-size:60px;"">+</div>","null","","","","","","",""
"null","","image-keyboard-response","96","371834","0.0-4.0-0.19","","img/grey.png","null","trial","null","true","0.2,0.8","2:nogo_b","",""
"null","","html-keyboard-response","97","372836","0.0-4.0-1.19","","<img src=""img/grey-n.png"">","null","trial","null","","0.2,0.8","2:nogo_b","0",""
"null","","html-keyboard-response","98","373840","0.0-4.0-2.19","","<div style=""font-size:60px;"">+</div>","null","","","","","","",""
"699.0999994277954","","image-keyboard-response","99","374541","0.0-4.0-0.20","","img/green.png","32","trial","32","true","0.8,0.2","1:go_a","",""
"null","","html-keyboard-response","100","375543","0.0-4.0-1.20","","<img src=""img/green-r.png"" border=""10"">","null","trial","32","","0.8,0.2","1:go_a","1",""
"null","","html-keyboard-response","101","376549","0.0-4.0-2.20","","<div style=""font-size:60px;"">+</div>","null","","","","","","",""
"null","","image-keyboard-response","102","378052","0.0-4.0-0.21","","img/grey.png","null","trial","null","true","0.2,0.8","2:nogo_b","",""
"null","","html-keyboard-response","103","379054","0.0-4.0-1.21","","<img src=""img/grey-r.png"">","null","trial","null","","0.2,0.8","2:nogo_b","1",""
"null","","html-keyboard-response","104","380056","0.0-4.0-2.21","","<div style=""font-size:60px;"">+</div>","null","","","","","","",""
"null","","image-keyboard-response","105","381558","0.0-4.0-0.22","","img/grey.png","null","trial","null","true","0.2,0.8","2:nogo_b","",""
"null","","html-keyboard-response","106","382561","0.0-4.0-1.22","","<img src=""img/grey-r.png"">","null","trial","null","","0.2,0.8","2:nogo_b","1",""
"null","","html-keyboard-response","107","383562","0.0-4.0-2.22","","<div style=""font-size:60px;"">+</div>","null","","","","","","",""
"529.6000003814697","","image-keyboard-response","108","384093","0.0-4.0-0.23","","img/green.png","32","trial","32","true","0.8,0.2","1:go_a","",""
"null","","html-keyboard-response","109","385095","0.0-4.0-1.23","","<img src=""img/green-n.png"" border=""10"">","null","trial","32","","0.8,0.2","1:go_a","0",""
"null","","html-keyboard-response","110","386101","0.0-4.0-2.23","","<div style=""font-size:60px;"">+</div>","null","","","","","","",""
"null","","image-keyboard-response","111","387603","0.0-4.0-0.24","","img/grey.png","null","trial","null","true","0.2,0.8","2:nogo_b","",""
"null","","html-keyboard-response","112","388609","0.0-4.0-1.24","","<img src=""img/grey-r.png"">","null","trial","null","","0.2,0.8","2:nogo_b","1",""
"null","","html-keyboard-response","113","389610","0.0-4.0-2.24","","<div style=""font-size:60px;"">+</div>","null","","","","","","",""
"577.8000001907349","","image-keyboard-response","114","390189","0.0-4.0-0.25","","img/green.png","32","trial","32","true","0.8,0.2","1:go_a","",""
"null","","html-keyboard-response","115","391196","0.0-4.0-1.25","","<img src=""img/green-n.png"" border=""10"">","null","trial","32","","0.8,0.2","1:go_a","0",""
"null","","html-keyboard-response","116","392198","0.0-4.0-2.25","","<div style=""font-size:60px;"">+</div>","null","","","","","","",""
"1029.3999996185303","","image-keyboard-response","117","393229","0.0-4.0-0.26","","img/green.png","32","trial","32","true","0.8,0.2","1:go_a","",""
"null","","html-keyboard-response","118","394232","0.0-4.0-1.26","","<img src=""img/green-r.png"" border=""10"">","null","trial","32","","0.8,0.2","1:go_a","1",""
"null","","html-keyboard-response","119","395234","0.0-4.0-2.26","","<div style=""font-size:60px;"">+</div>","null","","","","","","",""
"null","","image-keyboard-response","120","396736","0.0-4.0-0.27","","img/grey.png","null","trial","null","true","0.2,0.8","2:nogo_b","",""
"null","","html-keyboard-response","121","397740","0.0-4.0-1.27","","<img src=""img/grey-r.png"">","null","trial","null","","0.2,0.8","2:nogo_b","1",""
"null","","html-keyboard-response","122","398742","0.0-4.0-2.27","","<div style=""font-size:60px;"">+</div>","null","","","","","","",""
"622.5","","image-keyboard-response","123","399365","0.0-4.0-0.28","","img/green.png","32","trial","32","true","0.8,0.2","1:go_a","",""
"null","","html-keyboard-response","124","400372","0.0-4.0-1.28","","<img src=""img/green-r.png"" border=""10"">","null","trial","32","","0.8,0.2","1:go_a","1",""
"null","","html-keyboard-response","125","401374","0.0-4.0-2.28","","<div style=""font-size:60px;"">+</div>","null","","","","","","",""
"null","","image-keyboard-response","126","402880","0.0-4.0-0.29","","img/grey.png","null","trial","null","true","0.2,0.8","2:nogo_b","",""
"null","","html-keyboard-response","127","403882","0.0-4.0-1.29","","<img src=""img/grey-r.png"">","null","trial","null","","0.2,0.8","2:nogo_b","1",""
"null","","html-keyboard-response","128","404887","0.0-4.0-2.29","","<div style=""font-size:60px;"">+</div>","null","","","","","","",""
"null","","image-keyboard-response","129","406389","0.0-4.0-0.30","","img/grey.png","null","trial","null","true","0.2,0.8","2:nogo_b","",""
"null","","html-keyboard-response","130","407392","0.0-4.0-1.30","","<img src=""img/grey-r.png"">","null","trial","null","","0.2,0.8","2:nogo_b","1",""
"null","","html-keyboard-response","131","408397","0.0-4.0-2.30","","<div style=""font-size:60px;"">+</div>","null","","","","","","",""
"558.6000003814697","","image-keyboard-response","132","408957","0.0-4.0-0.31","","img/green.png","32","trial","32","true","0.8,0.2","1:go_a","",""
"null","","html-keyboard-response","133","409961","0.0-4.0-1.31","","<img src=""img/green-r.png"" border=""10"">","null","trial","32","","0.8,0.2","1:go_a","1",""
"null","","html-keyboard-response","134","410963","0.0-4.0-2.31","","<div style=""font-size:60px;"">+</div>","null","","","","","","",""
"793.5","","image-keyboard-response","135","411757","0.0-4.0-0.32","","img/green.png","32","trial","32","true","0.8,0.2","1:go_a","",""
"null","","html-keyboard-response","136","412760","0.0-4.0-1.32","","<img src=""img/green-r.png"" border=""10"">","null","trial","32","","0.8,0.2","1:go_a","1",""
"null","","html-keyboard-response","137","413763","0.0-4.0-2.32","","<div style=""font-size:60px;"">+</div>","null","","","","","","",""
"null","","image-keyboard-response","138","415267","0.0-4.0-0.33","","img/grey.png","null","trial","null","true","0.2,0.8","2:nogo_b","",""
"null","","html-keyboard-response","139","416272","0.0-4.0-1.33","","<img src=""img/grey-r.png"">","null","trial","null","","0.2,0.8","2:nogo_b","1",""
"null","","html-keyboard-response","140","417278","0.0-4.0-2.33","","<div style=""font-size:60px;"">+</div>","null","","","","","","",""
"573.8000001907349","","image-keyboard-response","141","417853","0.0-4.0-0.34","","img/green.png","32","trial","32","true","0.8,0.2","1:go_a","",""
"null","","html-keyboard-response","142","418855","0.0-4.0-1.34","","<img src=""img/green-r.png"" border=""10"">","null","trial","32","","0.8,0.2","1:go_a","1",""
"null","","html-keyboard-response","143","419857","0.0-4.0-2.34","","<div style=""font-size:60px;"">+</div>","null","","","","","","",""
"null","","image-keyboard-response","144","421358","0.0-4.0-0.35","","img/grey.png","null","trial","null","true","0.2,0.8","2:nogo_b","",""
"null","","html-keyboard-response","145","422362","0.0-4.0-1.35","","<img src=""img/grey-n.png"">","null","trial","null","","0.2,0.8","2:nogo_b","0",""
"null","","html-keyboard-response","146","423365","0.0-4.0-2.35","","<div style=""font-size:60px;"">+</div>","null","","","","","","",""
"854.8999996185303","","image-keyboard-response","147","424221","0.0-4.0-0.36","","img/green.png","32","trial","32","true","0.8,0.2","1:go_a","",""
"null","","html-keyboard-response","148","425224","0.0-4.0-1.36","","<img src=""img/green-r.png"" border=""10"">","null","trial","32","","0.8,0.2","1:go_a","1",""
"null","","html-keyboard-response","149","426228","0.0-4.0-2.36","","<div style=""font-size:60px;"">+</div>","null","","","","","","",""
"null","","image-keyboard-response","150","427732","0.0-4.0-0.37","","img/grey.png","null","trial","null","true","0.2,0.8","2:nogo_b","",""
"null","","html-keyboard-response","151","428737","0.0-4.0-1.37","","<img src=""img/grey-n.png"">","null","trial","null","","0.2,0.8","2:nogo_b","0",""
"null","","html-keyboard-response","152","429743","0.0-4.0-2.37","","<div style=""font-size:60px;"">+</div>","null","","","","","","",""
"612.8000001907349","","image-keyboard-response","153","430357","0.0-4.0-0.38","","img/grey.png","32","trial","null","false","0.2,0.8","2:nogo_b","",""
"null","","html-keyboard-response","154","431359","0.0-4.0-1.38","","<img src=""img/grey-r.png"" border=""10"">","null","trial","null","","0.2,0.8","2:nogo_b","1",""
"null","","html-keyboard-response","155","432363","0.0-4.0-2.38","","<div style=""font-size:60px;"">+</div>","null","","","","","","",""
"800.6000003814697","","image-keyboard-response","156","433165","0.0-4.0-0.39","","img/green.png","32","trial","32","true","0.8,0.2","1:go_a","",""
"null","","html-keyboard-response","157","434169","0.0-4.0-1.39","","<img src=""img/green-r.png"" border=""10"">","null","trial","32","","0.8,0.2","1:go_a","1",""
"null","","html-keyboard-response","158","435175","0.0-4.0-2.39","","<div style=""font-size:60px;"">+</div>","null","","","","","","",""
"733.5","","image-keyboard-response","159","435910","0.0-4.0-0.40","","img/green.png","32","trial","32","true","0.8,0.2","1:go_a","",""
"null","","html-keyboard-response","160","436916","0.0-4.0-1.40","","<img src=""img/green-r.png"" border=""10"">","null","trial","32","","0.8,0.2","1:go_a","1",""
"null","","html-keyboard-response","161","437918","0.0-4.0-2.40","","<div style=""font-size:60px;"">+</div>","null","","","","","","",""
"837.6999998092651","","image-keyboard-response","162","438757","0.0-4.0-0.41","","img/grey.png","32","trial","null","false","0.2,0.8","2:nogo_b","",""
"null","","html-keyboard-response","163","439759","0.0-4.0-1.41","","<img src=""img/grey-r.png"" border=""10"">","null","trial","null","","0.2,0.8","2:nogo_b","1",""
"null","","html-keyboard-response","164","440761","0.0-4.0-2.41","","<div style=""font-size:60px;"">+</div>","null","","","","","","",""
"723.1999998092651","","image-keyboard-response","165","441485","0.0-4.0-0.42","","img/green.png","32","trial","32","true","0.8,0.2","1:go_a","",""
"null","","html-keyboard-response","166","442488","0.0-4.0-1.42","","<img src=""img/green-r.png"" border=""10"">","null","trial","32","","0.8,0.2","1:go_a","1",""
"null","","html-keyboard-response","167","443494","0.0-4.0-2.42","","<div style=""font-size:60px;"">+</div>","null","","","","","","",""
"702.6000003814697","","image-keyboard-response","168","444197","0.0-4.0-0.43","","img/grey.png","32","trial","null","false","0.2,0.8","2:nogo_b","",""
"null","","html-keyboard-response","169","445201","0.0-4.0-1.43","","<img src=""img/grey-n.png"" border=""10"">","null","trial","null","","0.2,0.8","2:nogo_b","0",""
"null","","html-keyboard-response","170","446203","0.0-4.0-2.43","","<div style=""font-size:60px;"">+</div>","null","","","","","","",""
"null","","image-keyboard-response","171","447709","0.0-4.0-0.44","","img/grey.png","null","trial","null","true","0.2,0.8","2:nogo_b","",""
"null","","html-keyboard-response","172","448713","0.0-4.0-1.44","","<img src=""img/grey-r.png"">","null","trial","null","","0.2,0.8","2:nogo_b","1",""
"null","","html-keyboard-response","173","449714","0.0-4.0-2.44","","<div style=""font-size:60px;"">+</div>","null","","","","","","",""
"666.5","","image-keyboard-response","174","450382","0.0-4.0-0.45","","img/green.png","32","trial","32","true","0.8,0.2","1:go_a","",""
"null","","html-keyboard-response","175","451388","0.0-4.0-1.45","","<img src=""img/green-r.png"" border=""10"">","null","trial","32","","0.8,0.2","1:go_a","1",""
"null","","html-keyboard-response","176","452389","0.0-4.0-2.45","","<div style=""font-size:60px;"">+</div>","null","","","","","","",""
"918.3000001907349","","image-keyboard-response","177","453309","0.0-4.0-0.46","","img/green.png","32","trial","32","true","0.8,0.2","1:go_a","",""
"null","","html-keyboard-response","178","454312","0.0-4.0-1.46","","<img src=""img/green-r.png"" border=""10"">","null","trial","32","","0.8,0.2","1:go_a","1",""
"null","","html-keyboard-response","179","455314","0.0-4.0-2.46","","<div style=""font-size:60px;"">+</div>","null","","","","","","",""
"null","","image-keyboard-response","180","456816","0.0-4.0-0.47","","img/grey.png","null","trial","null","true","0.2,0.8","2:nogo_b","",""
"null","","html-keyboard-response","181","457817","0.0-4.0-1.47","","<img src=""img/grey-r.png"">","null","trial","null","","0.2,0.8","2:nogo_b","1",""
"null","","html-keyboard-response","182","458818","0.0-4.0-2.47","","<div style=""font-size:60px;"">+</div>","null","","","","","","",""
"713.8999996185303","","image-keyboard-response","183","459533","0.0-4.0-0.48","","img/green.png","32","trial","32","true","0.8,0.2","1:go_a","",""
"null","","html-keyboard-response","184","460536","0.0-4.0-1.48","","<img src=""img/green-n.png"" border=""10"">","null","trial","32","","0.8,0.2","1:go_a","0",""
"null","","html-keyboard-response","185","461538","0.0-4.0-2.48","","<div style=""font-size:60px;"">+</div>","null","","","","","","",""
"618","","image-keyboard-response","186","462157","0.0-4.0-0.49","","img/grey.png","32","trial","null","false","0.2,0.8","2:nogo_b","",""
"null","","html-keyboard-response","187","463163","0.0-4.0-1.49","","<img src=""img/grey-r.png"" border=""10"">","null","trial","null","","0.2,0.8","2:nogo_b","1",""
"null","","html-keyboard-response","188","464165","0.0-4.0-2.49","","<div style=""font-size:60px;"">+</div>","null","","","","","","",""
"614.9000005722046","","image-keyboard-response","189","464781","0.0-4.0-0.50","","img/grey.png","32","trial","null","false","0.2,0.8","2:nogo_b","",""
"null","","html-keyboard-response","190","465784","0.0-4.0-1.50","","<img src=""img/grey-n.png"" border=""10"">","null","trial","null","","0.2,0.8","2:nogo_b","0",""
"null","","html-keyboard-response","191","466789","0.0-4.0-2.50","","<div style=""font-size:60px;"">+</div>","null","","","","","","",""
"669.8999996185303","","image-keyboard-response","192","467461","0.0-4.0-0.51","","img/green.png","32","trial","32","true","0.8,0.2","1:go_a","",""
"null","","html-keyboard-response","193","468465","0.0-4.0-1.51","","<img src=""img/green-r.png"" border=""10"">","null","trial","32","","0.8,0.2","1:go_a","1",""
"null","","html-keyboard-response","194","469468","0.0-4.0-2.51","","<div style=""font-size:60px;"">+</div>","null","","","","","","",""
"null","","image-keyboard-response","195","470974","0.0-4.0-0.52","","img/grey.png","null","trial","null","true","0.2,0.8","2:nogo_b","",""
"null","","html-keyboard-response","196","471979","0.0-4.0-1.52","","<img src=""img/grey-r.png"">","null","trial","null","","0.2,0.8","2:nogo_b","1",""
"null","","html-keyboard-response","197","472982","0.0-4.0-2.52","","<div style=""font-size:60px;"">+</div>","null","","","","","","",""
"598","","image-keyboard-response","198","473582","0.0-4.0-0.53","","img/green.png","32","trial","32","true","0.8,0.2","1:go_a","",""
"null","","html-keyboard-response","199","474584","0.0-4.0-1.53","","<img src=""img/green-r.png"" border=""10"">","null","trial","32","","0.8,0.2","1:go_a","1",""
"null","","html-keyboard-response","200","475586","0.0-4.0-2.53","","<div style=""font-size:60px;"">+</div>","null","","","","","","",""
"690","","image-keyboard-response","201","476277","0.0-4.0-0.54","","img/green.png","32","trial","32","true","0.8,0.2","1:go_a","",""
"null","","html-keyboard-response","202","477284","0.0-4.0-1.54","","<img src=""img/green-n.png"" border=""10"">","null","trial","32","","0.8,0.2","1:go_a","0",""
"null","","html-keyboard-response","203","478289","0.0-4.0-2.54","","<div style=""font-size:60px;"">+</div>","null","","","","","","",""
"null","","image-keyboard-response","204","479792","0.0-4.0-0.55","","img/grey.png","null","trial","null","true","0.2,0.8","2:nogo_b","",""
"null","","html-keyboard-response","205","480798","0.0-4.0-1.55","","<img src=""img/grey-r.png"">","null","trial","null","","0.2,0.8","2:nogo_b","1",""
"null","","html-keyboard-response","206","481799","0.0-4.0-2.55","","<div style=""font-size:60px;"">+</div>","null","","","","","","",""
"null","","image-keyboard-response","207","483305","0.0-4.0-0.56","","img/green.png","null","trial","32","false","0.8,0.2","1:go_a","",""
"null","","html-keyboard-response","208","484307","0.0-4.0-1.56","","<img src=""img/green-n.png"">","null","trial","32","","0.8,0.2","1:go_a","0",""
"null","","html-keyboard-response","209","485309","0.0-4.0-2.56","","<div style=""font-size:60px;"">+</div>","null","","","","","","",""
"null","","image-keyboard-response","210","486811","0.0-4.0-0.57","","img/grey.png","null","trial","null","true","0.2,0.8","2:nogo_b","",""
"null","","html-keyboard-response","211","487814","0.0-4.0-1.57","","<img src=""img/grey-n.png"">","null","trial","null","","0.2,0.8","2:nogo_b","0",""
"null","","html-keyboard-response","212","488819","0.0-4.0-2.57","","<div style=""font-size:60px;"">+</div>","null","","","","","","",""
"497.5","","image-keyboard-response","213","489318","0.0-4.0-0.58","","img/grey.png","32","trial","null","false","0.2,0.8","2:nogo_b","",""
"null","","html-keyboard-response","214","490320","0.0-4.0-1.58","","<img src=""img/grey-n.png"" border=""10"">","null","trial","null","","0.2,0.8","2:nogo_b","0",""
"null","","html-keyboard-response","215","491324","0.0-4.0-2.58","","<div style=""font-size:60px;"">+</div>","null","","","","","","",""
"527.3000001907349","","image-keyboard-response","216","491853","0.0-4.0-0.59","","img/green.png","32","trial","32","true","0.8,0.2","1:go_a","",""
"null","","html-keyboard-response","217","492856","0.0-4.0-1.59","","<img src=""img/green-r.png"" border=""10"">","null","trial","32","","0.8,0.2","1:go_a","1",""
"null","","html-keyboard-response","218","493860","0.0-4.0-2.59","","<div style=""font-size:60px;"">+</div>","null","","","","","","",""
"8084.400000572205","","instructions","219","501945","0.0-5.0","[{""page_index"":0,""viewing_time"":8084}]","","","","","","","","",""
"1460.8999996185303","","image-keyboard-response","220","503407","0.0-6.0-0.0","","img/blue.png","32","trial","null","false","0.2,0.8","2:nogo_b","",""
"null","","html-keyboard-response","221","504412","0.0-6.0-1.0","","<img src=""img/blue-n.png"" border=""10"">","null","trial","null","","0.2,0.8","2:nogo_b","0",""
"null","","html-keyboard-response","222","505413","0.0-6.0-2.0","","<div style=""font-size:60px;"">+</div>","null","","","","","","",""
"1135.6999998092651","","image-keyboard-response","223","506550","0.0-6.0-0.1","","img/yellow.png","32","trial","32","true","1,0","3:go_c","",""
"null","","html-keyboard-response","224","507555","0.0-6.0-1.1","","<img src=""img/yellow-r.png"" border=""10"">","null","trial","32","","1,0","3:go_c","1",""
"null","","html-keyboard-response","225","508556","0.0-6.0-2.1","","<div style=""font-size:60px;"">+</div>","null","","","","","","",""
"1112.3000001907349","","image-keyboard-response","226","509670","0.0-6.0-0.2","","img/red.png","32","trial","32","true","0.8,0.2","1:go_a","",""
"null","","html-keyboard-response","227","510675","0.0-6.0-1.2","","<img src=""img/red-r.png"" border=""10"">","null","trial","32","","0.8,0.2","1:go_a","1",""
"null","","html-keyboard-response","228","511677","0.0-6.0-2.2","","<div style=""font-size:60px;"">+</div>","null","","","","","","",""
"null","","image-keyboard-response","229","513180","0.0-6.0-0.3","","img/purple.png","null","trial","null","true","0,1","4:nogo_d","",""
"null","","html-keyboard-response","230","514183","0.0-6.0-1.3","","<img src=""img/purple-r.png"">","null","trial","null","","0,1","4:nogo_d","1",""
"null","","html-keyboard-response","231","515189","0.0-6.0-2.3","","<div style=""font-size:60px;"">+</div>","null","","","","","","",""
"1007.3999996185303","","image-keyboard-response","232","516198","0.0-6.0-0.4","","img/red.png","32","trial","32","true","0.8,0.2","1:go_a","",""
"null","","html-keyboard-response","233","517200","0.0-6.0-1.4","","<img src=""img/red-r.png"" border=""10"">","null","trial","32","","0.8,0.2","1:go_a","1",""
"null","","html-keyboard-response","234","518205","0.0-6.0-2.4","","<div style=""font-size:60px;"">+</div>","null","","","","","","",""
"1071.3000001907349","","image-keyboard-response","235","519278","0.0-6.0-0.5","","img/purple.png","32","trial","null","false","0,1","4:nogo_d","",""
"null","","html-keyboard-response","236","520280","0.0-6.0-1.5","","<img src=""img/purple-n.png"" border=""10"">","null","trial","null","","0,1","4:nogo_d","0",""
"null","","html-keyboard-response","237","521285","0.0-6.0-2.5","","<div style=""font-size:60px;"">+</div>","null","","","","","","",""
"703.1000003814697","","image-keyboard-response","238","521990","0.0-6.0-0.6","","img/yellow.png","32","trial","32","true","1,0","3:go_c","",""
"null","","html-keyboard-response","239","522995","0.0-6.0-1.6","","<img src=""img/yellow-r.png"" border=""10"">","null","trial","32","","1,0","3:go_c","1",""
"null","","html-keyboard-response","240","523996","0.0-6.0-2.6","","<div style=""font-size:60px;"">+</div>","null","","","","","","",""
"null","","image-keyboard-response","241","525498","0.0-6.0-0.7","","img/blue.png","null","trial","null","true","0.2,0.8","2:nogo_b","",""
"null","","html-keyboard-response","242","526502","0.0-6.0-1.7","","<img src=""img/blue-r.png"">","null","trial","null","","0.2,0.8","2:nogo_b","1",""
"null","","html-keyboard-response","243","527506","0.0-6.0-2.7","","<div style=""font-size:60px;"">+</div>","null","","","","","","",""
"986.5","","image-keyboard-response","244","528494","0.0-6.0-0.8","","img/purple.png","32","trial","null","false","0,1","4:nogo_d","",""
"null","","html-keyboard-response","245","529499","0.0-6.0-1.8","","<img src=""img/purple-n.png"" border=""10"">","null","trial","null","","0,1","4:nogo_d","0",""
"null","","html-keyboard-response","246","530500","0.0-6.0-2.8","","<div style=""font-size:60px;"">+</div>","null","","","","","","",""
"608.2999992370605","","image-keyboard-response","247","531110","0.0-6.0-0.9","","img/red.png","32","trial","32","true","0.8,0.2","1:go_a","",""
"null","","html-keyboard-response","248","532115","0.0-6.0-1.9","","<img src=""img/red-r.png"" border=""10"">","null","trial","32","","0.8,0.2","1:go_a","1",""
"null","","html-keyboard-response","249","533117","0.0-6.0-2.9","","<div style=""font-size:60px;"">+</div>","null","","","","","","",""
"null","","image-keyboard-response","250","534618","0.0-6.0-0.10","","img/blue.png","null","trial","null","true","0.2,0.8","2:nogo_b","",""
"null","","html-keyboard-response","251","535624","0.0-6.0-1.10","","<img src=""img/blue-n.png"">","null","trial","null","","0.2,0.8","2:nogo_b","0",""
"null","","html-keyboard-response","252","536625","0.0-6.0-2.10","","<div style=""font-size:60px;"">+</div>","null","","","","","","",""
"546.8000001907349","","image-keyboard-response","253","537174","0.0-6.0-0.11","","img/yellow.png","32","trial","32","true","1,0","3:go_c","",""
"null","","html-keyboard-response","254","538179","0.0-6.0-1.11","","<img src=""img/yellow-r.png"" border=""10"">","null","trial","32","","1,0","3:go_c","1",""
"null","","html-keyboard-response","255","539184","0.0-6.0-2.11","","<div style=""font-size:60px;"">+</div>","null","","","","","","",""
"1203","","image-keyboard-response","256","540390","0.0-6.0-0.12","","img/purple.png","32","trial","null","false","0,1","4:nogo_d","",""
"null","","html-keyboard-response","257","541396","0.0-6.0-1.12","","<img src=""img/purple-n.png"" border=""10"">","null","trial","null","","0,1","4:nogo_d","0",""
"null","","html-keyboard-response","258","542397","0.0-6.0-2.12","","<div style=""font-size:60px;"">+</div>","null","","","","","","",""
"null","","image-keyboard-response","259","543899","0.0-6.0-0.13","","img/blue.png","null","trial","null","true","0.2,0.8","2:nogo_b","",""
"null","","html-keyboard-response","260","544905","0.0-6.0-1.13","","<img src=""img/blue-r.png"">","null","trial","null","","0.2,0.8","2:nogo_b","1",""
"null","","html-keyboard-response","261","545906","0.0-6.0-2.13","","<div style=""font-size:60px;"">+</div>","null","","","","","","",""
"585.8999996185303","","image-keyboard-response","262","546494","0.0-6.0-0.14","","img/red.png","32","trial","32","true","0.8,0.2","1:go_a","",""
"null","","html-keyboard-response","263","547497","0.0-6.0-1.14","","<img src=""img/red-r.png"" border=""10"">","null","trial","32","","0.8,0.2","1:go_a","1",""
"null","","html-keyboard-response","264","548502","0.0-6.0-2.14","","<div style=""font-size:60px;"">+</div>","null","","","","","","",""
"517.6000003814697","","image-keyboard-response","265","549021","0.0-6.0-0.15","","img/yellow.png","32","trial","32","true","1,0","3:go_c","",""
"null","","html-keyboard-response","266","550023","0.0-6.0-1.15","","<img src=""img/yellow-r.png"" border=""10"">","null","trial","32","","1,0","3:go_c","1",""
"null","","html-keyboard-response","267","551024","0.0-6.0-2.15","","<div style=""font-size:60px;"">+</div>","null","","","","","","",""
"708.8000001907349","","image-keyboard-response","268","551735","0.0-6.0-0.16","","img/red.png","32","trial","32","true","0.8,0.2","1:go_a","",""
"null","","html-keyboard-response","269","552737","0.0-6.0-1.16","","<img src=""img/red-r.png"" border=""10"">","null","trial","32","","0.8,0.2","1:go_a","1",""
"null","","html-keyboard-response","270","553742","0.0-6.0-2.16","","<div style=""font-size:60px;"">+</div>","null","","","","","","",""
"null","","image-keyboard-response","271","555244","0.0-6.0-0.17","","img/purple.png","null","trial","null","true","0,1","4:nogo_d","",""
"null","","html-keyboard-response","272","556249","0.0-6.0-1.17","","<img src=""img/purple-r.png"">","null","trial","null","","0,1","4:nogo_d","1",""
"null","","html-keyboard-response","273","557254","0.0-6.0-2.17","","<div style=""font-size:60px;"">+</div>","null","","","","","","",""
"null","","image-keyboard-response","274","558755","0.0-6.0-0.18","","img/blue.png","null","trial","null","true","0.2,0.8","2:nogo_b","",""
"null","","html-keyboard-response","275","559758","0.0-6.0-1.18","","<img src=""img/blue-r.png"">","null","trial","null","","0.2,0.8","2:nogo_b","1",""
"null","","html-keyboard-response","276","560761","0.0-6.0-2.18","","<div style=""font-size:60px;"">+</div>","null","","","","","","",""
"659.9000005722046","","image-keyboard-response","277","561423","0.0-6.0-0.19","","img/yellow.png","32","trial","32","true","1,0","3:go_c","",""
"null","","html-keyboard-response","278","562425","0.0-6.0-1.19","","<img src=""img/yellow-r.png"" border=""10"">","null","trial","32","","1,0","3:go_c","1",""
"null","","html-keyboard-response","279","563427","0.0-6.0-2.19","","<div style=""font-size:60px;"">+</div>","null","","","","","","",""
"706.3999996185303","","image-keyboard-response","280","564135","0.0-6.0-0.20","","img/yellow.png","32","trial","32","true","1,0","3:go_c","",""
"null","","html-keyboard-response","281","565139","0.0-6.0-1.20","","<img src=""img/yellow-r.png"" border=""10"">","null","trial","32","","1,0","3:go_c","1",""
"null","","html-keyboard-response","282","566141","0.0-6.0-2.20","","<div style=""font-size:60px;"">+</div>","null","","","","","","",""
"null","","image-keyboard-response","283","567643","0.0-6.0-0.21","","img/blue.png","null","trial","null","true","0.2,0.8","2:nogo_b","",""
"null","","html-keyboard-response","284","568648","0.0-6.0-1.21","","<img src=""img/blue-r.png"">","null","trial","null","","0.2,0.8","2:nogo_b","1",""
"null","","html-keyboard-response","285","569649","0.0-6.0-2.21","","<div style=""font-size:60px;"">+</div>","null","","","","","","",""
"771.6000003814697","","image-keyboard-response","286","570422","0.0-6.0-0.22","","img/red.png","32","trial","32","true","0.8,0.2","1:go_a","",""
"null","","html-keyboard-response","287","571427","0.0-6.0-1.22","","<img src=""img/red-r.png"" border=""10"">","null","trial","32","","0.8,0.2","1:go_a","1",""
"null","","html-keyboard-response","288","572429","0.0-6.0-2.22","","<div style=""font-size:60px;"">+</div>","null","","","","","","",""
"null","","image-keyboard-response","289","573931","0.0-6.0-0.23","","img/purple.png","null","trial","null","true","0,1","4:nogo_d","",""
"null","","html-keyboard-response","290","574938","0.0-6.0-1.23","","<img src=""img/purple-r.png"">","null","trial","null","","0,1","4:nogo_d","1",""
"null","","html-keyboard-response","291","575939","0.0-6.0-2.23","","<div style=""font-size:60px;"">+</div>","null","","","","","","",""
"null","","image-keyboard-response","292","577442","0.0-6.0-0.24","","img/purple.png","null","trial","null","true","0,1","4:nogo_d","",""
"null","","html-keyboard-response","293","578447","0.0-6.0-1.24","","<img src=""img/purple-r.png"">","null","trial","null","","0,1","4:nogo_d","1",""
"null","","html-keyboard-response","294","579449","0.0-6.0-2.24","","<div style=""font-size:60px;"">+</div>","null","","","","","","",""
"null","","image-keyboard-response","295","580952","0.0-6.0-0.25","","img/blue.png","null","trial","null","true","0.2,0.8","2:nogo_b","",""
"null","","html-keyboard-response","296","581954","0.0-6.0-1.25","","<img src=""img/blue-r.png"">","null","trial","null","","0.2,0.8","2:nogo_b","1",""
"null","","html-keyboard-response","297","582956","0.0-6.0-2.25","","<div style=""font-size:60px;"">+</div>","null","","","","","","",""
"496.69999980926514","","image-keyboard-response","298","583454","0.0-6.0-0.26","","img/red.png","32","trial","32","true","0.8,0.2","1:go_a","",""
"null","","html-keyboard-response","299","584457","0.0-6.0-1.26","","<img src=""img/red-r.png"" border=""10"">","null","trial","32","","0.8,0.2","1:go_a","1",""
"null","","html-keyboard-response","300","585459","0.0-6.0-2.26","","<div style=""font-size:60px;"">+</div>","null","","","","","","",""
"474.19999980926514","","image-keyboard-response","301","585934","0.0-6.0-0.27","","img/yellow.png","32","trial","32","true","1,0","3:go_c","",""
"null","","html-keyboard-response","302","586938","0.0-6.0-1.27","","<img src=""img/yellow-r.png"" border=""10"">","null","trial","32","","1,0","3:go_c","1",""
"null","","html-keyboard-response","303","587943","0.0-6.0-2.27","","<div style=""font-size:60px;"">+</div>","null","","","","","","",""
"670.1999998092651","","image-keyboard-response","304","588614","0.0-6.0-0.28","","img/red.png","32","trial","32","true","0.8,0.2","1:go_a","",""
"null","","html-keyboard-response","305","589620","0.0-6.0-1.28","","<img src=""img/red-r.png"" border=""10"">","null","trial","32","","0.8,0.2","1:go_a","1",""
"null","","html-keyboard-response","306","590623","0.0-6.0-2.28","","<div style=""font-size:60px;"">+</div>","null","","","","","","",""
"null","","image-keyboard-response","307","592125","0.0-6.0-0.29","","img/purple.png","null","trial","null","true","0,1","4:nogo_d","",""
"null","","html-keyboard-response","308","593131","0.0-6.0-1.29","","<img src=""img/purple-r.png"">","null","trial","null","","0,1","4:nogo_d","1",""
"null","","html-keyboard-response","309","594138","0.0-6.0-2.29","","<div style=""font-size:60px;"">+</div>","null","","","","","","",""
"667.3999996185303","","image-keyboard-response","310","594807","0.0-6.0-0.30","","img/yellow.png","32","trial","32","true","1,0","3:go_c","",""
"null","","html-keyboard-response","311","595811","0.0-6.0-1.30","","<img src=""img/yellow-r.png"" border=""10"">","null","trial","32","","1,0","3:go_c","1",""
"null","","html-keyboard-response","312","596813","0.0-6.0-2.30","","<div style=""font-size:60px;"">+</div>","null","","","","","","",""
"null","","image-keyboard-response","313","598315","0.0-6.0-0.31","","img/blue.png","null","trial","null","true","0.2,0.8","2:nogo_b","",""
"null","","html-keyboard-response","314","599318","0.0-6.0-1.31","","<img src=""img/blue-r.png"">","null","trial","null","","0.2,0.8","2:nogo_b","1",""
"null","","html-keyboard-response","315","600320","0.0-6.0-2.31","","<div style=""font-size:60px;"">+</div>","null","","","","","","",""
"757.1000003814697","","image-keyboard-response","316","601078","0.0-6.0-0.32","","img/yellow.png","32","trial","32","true","1,0","3:go_c","",""
"null","","html-keyboard-response","317","602081","0.0-6.0-1.32","","<img src=""img/yellow-r.png"" border=""10"">","null","trial","32","","1,0","3:go_c","1",""
"null","","html-keyboard-response","318","603086","0.0-6.0-2.32","","<div style=""font-size:60px;"">+</div>","null","","","","","","",""
"null","","image-keyboard-response","319","604591","0.0-6.0-0.33","","img/purple.png","null","trial","null","true","0,1","4:nogo_d","",""
"null","","html-keyboard-response","320","605593","0.0-6.0-1.33","","<img src=""img/purple-r.png"">","null","trial","null","","0,1","4:nogo_d","1",""
"null","","html-keyboard-response","321","606598","0.0-6.0-2.33","","<div style=""font-size:60px;"">+</div>","null","","","","","","",""
"462.79999923706055","","image-keyboard-response","322","607062","0.0-6.0-0.34","","img/red.png","32","trial","32","true","0.8,0.2","1:go_a","",""
"null","","html-keyboard-response","323","608065","0.0-6.0-1.34","","<img src=""img/red-r.png"" border=""10"">","null","trial","32","","0.8,0.2","1:go_a","1",""
"null","","html-keyboard-response","324","609067","0.0-6.0-2.34","","<div style=""font-size:60px;"">+</div>","null","","","","","","",""
"null","","image-keyboard-response","325","610573","0.0-6.0-0.35","","img/blue.png","null","trial","null","true","0.2,0.8","2:nogo_b","",""
"null","","html-keyboard-response","326","611575","0.0-6.0-1.35","","<img src=""img/blue-r.png"">","null","trial","null","","0.2,0.8","2:nogo_b","1",""
"null","","html-keyboard-response","327","612577","0.0-6.0-2.35","","<div style=""font-size:60px;"">+</div>","null","","","","","","",""
"null","","image-keyboard-response","328","614082","0.0-6.0-0.36","","img/purple.png","null","trial","null","true","0,1","4:nogo_d","",""
"null","","html-keyboard-response","329","615085","0.0-6.0-1.36","","<img src=""img/purple-r.png"">","null","trial","null","","0,1","4:nogo_d","1",""
"null","","html-keyboard-response","330","616087","0.0-6.0-2.36","","<div style=""font-size:60px;"">+</div>","null","","","","","","",""
"509.69999980926514","","image-keyboard-response","331","616599","0.0-6.0-0.37","","img/yellow.png","32","trial","32","true","1,0","3:go_c","",""
"null","","html-keyboard-response","332","617601","0.0-6.0-1.37","","<img src=""img/yellow-r.png"" border=""10"">","null","trial","32","","1,0","3:go_c","1",""
"null","","html-keyboard-response","333","618603","0.0-6.0-2.37","","<div style=""font-size:60px;"">+</div>","null","","","","","","",""
"554","","image-keyboard-response","334","619159","0.0-6.0-0.38","","img/red.png","32","trial","32","true","0.8,0.2","1:go_a","",""
"null","","html-keyboard-response","335","620164","0.0-6.0-1.38","","<img src=""img/red-r.png"" border=""10"">","null","trial","32","","0.8,0.2","1:go_a","1",""
"null","","html-keyboard-response","336","621166","0.0-6.0-2.38","","<div style=""font-size:60px;"">+</div>","null","","","","","","",""
"null","","image-keyboard-response","337","622670","0.0-6.0-0.39","","img/blue.png","null","trial","null","true","0.2,0.8","2:nogo_b","",""
"null","","html-keyboard-response","338","623672","0.0-6.0-1.39","","<img src=""img/blue-r.png"">","null","trial","null","","0.2,0.8","2:nogo_b","1",""
"null","","html-keyboard-response","339","624678","0.0-6.0-2.39","","<div style=""font-size:60px;"">+</div>","null","","","","","","",""
"null","","image-keyboard-response","340","626181","0.0-6.0-0.40","","img/blue.png","null","trial","null","true","0.2,0.8","2:nogo_b","",""
"null","","html-keyboard-response","341","627186","0.0-6.0-1.40","","<img src=""img/blue-r.png"">","null","trial","null","","0.2,0.8","2:nogo_b","1",""
"null","","html-keyboard-response","342","628187","0.0-6.0-2.40","","<div style=""font-size:60px;"">+</div>","null","","","","","","",""
"602.3999996185303","","image-keyboard-response","343","628791","0.0-6.0-0.41","","img/yellow.png","32","trial","32","true","1,0","3:go_c","",""
"null","","html-keyboard-response","344","629793","0.0-6.0-1.41","","<img src=""img/yellow-r.png"" border=""10"">","null","trial","32","","1,0","3:go_c","1",""
"null","","html-keyboard-response","345","630798","0.0-6.0-2.41","","<div style=""font-size:60px;"">+</div>","null","","","","","","",""
"null","","image-keyboard-response","346","632300","0.0-6.0-0.42","","img/purple.png","null","trial","null","true","0,1","4:nogo_d","",""
"null","","html-keyboard-response","347","633301","0.0-6.0-1.42","","<img src=""img/purple-r.png"">","null","trial","null","","0,1","4:nogo_d","1",""
"null","","html-keyboard-response","348","634307","0.0-6.0-2.42","","<div style=""font-size:60px;"">+</div>","null","","","","","","",""
"530.6999998092651","","image-keyboard-response","349","634839","0.0-6.0-0.43","","img/red.png","32","trial","32","true","0.8,0.2","1:go_a","",""
"null","","html-keyboard-response","350","635842","0.0-6.0-1.43","","<img src=""img/red-r.png"" border=""10"">","null","trial","32","","0.8,0.2","1:go_a","1",""
"null","","html-keyboard-response","351","636848","0.0-6.0-2.43","","<div style=""font-size:60px;"">+</div>","null","","","","","","",""
"492.5","","image-keyboard-response","352","637342","0.0-6.0-0.44","","img/yellow.png","32","trial","32","true","1,0","3:go_c","",""
"null","","html-keyboard-response","353","638348","0.0-6.0-1.44","","<img src=""img/yellow-r.png"" border=""10"">","null","trial","32","","1,0","3:go_c","1",""
"null","","html-keyboard-response","354","639353","0.0-6.0-2.44","","<div style=""font-size:60px;"">+</div>","null","","","","","","",""
"463.69999980926514","","image-keyboard-response","355","639817","0.0-6.0-0.45","","img/red.png","32","trial","32","true","0.8,0.2","1:go_a","",""
"null","","html-keyboard-response","356","640822","0.0-6.0-1.45","","<img src=""img/red-r.png"" border=""10"">","null","trial","32","","0.8,0.2","1:go_a","1",""
"null","","html-keyboard-response","357","641824","0.0-6.0-2.45","","<div style=""font-size:60px;"">+</div>","null","","","","","","",""
"null","","image-keyboard-response","358","643328","0.0-6.0-0.46","","img/purple.png","null","trial","null","true","0,1","4:nogo_d","",""
"null","","html-keyboard-response","359","644330","0.0-6.0-1.46","","<img src=""img/purple-r.png"">","null","trial","null","","0,1","4:nogo_d","1",""
"null","","html-keyboard-response","360","645331","0.0-6.0-2.46","","<div style=""font-size:60px;"">+</div>","null","","","","","","",""
"null","","image-keyboard-response","361","646833","0.0-6.0-0.47","","img/blue.png","null","trial","null","true","0.2,0.8","2:nogo_b","",""
"null","","html-keyboard-response","362","647836","0.0-6.0-1.47","","<img src=""img/blue-r.png"">","null","trial","null","","0.2,0.8","2:nogo_b","1",""
"null","","html-keyboard-response","363","648838","0.0-6.0-2.47","","<div style=""font-size:60px;"">+</div>","null","","","","","","",""
"616","","image-keyboard-response","364","649455","0.0-6.0-0.48","","img/red.png","32","trial","32","true","0.8,0.2","1:go_a","",""
"null","","html-keyboard-response","365","650458","0.0-6.0-1.48","","<img src=""img/red-n.png"" border=""10"">","null","trial","32","","0.8,0.2","1:go_a","0",""
"null","","html-keyboard-response","366","651463","0.0-6.0-2.48","","<div style=""font-size:60px;"">+</div>","null","","","","","","",""
"null","","image-keyboard-response","367","652965","0.0-6.0-0.49","","img/blue.png","null","trial","null","true","0.2,0.8","2:nogo_b","",""
"null","","html-keyboard-response","368","653968","0.0-6.0-1.49","","<img src=""img/blue-r.png"">","null","trial","null","","0.2,0.8","2:nogo_b","1",""
"null","","html-keyboard-response","369","654972","0.0-6.0-2.49","","<div style=""font-size:60px;"">+</div>","null","","","","","","",""
"null","","image-keyboard-response","370","656477","0.0-6.0-0.50","","img/purple.png","null","trial","null","true","0,1","4:nogo_d","",""
"null","","html-keyboard-response","371","657483","0.0-6.0-1.50","","<img src=""img/purple-r.png"">","null","trial","null","","0,1","4:nogo_d","1",""
"null","","html-keyboard-response","372","658483","0.0-6.0-2.50","","<div style=""font-size:60px;"">+</div>","null","","","","","","",""
"529.4000005722046","","image-keyboard-response","373","659014","0.0-6.0-0.51","","img/yellow.png","32","trial","32","true","1,0","3:go_c","",""
"null","","html-keyboard-response","374","660019","0.0-6.0-1.51","","<img src=""img/yellow-r.png"" border=""10"">","null","trial","32","","1,0","3:go_c","1",""
"null","","html-keyboard-response","375","661021","0.0-6.0-2.51","","<div style=""font-size:60px;"">+</div>","null","","","","","","",""
"null","","image-keyboard-response","376","662524","0.0-6.0-0.52","","img/blue.png","null","trial","null","true","0.2,0.8","2:nogo_b","",""
"null","","html-keyboard-response","377","663529","0.0-6.0-1.52","","<img src=""img/blue-r.png"">","null","trial","null","","0.2,0.8","2:nogo_b","1",""
"null","","html-keyboard-response","378","664530","0.0-6.0-2.52","","<div style=""font-size:60px;"">+</div>","null","","","","","","",""
"523.5","","image-keyboard-response","379","665055","0.0-6.0-0.53","","img/red.png","32","trial","32","true","0.8,0.2","1:go_a","",""
"null","","html-keyboard-response","380","666059","0.0-6.0-1.53","","<img src=""img/red-r.png"" border=""10"">","null","trial","32","","0.8,0.2","1:go_a","1",""
"null","","html-keyboard-response","381","667060","0.0-6.0-2.53","","<div style=""font-size:60px;"">+</div>","null","","","","","","",""
"800.1999998092651","","image-keyboard-response","382","667861","0.0-6.0-0.54","","img/yellow.png","32","trial","32","true","1,0","3:go_c","",""
"null","","html-keyboard-response","383","668863","0.0-6.0-1.54","","<img src=""img/yellow-r.png"" border=""10"">","null","trial","32","","1,0","3:go_c","1",""
"null","","html-keyboard-response","384","669867","0.0-6.0-2.54","","<div style=""font-size:60px;"">+</div>","null","","","","","","",""
"null","","image-keyboard-response","385","671368","0.0-6.0-0.55","","img/purple.png","null","trial","null","true","0,1","4:nogo_d","",""
"null","","html-keyboard-response","386","672370","0.0-6.0-1.55","","<img src=""img/purple-r.png"">","null","trial","null","","0,1","4:nogo_d","1",""
"null","","html-keyboard-response","387","673372","0.0-6.0-2.55","","<div style=""font-size:60px;"">+</div>","null","","","","","","",""
"null","","image-keyboard-response","388","674874","0.0-6.0-0.56","","img/purple.png","null","trial","null","true","0,1","4:nogo_d","",""
"null","","html-keyboard-response","389","675880","0.0-6.0-1.56","","<img src=""img/purple-r.png"">","null","trial","null","","0,1","4:nogo_d","1",""
"null","","html-keyboard-response","390","676885","0.0-6.0-2.56","","<div style=""font-size:60px;"">+</div>","null","","","","","","",""
"null","","image-keyboard-response","391","678388","0.0-6.0-0.57","","img/blue.png","null","trial","null","true","0.2,0.8","2:nogo_b","",""
"null","","html-keyboard-response","392","679389","0.0-6.0-1.57","","<img src=""img/blue-r.png"">","null","trial","null","","0.2,0.8","2:nogo_b","1",""
"null","","html-keyboard-response","393","680392","0.0-6.0-2.57","","<div style=""font-size:60px;"">+</div>","null","","","","","","",""
"509.8999996185303","","image-keyboard-response","394","680903","0.0-6.0-0.58","","img/red.png","32","trial","32","true","0.8,0.2","1:go_a","",""
"null","","html-keyboard-response","395","681904","0.0-6.0-1.58","","<img src=""img/red-r.png"" border=""10"">","null","trial","32","","0.8,0.2","1:go_a","1",""
"null","","html-keyboard-response","396","682910","0.0-6.0-2.58","","<div style=""font-size:60px;"">+</div>","null","","","","","","",""
"519.3000001907349","","image-keyboard-response","397","683431","0.0-6.0-0.59","","img/yellow.png","32","trial","32","true","1,0","3:go_c","",""
"null","","html-keyboard-response","398","684435","0.0-6.0-1.59","","<img src=""img/yellow-r.png"" border=""10"">","null","trial","32","","1,0","3:go_c","1",""
"null","","html-keyboard-response","399","685437","0.0-6.0-2.59","","<div style=""font-size:60px;"">+</div>","null","","","","","","",""
"null","","image-keyboard-response","400","686939","0.0-6.0-0.60","","img/blue.png","null","trial","null","true","0.2,0.8","2:nogo_b","",""
"null","","html-keyboard-response","401","687941","0.0-6.0-1.60","","<img src=""img/blue-r.png"">","null","trial","null","","0.2,0.8","2:nogo_b","1",""
"null","","html-keyboard-response","402","688942","0.0-6.0-2.60","","<div style=""font-size:60px;"">+</div>","null","","","","","","",""
"703.8999996185303","","image-keyboard-response","403","689647","0.0-6.0-0.61","","img/yellow.png","32","trial","32","true","1,0","3:go_c","",""
"null","","html-keyboard-response","404","690650","0.0-6.0-1.61","","<img src=""img/yellow-r.png"" border=""10"">","null","trial","32","","1,0","3:go_c","1",""
"null","","html-keyboard-response","405","691651","0.0-6.0-2.61","","<div style=""font-size:60px;"">+</div>","null","","","","","","",""
"null","","image-keyboard-response","406","693157","0.0-6.0-0.62","","img/purple.png","null","trial","null","true","0,1","4:nogo_d","",""
"null","","html-keyboard-response","407","694160","0.0-6.0-1.62","","<img src=""img/purple-r.png"">","null","trial","null","","0,1","4:nogo_d","1",""
"null","","html-keyboard-response","408","695163","0.0-6.0-2.62","","<div style=""font-size:60px;"">+</div>","null","","","","","","",""
"435.8999996185303","","image-keyboard-response","409","695600","0.0-6.0-0.63","","img/red.png","32","trial","32","true","0.8,0.2","1:go_a","",""
"null","","html-keyboard-response","410","696602","0.0-6.0-1.63","","<img src=""img/red-n.png"" border=""10"">","null","trial","32","","0.8,0.2","1:go_a","0",""
"null","","html-keyboard-response","411","697603","0.0-6.0-2.63","","<div style=""font-size:60px;"">+</div>","null","","","","","","",""
"null","","image-keyboard-response","412","699108","0.0-6.0-0.64","","img/blue.png","null","trial","null","true","0.2,0.8","2:nogo_b","",""
"null","","html-keyboard-response","413","700110","0.0-6.0-1.64","","<img src=""img/blue-n.png"">","null","trial","null","","0.2,0.8","2:nogo_b","0",""
"null","","html-keyboard-response","414","701112","0.0-6.0-2.64","","<div style=""font-size:60px;"">+</div>","null","","","","","","",""
"702.1000003814697","","image-keyboard-response","415","701815","0.0-6.0-0.65","","img/red.png","32","trial","32","true","0.8,0.2","1:go_a","",""
"null","","html-keyboard-response","416","702817","0.0-6.0-1.65","","<img src=""img/red-r.png"" border=""10"">","null","trial","32","","0.8,0.2","1:go_a","1",""
"null","","html-keyboard-response","417","703823","0.0-6.0-2.65","","<div style=""font-size:60px;"">+</div>","null","","","","","","",""
"638.6000003814697","","image-keyboard-response","418","704463","0.0-6.0-0.66","","img/yellow.png","32","trial","32","true","1,0","3:go_c","",""
"null","","html-keyboard-response","419","705465","0.0-6.0-1.66","","<img src=""img/yellow-r.png"" border=""10"">","null","trial","32","","1,0","3:go_c","1",""
"null","","html-keyboard-response","420","706470","0.0-6.0-2.66","","<div style=""font-size:60px;"">+</div>","null","","","","","","",""
"null","","image-keyboard-response","421","707972","0.0-6.0-0.67","","img/purple.png","null","trial","null","true","0,1","4:nogo_d","",""
"null","","html-keyboard-response","422","708975","0.0-6.0-1.67","","<img src=""img/purple-r.png"">","null","trial","null","","0,1","4:nogo_d","1",""
"null","","html-keyboard-response","423","709980","0.0-6.0-2.67","","<div style=""font-size:60px;"">+</div>","null","","","","","","",""
"641.8000001907349","","image-keyboard-response","424","710623","0.0-6.0-0.68","","img/yellow.png","32","trial","32","true","1,0","3:go_c","",""
"null","","html-keyboard-response","425","711625","0.0-6.0-1.68","","<img src=""img/yellow-r.png"" border=""10"">","null","trial","32","","1,0","3:go_c","1",""
"null","","html-keyboard-response","426","712631","0.0-6.0-2.68","","<div style=""font-size:60px;"">+</div>","null","","","","","","",""
"null","","image-keyboard-response","427","714135","0.0-6.0-0.69","","img/purple.png","null","trial","null","true","0,1","4:nogo_d","",""
"null","","html-keyboard-response","428","715139","0.0-6.0-1.69","","<img src=""img/purple-r.png"">","null","trial","null","","0,1","4:nogo_d","1",""
"null","","html-keyboard-response","429","716140","0.0-6.0-2.69","","<div style=""font-size:60px;"">+</div>","null","","","","","","",""
"null","","image-keyboard-response","430","717644","0.0-6.0-0.70","","img/blue.png","null","trial","null","true","0.2,0.8","2:nogo_b","",""
"null","","html-keyboard-response","431","718650","0.0-6.0-1.70","","<img src=""img/blue-r.png"">","null","trial","null","","0.2,0.8","2:nogo_b","1",""
"null","","html-keyboard-response","432","719652","0.0-6.0-2.70","","<div style=""font-size:60px;"">+</div>","null","","","","","","",""
"448.9000005722046","","image-keyboard-response","433","720102","0.0-6.0-0.71","","img/red.png","32","trial","32","true","0.8,0.2","1:go_a","",""
"null","","html-keyboard-response","434","721104","0.0-6.0-1.71","","<img src=""img/red-r.png"" border=""10"">","null","trial","32","","0.8,0.2","1:go_a","1",""
"null","","html-keyboard-response","435","722106","0.0-6.0-2.71","","<div style=""font-size:60px;"">+</div>","null","","","","","","",""
"531.5","","image-keyboard-response","436","722639","0.0-6.0-0.72","","img/red.png","32","trial","32","true","0.8,0.2","1:go_a","",""
"null","","html-keyboard-response","437","723641","0.0-6.0-1.72","","<img src=""img/red-r.png"" border=""10"">","null","trial","32","","0.8,0.2","1:go_a","1",""
"null","","html-keyboard-response","438","724644","0.0-6.0-2.72","","<div style=""font-size:60px;"">+</div>","null","","","","","","",""
"593.9000005722046","","image-keyboard-response","439","725239","0.0-6.0-0.73","","img/yellow.png","32","trial","32","true","1,0","3:go_c","",""
"null","","html-keyboard-response","440","726245","0.0-6.0-1.73","","<img src=""img/yellow-r.png"" border=""10"">","null","trial","32","","1,0","3:go_c","1",""
"null","","html-keyboard-response","441","727249","0.0-6.0-2.73","","<div style=""font-size:60px;"">+</div>","null","","","","","","",""
"null","","image-keyboard-response","442","728750","0.0-6.0-0.74","","img/purple.png","null","trial","null","true","0,1","4:nogo_d","",""
"null","","html-keyboard-response","443","729753","0.0-6.0-1.74","","<img src=""img/purple-r.png"">","null","trial","null","","0,1","4:nogo_d","1",""
"null","","html-keyboard-response","444","730754","0.0-6.0-2.74","","<div style=""font-size:60px;"">+</div>","null","","","","","","",""
"null","","image-keyboard-response","445","732255","0.0-6.0-0.75","","img/blue.png","null","trial","null","true","0.2,0.8","2:nogo_b","",""
"null","","html-keyboard-response","446","733257","0.0-6.0-1.75","","<img src=""img/blue-r.png"">","null","trial","null","","0.2,0.8","2:nogo_b","1",""
"null","","html-keyboard-response","447","734262","0.0-6.0-2.75","","<div style=""font-size:60px;"">+</div>","null","","","","","","",""
"null","","image-keyboard-response","448","735768","0.0-6.0-0.76","","img/blue.png","null","trial","null","true","0.2,0.8","2:nogo_b","",""
"null","","html-keyboard-response","449","736772","0.0-6.0-1.76","","<img src=""img/blue-n.png"">","null","trial","null","","0.2,0.8","2:nogo_b","0",""
"null","","html-keyboard-response","450","737776","0.0-6.0-2.76","","<div style=""font-size:60px;"">+</div>","null","","","","","","",""
"622.3000001907349","","image-keyboard-response","451","738400","0.0-6.0-0.77","","img/yellow.png","32","trial","32","true","1,0","3:go_c","",""
"null","","html-keyboard-response","452","739406","0.0-6.0-1.77","","<img src=""img/yellow-r.png"" border=""10"">","null","trial","32","","1,0","3:go_c","1",""
"null","","html-keyboard-response","453","740408","0.0-6.0-2.77","","<div style=""font-size:60px;"">+</div>","null","","","","","","",""
"509.69999980926514","","image-keyboard-response","454","740919","0.0-6.0-0.78","","img/red.png","32","trial","32","true","0.8,0.2","1:go_a","",""
"null","","html-keyboard-response","455","741924","0.0-6.0-1.78","","<img src=""img/red-r.png"" border=""10"">","null","trial","32","","0.8,0.2","1:go_a","1",""
"null","","html-keyboard-response","456","742925","0.0-6.0-2.78","","<div style=""font-size:60px;"">+</div>","null","","","","","","",""
"null","","image-keyboard-response","457","744430","0.0-6.0-0.79","","img/purple.png","null","trial","null","true","0,1","4:nogo_d","",""
"null","","html-keyboard-response","458","745432","0.0-6.0-1.79","","<img src=""img/purple-r.png"">","null","trial","null","","0,1","4:nogo_d","1",""
"null","","html-keyboard-response","459","746437","0.0-6.0-2.79","","<div style=""font-size:60px;"">+</div>","null","","","","","","",""
"777.5","","image-keyboard-response","460","747215","0.0-6.0-0.80","","img/yellow.png","32","trial","32","true","1,0","3:go_c","",""
"null","","html-keyboard-response","461","748217","0.0-6.0-1.80","","<img src=""img/yellow-r.png"" border=""10"">","null","trial","32","","1,0","3:go_c","1",""
"null","","html-keyboard-response","462","749219","0.0-6.0-2.80","","<div style=""font-size:60px;"">+</div>","null","","","","","","",""
"null","","image-keyboard-response","463","750721","0.0-6.0-0.81","","img/purple.png","null","trial","null","true","0,1","4:nogo_d","",""
"null","","html-keyboard-response","464","751727","0.0-6.0-1.81","","<img src=""img/purple-r.png"">","null","trial","null","","0,1","4:nogo_d","1",""
"null","","html-keyboard-response","465","752732","0.0-6.0-2.81","","<div style=""font-size:60px;"">+</div>","null","","","","","","",""
"null","","image-keyboard-response","466","754233","0.0-6.0-0.82","","img/blue.png","null","trial","null","true","0.2,0.8","2:nogo_b","",""
"null","","html-keyboard-response","467","755237","0.0-6.0-1.82","","<img src=""img/blue-r.png"">","null","trial","null","","0.2,0.8","2:nogo_b","1",""
"null","","html-keyboard-response","468","756239","0.0-6.0-2.82","","<div style=""font-size:60px;"">+</div>","null","","","","","","",""
"511.19999980926514","","image-keyboard-response","469","756752","0.0-6.0-0.83","","img/red.png","32","trial","32","true","0.8,0.2","1:go_a","",""
"null","","html-keyboard-response","470","757758","0.0-6.0-1.83","","<img src=""img/red-r.png"" border=""10"">","null","trial","32","","0.8,0.2","1:go_a","1",""
"null","","html-keyboard-response","471","758759","0.0-6.0-2.83","","<div style=""font-size:60px;"">+</div>","null","","","","","","",""
"null","","image-keyboard-response","472","760261","0.0-6.0-0.84","","img/blue.png","null","trial","null","true","0.2,0.8","2:nogo_b","",""
"null","","html-keyboard-response","473","761265","0.0-6.0-1.84","","<img src=""img/blue-r.png"">","null","trial","null","","0.2,0.8","2:nogo_b","1",""
"null","","html-keyboard-response","474","762267","0.0-6.0-2.84","","<div style=""font-size:60px;"">+</div>","null","","","","","","",""
"null","","image-keyboard-response","475","763768","0.0-6.0-0.85","","img/purple.png","null","trial","null","true","0,1","4:nogo_d","",""
"null","","html-keyboard-response","476","764772","0.0-6.0-1.85","","<img src=""img/purple-r.png"">","null","trial","null","","0,1","4:nogo_d","1",""
"null","","html-keyboard-response","477","765773","0.0-6.0-2.85","","<div style=""font-size:60px;"">+</div>","null","","","","","","",""
"513","","image-keyboard-response","478","766287","0.0-6.0-0.86","","img/yellow.png","32","trial","32","true","1,0","3:go_c","",""
"null","","html-keyboard-response","479","767293","0.0-6.0-1.86","","<img src=""img/yellow-r.png"" border=""10"">","null","trial","32","","1,0","3:go_c","1",""
"null","","html-keyboard-response","480","768294","0.0-6.0-2.86","","<div style=""font-size:60px;"">+</div>","null","","","","","","",""
"440.3999996185303","","image-keyboard-response","481","768736","0.0-6.0-0.87","","img/red.png","32","trial","32","true","0.8,0.2","1:go_a","",""
"null","","html-keyboard-response","482","769742","0.0-6.0-1.87","","<img src=""img/red-n.png"" border=""10"">","null","trial","32","","0.8,0.2","1:go_a","0",""
"null","","html-keyboard-response","483","770746","0.0-6.0-2.87","","<div style=""font-size:60px;"">+</div>","null","","","","","","",""
"635.8000001907349","","image-keyboard-response","484","771383","0.0-6.0-0.88","","img/red.png","32","trial","32","true","0.8,0.2","1:go_a","",""
"null","","html-keyboard-response","485","772385","0.0-6.0-1.88","","<img src=""img/red-r.png"" border=""10"">","null","trial","32","","0.8,0.2","1:go_a","1",""
"null","","html-keyboard-response","486","773386","0.0-6.0-2.88","","<div style=""font-size:60px;"">+</div>","null","","","","","","",""
"null","","image-keyboard-response","487","774887","0.0-6.0-0.89","","img/purple.png","null","trial","null","true","0,1","4:nogo_d","",""
"null","","html-keyboard-response","488","775890","0.0-6.0-1.89","","<img src=""img/purple-r.png"">","null","trial","null","","0,1","4:nogo_d","1",""
"null","","html-keyboard-response","489","776892","0.0-6.0-2.89","","<div style=""font-size:60px;"">+</div>","null","","","","","","",""
"null","","image-keyboard-response","490","778396","0.0-6.0-0.90","","img/blue.png","null","trial","null","true","0.2,0.8","2:nogo_b","",""
"null","","html-keyboard-response","491","779402","0.0-6.0-1.90","","<img src=""img/blue-r.png"">","null","trial","null","","0.2,0.8","2:nogo_b","1",""
"null","","html-keyboard-response","492","780407","0.0-6.0-2.90","","<div style=""font-size:60px;"">+</div>","null","","","","","","",""
"527.1999998092651","","image-keyboard-response","493","780935","0.0-6.0-0.91","","img/yellow.png","32","trial","32","true","1,0","3:go_c","",""
"null","","html-keyboard-response","494","781941","0.0-6.0-1.91","","<img src=""img/yellow-r.png"" border=""10"">","null","trial","32","","1,0","3:go_c","1",""
"null","","html-keyboard-response","495","782946","0.0-6.0-2.91","","<div style=""font-size:60px;"">+</div>","null","","","","","","",""
"620.2000007629395","","image-keyboard-response","496","783567","0.0-6.0-0.92","","img/yellow.png","32","trial","32","true","1,0","3:go_c","",""
"null","","html-keyboard-response","497","784573","0.0-6.0-1.92","","<img src=""img/yellow-r.png"" border=""10"">","null","trial","32","","1,0","3:go_c","1",""
"null","","html-keyboard-response","498","785576","0.0-6.0-2.92","","<div style=""font-size:60px;"">+</div>","null","","","","","","",""
"null","","image-keyboard-response","499","787077","0.0-6.0-0.93","","img/blue.png","null","trial","null","true","0.2,0.8","2:nogo_b","",""
"null","","html-keyboard-response","500","788083","0.0-6.0-1.93","","<img src=""img/blue-r.png"">","null","trial","null","","0.2,0.8","2:nogo_b","1",""
"null","","html-keyboard-response","501","789085","0.0-6.0-2.93","","<div style=""font-size:60px;"">+</div>","null","","","","","","",""
"505.30000019073486","","image-keyboard-response","502","789591","0.0-6.0-0.94","","img/red.png","32","trial","32","true","0.8,0.2","1:go_a","",""
"null","","html-keyboard-response","503","790593","0.0-6.0-1.94","","<img src=""img/red-r.png"" border=""10"">","null","trial","32","","0.8,0.2","1:go_a","1",""
"null","","html-keyboard-response","504","791597","0.0-6.0-2.94","","<div style=""font-size:60px;"">+</div>","null","","","","","","",""
"null","","image-keyboard-response","505","793101","0.0-6.0-0.95","","img/purple.png","null","trial","null","true","0,1","4:nogo_d","",""
"null","","html-keyboard-response","506","794104","0.0-6.0-1.95","","<img src=""img/purple-r.png"">","null","trial","null","","0,1","4:nogo_d","1",""
"null","","html-keyboard-response","507","795106","0.0-6.0-2.95","","<div style=""font-size:60px;"">+</div>","null","","","","","","",""
"548.3999996185303","","image-keyboard-response","508","795656","0.0-6.0-0.96","","img/yellow.png","32","trial","32","true","1,0","3:go_c","",""
"null","","html-keyboard-response","509","796659","0.0-6.0-1.96","","<img src=""img/yellow-r.png"" border=""10"">","null","trial","32","","1,0","3:go_c","1",""
"null","","html-keyboard-response","510","797661","0.0-6.0-2.96","","<div style=""font-size:60px;"">+</div>","null","","","","","","",""
"null","","image-keyboard-response","511","799165","0.0-6.0-0.97","","img/blue.png","null","trial","null","true","0.2,0.8","2:nogo_b","",""
"null","","html-keyboard-response","512","800169","0.0-6.0-1.97","","<img src=""img/blue-r.png"">","null","trial","null","","0.2,0.8","2:nogo_b","1",""
"null","","html-keyboard-response","513","801174","0.0-6.0-2.97","","<div style=""font-size:60px;"">+</div>","null","","","","","","",""
"520.3999996185303","","image-keyboard-response","514","801696","0.0-6.0-0.98","","img/red.png","32","trial","32","true","0.8,0.2","1:go_a","",""
"null","","html-keyboard-response","515","802697","0.0-6.0-1.98","","<img src=""img/red-r.png"" border=""10"">","null","trial","32","","0.8,0.2","1:go_a","1",""
"null","","html-keyboard-response","516","803702","0.0-6.0-2.98","","<div style=""font-size:60px;"">+</div>","null","","","","","","",""
"null","","image-keyboard-response","517","805205","0.0-6.0-0.99","","img/purple.png","null","trial","null","true","0,1","4:nogo_d","",""
"null","","html-keyboard-response","518","806208","0.0-6.0-1.99","","<img src=""img/purple-r.png"">","null","trial","null","","0,1","4:nogo_d","1",""
"null","","html-keyboard-response","519","807211","0.0-6.0-2.99","","<div style=""font-size:60px;"">+</div>","null","","","","","","",""
"588","","image-keyboard-response","520","807800","0.0-6.0-0.100","","img/yellow.png","32","trial","32","true","1,0","3:go_c","",""
"null","","html-keyboard-response","521","808807","0.0-6.0-1.100","","<img src=""img/yellow-r.png"" border=""10"">","null","trial","32","","1,0","3:go_c","1",""
"null","","html-keyboard-response","522","809808","0.0-6.0-2.100","","<div style=""font-size:60px;"">+</div>","null","","","","","","",""
"null","","image-keyboard-response","523","811311","0.0-6.0-0.101","","img/purple.png","null","trial","null","true","0,1","4:nogo_d","",""
"null","","html-keyboard-response","524","812314","0.0-6.0-1.101","","<img src=""img/purple-r.png"">","null","trial","null","","0,1","4:nogo_d","1",""
"null","","html-keyboard-response","525","813317","0.0-6.0-2.101","","<div style=""font-size:60px;"">+</div>","null","","","","","","",""
"null","","image-keyboard-response","526","814822","0.0-6.0-0.102","","img/blue.png","null","trial","null","true","0.2,0.8","2:nogo_b","",""
"null","","html-keyboard-response","527","815826","0.0-6.0-1.102","","<img src=""img/blue-r.png"">","null","trial","null","","0.2,0.8","2:nogo_b","1",""
"null","","html-keyboard-response","528","816828","0.0-6.0-2.102","","<div style=""font-size:60px;"">+</div>","null","","","","","","",""
"489.4000005722046","","image-keyboard-response","529","817319","0.0-6.0-0.103","","img/red.png","32","trial","32","true","0.8,0.2","1:go_a","",""
"null","","html-keyboard-response","530","818320","0.0-6.0-1.103","","<img src=""img/red-r.png"" border=""10"">","null","trial","32","","0.8,0.2","1:go_a","1",""
"null","","html-keyboard-response","531","819322","0.0-6.0-2.103","","<div style=""font-size:60px;"">+</div>","null","","","","","","",""
"540.7999992370605","","image-keyboard-response","532","819864","0.0-6.0-0.104","","img/red.png","32","trial","32","true","0.8,0.2","1:go_a","",""
"null","","html-keyboard-response","533","820868","0.0-6.0-1.104","","<img src=""img/red-r.png"" border=""10"">","null","trial","32","","0.8,0.2","1:go_a","1",""
"null","","html-keyboard-response","534","821871","0.0-6.0-2.104","","<div style=""font-size:60px;"">+</div>","null","","","","","","",""
"575.5","","image-keyboard-response","535","822448","0.0-6.0-0.105","","img/yellow.png","32","trial","32","true","1,0","3:go_c","",""
"null","","html-keyboard-response","536","823450","0.0-6.0-1.105","","<img src=""img/yellow-r.png"" border=""10"">","null","trial","32","","1,0","3:go_c","1",""
"null","","html-keyboard-response","537","824451","0.0-6.0-2.105","","<div style=""font-size:60px;"">+</div>","null","","","","","","",""
"null","","image-keyboard-response","538","825953","0.0-6.0-0.106","","img/blue.png","null","trial","null","true","0.2,0.8","2:nogo_b","",""
"null","","html-keyboard-response","539","826959","0.0-6.0-1.106","","<img src=""img/blue-r.png"">","null","trial","null","","0.2,0.8","2:nogo_b","1",""
"null","","html-keyboard-response","540","827960","0.0-6.0-2.106","","<div style=""font-size:60px;"">+</div>","null","","","","","","",""
"null","","image-keyboard-response","541","829464","0.0-6.0-0.107","","img/purple.png","null","trial","null","true","0,1","4:nogo_d","",""
"null","","html-keyboard-response","542","830466","0.0-6.0-1.107","","<img src=""img/purple-r.png"">","null","trial","null","","0,1","4:nogo_d","1",""
"null","","html-keyboard-response","543","831467","0.0-6.0-2.107","","<div style=""font-size:60px;"">+</div>","null","","","","","","",""
"null","","image-keyboard-response","544","832970","0.0-6.0-0.108","","img/purple.png","null","trial","null","true","0,1","4:nogo_d","",""
"null","","html-keyboard-response","545","833972","0.0-6.0-1.108","","<img src=""img/purple-r.png"">","null","trial","null","","0,1","4:nogo_d","1",""
"null","","html-keyboard-response","546","834977","0.0-6.0-2.108","","<div style=""font-size:60px;"">+</div>","null","","","","","","",""
"510.6000003814697","","image-keyboard-response","547","835488","0.0-6.0-0.109","","img/yellow.png","32","trial","32","true","1,0","3:go_c","",""
"null","","html-keyboard-response","548","836494","0.0-6.0-1.109","","<img src=""img/yellow-r.png"" border=""10"">","null","trial","32","","1,0","3:go_c","1",""
"null","","html-keyboard-response","549","837498","0.0-6.0-2.109","","<div style=""font-size:60px;"">+</div>","null","","","","","","",""
"null","","image-keyboard-response","550","839000","0.0-6.0-0.110","","img/blue.png","null","trial","null","true","0.2,0.8","2:nogo_b","",""
"null","","html-keyboard-response","551","840001","0.0-6.0-1.110","","<img src=""img/blue-r.png"">","null","trial","null","","0.2,0.8","2:nogo_b","1",""
"null","","html-keyboard-response","552","841002","0.0-6.0-2.110","","<div style=""font-size:60px;"">+</div>","null","","","","","","",""
"500.19999980926514","","image-keyboard-response","553","841503","0.0-6.0-0.111","","img/red.png","32","trial","32","true","0.8,0.2","1:go_a","",""
"null","","html-keyboard-response","554","842509","0.0-6.0-1.111","","<img src=""img/red-r.png"" border=""10"">","null","trial","32","","0.8,0.2","1:go_a","1",""
"null","","html-keyboard-response","555","843511","0.0-6.0-2.111","","<div style=""font-size:60px;"">+</div>","null","","","","","","",""
"503.19999980926514","","image-keyboard-response","556","844015","0.0-6.0-0.112","","img/yellow.png","32","trial","32","true","1,0","3:go_c","",""
"null","","html-keyboard-response","557","845018","0.0-6.0-1.112","","<img src=""img/yellow-r.png"" border=""10"">","null","trial","32","","1,0","3:go_c","1",""
"null","","html-keyboard-response","558","846020","0.0-6.0-2.112","","<div style=""font-size:60px;"">+</div>","null","","","","","","",""
"547.1999998092651","","image-keyboard-response","559","846568","0.0-6.0-0.113","","img/red.png","32","trial","32","true","0.8,0.2","1:go_a","",""
"null","","html-keyboard-response","560","847570","0.0-6.0-1.113","","<img src=""img/red-r.png"" border=""10"">","null","trial","32","","0.8,0.2","1:go_a","1",""
"null","","html-keyboard-response","561","848575","0.0-6.0-2.113","","<div style=""font-size:60px;"">+</div>","null","","","","","","",""
"null","","image-keyboard-response","562","850077","0.0-6.0-0.114","","img/blue.png","null","trial","null","true","0.2,0.8","2:nogo_b","",""
"null","","html-keyboard-response","563","851079","0.0-6.0-1.114","","<img src=""img/blue-r.png"">","null","trial","null","","0.2,0.8","2:nogo_b","1",""
"null","","html-keyboard-response","564","852084","0.0-6.0-2.114","","<div style=""font-size:60px;"">+</div>","null","","","","","","",""
"null","","image-keyboard-response","565","853588","0.0-6.0-0.115","","img/purple.png","null","trial","null","true","0,1","4:nogo_d","",""
"null","","html-keyboard-response","566","854594","0.0-6.0-1.115","","<img src=""img/purple-r.png"">","null","trial","null","","0,1","4:nogo_d","1",""
"null","","html-keyboard-response","567","855597","0.0-6.0-2.115","","<div style=""font-size:60px;"">+</div>","null","","","","","","",""
"481.19999980926514","","image-keyboard-response","568","856079","0.0-6.0-0.116","","img/red.png","32","trial","32","true","0.8,0.2","1:go_a","",""
"null","","html-keyboard-response","569","857084","0.0-6.0-1.116","","<img src=""img/red-r.png"" border=""10"">","null","trial","32","","0.8,0.2","1:go_a","1",""
"null","","html-keyboard-response","570","858086","0.0-6.0-2.116","","<div style=""font-size:60px;"">+</div>","null","","","","","","",""
"null","","image-keyboard-response","571","859589","0.0-6.0-0.117","","img/blue.png","null","trial","null","true","0.2,0.8","2:nogo_b","",""
"null","","html-keyboard-response","572","860591","0.0-6.0-1.117","","<img src=""img/blue-r.png"">","null","trial","null","","0.2,0.8","2:nogo_b","1",""
"null","","html-keyboard-response","573","861597","0.0-6.0-2.117","","<div style=""font-size:60px;"">+</div>","null","","","","","","",""
"490.19999980926514","","image-keyboard-response","574","862088","0.0-6.0-0.118","","img/yellow.png","32","trial","32","true","1,0","3:go_c","",""
"null","","html-keyboard-response","575","863091","0.0-6.0-1.118","","<img src=""img/yellow-r.png"" border=""10"">","null","trial","32","","1,0","3:go_c","1",""
"null","","html-keyboard-response","576","864091","0.0-6.0-2.118","","<div style=""font-size:60px;"">+</div>","null","","","","","","",""
"null","","image-keyboard-response","577","865593","0.0-6.0-0.119","","img/purple.png","null","trial","null","true","0,1","4:nogo_d","",""
"null","","html-keyboard-response","578","866596","0.0-6.0-1.119","","<img src=""img/purple-r.png"">","null","trial","null","","0,1","4:nogo_d","1",""
"null","","html-keyboard-response","579","867597","0.0-6.0-2.119","","<div style=""font-size:60px;"">+</div>","null","","","","","","",""
"59086.5","","instructions","580","926685","0.0-7.0","[{""page_index"":0,""viewing_time"":59086.10000038147}]","","","","","","","","",""
"null","","image-keyboard-response","581","928189","0.0-8.0-0.0","","img/orange.png","null","trial","null","true","0.4,0.6","2:nogo_b","",""
"null","","html-keyboard-response","582","929191","0.0-8.0-1.0","","<img src=""img/orange-r.png"">","null","trial","null","","0.4,0.6","2:nogo_b","1",""
"null","","html-keyboard-response","583","930192","0.0-8.0-2.0","","<div style=""font-size:60px;"">+</div>","null","","","","","","",""
"null","","image-keyboard-response","584","931697","0.0-8.0-0.1","","img/red.png","null","trial","null","true","0.4,0.6","4:nogo_d","",""
"null","","html-keyboard-response","585","932700","0.0-8.0-1.1","","<img src=""img/red-n.png"">","null","trial","null","","0.4,0.6","4:nogo_d","0",""
"null","","html-keyboard-response","586","933702","0.0-8.0-2.1","","<div style=""font-size:60px;"">+</div>","null","","","","","","",""
"null","","image-keyboard-response","587","935208","0.0-8.0-0.2","","img/grey.png","null","trial","32","false","0.6,0.4","1:go_a","",""
"null","","html-keyboard-response","588","936211","0.0-8.0-1.2","","<img src=""img/grey-n.png"">","null","trial","32","","0.6,0.4","1:go_a","0",""
"null","","html-keyboard-response","589","937216","0.0-8.0-2.2","","<div style=""font-size:60px;"">+</div>","null","","","","","","",""
"null","","image-keyboard-response","590","938721","0.0-8.0-0.3","","img/yellow.png","null","trial","32","false","0.6,0.4","3:go_c","",""
"null","","html-keyboard-response","591","939727","0.0-8.0-1.3","","<img src=""img/yellow-n.png"">","null","trial","32","","0.6,0.4","3:go_c","0",""
"null","","html-keyboard-response","592","940728","0.0-8.0-2.3","","<div style=""font-size:60px;"">+</div>","null","","","","","","",""
"663.8999996185303","","image-keyboard-response","593","941393","0.0-8.0-0.4","","img/yellow.png","32","trial","32","true","0.6,0.4","3:go_c","",""
"null","","html-keyboard-response","594","942397","0.0-8.0-1.4","","<img src=""img/yellow-r.png"" border=""10"">","null","trial","32","","0.6,0.4","3:go_c","1",""
"null","","html-keyboard-response","595","943398","0.0-8.0-2.4","","<div style=""font-size:60px;"">+</div>","null","","","","","","",""
"688.5","","image-keyboard-response","596","944088","0.0-8.0-0.5","","img/grey.png","32","trial","32","true","0.6,0.4","1:go_a","",""
"null","","html-keyboard-response","597","945090","0.0-8.0-1.5","","<img src=""img/grey-r.png"" border=""10"">","null","trial","32","","0.6,0.4","1:go_a","1",""
"null","","html-keyboard-response","598","946091","0.0-8.0-2.5","","<div style=""font-size:60px;"">+</div>","null","","","","","","",""
"null","","image-keyboard-response","599","947592","0.0-8.0-0.6","","img/orange.png","null","trial","null","true","0.4,0.6","2:nogo_b","",""
"null","","html-keyboard-response","600","948597","0.0-8.0-1.6","","<img src=""img/orange-n.png"">","null","trial","null","","0.4,0.6","2:nogo_b","0",""
"null","","html-keyboard-response","601","949603","0.0-8.0-2.6","","<div style=""font-size:60px;"">+</div>","null","","","","","","",""
"427.0999994277954","","image-keyboard-response","602","950032","0.0-8.0-0.7","","img/red.png","32","trial","null","false","0.4,0.6","4:nogo_d","",""
"null","","html-keyboard-response","603","951055","0.0-8.0-1.7","","<img src=""img/red-n.png"" border=""10"">","null","trial","null","","0.4,0.6","4:nogo_d","0",""
"null","","html-keyboard-response","604","952057","0.0-8.0-2.7","","<div style=""font-size:60px;"">+</div>","null","","","","","","",""
"543.1000003814697","","image-keyboard-response","605","952601","0.0-8.0-0.8","","img/orange.png","32","trial","null","false","0.4,0.6","2:nogo_b","",""
"null","","html-keyboard-response","606","953606","0.0-8.0-1.8","","<img src=""img/orange-r.png"" border=""10"">","null","trial","null","","0.4,0.6","2:nogo_b","1",""
"null","","html-keyboard-response","607","954612","0.0-8.0-2.8","","<div style=""font-size:60px;"">+</div>","null","","","","","","",""
"859","","image-keyboard-response","608","955473","0.0-8.0-0.9","","img/grey.png","32","trial","32","true","0.6,0.4","1:go_a","",""
"null","","html-keyboard-response","609","956475","0.0-8.0-1.9","","<img src=""img/grey-n.png"" border=""10"">","null","trial","32","","0.6,0.4","1:go_a","0",""
"null","","html-keyboard-response","610","957476","0.0-8.0-2.9","","<div style=""font-size:60px;"">+</div>","null","","","","","","",""
"610.6999998092651","","image-keyboard-response","611","958088","0.0-8.0-0.10","","img/yellow.png","32","trial","32","true","0.6,0.4","3:go_c","",""
"null","","html-keyboard-response","612","959093","0.0-8.0-1.10","","<img src=""img/yellow-r.png"" border=""10"">","null","trial","32","","0.6,0.4","3:go_c","1",""
"null","","html-keyboard-response","613","960096","0.0-8.0-2.10","","<div style=""font-size:60px;"">+</div>","null","","","","","","",""
"751.5999994277954","","image-keyboard-response","614","960848","0.0-8.0-0.11","","img/red.png","32","trial","null","false","0.4,0.6","4:nogo_d","",""
"null","","html-keyboard-response","615","961850","0.0-8.0-1.11","","<img src=""img/red-r.png"" border=""10"">","null","trial","null","","0.4,0.6","4:nogo_d","1",""
"null","","html-keyboard-response","616","962855","0.0-8.0-2.11","","<div style=""font-size:60px;"">+</div>","null","","","","","","",""
"656.2000007629395","","image-keyboard-response","617","963513","0.0-8.0-0.12","","img/grey.png","32","trial","32","true","0.6,0.4","1:go_a","",""
"null","","html-keyboard-response","618","964518","0.0-8.0-1.12","","<img src=""img/grey-r.png"" border=""10"">","null","trial","32","","0.6,0.4","1:go_a","1",""
"null","","html-keyboard-response","619","965523","0.0-8.0-2.12","","<div style=""font-size:60px;"">+</div>","null","","","","","","",""
"571.6000003814697","","image-keyboard-response","620","966096","0.0-8.0-0.13","","img/yellow.png","32","trial","32","true","0.6,0.4","3:go_c","",""
"null","","html-keyboard-response","621","967098","0.0-8.0-1.13","","<img src=""img/yellow-n.png"" border=""10"">","null","trial","32","","0.6,0.4","3:go_c","0",""
"null","","html-keyboard-response","622","968102","0.0-8.0-2.13","","<div style=""font-size:60px;"">+</div>","null","","","","","","",""
"952.9000005722046","","image-keyboard-response","623","969056","0.0-8.0-0.14","","img/orange.png","32","trial","null","false","0.4,0.6","2:nogo_b","",""
"null","","html-keyboard-response","624","970058","0.0-8.0-1.14","","<img src=""img/orange-n.png"" border=""10"">","null","trial","null","","0.4,0.6","2:nogo_b","0",""
"null","","html-keyboard-response","625","971063","0.0-8.0-2.14","","<div style=""font-size:60px;"">+</div>","null","","","","","","",""
"592","","image-keyboard-response","626","971656","0.0-8.0-0.15","","img/red.png","32","trial","null","false","0.4,0.6","4:nogo_d","",""
"null","","html-keyboard-response","627","972658","0.0-8.0-1.15","","<img src=""img/red-r.png"" border=""10"">","null","trial","null","","0.4,0.6","4:nogo_d","1",""
"null","","html-keyboard-response","628","973659","0.0-8.0-2.15","","<div style=""font-size:60px;"">+</div>","null","","","","","","",""
"804","","image-keyboard-response","629","974465","0.0-8.0-0.16","","img/orange.png","32","trial","null","false","0.4,0.6","2:nogo_b","",""
"null","","html-keyboard-response","630","975467","0.0-8.0-1.16","","<img src=""img/orange-n.png"" border=""10"">","null","trial","null","","0.4,0.6","2:nogo_b","0",""
"null","","html-keyboard-response","631","976469","0.0-8.0-2.16","","<div style=""font-size:60px;"">+</div>","null","","","","","","",""
"482.1000003814697","","image-keyboard-response","632","976952","0.0-8.0-0.17","","img/red.png","32","trial","null","false","0.4,0.6","4:nogo_d","",""
"null","","html-keyboard-response","633","977958","0.0-8.0-1.17","","<img src=""img/red-r.png"" border=""10"">","null","trial","null","","0.4,0.6","4:nogo_d","1",""
"null","","html-keyboard-response","634","978961","0.0-8.0-2.17","","<div style=""font-size:60px;"">+</div>","null","","","","","","",""
"645.8999996185303","","image-keyboard-response","635","979608","0.0-8.0-0.18","","img/yellow.png","32","trial","32","true","0.6,0.4","3:go_c","",""
"null","","html-keyboard-response","636","980611","0.0-8.0-1.18","","<img src=""img/yellow-r.png"" border=""10"">","null","trial","32","","0.6,0.4","3:go_c","1",""
"null","","html-keyboard-response","637","981617","0.0-8.0-2.18","","<div style=""font-size:60px;"">+</div>","null","","","","","","",""
"709.9000005722046","","image-keyboard-response","638","982328","0.0-8.0-0.19","","img/grey.png","32","trial","32","true","0.6,0.4","1:go_a","",""
"null","","html-keyboard-response","639","983333","0.0-8.0-1.19","","<img src=""img/grey-r.png"" border=""10"">","null","trial","32","","0.6,0.4","1:go_a","1",""
"null","","html-keyboard-response","640","984335","0.0-8.0-2.19","","<div style=""font-size:60px;"">+</div>","null","","","","","","",""
"null","","image-keyboard-response","641","985837","0.0-8.0-0.20","","img/orange.png","null","trial","null","true","0.4,0.6","2:nogo_b","",""
"null","","html-keyboard-response","642","986843","0.0-8.0-1.20","","<img src=""img/orange-r.png"">","null","trial","null","","0.4,0.6","2:nogo_b","1",""
"null","","html-keyboard-response","643","987844","0.0-8.0-2.20","","<div style=""font-size:60px;"">+</div>","null","","","","","","",""
"700.1999998092651","","image-keyboard-response","644","988546","0.0-8.0-0.21","","img/grey.png","32","trial","32","true","0.6,0.4","1:go_a","",""
"null","","html-keyboard-response","645","989548","0.0-8.0-1.21","","<img src=""img/grey-n.png"" border=""10"">","null","trial","32","","0.6,0.4","1:go_a","0",""
"null","","html-keyboard-response","646","990552","0.0-8.0-2.21","","<div style=""font-size:60px;"">+</div>","null","","","","","","",""
"447.3999996185303","","image-keyboard-response","647","991001","0.0-8.0-0.22","","img/red.png","32","trial","null","false","0.4,0.6","4:nogo_d","",""
"null","","html-keyboard-response","648","992006","0.0-8.0-1.22","","<img src=""img/red-n.png"" border=""10"">","null","trial","null","","0.4,0.6","4:nogo_d","0",""
"null","","html-keyboard-response","649","993011","0.0-8.0-2.22","","<div style=""font-size:60px;"">+</div>","null","","","","","","",""
"484.70000076293945","","image-keyboard-response","650","993497","0.0-8.0-0.23","","img/yellow.png","32","trial","32","true","0.6,0.4","3:go_c","",""
"null","","html-keyboard-response","651","994500","0.0-8.0-1.23","","<img src=""img/yellow-n.png"" border=""10"">","null","trial","32","","0.6,0.4","3:go_c","0",""
"null","","html-keyboard-response","652","995501","0.0-8.0-2.23","","<div style=""font-size:60px;"">+</div>","null","","","","","","",""
"null","","image-keyboard-response","653","997003","0.0-8.0-0.24","","img/red.png","null","trial","null","true","0.4,0.6","4:nogo_d","",""
"null","","html-keyboard-response","654","998005","0.0-8.0-1.24","","<img src=""img/red-r.png"">","null","trial","null","","0.4,0.6","4:nogo_d","1",""
"null","","html-keyboard-response","655","999011","0.0-8.0-2.24","","<div style=""font-size:60px;"">+</div>","null","","","","","","",""
"992","","image-keyboard-response","656","1000017","0.0-8.0-0.25","","img/grey.png","32","trial","32","true","0.6,0.4","1:go_a","",""
"null","","html-keyboard-response","657","1001020","0.0-8.0-1.25","","<img src=""img/grey-r.png"" border=""10"">","null","trial","32","","0.6,0.4","1:go_a","1",""
"null","","html-keyboard-response","658","1002044","0.0-8.0-2.25","","<div style=""font-size:60px;"">+</div>","null","","","","","","",""
"null","","image-keyboard-response","659","1003545","0.0-8.0-0.26","","img/orange.png","null","trial","null","true","0.4,0.6","2:nogo_b","",""
"null","","html-keyboard-response","660","1004552","0.0-8.0-1.26","","<img src=""img/orange-n.png"">","null","trial","null","","0.4,0.6","2:nogo_b","0",""
"null","","html-keyboard-response","661","1005557","0.0-8.0-2.26","","<div style=""font-size:60px;"">+</div>","null","","","","","","",""
"1098.8000001907349","","image-keyboard-response","662","1006657","0.0-8.0-0.27","","img/yellow.png","32","trial","32","true","0.6,0.4","3:go_c","",""
"null","","html-keyboard-response","663","1007659","0.0-8.0-1.27","","<img src=""img/yellow-r.png"" border=""10"">","null","trial","32","","0.6,0.4","3:go_c","1",""
"null","","html-keyboard-response","664","1008663","0.0-8.0-2.27","","<div style=""font-size:60px;"">+</div>","null","","","","","","",""
"null","","image-keyboard-response","665","1010165","0.0-8.0-0.28","","img/yellow.png","null","trial","32","false","0.6,0.4","3:go_c","",""
"null","","html-keyboard-response","666","1011168","0.0-8.0-1.28","","<img src=""img/yellow-n.png"">","null","trial","32","","0.6,0.4","3:go_c","0",""
"null","","html-keyboard-response","667","1012173","0.0-8.0-2.28","","<div style=""font-size:60px;"">+</div>","null","","","","","","",""
"627.1000003814697","","image-keyboard-response","668","1012801","0.0-8.0-0.29","","img/red.png","32","trial","null","false","0.4,0.6","4:nogo_d","",""
"null","","html-keyboard-response","669","1013804","0.0-8.0-1.29","","<img src=""img/red-n.png"" border=""10"">","null","trial","null","","0.4,0.6","4:nogo_d","0",""
"null","","html-keyboard-response","670","1014807","0.0-8.0-2.29","","<div style=""font-size:60px;"">+</div>","null","","","","","","",""
"664.1999998092651","","image-keyboard-response","671","1015473","0.0-8.0-0.30","","img/grey.png","32","trial","32","true","0.6,0.4","1:go_a","",""
"null","","html-keyboard-response","672","1016477","0.0-8.0-1.30","","<img src=""img/grey-n.png"" border=""10"">","null","trial","32","","0.6,0.4","1:go_a","0",""
"null","","html-keyboard-response","673","1017481","0.0-8.0-2.30","","<div style=""font-size:60px;"">+</div>","null","","","","","","",""
"null","","image-keyboard-response","674","1018983","0.0-8.0-0.31","","img/orange.png","null","trial","null","true","0.4,0.6","2:nogo_b","",""
"null","","html-keyboard-response","675","1019989","0.0-8.0-1.31","","<img src=""img/orange-n.png"">","null","trial","null","","0.4,0.6","2:nogo_b","0",""
"null","","html-keyboard-response","676","1020991","0.0-8.0-2.31","","<div style=""font-size:60px;"">+</div>","null","","","","","","",""
"null","","image-keyboard-response","677","1022493","0.0-8.0-0.32","","img/red.png","null","trial","null","true","0.4,0.6","4:nogo_d","",""
"null","","html-keyboard-response","678","1023496","0.0-8.0-1.32","","<img src=""img/red-r.png"">","null","trial","null","","0.4,0.6","4:nogo_d","1",""
"null","","html-keyboard-response","679","1024498","0.0-8.0-2.32","","<div style=""font-size:60px;"">+</div>","null","","","","","","",""
"null","","image-keyboard-response","680","1026021","0.0-8.0-0.33","","img/orange.png","null","trial","null","true","0.4,0.6","2:nogo_b","",""
"null","","html-keyboard-response","681","1027024","0.0-8.0-1.33","","<img src=""img/orange-n.png"">","null","trial","null","","0.4,0.6","2:nogo_b","0",""
"null","","html-keyboard-response","682","1028026","0.0-8.0-2.33","","<div style=""font-size:60px;"">+</div>","null","","","","","","",""
"null","","image-keyboard-response","683","1029528","0.0-8.0-0.34","","img/grey.png","null","trial","32","false","0.6,0.4","1:go_a","",""
"null","","html-keyboard-response","684","1030531","0.0-8.0-1.34","","<img src=""img/grey-r.png"">","null","trial","32","","0.6,0.4","1:go_a","1",""
"null","","html-keyboard-response","685","1031534","0.0-8.0-2.34","","<div style=""font-size:60px;"">+</div>","null","","","","","","",""
