"rt","url","trial_type","trial_index","time_elapsed","internal_node_id","view_history","stimulus","key_press","test_part","correct_response","correct","use_rew","which_stim","reward","responses"
"138142","consent.html","external-html","0","138332","0.0-0.0","","","","","","","","","",""
"1535492.5999999046","","instructions","1","1673831","0.0-1.0","[{""page_index"":0,""viewing_time"":5516.599999904633},{""page_index"":1,""viewing_time"":37613.90000009537},{""page_index"":2,""viewing_time"":12127.899999976158},{""page_index"":3,""viewing_time"":44783.799999952316},{""page_index"":4,""viewing_time"":19154.600000023842},{""page_index"":5,""viewing_time"":1399712.1000000238},{""page_index"":6,""viewing_time"":16582.899999976158}]","","","","","","","","",""
"null","","image-keyboard-response","2","1675334","0.0-2.0-0.0","","img/test2.PNG","null","practice","null","true","","","",""
"null","","html-keyboard-response","3","1676337","0.0-2.0-1.0","","<img src=""img/test2-reward.PNG"">","null","","","","","","",""
"null","","html-keyboard-response","4","1677339","0.0-2.0-2.0","","<div style=""font-size:60px;"">+</div>","null","","","","","","",""
"null","","image-keyboard-response","5","1678841","0.0-2.0-0.1","","img/test3.PNG","null","practice","null","true","","","",""
"null","","html-keyboard-response","6","1679843","0.0-2.0-1.1","","<img src=""img/test3-reward.PNG"">","null","","","","","","",""
"null","","html-keyboard-response","7","1680845","0.0-2.0-2.1","","<div style=""font-size:60px;"">+</div>","null","","","","","","",""
"318.89999997615814","","image-keyboard-response","8","1681166","0.0-2.0-0.2","","img/test1.PNG","32","practice","32","true","","","",""
"null","","html-keyboard-response","9","1682175","0.0-2.0-1.2","","<img src=""img/test1-reward.PNG"" border=""10px; grey"">","null","","","","","","",""
"null","","html-keyboard-response","10","1683176","0.0-2.0-2.2","","<div style=""font-size:60px;"">+</div>","null","","","","","","",""
"307.6999999284744","","image-keyboard-response","11","1683486","0.0-2.0-0.3","","img/test1.PNG","32","practice","32","true","","","",""
"null","","html-keyboard-response","12","1684488","0.0-2.0-1.3","","<img src=""img/test1-reward.PNG"" border=""10px; grey"">","null","","","","","","",""
"null","","html-keyboard-response","13","1685490","0.0-2.0-2.3","","<div style=""font-size:60px;"">+</div>","null","","","","","","",""
"null","","image-keyboard-response","14","1686991","0.0-2.0-0.4","","img/test2.PNG","null","practice","null","true","","","",""
"null","","html-keyboard-response","15","1687992","0.0-2.0-1.4","","<img src=""img/test2-reward.PNG"">","null","","","","","","",""
"null","","html-keyboard-response","16","1688996","0.0-2.0-2.4","","<div style=""font-size:60px;"">+</div>","null","","","","","","",""
"null","","image-keyboard-response","17","1690498","0.0-2.0-0.5","","img/test3.PNG","null","practice","null","true","","","",""
"null","","html-keyboard-response","18","1691499","0.0-2.0-1.5","","<img src=""img/test3-reward.PNG"">","null","","","","","","",""
"null","","html-keyboard-response","19","1692500","0.0-2.0-2.5","","<div style=""font-size:60px;"">+</div>","null","","","","","","",""
"null","","image-keyboard-response","20","1694003","0.0-2.0-0.6","","img/test3.PNG","null","practice","null","true","","","",""
"null","","html-keyboard-response","21","1695005","0.0-2.0-1.6","","<img src=""img/test3-reward.PNG"">","null","","","","","","",""
"null","","html-keyboard-response","22","1696006","0.0-2.0-2.6","","<div style=""font-size:60px;"">+</div>","null","","","","","","",""
"429.1999999284744","","image-keyboard-response","23","1696437","0.0-2.0-0.7","","img/test1.PNG","32","practice","32","true","","","",""
"null","","html-keyboard-response","24","1697438","0.0-2.0-1.7","","<img src=""img/test1-reward.PNG"" border=""10px; grey"">","null","","","","","","",""
"null","","html-keyboard-response","25","1698439","0.0-2.0-2.7","","<div style=""font-size:60px;"">+</div>","null","","","","","","",""
"null","","image-keyboard-response","26","1699941","0.0-2.0-0.8","","img/test2.PNG","null","practice","null","true","","","",""
"null","","html-keyboard-response","27","1700943","0.0-2.0-1.8","","<img src=""img/test2-reward.PNG"">","null","","","","","","",""
"null","","html-keyboard-response","28","1701945","0.0-2.0-2.8","","<div style=""font-size:60px;"">+</div>","null","","","","","","",""
"null","","image-keyboard-response","29","1703447","0.0-2.0-0.9","","img/test3.PNG","null","practice","null","true","","","",""
"null","","html-keyboard-response","30","1704449","0.0-2.0-1.9","","<img src=""img/test3-reward.PNG"">","null","","","","","","",""
"null","","html-keyboard-response","31","1705451","0.0-2.0-2.9","","<div style=""font-size:60px;"">+</div>","null","","","","","","",""
"296.5","","image-keyboard-response","32","1705749","0.0-2.0-0.10","","img/test1.PNG","32","practice","32","true","","","",""
"null","","html-keyboard-response","33","1706750","0.0-2.0-1.10","","<img src=""img/test1-reward.PNG"" border=""10px; grey"">","null","","","","","","",""
"null","","html-keyboard-response","34","1707752","0.0-2.0-2.10","","<div style=""font-size:60px;"">+</div>","null","","","","","","",""
"null","","image-keyboard-response","35","1709253","0.0-2.0-0.11","","img/test2.PNG","null","practice","null","true","","","",""
"null","","html-keyboard-response","36","1710255","0.0-2.0-1.11","","<img src=""img/test2-reward.PNG"">","null","","","","","","",""
"null","","html-keyboard-response","37","1711256","0.0-2.0-2.11","","<div style=""font-size:60px;"">+</div>","null","","","","","","",""
"4837.399999976158","","instructions","38","1716095","0.0-3.0","[{""page_index"":0,""viewing_time"":4837.199999928474}]","","","","","","","","",""
"613.8999999761581","","image-keyboard-response","39","1716710","0.0-4.0-0.0","","img/green.png","32","trial","32","true","0.8,0.2","1:go_a","",""
"null","","html-keyboard-response","40","1717714","0.0-4.0-1.0","","<img src=""img/green-r.png"" border=""10"">","null","trial","32","","0.8,0.2","1:go_a","1",""
"null","","html-keyboard-response","41","1718716","0.0-4.0-2.0","","<div style=""font-size:60px;"">+</div>","null","","","","","","",""
"null","","image-keyboard-response","42","1720219","0.0-4.0-0.1","","img/orange.png","null","trial","null","true","0.2,0.8","2:nogo_b","",""
"null","","html-keyboard-response","43","1721222","0.0-4.0-1.1","","<img src=""img/orange-r.png"">","null","trial","null","","0.2,0.8","2:nogo_b","1",""
"null","","html-keyboard-response","44","1722232","0.0-4.0-2.1","","<div style=""font-size:60px;"">+</div>","null","","","","","","",""
"556.7999999523163","","image-keyboard-response","45","1722790","0.0-4.0-0.2","","img/green.png","32","trial","32","true","0.8,0.2","1:go_a","",""
"null","","html-keyboard-response","46","1723793","0.0-4.0-1.2","","<img src=""img/green-r.png"" border=""10"">","null","trial","32","","0.8,0.2","1:go_a","1",""
"null","","html-keyboard-response","47","1724795","0.0-4.0-2.2","","<div style=""font-size:60px;"">+</div>","null","","","","","","",""
"null","","image-keyboard-response","48","1726297","0.0-4.0-0.3","","img/orange.png","null","trial","null","true","0.2,0.8","2:nogo_b","",""
"null","","html-keyboard-response","49","1727299","0.0-4.0-1.3","","<img src=""img/orange-n.png"">","null","trial","null","","0.2,0.8","2:nogo_b","0",""
"null","","html-keyboard-response","50","1728300","0.0-4.0-2.3","","<div style=""font-size:60px;"">+</div>","null","","","","","","",""
"null","","image-keyboard-response","51","1729802","0.0-4.0-0.4","","img/orange.png","null","trial","null","true","0.2,0.8","2:nogo_b","",""
"null","","html-keyboard-response","52","1730803","0.0-4.0-1.4","","<img src=""img/orange-r.png"">","null","trial","null","","0.2,0.8","2:nogo_b","1",""
"null","","html-keyboard-response","53","1731804","0.0-4.0-2.4","","<div style=""font-size:60px;"">+</div>","null","","","","","","",""
"384.6999999284744","","image-keyboard-response","54","1732189","0.0-4.0-0.5","","img/green.png","32","trial","32","true","0.8,0.2","1:go_a","",""
"null","","html-keyboard-response","55","1733191","0.0-4.0-1.5","","<img src=""img/green-r.png"" border=""10"">","null","trial","32","","0.8,0.2","1:go_a","1",""
"null","","html-keyboard-response","56","1734192","0.0-4.0-2.5","","<div style=""font-size:60px;"">+</div>","null","","","","","","",""
"460.7000000476837","","image-keyboard-response","57","1734654","0.0-4.0-0.6","","img/green.png","32","trial","32","true","0.8,0.2","1:go_a","",""
"null","","html-keyboard-response","58","1735660","0.0-4.0-1.6","","<img src=""img/green-r.png"" border=""10"">","null","trial","32","","0.8,0.2","1:go_a","1",""
"null","","html-keyboard-response","59","1736666","0.0-4.0-2.6","","<div style=""font-size:60px;"">+</div>","null","","","","","","",""
"null","","image-keyboard-response","60","1738180","0.0-4.0-0.7","","img/orange.png","null","trial","null","true","0.2,0.8","2:nogo_b","",""
"null","","html-keyboard-response","61","1739193","0.0-4.0-1.7","","<img src=""img/orange-n.png"">","null","trial","null","","0.2,0.8","2:nogo_b","0",""
"null","","html-keyboard-response","62","1740195","0.0-4.0-2.7","","<div style=""font-size:60px;"">+</div>","null","","","","","","",""
"378.10000002384186","","image-keyboard-response","63","1740575","0.0-4.0-0.8","","img/green.png","32","trial","32","true","0.8,0.2","1:go_a","",""
"null","","html-keyboard-response","64","1741578","0.0-4.0-1.8","","<img src=""img/green-r.png"" border=""10"">","null","trial","32","","0.8,0.2","1:go_a","1",""
"null","","html-keyboard-response","65","1742580","0.0-4.0-2.8","","<div style=""font-size:60px;"">+</div>","null","","","","","","",""
"null","","image-keyboard-response","66","1744083","0.0-4.0-0.9","","img/orange.png","null","trial","null","true","0.2,0.8","2:nogo_b","",""
"null","","html-keyboard-response","67","1745085","0.0-4.0-1.9","","<img src=""img/orange-r.png"">","null","trial","null","","0.2,0.8","2:nogo_b","1",""
"null","","html-keyboard-response","68","1746086","0.0-4.0-2.9","","<div style=""font-size:60px;"">+</div>","null","","","","","","",""
"382.2000000476837","","image-keyboard-response","69","1746470","0.0-4.0-0.10","","img/green.png","32","trial","32","true","0.8,0.2","1:go_a","",""
"null","","html-keyboard-response","70","1747475","0.0-4.0-1.10","","<img src=""img/green-r.png"" border=""10"">","null","trial","32","","0.8,0.2","1:go_a","1",""
"null","","html-keyboard-response","71","1748477","0.0-4.0-2.10","","<div style=""font-size:60px;"">+</div>","null","","","","","","",""
"null","","image-keyboard-response","72","1749978","0.0-4.0-0.11","","img/orange.png","null","trial","null","true","0.2,0.8","2:nogo_b","",""
"null","","html-keyboard-response","73","1750979","0.0-4.0-1.11","","<img src=""img/orange-n.png"">","null","trial","null","","0.2,0.8","2:nogo_b","0",""
"null","","html-keyboard-response","74","1751980","0.0-4.0-2.11","","<div style=""font-size:60px;"">+</div>","null","","","","","","",""
"744.7999999523163","","image-keyboard-response","75","1752725","0.0-4.0-0.12","","img/orange.png","32","trial","null","false","0.2,0.8","2:nogo_b","",""
"null","","html-keyboard-response","76","1753728","0.0-4.0-1.12","","<img src=""img/orange-n.png"" border=""10"">","null","trial","null","","0.2,0.8","2:nogo_b","0",""
"null","","html-keyboard-response","77","1754730","0.0-4.0-2.12","","<div style=""font-size:60px;"">+</div>","null","","","","","","",""
"362.60000002384186","","image-keyboard-response","78","1755093","0.0-4.0-0.13","","img/green.png","32","trial","32","true","0.8,0.2","1:go_a","",""
"null","","html-keyboard-response","79","1756095","0.0-4.0-1.13","","<img src=""img/green-r.png"" border=""10"">","null","trial","32","","0.8,0.2","1:go_a","1",""
"null","","html-keyboard-response","80","1757096","0.0-4.0-2.13","","<div style=""font-size:60px;"">+</div>","null","","","","","","",""
"565","","image-keyboard-response","81","1757662","0.0-4.0-0.14","","img/green.png","32","trial","32","true","0.8,0.2","1:go_a","",""
"null","","html-keyboard-response","82","1758664","0.0-4.0-1.14","","<img src=""img/green-r.png"" border=""10"">","null","trial","32","","0.8,0.2","1:go_a","1",""
"null","","html-keyboard-response","83","1759668","0.0-4.0-2.14","","<div style=""font-size:60px;"">+</div>","null","","","","","","",""
"null","","image-keyboard-response","84","1761176","0.0-4.0-0.15","","img/orange.png","null","trial","null","true","0.2,0.8","2:nogo_b","",""
"null","","html-keyboard-response","85","1762178","0.0-4.0-1.15","","<img src=""img/orange-r.png"">","null","trial","null","","0.2,0.8","2:nogo_b","1",""
"null","","html-keyboard-response","86","1763180","0.0-4.0-2.15","","<div style=""font-size:60px;"">+</div>","null","","","","","","",""
"504.7999999523163","","image-keyboard-response","87","1763686","0.0-4.0-0.16","","img/green.png","32","trial","32","true","0.8,0.2","1:go_a","",""
"null","","html-keyboard-response","88","1764689","0.0-4.0-1.16","","<img src=""img/green-r.png"" border=""10"">","null","trial","32","","0.8,0.2","1:go_a","1",""
"null","","html-keyboard-response","89","1765691","0.0-4.0-2.16","","<div style=""font-size:60px;"">+</div>","null","","","","","","",""
"null","","image-keyboard-response","90","1767193","0.0-4.0-0.17","","img/orange.png","null","trial","null","true","0.2,0.8","2:nogo_b","",""
"null","","html-keyboard-response","91","1768199","0.0-4.0-1.17","","<img src=""img/orange-r.png"">","null","trial","null","","0.2,0.8","2:nogo_b","1",""
"null","","html-keyboard-response","92","1769200","0.0-4.0-2.17","","<div style=""font-size:60px;"">+</div>","null","","","","","","",""
"null","","image-keyboard-response","93","1770702","0.0-4.0-0.18","","img/orange.png","null","trial","null","true","0.2,0.8","2:nogo_b","",""
"null","","html-keyboard-response","94","1771704","0.0-4.0-1.18","","<img src=""img/orange-n.png"">","null","trial","null","","0.2,0.8","2:nogo_b","0",""
"null","","html-keyboard-response","95","1772705","0.0-4.0-2.18","","<div style=""font-size:60px;"">+</div>","null","","","","","","",""
"491.10000002384186","","image-keyboard-response","96","1773198","0.0-4.0-0.19","","img/green.png","32","trial","32","true","0.8,0.2","1:go_a","",""
"null","","html-keyboard-response","97","1774201","0.0-4.0-1.19","","<img src=""img/green-r.png"" border=""10"">","null","trial","32","","0.8,0.2","1:go_a","1",""
"null","","html-keyboard-response","98","1775202","0.0-4.0-2.19","","<div style=""font-size:60px;"">+</div>","null","","","","","","",""
"null","","image-keyboard-response","99","1776704","0.0-4.0-0.20","","img/orange.png","null","trial","null","true","0.2,0.8","2:nogo_b","",""
"null","","html-keyboard-response","100","1777705","0.0-4.0-1.20","","<img src=""img/orange-r.png"">","null","trial","null","","0.2,0.8","2:nogo_b","1",""
"null","","html-keyboard-response","101","1778707","0.0-4.0-2.20","","<div style=""font-size:60px;"">+</div>","null","","","","","","",""
"409.89999997615814","","image-keyboard-response","102","1779118","0.0-4.0-0.21","","img/green.png","32","trial","32","true","0.8,0.2","1:go_a","",""
"null","","html-keyboard-response","103","1780122","0.0-4.0-1.21","","<img src=""img/green-r.png"" border=""10"">","null","trial","32","","0.8,0.2","1:go_a","1",""
"null","","html-keyboard-response","104","1781125","0.0-4.0-2.21","","<div style=""font-size:60px;"">+</div>","null","","","","","","",""
"null","","image-keyboard-response","105","1782628","0.0-4.0-0.22","","img/orange.png","null","trial","null","true","0.2,0.8","2:nogo_b","",""
"null","","html-keyboard-response","106","1783630","0.0-4.0-1.22","","<img src=""img/orange-r.png"">","null","trial","null","","0.2,0.8","2:nogo_b","1",""
"null","","html-keyboard-response","107","1784631","0.0-4.0-2.22","","<div style=""font-size:60px;"">+</div>","null","","","","","","",""
"364.8000000715256","","image-keyboard-response","108","1784997","0.0-4.0-0.23","","img/green.png","32","trial","32","true","0.8,0.2","1:go_a","",""
"null","","html-keyboard-response","109","1786004","0.0-4.0-1.23","","<img src=""img/green-n.png"" border=""10"">","null","trial","32","","0.8,0.2","1:go_a","0",""
"null","","html-keyboard-response","110","1787005","0.0-4.0-2.23","","<div style=""font-size:60px;"">+</div>","null","","","","","","",""
"478","","image-keyboard-response","111","1787484","0.0-4.0-0.24","","img/green.png","32","trial","32","true","0.8,0.2","1:go_a","",""
"null","","html-keyboard-response","112","1788486","0.0-4.0-1.24","","<img src=""img/green-r.png"" border=""10"">","null","trial","32","","0.8,0.2","1:go_a","1",""
"null","","html-keyboard-response","113","1789487","0.0-4.0-2.24","","<div style=""font-size:60px;"">+</div>","null","","","","","","",""
"868","","image-keyboard-response","114","1790356","0.0-4.0-0.25","","img/orange.png","32","trial","null","false","0.2,0.8","2:nogo_b","",""
"null","","html-keyboard-response","115","1791358","0.0-4.0-1.25","","<img src=""img/orange-n.png"" border=""10"">","null","trial","null","","0.2,0.8","2:nogo_b","0",""
"null","","html-keyboard-response","116","1792359","0.0-4.0-2.25","","<div style=""font-size:60px;"">+</div>","null","","","","","","",""
"null","","image-keyboard-response","117","1793860","0.0-4.0-0.26","","img/orange.png","null","trial","null","true","0.2,0.8","2:nogo_b","",""
"null","","html-keyboard-response","118","1794861","0.0-4.0-1.26","","<img src=""img/orange-n.png"">","null","trial","null","","0.2,0.8","2:nogo_b","0",""
"null","","html-keyboard-response","119","1795862","0.0-4.0-2.26","","<div style=""font-size:60px;"">+</div>","null","","","","","","",""
"774.7999999523163","","image-keyboard-response","120","1796638","0.0-4.0-0.27","","img/green.png","32","trial","32","true","0.8,0.2","1:go_a","",""
"null","","html-keyboard-response","121","1797641","0.0-4.0-1.27","","<img src=""img/green-r.png"" border=""10"">","null","trial","32","","0.8,0.2","1:go_a","1",""
"null","","html-keyboard-response","122","1798643","0.0-4.0-2.27","","<div style=""font-size:60px;"">+</div>","null","","","","","","",""
"null","","image-keyboard-response","123","1800146","0.0-4.0-0.28","","img/orange.png","null","trial","null","true","0.2,0.8","2:nogo_b","",""
"null","","html-keyboard-response","124","1801147","0.0-4.0-1.28","","<img src=""img/orange-n.png"">","null","trial","null","","0.2,0.8","2:nogo_b","0",""
"null","","html-keyboard-response","125","1802149","0.0-4.0-2.28","","<div style=""font-size:60px;"">+</div>","null","","","","","","",""
"391.7999999523163","","image-keyboard-response","126","1802542","0.0-4.0-0.29","","img/green.png","32","trial","32","true","0.8,0.2","1:go_a","",""
"null","","html-keyboard-response","127","1803546","0.0-4.0-1.29","","<img src=""img/green-r.png"" border=""10"">","null","trial","32","","0.8,0.2","1:go_a","1",""
"null","","html-keyboard-response","128","1804548","0.0-4.0-2.29","","<div style=""font-size:60px;"">+</div>","null","","","","","","",""
"null","","image-keyboard-response","129","1806049","0.0-4.0-0.30","","img/orange.png","null","trial","null","true","0.2,0.8","2:nogo_b","",""
"null","","html-keyboard-response","130","1807053","0.0-4.0-1.30","","<img src=""img/orange-r.png"">","null","trial","null","","0.2,0.8","2:nogo_b","1",""
"null","","html-keyboard-response","131","1808054","0.0-4.0-2.30","","<div style=""font-size:60px;"">+</div>","null","","","","","","",""
"376.5","","image-keyboard-response","132","1808431","0.0-4.0-0.31","","img/green.png","32","trial","32","true","0.8,0.2","1:go_a","",""
"null","","html-keyboard-response","133","1809434","0.0-4.0-1.31","","<img src=""img/green-r.png"" border=""10"">","null","trial","32","","0.8,0.2","1:go_a","1",""
"null","","html-keyboard-response","134","1810436","0.0-4.0-2.31","","<div style=""font-size:60px;"">+</div>","null","","","","","","",""
"null","","image-keyboard-response","135","1811937","0.0-4.0-0.32","","img/orange.png","null","trial","null","true","0.2,0.8","2:nogo_b","",""
"null","","html-keyboard-response","136","1812940","0.0-4.0-1.32","","<img src=""img/orange-r.png"">","null","trial","null","","0.2,0.8","2:nogo_b","1",""
"null","","html-keyboard-response","137","1813948","0.0-4.0-2.32","","<div style=""font-size:60px;"">+</div>","null","","","","","","",""
"398.10000002384186","","image-keyboard-response","138","1814348","0.0-4.0-0.33","","img/green.png","32","trial","32","true","0.8,0.2","1:go_a","",""
"null","","html-keyboard-response","139","1815350","0.0-4.0-1.33","","<img src=""img/green-n.png"" border=""10"">","null","trial","32","","0.8,0.2","1:go_a","0",""
"null","","html-keyboard-response","140","1816351","0.0-4.0-2.33","","<div style=""font-size:60px;"">+</div>","null","","","","","","",""
"524.6000000238419","","image-keyboard-response","141","1816877","0.0-4.0-0.34","","img/green.png","32","trial","32","true","0.8,0.2","1:go_a","",""
"null","","html-keyboard-response","142","1817881","0.0-4.0-1.34","","<img src=""img/green-r.png"" border=""10"">","null","trial","32","","0.8,0.2","1:go_a","1",""
"null","","html-keyboard-response","143","1818882","0.0-4.0-2.34","","<div style=""font-size:60px;"">+</div>","null","","","","","","",""
"null","","image-keyboard-response","144","1820384","0.0-4.0-0.35","","img/orange.png","null","trial","null","true","0.2,0.8","2:nogo_b","",""
"null","","html-keyboard-response","145","1821386","0.0-4.0-1.35","","<img src=""img/orange-n.png"">","null","trial","null","","0.2,0.8","2:nogo_b","0",""
"null","","html-keyboard-response","146","1822387","0.0-4.0-2.35","","<div style=""font-size:60px;"">+</div>","null","","","","","","",""
"null","","image-keyboard-response","147","1823889","0.0-4.0-0.36","","img/orange.png","null","trial","null","true","0.2,0.8","2:nogo_b","",""
"null","","html-keyboard-response","148","1824891","0.0-4.0-1.36","","<img src=""img/orange-r.png"">","null","trial","null","","0.2,0.8","2:nogo_b","1",""
"null","","html-keyboard-response","149","1825893","0.0-4.0-2.36","","<div style=""font-size:60px;"">+</div>","null","","","","","","",""
"390.2999999523163","","image-keyboard-response","150","1826285","0.0-4.0-0.37","","img/green.png","32","trial","32","true","0.8,0.2","1:go_a","",""
"null","","html-keyboard-response","151","1827286","0.0-4.0-1.37","","<img src=""img/green-r.png"" border=""10"">","null","trial","32","","0.8,0.2","1:go_a","1",""
"null","","html-keyboard-response","152","1828288","0.0-4.0-2.37","","<div style=""font-size:60px;"">+</div>","null","","","","","","",""
"532.8000000715256","","image-keyboard-response","153","1828821","0.0-4.0-0.38","","img/green.png","32","trial","32","true","0.8,0.2","1:go_a","",""
"null","","html-keyboard-response","154","1829824","0.0-4.0-1.38","","<img src=""img/green-r.png"" border=""10"">","null","trial","32","","0.8,0.2","1:go_a","1",""
"null","","html-keyboard-response","155","1830828","0.0-4.0-2.38","","<div style=""font-size:60px;"">+</div>","null","","","","","","",""
"null","","image-keyboard-response","156","1832331","0.0-4.0-0.39","","img/orange.png","null","trial","null","true","0.2,0.8","2:nogo_b","",""
"null","","html-keyboard-response","157","1833332","0.0-4.0-1.39","","<img src=""img/orange-n.png"">","null","trial","null","","0.2,0.8","2:nogo_b","0",""
"null","","html-keyboard-response","158","1834334","0.0-4.0-2.39","","<div style=""font-size:60px;"">+</div>","null","","","","","","",""
"622.9000000953674","","image-keyboard-response","159","1834957","0.0-4.0-0.40","","img/green.png","32","trial","32","true","0.8,0.2","1:go_a","",""
"null","","html-keyboard-response","160","1835959","0.0-4.0-1.40","","<img src=""img/green-r.png"" border=""10"">","null","trial","32","","0.8,0.2","1:go_a","1",""
"null","","html-keyboard-response","161","1836960","0.0-4.0-2.40","","<div style=""font-size:60px;"">+</div>","null","","","","","","",""
"null","","image-keyboard-response","162","1838462","0.0-4.0-0.41","","img/orange.png","null","trial","null","true","0.2,0.8","2:nogo_b","",""
"null","","html-keyboard-response","163","1839478","0.0-4.0-1.41","","<img src=""img/orange-r.png"">","null","trial","null","","0.2,0.8","2:nogo_b","1",""
"null","","html-keyboard-response","164","1840480","0.0-4.0-2.41","","<div style=""font-size:60px;"">+</div>","null","","","","","","",""
"356.2000000476837","","image-keyboard-response","165","1840837","0.0-4.0-0.42","","img/green.png","32","trial","32","true","0.8,0.2","1:go_a","",""
"null","","html-keyboard-response","166","1841838","0.0-4.0-1.42","","<img src=""img/green-n.png"" border=""10"">","null","trial","32","","0.8,0.2","1:go_a","0",""
"null","","html-keyboard-response","167","1842840","0.0-4.0-2.42","","<div style=""font-size:60px;"">+</div>","null","","","","","","",""
"null","","image-keyboard-response","168","1844342","0.0-4.0-0.43","","img/orange.png","null","trial","null","true","0.2,0.8","2:nogo_b","",""
"null","","html-keyboard-response","169","1845344","0.0-4.0-1.43","","<img src=""img/orange-r.png"">","null","trial","null","","0.2,0.8","2:nogo_b","1",""
"null","","html-keyboard-response","170","1846345","0.0-4.0-2.43","","<div style=""font-size:60px;"">+</div>","null","","","","","","",""
"306.7999999523163","","image-keyboard-response","171","1846652","0.0-4.0-0.44","","img/green.png","32","trial","32","true","0.8,0.2","1:go_a","",""
"null","","html-keyboard-response","172","1847654","0.0-4.0-1.44","","<img src=""img/green-r.png"" border=""10"">","null","trial","32","","0.8,0.2","1:go_a","1",""
"null","","html-keyboard-response","173","1848655","0.0-4.0-2.44","","<div style=""font-size:60px;"">+</div>","null","","","","","","",""
"null","","image-keyboard-response","174","1850157","0.0-4.0-0.45","","img/orange.png","null","trial","null","true","0.2,0.8","2:nogo_b","",""
"null","","html-keyboard-response","175","1851159","0.0-4.0-1.45","","<img src=""img/orange-r.png"">","null","trial","null","","0.2,0.8","2:nogo_b","1",""
"null","","html-keyboard-response","176","1852160","0.0-4.0-2.45","","<div style=""font-size:60px;"">+</div>","null","","","","","","",""
"null","","image-keyboard-response","177","1853662","0.0-4.0-0.46","","img/orange.png","null","trial","null","true","0.2,0.8","2:nogo_b","",""
"null","","html-keyboard-response","178","1854672","0.0-4.0-1.46","","<img src=""img/orange-r.png"">","null","trial","null","","0.2,0.8","2:nogo_b","1",""
"null","","html-keyboard-response","179","1855672","0.0-4.0-2.46","","<div style=""font-size:60px;"">+</div>","null","","","","","","",""
"419.60000002384186","","image-keyboard-response","180","1856093","0.0-4.0-0.47","","img/green.png","32","trial","32","true","0.8,0.2","1:go_a","",""
"null","","html-keyboard-response","181","1857093","0.0-4.0-1.47","","<img src=""img/green-r.png"" border=""10"">","null","trial","32","","0.8,0.2","1:go_a","1",""
"null","","html-keyboard-response","182","1858095","0.0-4.0-2.47","","<div style=""font-size:60px;"">+</div>","null","","","","","","",""
"669","","image-keyboard-response","183","1858764","0.0-4.0-0.48","","img/green.png","32","trial","32","true","0.8,0.2","1:go_a","",""
"null","","html-keyboard-response","184","1859766","0.0-4.0-1.48","","<img src=""img/green-r.png"" border=""10"">","null","trial","32","","0.8,0.2","1:go_a","1",""
"null","","html-keyboard-response","185","1860768","0.0-4.0-2.48","","<div style=""font-size:60px;"">+</div>","null","","","","","","",""
"null","","image-keyboard-response","186","1862269","0.0-4.0-0.49","","img/orange.png","null","trial","null","true","0.2,0.8","2:nogo_b","",""
"null","","html-keyboard-response","187","1863271","0.0-4.0-1.49","","<img src=""img/orange-r.png"">","null","trial","null","","0.2,0.8","2:nogo_b","1",""
"null","","html-keyboard-response","188","1864272","0.0-4.0-2.49","","<div style=""font-size:60px;"">+</div>","null","","","","","","",""
"null","","image-keyboard-response","189","1865774","0.0-4.0-0.50","","img/orange.png","null","trial","null","true","0.2,0.8","2:nogo_b","",""
"null","","html-keyboard-response","190","1866777","0.0-4.0-1.50","","<img src=""img/orange-r.png"">","null","trial","null","","0.2,0.8","2:nogo_b","1",""
"null","","html-keyboard-response","191","1867778","0.0-4.0-2.50","","<div style=""font-size:60px;"">+</div>","null","","","","","","",""
"409.39999997615814","","image-keyboard-response","192","1868189","0.0-4.0-0.51","","img/green.png","32","trial","32","true","0.8,0.2","1:go_a","",""
"null","","html-keyboard-response","193","1869191","0.0-4.0-1.51","","<img src=""img/green-r.png"" border=""10"">","null","trial","32","","0.8,0.2","1:go_a","1",""
"null","","html-keyboard-response","194","1870192","0.0-4.0-2.51","","<div style=""font-size:60px;"">+</div>","null","","","","","","",""
"null","","image-keyboard-response","195","1871696","0.0-4.0-0.52","","img/green.png","null","trial","32","false","0.8,0.2","1:go_a","",""
"null","","html-keyboard-response","196","1872698","0.0-4.0-1.52","","<img src=""img/green-n.png"">","null","trial","32","","0.8,0.2","1:go_a","0",""
"null","","html-keyboard-response","197","1873700","0.0-4.0-2.52","","<div style=""font-size:60px;"">+</div>","null","","","","","","",""
"null","","image-keyboard-response","198","1875202","0.0-4.0-0.53","","img/orange.png","null","trial","null","true","0.2,0.8","2:nogo_b","",""
"null","","html-keyboard-response","199","1876205","0.0-4.0-1.53","","<img src=""img/orange-r.png"">","null","trial","null","","0.2,0.8","2:nogo_b","1",""
"null","","html-keyboard-response","200","1877207","0.0-4.0-2.53","","<div style=""font-size:60px;"">+</div>","null","","","","","","",""
"null","","image-keyboard-response","201","1878709","0.0-4.0-0.54","","img/orange.png","null","trial","null","true","0.2,0.8","2:nogo_b","",""
"null","","html-keyboard-response","202","1879711","0.0-4.0-1.54","","<img src=""img/orange-r.png"">","null","trial","null","","0.2,0.8","2:nogo_b","1",""
"null","","html-keyboard-response","203","1880712","0.0-4.0-2.54","","<div style=""font-size:60px;"">+</div>","null","","","","","","",""
"null","","image-keyboard-response","204","1882214","0.0-4.0-0.55","","img/green.png","null","trial","32","false","0.8,0.2","1:go_a","",""
"null","","html-keyboard-response","205","1883217","0.0-4.0-1.55","","<img src=""img/green-r.png"">","null","trial","32","","0.8,0.2","1:go_a","1",""
"null","","html-keyboard-response","206","1884218","0.0-4.0-2.55","","<div style=""font-size:60px;"">+</div>","null","","","","","","",""
"null","","image-keyboard-response","207","1885720","0.0-4.0-0.56","","img/orange.png","null","trial","null","true","0.2,0.8","2:nogo_b","",""
"null","","html-keyboard-response","208","1886722","0.0-4.0-1.56","","<img src=""img/orange-r.png"">","null","trial","null","","0.2,0.8","2:nogo_b","1",""
"null","","html-keyboard-response","209","1887723","0.0-4.0-2.56","","<div style=""font-size:60px;"">+</div>","null","","","","","","",""
"488.5","","image-keyboard-response","210","1888213","0.0-4.0-0.57","","img/green.png","32","trial","32","true","0.8,0.2","1:go_a","",""
"null","","html-keyboard-response","211","1889218","0.0-4.0-1.57","","<img src=""img/green-r.png"" border=""10"">","null","trial","32","","0.8,0.2","1:go_a","1",""
"null","","html-keyboard-response","212","1890219","0.0-4.0-2.57","","<div style=""font-size:60px;"">+</div>","null","","","","","","",""
"495.89999997615814","","image-keyboard-response","213","1890717","0.0-4.0-0.58","","img/green.png","32","trial","32","true","0.8,0.2","1:go_a","",""
"null","","html-keyboard-response","214","1891719","0.0-4.0-1.58","","<img src=""img/green-r.png"" border=""10"">","null","trial","32","","0.8,0.2","1:go_a","1",""
"null","","html-keyboard-response","215","1892720","0.0-4.0-2.58","","<div style=""font-size:60px;"">+</div>","null","","","","","","",""
"null","","image-keyboard-response","216","1894230","0.0-4.0-0.59","","img/orange.png","null","trial","null","true","0.2,0.8","2:nogo_b","",""
"null","","html-keyboard-response","217","1895233","0.0-4.0-1.59","","<img src=""img/orange-r.png"">","null","trial","null","","0.2,0.8","2:nogo_b","1",""
"null","","html-keyboard-response","218","1896241","0.0-4.0-2.59","","<div style=""font-size:60px;"">+</div>","null","","","","","","",""
"25226.399999976158","","instructions","219","1921468","0.0-5.0","[{""page_index"":0,""viewing_time"":25226.299999952316}]","","","","","","","","",""
"806.6000000238419","","image-keyboard-response","220","1922276","0.0-6.0-0.0","","img/pink.png","32","trial","null","false","0.2,0.8","4:nogo_d","",""
"null","","html-keyboard-response","221","1923278","0.0-6.0-1.0","","<img src=""img/pink-n.png"" border=""10"">","null","trial","null","","0.2,0.8","4:nogo_d","0",""
"null","","html-keyboard-response","222","1924279","0.0-6.0-2.0","","<div style=""font-size:60px;"">+</div>","null","","","","","","",""
"571.7000000476837","","image-keyboard-response","223","1924852","0.0-6.0-0.1","","img/purple.png","32","trial","null","false","0.2,0.8","2:nogo_b","",""
"null","","html-keyboard-response","224","1925854","0.0-6.0-1.1","","<img src=""img/purple-n.png"" border=""10"">","null","trial","null","","0.2,0.8","2:nogo_b","0",""
"null","","html-keyboard-response","225","1926855","0.0-6.0-2.1","","<div style=""font-size:60px;"">+</div>","null","","","","","","",""
"620.4000000953674","","image-keyboard-response","226","1927476","0.0-6.0-0.2","","img/red.png","32","trial","32","true","0.8,0.2","3:go_c","",""
"null","","html-keyboard-response","227","1928479","0.0-6.0-1.2","","<img src=""img/red-r.png"" border=""10"">","null","trial","32","","0.8,0.2","3:go_c","1",""
"null","","html-keyboard-response","228","1929479","0.0-6.0-2.2","","<div style=""font-size:60px;"">+</div>","null","","","","","","",""
"null","","image-keyboard-response","229","1930982","0.0-6.0-0.3","","img/grey.png","null","trial","32","false","0.8,0.2","1:go_a","",""
"null","","html-keyboard-response","230","1931983","0.0-6.0-1.3","","<img src=""img/grey-n.png"">","null","trial","32","","0.8,0.2","1:go_a","0",""
"null","","html-keyboard-response","231","1932985","0.0-6.0-2.3","","<div style=""font-size:60px;"">+</div>","null","","","","","","",""
"610.6999999284744","","image-keyboard-response","232","1933597","0.0-6.0-0.4","","img/red.png","32","trial","32","true","0.8,0.2","3:go_c","",""
"null","","html-keyboard-response","233","1934599","0.0-6.0-1.4","","<img src=""img/red-r.png"" border=""10"">","null","trial","32","","0.8,0.2","3:go_c","1",""
"null","","html-keyboard-response","234","1935600","0.0-6.0-2.4","","<div style=""font-size:60px;"">+</div>","null","","","","","","",""
"null","","image-keyboard-response","235","1937102","0.0-6.0-0.5","","img/pink.png","null","trial","null","true","0.2,0.8","4:nogo_d","",""
"null","","html-keyboard-response","236","1938103","0.0-6.0-1.5","","<img src=""img/pink-r.png"">","null","trial","null","","0.2,0.8","4:nogo_d","1",""
"null","","html-keyboard-response","237","1939116","0.0-6.0-2.5","","<div style=""font-size:60px;"">+</div>","null","","","","","","",""
"null","","image-keyboard-response","238","1940618","0.0-6.0-0.6","","img/purple.png","null","trial","null","true","0.2,0.8","2:nogo_b","",""
"null","","html-keyboard-response","239","1941620","0.0-6.0-1.6","","<img src=""img/purple-r.png"">","null","trial","null","","0.2,0.8","2:nogo_b","1",""
"null","","html-keyboard-response","240","1942621","0.0-6.0-2.6","","<div style=""font-size:60px;"">+</div>","null","","","","","","",""
"null","","image-keyboard-response","241","1944123","0.0-6.0-0.7","","img/grey.png","null","trial","32","false","0.8,0.2","1:go_a","",""
"null","","html-keyboard-response","242","1945127","0.0-6.0-1.7","","<img src=""img/grey-r.png"">","null","trial","32","","0.8,0.2","1:go_a","1",""
"null","","html-keyboard-response","243","1946128","0.0-6.0-2.7","","<div style=""font-size:60px;"">+</div>","null","","","","","","",""
"556.1000000238419","","image-keyboard-response","244","1946686","0.0-6.0-0.8","","img/red.png","32","trial","32","true","0.8,0.2","3:go_c","",""
"null","","html-keyboard-response","245","1947690","0.0-6.0-1.8","","<img src=""img/red-r.png"" border=""10"">","null","trial","32","","0.8,0.2","3:go_c","1",""
"null","","html-keyboard-response","246","1948692","0.0-6.0-2.8","","<div style=""font-size:60px;"">+</div>","null","","","","","","",""
"null","","image-keyboard-response","247","1950193","0.0-6.0-0.9","","img/pink.png","null","trial","null","true","0.2,0.8","4:nogo_d","",""
"null","","html-keyboard-response","248","1951196","0.0-6.0-1.9","","<img src=""img/pink-r.png"">","null","trial","null","","0.2,0.8","4:nogo_d","1",""
"null","","html-keyboard-response","249","1952198","0.0-6.0-2.9","","<div style=""font-size:60px;"">+</div>","null","","","","","","",""
"null","","image-keyboard-response","250","1953700","0.0-6.0-0.10","","img/grey.png","null","trial","32","false","0.8,0.2","1:go_a","",""
"null","","html-keyboard-response","251","1954701","0.0-6.0-1.10","","<img src=""img/grey-n.png"">","null","trial","32","","0.8,0.2","1:go_a","0",""
"null","","html-keyboard-response","252","1955702","0.0-6.0-2.10","","<div style=""font-size:60px;"">+</div>","null","","","","","","",""
"null","","image-keyboard-response","253","1957203","0.0-6.0-0.11","","img/purple.png","null","trial","null","true","0.2,0.8","2:nogo_b","",""
"null","","html-keyboard-response","254","1958206","0.0-6.0-1.11","","<img src=""img/purple-r.png"">","null","trial","null","","0.2,0.8","2:nogo_b","1",""
"null","","html-keyboard-response","255","1959208","0.0-6.0-2.11","","<div style=""font-size:60px;"">+</div>","null","","","","","","",""
"null","","image-keyboard-response","256","1960710","0.0-6.0-0.12","","img/purple.png","null","trial","null","true","0.2,0.8","2:nogo_b","",""
"null","","html-keyboard-response","257","1961725","0.0-6.0-1.12","","<img src=""img/purple-n.png"">","null","trial","null","","0.2,0.8","2:nogo_b","0",""
"null","","html-keyboard-response","258","1962726","0.0-6.0-2.12","","<div style=""font-size:60px;"">+</div>","null","","","","","","",""
"null","","image-keyboard-response","259","1964228","0.0-6.0-0.13","","img/pink.png","null","trial","null","true","0.2,0.8","4:nogo_d","",""
"null","","html-keyboard-response","260","1965232","0.0-6.0-1.13","","<img src=""img/pink-r.png"">","null","trial","null","","0.2,0.8","4:nogo_d","1",""
"null","","html-keyboard-response","261","1966233","0.0-6.0-2.13","","<div style=""font-size:60px;"">+</div>","null","","","","","","",""
"490.2999999523163","","image-keyboard-response","262","1966724","0.0-6.0-0.14","","img/red.png","32","trial","32","true","0.8,0.2","3:go_c","",""
"null","","html-keyboard-response","263","1967725","0.0-6.0-1.14","","<img src=""img/red-n.png"" border=""10"">","null","trial","32","","0.8,0.2","3:go_c","0",""
"null","","html-keyboard-response","264","1968727","0.0-6.0-2.14","","<div style=""font-size:60px;"">+</div>","null","","","","","","",""
"492.60000002384186","","image-keyboard-response","265","1969220","0.0-6.0-0.15","","img/grey.png","32","trial","32","true","0.8,0.2","1:go_a","",""
"null","","html-keyboard-response","266","1970224","0.0-6.0-1.15","","<img src=""img/grey-n.png"" border=""10"">","null","trial","32","","0.8,0.2","1:go_a","0",""
"null","","html-keyboard-response","267","1971225","0.0-6.0-2.15","","<div style=""font-size:60px;"">+</div>","null","","","","","","",""
"770.6999999284744","","image-keyboard-response","268","1971997","0.0-6.0-0.16","","img/red.png","32","trial","32","true","0.8,0.2","3:go_c","",""
"null","","html-keyboard-response","269","1973000","0.0-6.0-1.16","","<img src=""img/red-n.png"" border=""10"">","null","trial","32","","0.8,0.2","3:go_c","0",""
"null","","html-keyboard-response","270","1974001","0.0-6.0-2.16","","<div style=""font-size:60px;"">+</div>","null","","","","","","",""
"946","","image-keyboard-response","271","1974948","0.0-6.0-0.17","","img/pink.png","32","trial","null","false","0.2,0.8","4:nogo_d","",""
"null","","html-keyboard-response","272","1975951","0.0-6.0-1.17","","<img src=""img/pink-n.png"" border=""10"">","null","trial","null","","0.2,0.8","4:nogo_d","0",""
"null","","html-keyboard-response","273","1976953","0.0-6.0-2.17","","<div style=""font-size:60px;"">+</div>","null","","","","","","",""
"726.1000000238419","","image-keyboard-response","274","1977679","0.0-6.0-0.18","","img/grey.png","32","trial","32","true","0.8,0.2","1:go_a","",""
"null","","html-keyboard-response","275","1978682","0.0-6.0-1.18","","<img src=""img/grey-r.png"" border=""10"">","null","trial","32","","0.8,0.2","1:go_a","1",""
"null","","html-keyboard-response","276","1979684","0.0-6.0-2.18","","<div style=""font-size:60px;"">+</div>","null","","","","","","",""
"1016.5","","image-keyboard-response","277","1980701","0.0-6.0-0.19","","img/purple.png","32","trial","null","false","0.2,0.8","2:nogo_b","",""
"null","","html-keyboard-response","278","1981703","0.0-6.0-1.19","","<img src=""img/purple-n.png"" border=""10"">","null","trial","null","","0.2,0.8","2:nogo_b","0",""
"null","","html-keyboard-response","279","1982704","0.0-6.0-2.19","","<div style=""font-size:60px;"">+</div>","null","","","","","","",""
"null","","image-keyboard-response","280","1984206","0.0-6.0-0.20","","img/purple.png","null","trial","null","true","0.2,0.8","2:nogo_b","",""
"null","","html-keyboard-response","281","1985210","0.0-6.0-1.20","","<img src=""img/purple-r.png"">","null","trial","null","","0.2,0.8","2:nogo_b","1",""
"null","","html-keyboard-response","282","1986212","0.0-6.0-2.20","","<div style=""font-size:60px;"">+</div>","null","","","","","","",""
"440","","image-keyboard-response","283","1986653","0.0-6.0-0.21","","img/grey.png","32","trial","32","true","0.8,0.2","1:go_a","",""
"null","","html-keyboard-response","284","1987665","0.0-6.0-1.21","","<img src=""img/grey-r.png"" border=""10"">","null","trial","32","","0.8,0.2","1:go_a","1",""
"null","","html-keyboard-response","285","1988669","0.0-6.0-2.21","","<div style=""font-size:60px;"">+</div>","null","","","","","","",""
"null","","image-keyboard-response","286","1990170","0.0-6.0-0.22","","img/pink.png","null","trial","null","true","0.2,0.8","4:nogo_d","",""
"null","","html-keyboard-response","287","1991172","0.0-6.0-1.22","","<img src=""img/pink-n.png"">","null","trial","null","","0.2,0.8","4:nogo_d","0",""
"null","","html-keyboard-response","288","1992173","0.0-6.0-2.22","","<div style=""font-size:60px;"">+</div>","null","","","","","","",""
"null","","image-keyboard-response","289","1993675","0.0-6.0-0.23","","img/red.png","null","trial","32","false","0.8,0.2","3:go_c","",""
"null","","html-keyboard-response","290","1994677","0.0-6.0-1.23","","<img src=""img/red-n.png"">","null","trial","32","","0.8,0.2","3:go_c","0",""
"null","","html-keyboard-response","291","1995688","0.0-6.0-2.23","","<div style=""font-size:60px;"">+</div>","null","","","","","","",""
"null","","image-keyboard-response","292","1997190","0.0-6.0-0.24","","img/pink.png","null","trial","null","true","0.2,0.8","4:nogo_d","",""
"null","","html-keyboard-response","293","1998192","0.0-6.0-1.24","","<img src=""img/pink-r.png"">","null","trial","null","","0.2,0.8","4:nogo_d","1",""
"null","","html-keyboard-response","294","1999193","0.0-6.0-2.24","","<div style=""font-size:60px;"">+</div>","null","","","","","","",""
"729.6999999284744","","image-keyboard-response","295","1999924","0.0-6.0-0.25","","img/red.png","32","trial","32","true","0.8,0.2","3:go_c","",""
"null","","html-keyboard-response","296","2000926","0.0-6.0-1.25","","<img src=""img/red-r.png"" border=""10"">","null","trial","32","","0.8,0.2","3:go_c","1",""
"null","","html-keyboard-response","297","2001928","0.0-6.0-2.25","","<div style=""font-size:60px;"">+</div>","null","","","","","","",""
"1164","","image-keyboard-response","298","2003093","0.0-6.0-0.26","","img/purple.png","32","trial","null","false","0.2,0.8","2:nogo_b","",""
"null","","html-keyboard-response","299","2004096","0.0-6.0-1.26","","<img src=""img/purple-n.png"" border=""10"">","null","trial","null","","0.2,0.8","2:nogo_b","0",""
"null","","html-keyboard-response","300","2005098","0.0-6.0-2.26","","<div style=""font-size:60px;"">+</div>","null","","","","","","",""
"698.5","","image-keyboard-response","301","2005797","0.0-6.0-0.27","","img/grey.png","32","trial","32","true","0.8,0.2","1:go_a","",""
"null","","html-keyboard-response","302","2006800","0.0-6.0-1.27","","<img src=""img/grey-r.png"" border=""10"">","null","trial","32","","0.8,0.2","1:go_a","1",""
"null","","html-keyboard-response","303","2007802","0.0-6.0-2.27","","<div style=""font-size:60px;"">+</div>","null","","","","","","",""
"null","","image-keyboard-response","304","2009304","0.0-6.0-0.28","","img/purple.png","null","trial","null","true","0.2,0.8","2:nogo_b","",""
"null","","html-keyboard-response","305","2010305","0.0-6.0-1.28","","<img src=""img/purple-r.png"">","null","trial","null","","0.2,0.8","2:nogo_b","1",""
"null","","html-keyboard-response","306","2011306","0.0-6.0-2.28","","<div style=""font-size:60px;"">+</div>","null","","","","","","",""
"433.60000002384186","","image-keyboard-response","307","2011740","0.0-6.0-0.29","","img/red.png","32","trial","32","true","0.8,0.2","3:go_c","",""
"null","","html-keyboard-response","308","2012742","0.0-6.0-1.29","","<img src=""img/red-r.png"" border=""10"">","null","trial","32","","0.8,0.2","3:go_c","1",""
"null","","html-keyboard-response","309","2013744","0.0-6.0-2.29","","<div style=""font-size:60px;"">+</div>","null","","","","","","",""
"548.7999999523163","","image-keyboard-response","310","2014294","0.0-6.0-0.30","","img/grey.png","32","trial","32","true","0.8,0.2","1:go_a","",""
"null","","html-keyboard-response","311","2015298","0.0-6.0-1.30","","<img src=""img/grey-r.png"" border=""10"">","null","trial","32","","0.8,0.2","1:go_a","1",""
"null","","html-keyboard-response","312","2016299","0.0-6.0-2.30","","<div style=""font-size:60px;"">+</div>","null","","","","","","",""
"null","","image-keyboard-response","313","2017801","0.0-6.0-0.31","","img/pink.png","null","trial","null","true","0.2,0.8","4:nogo_d","",""
"null","","html-keyboard-response","314","2018814","0.0-6.0-1.31","","<img src=""img/pink-r.png"">","null","trial","null","","0.2,0.8","4:nogo_d","1",""
"null","","html-keyboard-response","315","2019815","0.0-6.0-2.31","","<div style=""font-size:60px;"">+</div>","null","","","","","","",""
"603.8000000715256","","image-keyboard-response","316","2020420","0.0-6.0-0.32","","img/grey.png","32","trial","32","true","0.8,0.2","1:go_a","",""
"null","","html-keyboard-response","317","2021422","0.0-6.0-1.32","","<img src=""img/grey-r.png"" border=""10"">","null","trial","32","","0.8,0.2","1:go_a","1",""
"null","","html-keyboard-response","318","2022424","0.0-6.0-2.32","","<div style=""font-size:60px;"">+</div>","null","","","","","","",""
"null","","image-keyboard-response","319","2023925","0.0-6.0-0.33","","img/purple.png","null","trial","null","true","0.2,0.8","2:nogo_b","",""
"null","","html-keyboard-response","320","2024929","0.0-6.0-1.33","","<img src=""img/purple-n.png"">","null","trial","null","","0.2,0.8","2:nogo_b","0",""
"null","","html-keyboard-response","321","2025930","0.0-6.0-2.33","","<div style=""font-size:60px;"">+</div>","null","","","","","","",""
"513.2999999523163","","image-keyboard-response","322","2026444","0.0-6.0-0.34","","img/red.png","32","trial","32","true","0.8,0.2","3:go_c","",""
"null","","html-keyboard-response","323","2027446","0.0-6.0-1.34","","<img src=""img/red-r.png"" border=""10"">","null","trial","32","","0.8,0.2","3:go_c","1",""
"null","","html-keyboard-response","324","2028448","0.0-6.0-2.34","","<div style=""font-size:60px;"">+</div>","null","","","","","","",""
"null","","image-keyboard-response","325","2029955","0.0-6.0-0.35","","img/pink.png","null","trial","null","true","0.2,0.8","4:nogo_d","",""
"null","","html-keyboard-response","326","2030957","0.0-6.0-1.35","","<img src=""img/pink-r.png"">","null","trial","null","","0.2,0.8","4:nogo_d","1",""
"null","","html-keyboard-response","327","2031958","0.0-6.0-2.35","","<div style=""font-size:60px;"">+</div>","null","","","","","","",""
"494.2999999523163","","image-keyboard-response","328","2032453","0.0-6.0-0.36","","img/red.png","32","trial","32","true","0.8,0.2","3:go_c","",""
"null","","html-keyboard-response","329","2033455","0.0-6.0-1.36","","<img src=""img/red-r.png"" border=""10"">","null","trial","32","","0.8,0.2","3:go_c","1",""
"null","","html-keyboard-response","330","2034456","0.0-6.0-2.36","","<div style=""font-size:60px;"">+</div>","null","","","","","","",""
"643.3999999761581","","image-keyboard-response","331","2035101","0.0-6.0-0.37","","img/grey.png","32","trial","32","true","0.8,0.2","1:go_a","",""
"null","","html-keyboard-response","332","2036103","0.0-6.0-1.37","","<img src=""img/grey-n.png"" border=""10"">","null","trial","32","","0.8,0.2","1:go_a","0",""
"null","","html-keyboard-response","333","2037104","0.0-6.0-2.37","","<div style=""font-size:60px;"">+</div>","null","","","","","","",""
"null","","image-keyboard-response","334","2038606","0.0-6.0-0.38","","img/pink.png","null","trial","null","true","0.2,0.8","4:nogo_d","",""
"null","","html-keyboard-response","335","2039612","0.0-6.0-1.38","","<img src=""img/pink-r.png"">","null","trial","null","","0.2,0.8","4:nogo_d","1",""
"null","","html-keyboard-response","336","2040614","0.0-6.0-2.38","","<div style=""font-size:60px;"">+</div>","null","","","","","","",""
"null","","image-keyboard-response","337","2042115","0.0-6.0-0.39","","img/purple.png","null","trial","null","true","0.2,0.8","2:nogo_b","",""
"null","","html-keyboard-response","338","2043118","0.0-6.0-1.39","","<img src=""img/purple-r.png"">","null","trial","null","","0.2,0.8","2:nogo_b","1",""
"null","","html-keyboard-response","339","2044130","0.0-6.0-2.39","","<div style=""font-size:60px;"">+</div>","null","","","","","","",""
"null","","image-keyboard-response","340","2045631","0.0-6.0-0.40","","img/grey.png","null","trial","32","false","0.8,0.2","1:go_a","",""
"null","","html-keyboard-response","341","2046634","0.0-6.0-1.40","","<img src=""img/grey-n.png"">","null","trial","32","","0.8,0.2","1:go_a","0",""
"null","","html-keyboard-response","342","2047636","0.0-6.0-2.40","","<div style=""font-size:60px;"">+</div>","null","","","","","","",""
"null","","image-keyboard-response","343","2049138","0.0-6.0-0.41","","img/pink.png","null","trial","null","true","0.2,0.8","4:nogo_d","",""
"null","","html-keyboard-response","344","2050139","0.0-6.0-1.41","","<img src=""img/pink-r.png"">","null","trial","null","","0.2,0.8","4:nogo_d","1",""
"null","","html-keyboard-response","345","2051141","0.0-6.0-2.41","","<div style=""font-size:60px;"">+</div>","null","","","","","","",""
"382.10000002384186","","image-keyboard-response","346","2051524","0.0-6.0-0.42","","img/red.png","32","trial","32","true","0.8,0.2","3:go_c","",""
"null","","html-keyboard-response","347","2052526","0.0-6.0-1.42","","<img src=""img/red-n.png"" border=""10"">","null","trial","32","","0.8,0.2","3:go_c","0",""
"null","","html-keyboard-response","348","2053528","0.0-6.0-2.42","","<div style=""font-size:60px;"">+</div>","null","","","","","","",""
"null","","image-keyboard-response","349","2055029","0.0-6.0-0.43","","img/purple.png","null","trial","null","true","0.2,0.8","2:nogo_b","",""
"null","","html-keyboard-response","350","2056042","0.0-6.0-1.43","","<img src=""img/purple-n.png"">","null","trial","null","","0.2,0.8","2:nogo_b","0",""
"null","","html-keyboard-response","351","2057043","0.0-6.0-2.43","","<div style=""font-size:60px;"">+</div>","null","","","","","","",""
"448.7000000476837","","image-keyboard-response","352","2057492","0.0-6.0-0.44","","img/red.png","32","trial","32","true","0.8,0.2","3:go_c","",""
"null","","html-keyboard-response","353","2058494","0.0-6.0-1.44","","<img src=""img/red-n.png"" border=""10"">","null","trial","32","","0.8,0.2","3:go_c","0",""
"null","","html-keyboard-response","354","2059496","0.0-6.0-2.44","","<div style=""font-size:60px;"">+</div>","null","","","","","","",""
"587.1999999284744","","image-keyboard-response","355","2060083","0.0-6.0-0.45","","img/grey.png","32","trial","32","true","0.8,0.2","1:go_a","",""
"null","","html-keyboard-response","356","2061086","0.0-6.0-1.45","","<img src=""img/grey-r.png"" border=""10"">","null","trial","32","","0.8,0.2","1:go_a","1",""
"null","","html-keyboard-response","357","2062086","0.0-6.0-2.45","","<div style=""font-size:60px;"">+</div>","null","","","","","","",""
"428.7999999523163","","image-keyboard-response","358","2062516","0.0-6.0-0.46","","img/purple.png","32","trial","null","false","0.2,0.8","2:nogo_b","",""
"null","","html-keyboard-response","359","2063518","0.0-6.0-1.46","","<img src=""img/purple-n.png"" border=""10"">","null","trial","null","","0.2,0.8","2:nogo_b","0",""
"null","","html-keyboard-response","360","2064520","0.0-6.0-2.46","","<div style=""font-size:60px;"">+</div>","null","","","","","","",""
"779.7000000476837","","image-keyboard-response","361","2065300","0.0-6.0-0.47","","img/pink.png","32","trial","null","false","0.2,0.8","4:nogo_d","",""
"null","","html-keyboard-response","362","2066303","0.0-6.0-1.47","","<img src=""img/pink-n.png"" border=""10"">","null","trial","null","","0.2,0.8","4:nogo_d","0",""
"null","","html-keyboard-response","363","2067305","0.0-6.0-2.47","","<div style=""font-size:60px;"">+</div>","null","","","","","","",""
"null","","image-keyboard-response","364","2068807","0.0-6.0-0.48","","img/pink.png","null","trial","null","true","0.2,0.8","4:nogo_d","",""
"null","","html-keyboard-response","365","2069809","0.0-6.0-1.48","","<img src=""img/pink-n.png"">","null","trial","null","","0.2,0.8","4:nogo_d","0",""
"null","","html-keyboard-response","366","2070811","0.0-6.0-2.48","","<div style=""font-size:60px;"">+</div>","null","","","","","","",""
"843.3999999761581","","image-keyboard-response","367","2071655","0.0-6.0-0.49","","img/purple.png","32","trial","null","false","0.2,0.8","2:nogo_b","",""
"null","","html-keyboard-response","368","2072663","0.0-6.0-1.49","","<img src=""img/purple-r.png"" border=""10"">","null","trial","null","","0.2,0.8","2:nogo_b","1",""
"null","","html-keyboard-response","369","2073674","0.0-6.0-2.49","","<div style=""font-size:60px;"">+</div>","null","","","","","","",""
"617.3000000715256","","image-keyboard-response","370","2074292","0.0-6.0-0.50","","img/grey.png","32","trial","32","true","0.8,0.2","1:go_a","",""
"null","","html-keyboard-response","371","2075295","0.0-6.0-1.50","","<img src=""img/grey-n.png"" border=""10"">","null","trial","32","","0.8,0.2","1:go_a","0",""
"null","","html-keyboard-response","372","2076296","0.0-6.0-2.50","","<div style=""font-size:60px;"">+</div>","null","","","","","","",""
"null","","image-keyboard-response","373","2077797","0.0-6.0-0.51","","img/red.png","null","trial","32","false","0.8,0.2","3:go_c","",""
"null","","html-keyboard-response","374","2078799","0.0-6.0-1.51","","<img src=""img/red-n.png"">","null","trial","32","","0.8,0.2","3:go_c","0",""
"null","","html-keyboard-response","375","2079801","0.0-6.0-2.51","","<div style=""font-size:60px;"">+</div>","null","","","","","","",""
"null","","image-keyboard-response","376","2081302","0.0-6.0-0.52","","img/pink.png","null","trial","null","true","0.2,0.8","4:nogo_d","",""
"null","","html-keyboard-response","377","2082304","0.0-6.0-1.52","","<img src=""img/pink-n.png"">","null","trial","null","","0.2,0.8","4:nogo_d","0",""
"null","","html-keyboard-response","378","2083306","0.0-6.0-2.52","","<div style=""font-size:60px;"">+</div>","null","","","","","","",""
"720.7000000476837","","image-keyboard-response","379","2084028","0.0-6.0-0.53","","img/grey.png","32","trial","32","true","0.8,0.2","1:go_a","",""
"null","","html-keyboard-response","380","2085030","0.0-6.0-1.53","","<img src=""img/grey-r.png"" border=""10"">","null","trial","32","","0.8,0.2","1:go_a","1",""
"null","","html-keyboard-response","381","2086031","0.0-6.0-2.53","","<div style=""font-size:60px;"">+</div>","null","","","","","","",""
"675.8999999761581","","image-keyboard-response","382","2086708","0.0-6.0-0.54","","img/purple.png","32","trial","null","false","0.2,0.8","2:nogo_b","",""
"null","","html-keyboard-response","383","2087710","0.0-6.0-1.54","","<img src=""img/purple-n.png"" border=""10"">","null","trial","null","","0.2,0.8","2:nogo_b","0",""
"null","","html-keyboard-response","384","2088712","0.0-6.0-2.54","","<div style=""font-size:60px;"">+</div>","null","","","","","","",""
"971.8000000715256","","image-keyboard-response","385","2089685","0.0-6.0-0.55","","img/red.png","32","trial","32","true","0.8,0.2","3:go_c","",""
"null","","html-keyboard-response","386","2090694","0.0-6.0-1.55","","<img src=""img/red-r.png"" border=""10"">","null","trial","32","","0.8,0.2","3:go_c","1",""
"null","","html-keyboard-response","387","2091696","0.0-6.0-2.55","","<div style=""font-size:60px;"">+</div>","null","","","","","","",""
"null","","image-keyboard-response","388","2093198","0.0-6.0-0.56","","img/red.png","null","trial","32","false","0.8,0.2","3:go_c","",""
"null","","html-keyboard-response","389","2094200","0.0-6.0-1.56","","<img src=""img/red-r.png"">","null","trial","32","","0.8,0.2","3:go_c","1",""
"null","","html-keyboard-response","390","2095201","0.0-6.0-2.56","","<div style=""font-size:60px;"">+</div>","null","","","","","","",""
"null","","image-keyboard-response","391","2096702","0.0-6.0-0.57","","img/pink.png","null","trial","null","true","0.2,0.8","4:nogo_d","",""
"null","","html-keyboard-response","392","2097704","0.0-6.0-1.57","","<img src=""img/pink-r.png"">","null","trial","null","","0.2,0.8","4:nogo_d","1",""
"null","","html-keyboard-response","393","2098706","0.0-6.0-2.57","","<div style=""font-size:60px;"">+</div>","null","","","","","","",""
"658.2999999523163","","image-keyboard-response","394","2099366","0.0-6.0-0.58","","img/grey.png","32","trial","32","true","0.8,0.2","1:go_a","",""
"null","","html-keyboard-response","395","2100370","0.0-6.0-1.58","","<img src=""img/grey-r.png"" border=""10"">","null","trial","32","","0.8,0.2","1:go_a","1",""
"null","","html-keyboard-response","396","2101371","0.0-6.0-2.58","","<div style=""font-size:60px;"">+</div>","null","","","","","","",""
"null","","image-keyboard-response","397","2102873","0.0-6.0-0.59","","img/purple.png","null","trial","null","true","0.2,0.8","2:nogo_b","",""
"null","","html-keyboard-response","398","2103875","0.0-6.0-1.59","","<img src=""img/purple-r.png"">","null","trial","null","","0.2,0.8","2:nogo_b","1",""
"null","","html-keyboard-response","399","2104877","0.0-6.0-2.59","","<div style=""font-size:60px;"">+</div>","null","","","","","","",""
"null","","image-keyboard-response","400","2106379","0.0-6.0-0.60","","img/purple.png","null","trial","null","true","0.2,0.8","2:nogo_b","",""
"null","","html-keyboard-response","401","2107381","0.0-6.0-1.60","","<img src=""img/purple-r.png"">","null","trial","null","","0.2,0.8","2:nogo_b","1",""
"null","","html-keyboard-response","402","2108382","0.0-6.0-2.60","","<div style=""font-size:60px;"">+</div>","null","","","","","","",""
"652.3000000715256","","image-keyboard-response","403","2109036","0.0-6.0-0.61","","img/red.png","32","trial","32","true","0.8,0.2","3:go_c","",""
"null","","html-keyboard-response","404","2110038","0.0-6.0-1.61","","<img src=""img/red-r.png"" border=""10"">","null","trial","32","","0.8,0.2","3:go_c","1",""
"null","","html-keyboard-response","405","2111040","0.0-6.0-2.61","","<div style=""font-size:60px;"">+</div>","null","","","","","","",""
"null","","image-keyboard-response","406","2112542","0.0-6.0-0.62","","img/grey.png","null","trial","32","false","0.8,0.2","1:go_a","",""
"null","","html-keyboard-response","407","2113544","0.0-6.0-1.62","","<img src=""img/grey-n.png"">","null","trial","32","","0.8,0.2","1:go_a","0",""
"null","","html-keyboard-response","408","2114546","0.0-6.0-2.62","","<div style=""font-size:60px;"">+</div>","null","","","","","","",""
"null","","image-keyboard-response","409","2116048","0.0-6.0-0.63","","img/pink.png","null","trial","null","true","0.2,0.8","4:nogo_d","",""
"null","","html-keyboard-response","410","2117050","0.0-6.0-1.63","","<img src=""img/pink-r.png"">","null","trial","null","","0.2,0.8","4:nogo_d","1",""
"null","","html-keyboard-response","411","2118053","0.0-6.0-2.63","","<div style=""font-size:60px;"">+</div>","null","","","","","","",""
"null","","image-keyboard-response","412","2119554","0.0-6.0-0.64","","img/purple.png","null","trial","null","true","0.2,0.8","2:nogo_b","",""
"null","","html-keyboard-response","413","2120556","0.0-6.0-1.64","","<img src=""img/purple-r.png"">","null","trial","null","","0.2,0.8","2:nogo_b","1",""
"null","","html-keyboard-response","414","2121558","0.0-6.0-2.64","","<div style=""font-size:60px;"">+</div>","null","","","","","","",""
"918.3000000715256","","image-keyboard-response","415","2122477","0.0-6.0-0.65","","img/pink.png","32","trial","null","false","0.2,0.8","4:nogo_d","",""
"null","","html-keyboard-response","416","2123479","0.0-6.0-1.65","","<img src=""img/pink-r.png"" border=""10"">","null","trial","null","","0.2,0.8","4:nogo_d","1",""
"null","","html-keyboard-response","417","2124480","0.0-6.0-2.65","","<div style=""font-size:60px;"">+</div>","null","","","","","","",""
"null","","image-keyboard-response","418","2125982","0.0-6.0-0.66","","img/grey.png","null","trial","32","false","0.8,0.2","1:go_a","",""
"null","","html-keyboard-response","419","2126984","0.0-6.0-1.66","","<img src=""img/grey-r.png"">","null","trial","32","","0.8,0.2","1:go_a","1",""
"null","","html-keyboard-response","420","2127985","0.0-6.0-2.66","","<div style=""font-size:60px;"">+</div>","null","","","","","","",""
"null","","image-keyboard-response","421","2129486","0.0-6.0-0.67","","img/red.png","null","trial","32","false","0.8,0.2","3:go_c","",""
"null","","html-keyboard-response","422","2130488","0.0-6.0-1.67","","<img src=""img/red-n.png"">","null","trial","32","","0.8,0.2","3:go_c","0",""
"null","","html-keyboard-response","423","2131490","0.0-6.0-2.67","","<div style=""font-size:60px;"">+</div>","null","","","","","","",""
"null","","image-keyboard-response","424","2132991","0.0-6.0-0.68","","img/purple.png","null","trial","null","true","0.2,0.8","2:nogo_b","",""
"null","","html-keyboard-response","425","2133993","0.0-6.0-1.68","","<img src=""img/purple-n.png"">","null","trial","null","","0.2,0.8","2:nogo_b","0",""
"null","","html-keyboard-response","426","2134994","0.0-6.0-2.68","","<div style=""font-size:60px;"">+</div>","null","","","","","","",""
"null","","image-keyboard-response","427","2136495","0.0-6.0-0.69","","img/pink.png","null","trial","null","true","0.2,0.8","4:nogo_d","",""
"null","","html-keyboard-response","428","2137498","0.0-6.0-1.69","","<img src=""img/pink-r.png"">","null","trial","null","","0.2,0.8","4:nogo_d","1",""
"null","","html-keyboard-response","429","2138499","0.0-6.0-2.69","","<div style=""font-size:60px;"">+</div>","null","","","","","","",""
"496.7999999523163","","image-keyboard-response","430","2138997","0.0-6.0-0.70","","img/red.png","32","trial","32","true","0.8,0.2","3:go_c","",""
"null","","html-keyboard-response","431","2140000","0.0-6.0-1.70","","<img src=""img/red-r.png"" border=""10"">","null","trial","32","","0.8,0.2","3:go_c","1",""
"null","","html-keyboard-response","432","2141000","0.0-6.0-2.70","","<div style=""font-size:60px;"">+</div>","null","","","","","","",""
"859","","image-keyboard-response","433","2141861","0.0-6.0-0.71","","img/grey.png","32","trial","32","true","0.8,0.2","1:go_a","",""
"null","","html-keyboard-response","434","2142864","0.0-6.0-1.71","","<img src=""img/grey-n.png"" border=""10"">","null","trial","32","","0.8,0.2","1:go_a","0",""
"null","","html-keyboard-response","435","2143866","0.0-6.0-2.71","","<div style=""font-size:60px;"">+</div>","null","","","","","","",""
"664.7999999523163","","image-keyboard-response","436","2144532","0.0-6.0-0.72","","img/red.png","32","trial","32","true","0.8,0.2","3:go_c","",""
"null","","html-keyboard-response","437","2145534","0.0-6.0-1.72","","<img src=""img/red-r.png"" border=""10"">","null","trial","32","","0.8,0.2","3:go_c","1",""
"null","","html-keyboard-response","438","2146535","0.0-6.0-2.72","","<div style=""font-size:60px;"">+</div>","null","","","","","","",""
"null","","image-keyboard-response","439","2148037","0.0-6.0-0.73","","img/pink.png","null","trial","null","true","0.2,0.8","4:nogo_d","",""
"null","","html-keyboard-response","440","2149042","0.0-6.0-1.73","","<img src=""img/pink-r.png"">","null","trial","null","","0.2,0.8","4:nogo_d","1",""
"null","","html-keyboard-response","441","2150044","0.0-6.0-2.73","","<div style=""font-size:60px;"">+</div>","null","","","","","","",""
"831.1000000238419","","image-keyboard-response","442","2150876","0.0-6.0-0.74","","img/grey.png","32","trial","32","true","0.8,0.2","1:go_a","",""
"null","","html-keyboard-response","443","2151877","0.0-6.0-1.74","","<img src=""img/grey-r.png"" border=""10"">","null","trial","32","","0.8,0.2","1:go_a","1",""
"null","","html-keyboard-response","444","2152879","0.0-6.0-2.74","","<div style=""font-size:60px;"">+</div>","null","","","","","","",""
"null","","image-keyboard-response","445","2154382","0.0-6.0-0.75","","img/purple.png","null","trial","null","true","0.2,0.8","2:nogo_b","",""
"null","","html-keyboard-response","446","2155386","0.0-6.0-1.75","","<img src=""img/purple-r.png"">","null","trial","null","","0.2,0.8","2:nogo_b","1",""
"null","","html-keyboard-response","447","2156387","0.0-6.0-2.75","","<div style=""font-size:60px;"">+</div>","null","","","","","","",""
"null","","image-keyboard-response","448","2157889","0.0-6.0-0.76","","img/purple.png","null","trial","null","true","0.2,0.8","2:nogo_b","",""
"null","","html-keyboard-response","449","2158891","0.0-6.0-1.76","","<img src=""img/purple-r.png"">","null","trial","null","","0.2,0.8","2:nogo_b","1",""
"null","","html-keyboard-response","450","2159893","0.0-6.0-2.76","","<div style=""font-size:60px;"">+</div>","null","","","","","","",""
"null","","image-keyboard-response","451","2161394","0.0-6.0-0.77","","img/red.png","null","trial","32","false","0.8,0.2","3:go_c","",""
"null","","html-keyboard-response","452","2162395","0.0-6.0-1.77","","<img src=""img/red-r.png"">","null","trial","32","","0.8,0.2","3:go_c","1",""
"null","","html-keyboard-response","453","2163397","0.0-6.0-2.77","","<div style=""font-size:60px;"">+</div>","null","","","","","","",""
"null","","image-keyboard-response","454","2164899","0.0-6.0-0.78","","img/pink.png","null","trial","null","true","0.2,0.8","4:nogo_d","",""
"null","","html-keyboard-response","455","2165901","0.0-6.0-1.78","","<img src=""img/pink-r.png"">","null","trial","null","","0.2,0.8","4:nogo_d","1",""
"null","","html-keyboard-response","456","2166902","0.0-6.0-2.78","","<div style=""font-size:60px;"">+</div>","null","","","","","","",""
"581.6000000238419","","image-keyboard-response","457","2167484","0.0-6.0-0.79","","img/grey.png","32","trial","32","true","0.8,0.2","1:go_a","",""
"null","","html-keyboard-response","458","2168486","0.0-6.0-1.79","","<img src=""img/grey-r.png"" border=""10"">","null","trial","32","","0.8,0.2","1:go_a","1",""
"null","","html-keyboard-response","459","2169487","0.0-6.0-2.79","","<div style=""font-size:60px;"">+</div>","null","","","","","","",""
"1308.8999999761581","","image-keyboard-response","460","2170797","0.0-6.0-0.80","","img/grey.png","32","trial","32","true","0.8,0.2","1:go_a","",""
"null","","html-keyboard-response","461","2171800","0.0-6.0-1.80","","<img src=""img/grey-r.png"" border=""10"">","null","trial","32","","0.8,0.2","1:go_a","1",""
"null","","html-keyboard-response","462","2172802","0.0-6.0-2.80","","<div style=""font-size:60px;"">+</div>","null","","","","","","",""
"514.7999999523163","","image-keyboard-response","463","2173317","0.0-6.0-0.81","","img/red.png","32","trial","32","true","0.8,0.2","3:go_c","",""
"null","","html-keyboard-response","464","2174320","0.0-6.0-1.81","","<img src=""img/red-r.png"" border=""10"">","null","trial","32","","0.8,0.2","3:go_c","1",""
"null","","html-keyboard-response","465","2175321","0.0-6.0-2.81","","<div style=""font-size:60px;"">+</div>","null","","","","","","",""
"null","","image-keyboard-response","466","2176823","0.0-6.0-0.82","","img/purple.png","null","trial","null","true","0.2,0.8","2:nogo_b","",""
"null","","html-keyboard-response","467","2177826","0.0-6.0-1.82","","<img src=""img/purple-r.png"">","null","trial","null","","0.2,0.8","2:nogo_b","1",""
"null","","html-keyboard-response","468","2178827","0.0-6.0-2.82","","<div style=""font-size:60px;"">+</div>","null","","","","","","",""
"null","","image-keyboard-response","469","2180329","0.0-6.0-0.83","","img/pink.png","null","trial","null","true","0.2,0.8","4:nogo_d","",""
"null","","html-keyboard-response","470","2181331","0.0-6.0-1.83","","<img src=""img/pink-r.png"">","null","trial","null","","0.2,0.8","4:nogo_d","1",""
"null","","html-keyboard-response","471","2182332","0.0-6.0-2.83","","<div style=""font-size:60px;"">+</div>","null","","","","","","",""
"614.5","","image-keyboard-response","472","2182949","0.0-6.0-0.84","","img/grey.png","32","trial","32","true","0.8,0.2","1:go_a","",""
"null","","html-keyboard-response","473","2183950","0.0-6.0-1.84","","<img src=""img/grey-n.png"" border=""10"">","null","trial","32","","0.8,0.2","1:go_a","0",""
"null","","html-keyboard-response","474","2184952","0.0-6.0-2.84","","<div style=""font-size:60px;"">+</div>","null","","","","","","",""
"null","","image-keyboard-response","475","2186463","0.0-6.0-0.85","","img/pink.png","null","trial","null","true","0.2,0.8","4:nogo_d","",""
"null","","html-keyboard-response","476","2187465","0.0-6.0-1.85","","<img src=""img/pink-n.png"">","null","trial","null","","0.2,0.8","4:nogo_d","0",""
"null","","html-keyboard-response","477","2188467","0.0-6.0-2.85","","<div style=""font-size:60px;"">+</div>","null","","","","","","",""
"529.1000000238419","","image-keyboard-response","478","2188997","0.0-6.0-0.86","","img/red.png","32","trial","32","true","0.8,0.2","3:go_c","",""
"null","","html-keyboard-response","479","2190000","0.0-6.0-1.86","","<img src=""img/red-r.png"" border=""10"">","null","trial","32","","0.8,0.2","3:go_c","1",""
"null","","html-keyboard-response","480","2191001","0.0-6.0-2.86","","<div style=""font-size:60px;"">+</div>","null","","","","","","",""
"null","","image-keyboard-response","481","2192502","0.0-6.0-0.87","","img/purple.png","null","trial","null","true","0.2,0.8","2:nogo_b","",""
"null","","html-keyboard-response","482","2193504","0.0-6.0-1.87","","<img src=""img/purple-r.png"">","null","trial","null","","0.2,0.8","2:nogo_b","1",""
"null","","html-keyboard-response","483","2194505","0.0-6.0-2.87","","<div style=""font-size:60px;"">+</div>","null","","","","","","",""
"null","","image-keyboard-response","484","2196007","0.0-6.0-0.88","","img/purple.png","null","trial","null","true","0.2,0.8","2:nogo_b","",""
"null","","html-keyboard-response","485","2197010","0.0-6.0-1.88","","<img src=""img/purple-n.png"">","null","trial","null","","0.2,0.8","2:nogo_b","0",""
"null","","html-keyboard-response","486","2198010","0.0-6.0-2.88","","<div style=""font-size:60px;"">+</div>","null","","","","","","",""
"705.1000000238419","","image-keyboard-response","487","2198716","0.0-6.0-0.89","","img/grey.png","32","trial","32","true","0.8,0.2","1:go_a","",""
"null","","html-keyboard-response","488","2199719","0.0-6.0-1.89","","<img src=""img/grey-r.png"" border=""10"">","null","trial","32","","0.8,0.2","1:go_a","1",""
"null","","html-keyboard-response","489","2200720","0.0-6.0-2.89","","<div style=""font-size:60px;"">+</div>","null","","","","","","",""
"594.7000000476837","","image-keyboard-response","490","2201316","0.0-6.0-0.90","","img/red.png","32","trial","32","true","0.8,0.2","3:go_c","",""
"null","","html-keyboard-response","491","2202317","0.0-6.0-1.90","","<img src=""img/red-n.png"" border=""10"">","null","trial","32","","0.8,0.2","3:go_c","0",""
"null","","html-keyboard-response","492","2203318","0.0-6.0-2.90","","<div style=""font-size:60px;"">+</div>","null","","","","","","",""
"null","","image-keyboard-response","493","2204820","0.0-6.0-0.91","","img/pink.png","null","trial","null","true","0.2,0.8","4:nogo_d","",""
"null","","html-keyboard-response","494","2205822","0.0-6.0-1.91","","<img src=""img/pink-r.png"">","null","trial","null","","0.2,0.8","4:nogo_d","1",""
"null","","html-keyboard-response","495","2206824","0.0-6.0-2.91","","<div style=""font-size:60px;"">+</div>","null","","","","","","",""
"null","","image-keyboard-response","496","2208326","0.0-6.0-0.92","","img/pink.png","null","trial","null","true","0.2,0.8","4:nogo_d","",""
"null","","html-keyboard-response","497","2209329","0.0-6.0-1.92","","<img src=""img/pink-n.png"">","null","trial","null","","0.2,0.8","4:nogo_d","0",""
"null","","html-keyboard-response","498","2210330","0.0-6.0-2.92","","<div style=""font-size:60px;"">+</div>","null","","","","","","",""
"704.6000000238419","","image-keyboard-response","499","2211037","0.0-6.0-0.93","","img/grey.png","32","trial","32","true","0.8,0.2","1:go_a","",""
"null","","html-keyboard-response","500","2212038","0.0-6.0-1.93","","<img src=""img/grey-r.png"" border=""10"">","null","trial","32","","0.8,0.2","1:go_a","1",""
"null","","html-keyboard-response","501","2213040","0.0-6.0-2.93","","<div style=""font-size:60px;"">+</div>","null","","","","","","",""
"987.2000000476837","","image-keyboard-response","502","2214029","0.0-6.0-0.94","","img/purple.png","32","trial","null","false","0.2,0.8","2:nogo_b","",""
"null","","html-keyboard-response","503","2215031","0.0-6.0-1.94","","<img src=""img/purple-r.png"" border=""10"">","null","trial","null","","0.2,0.8","2:nogo_b","1",""
"null","","html-keyboard-response","504","2216032","0.0-6.0-2.94","","<div style=""font-size:60px;"">+</div>","null","","","","","","",""
"787.2999999523163","","image-keyboard-response","505","2216820","0.0-6.0-0.95","","img/red.png","32","trial","32","true","0.8,0.2","3:go_c","",""
"null","","html-keyboard-response","506","2217823","0.0-6.0-1.95","","<img src=""img/red-r.png"" border=""10"">","null","trial","32","","0.8,0.2","3:go_c","1",""
"null","","html-keyboard-response","507","2218824","0.0-6.0-2.95","","<div style=""font-size:60px;"">+</div>","null","","","","","","",""
"1049.3999999761581","","image-keyboard-response","508","2219876","0.0-6.0-0.96","","img/red.png","32","trial","32","true","0.8,0.2","3:go_c","",""
"null","","html-keyboard-response","509","2220877","0.0-6.0-1.96","","<img src=""img/red-r.png"" border=""10"">","null","trial","32","","0.8,0.2","3:go_c","1",""
"null","","html-keyboard-response","510","2221879","0.0-6.0-2.96","","<div style=""font-size:60px;"">+</div>","null","","","","","","",""
"null","","image-keyboard-response","511","2223381","0.0-6.0-0.97","","img/pink.png","null","trial","null","true","0.2,0.8","4:nogo_d","",""
"null","","html-keyboard-response","512","2224383","0.0-6.0-1.97","","<img src=""img/pink-r.png"">","null","trial","null","","0.2,0.8","4:nogo_d","1",""
"null","","html-keyboard-response","513","2225385","0.0-6.0-2.97","","<div style=""font-size:60px;"">+</div>","null","","","","","","",""
"594.7999999523163","","image-keyboard-response","514","2225980","0.0-6.0-0.98","","img/grey.png","32","trial","32","true","0.8,0.2","1:go_a","",""
"null","","html-keyboard-response","515","2226982","0.0-6.0-1.98","","<img src=""img/grey-r.png"" border=""10"">","null","trial","32","","0.8,0.2","1:go_a","1",""
"null","","html-keyboard-response","516","2227983","0.0-6.0-2.98","","<div style=""font-size:60px;"">+</div>","null","","","","","","",""
"411.60000002384186","","image-keyboard-response","517","2228396","0.0-6.0-0.99","","img/purple.png","32","trial","null","false","0.2,0.8","2:nogo_b","",""
"null","","html-keyboard-response","518","2229398","0.0-6.0-1.99","","<img src=""img/purple-n.png"" border=""10"">","null","trial","null","","0.2,0.8","2:nogo_b","0",""
"null","","html-keyboard-response","519","2230400","0.0-6.0-2.99","","<div style=""font-size:60px;"">+</div>","null","","","","","","",""
"null","","image-keyboard-response","520","2231902","0.0-6.0-0.100","","img/pink.png","null","trial","null","true","0.2,0.8","4:nogo_d","",""
"null","","html-keyboard-response","521","2232905","0.0-6.0-1.100","","<img src=""img/pink-n.png"">","null","trial","null","","0.2,0.8","4:nogo_d","0",""
"null","","html-keyboard-response","522","2233906","0.0-6.0-2.100","","<div style=""font-size:60px;"">+</div>","null","","","","","","",""
"null","","image-keyboard-response","523","2235409","0.0-6.0-0.101","","img/purple.png","null","trial","null","true","0.2,0.8","2:nogo_b","",""
"null","","html-keyboard-response","524","2236410","0.0-6.0-1.101","","<img src=""img/purple-r.png"">","null","trial","null","","0.2,0.8","2:nogo_b","1",""
"null","","html-keyboard-response","525","2237411","0.0-6.0-2.101","","<div style=""font-size:60px;"">+</div>","null","","","","","","",""
"584.8999999761581","","image-keyboard-response","526","2237997","0.0-6.0-0.102","","img/red.png","32","trial","32","true","0.8,0.2","3:go_c","",""
"null","","html-keyboard-response","527","2238999","0.0-6.0-1.102","","<img src=""img/red-r.png"" border=""10"">","null","trial","32","","0.8,0.2","3:go_c","1",""
"null","","html-keyboard-response","528","2240000","0.0-6.0-2.102","","<div style=""font-size:60px;"">+</div>","null","","","","","","",""
"812","","image-keyboard-response","529","2240813","0.0-6.0-0.103","","img/grey.png","32","trial","32","true","0.8,0.2","1:go_a","",""
"null","","html-keyboard-response","530","2241816","0.0-6.0-1.103","","<img src=""img/grey-n.png"" border=""10"">","null","trial","32","","0.8,0.2","1:go_a","0",""
"null","","html-keyboard-response","531","2242817","0.0-6.0-2.103","","<div style=""font-size:60px;"">+</div>","null","","","","","","",""
"1155.0999999046326","","image-keyboard-response","532","2243973","0.0-6.0-0.104","","img/purple.png","32","trial","null","false","0.2,0.8","2:nogo_b","",""
"null","","html-keyboard-response","533","2244976","0.0-6.0-1.104","","<img src=""img/purple-r.png"" border=""10"">","null","trial","null","","0.2,0.8","2:nogo_b","1",""
"null","","html-keyboard-response","534","2245977","0.0-6.0-2.104","","<div style=""font-size:60px;"">+</div>","null","","","","","","",""
"null","","image-keyboard-response","535","2247478","0.0-6.0-0.105","","img/grey.png","null","trial","32","false","0.8,0.2","1:go_a","",""
"null","","html-keyboard-response","536","2248481","0.0-6.0-1.105","","<img src=""img/grey-r.png"">","null","trial","32","","0.8,0.2","1:go_a","1",""
"null","","html-keyboard-response","537","2249484","0.0-6.0-2.105","","<div style=""font-size:60px;"">+</div>","null","","","","","","",""
"561","","image-keyboard-response","538","2250046","0.0-6.0-0.106","","img/red.png","32","trial","32","true","0.8,0.2","3:go_c","",""
"null","","html-keyboard-response","539","2251049","0.0-6.0-1.106","","<img src=""img/red-r.png"" border=""10"">","null","trial","32","","0.8,0.2","3:go_c","1",""
"null","","html-keyboard-response","540","2252051","0.0-6.0-2.106","","<div style=""font-size:60px;"">+</div>","null","","","","","","",""
"null","","image-keyboard-response","541","2253552","0.0-6.0-0.107","","img/pink.png","null","trial","null","true","0.2,0.8","4:nogo_d","",""
"null","","html-keyboard-response","542","2254554","0.0-6.0-1.107","","<img src=""img/pink-r.png"">","null","trial","null","","0.2,0.8","4:nogo_d","1",""
"null","","html-keyboard-response","543","2255558","0.0-6.0-2.107","","<div style=""font-size:60px;"">+</div>","null","","","","","","",""
"null","","image-keyboard-response","544","2257060","0.0-6.0-0.108","","img/pink.png","null","trial","null","true","0.2,0.8","4:nogo_d","",""
"null","","html-keyboard-response","545","2258062","0.0-6.0-1.108","","<img src=""img/pink-r.png"">","null","trial","null","","0.2,0.8","4:nogo_d","1",""
"null","","html-keyboard-response","546","2259065","0.0-6.0-2.108","","<div style=""font-size:60px;"">+</div>","null","","","","","","",""
"623.8000000715256","","image-keyboard-response","547","2259691","0.0-6.0-0.109","","img/grey.png","32","trial","32","true","0.8,0.2","1:go_a","",""
"null","","html-keyboard-response","548","2260694","0.0-6.0-1.109","","<img src=""img/grey-r.png"" border=""10"">","null","trial","32","","0.8,0.2","1:go_a","1",""
"null","","html-keyboard-response","549","2261695","0.0-6.0-2.109","","<div style=""font-size:60px;"">+</div>","null","","","","","","",""
"676.1000000238419","","image-keyboard-response","550","2262372","0.0-6.0-0.110","","img/red.png","32","trial","32","true","0.8,0.2","3:go_c","",""
"null","","html-keyboard-response","551","2263374","0.0-6.0-1.110","","<img src=""img/red-r.png"" border=""10"">","null","trial","32","","0.8,0.2","3:go_c","1",""
"null","","html-keyboard-response","552","2264376","0.0-6.0-2.110","","<div style=""font-size:60px;"">+</div>","null","","","","","","",""
"null","","image-keyboard-response","553","2265882","0.0-6.0-0.111","","img/purple.png","null","trial","null","true","0.2,0.8","2:nogo_b","",""
"null","","html-keyboard-response","554","2266883","0.0-6.0-1.111","","<img src=""img/purple-r.png"">","null","trial","null","","0.2,0.8","2:nogo_b","1",""
"null","","html-keyboard-response","555","2267885","0.0-6.0-2.111","","<div style=""font-size:60px;"">+</div>","null","","","","","","",""
"null","","image-keyboard-response","556","2269386","0.0-6.0-0.112","","img/grey.png","null","trial","32","false","0.8,0.2","1:go_a","",""
"null","","html-keyboard-response","557","2270389","0.0-6.0-1.112","","<img src=""img/grey-n.png"">","null","trial","32","","0.8,0.2","1:go_a","0",""
"null","","html-keyboard-response","558","2271390","0.0-6.0-2.112","","<div style=""font-size:60px;"">+</div>","null","","","","","","",""
"365.09999990463257","","image-keyboard-response","559","2271757","0.0-6.0-0.113","","img/red.png","32","trial","32","true","0.8,0.2","3:go_c","",""
"null","","html-keyboard-response","560","2272760","0.0-6.0-1.113","","<img src=""img/red-r.png"" border=""10"">","null","trial","32","","0.8,0.2","3:go_c","1",""
"null","","html-keyboard-response","561","2273773","0.0-6.0-2.113","","<div style=""font-size:60px;"">+</div>","null","","","","","","",""
"null","","image-keyboard-response","562","2275275","0.0-6.0-0.114","","img/purple.png","null","trial","null","true","0.2,0.8","2:nogo_b","",""
"null","","html-keyboard-response","563","2276277","0.0-6.0-1.114","","<img src=""img/purple-r.png"">","null","trial","null","","0.2,0.8","2:nogo_b","1",""
"null","","html-keyboard-response","564","2277279","0.0-6.0-2.114","","<div style=""font-size:60px;"">+</div>","null","","","","","","",""
"null","","image-keyboard-response","565","2278780","0.0-6.0-0.115","","img/pink.png","null","trial","null","true","0.2,0.8","4:nogo_d","",""
"null","","html-keyboard-response","566","2279783","0.0-6.0-1.115","","<img src=""img/pink-r.png"">","null","trial","null","","0.2,0.8","4:nogo_d","1",""
"null","","html-keyboard-response","567","2280785","0.0-6.0-2.115","","<div style=""font-size:60px;"">+</div>","null","","","","","","",""
"546.3999999761581","","image-keyboard-response","568","2281332","0.0-6.0-0.116","","img/red.png","32","trial","32","true","0.8,0.2","3:go_c","",""
"null","","html-keyboard-response","569","2282335","0.0-6.0-1.116","","<img src=""img/red-r.png"" border=""10"">","null","trial","32","","0.8,0.2","3:go_c","1",""
"null","","html-keyboard-response","570","2283337","0.0-6.0-2.116","","<div style=""font-size:60px;"">+</div>","null","","","","","","",""
"null","","image-keyboard-response","571","2284838","0.0-6.0-0.117","","img/pink.png","null","trial","null","true","0.2,0.8","4:nogo_d","",""
"null","","html-keyboard-response","572","2285839","0.0-6.0-1.117","","<img src=""img/pink-r.png"">","null","trial","null","","0.2,0.8","4:nogo_d","1",""
"null","","html-keyboard-response","573","2286840","0.0-6.0-2.117","","<div style=""font-size:60px;"">+</div>","null","","","","","","",""
"721.8000000715256","","image-keyboard-response","574","2287563","0.0-6.0-0.118","","img/grey.png","32","trial","32","true","0.8,0.2","1:go_a","",""
"null","","html-keyboard-response","575","2288565","0.0-6.0-1.118","","<img src=""img/grey-n.png"" border=""10"">","null","trial","32","","0.8,0.2","1:go_a","0",""
"null","","html-keyboard-response","576","2289566","0.0-6.0-2.118","","<div style=""font-size:60px;"">+</div>","null","","","","","","",""
"null","","image-keyboard-response","577","2291068","0.0-6.0-0.119","","img/purple.png","null","trial","null","true","0.2,0.8","2:nogo_b","",""
"null","","html-keyboard-response","578","2292083","0.0-6.0-1.119","","<img src=""img/purple-r.png"">","null","trial","null","","0.2,0.8","2:nogo_b","1",""
"null","","html-keyboard-response","579","2293084","0.0-6.0-2.119","","<div style=""font-size:60px;"">+</div>","null","","","","","","",""
"136930","","instructions","580","2430014","0.0-7.0","[{""page_index"":0,""viewing_time"":136929.79999995232}]","","","","","","","","",""
"483.6999999284744","","image-keyboard-response","581","2430500","0.0-8.0-0.0","","img/grey.png","32","trial","32","true","0.6,0.4","1:go_a","",""
"null","","html-keyboard-response","582","2431501","0.0-8.0-1.0","","<img src=""img/grey-n.png"" border=""10"">","null","trial","32","","0.6,0.4","1:go_a","0",""
"null","","html-keyboard-response","583","2432503","0.0-8.0-2.0","","<div style=""font-size:60px;"">+</div>","null","","","","","","",""
"523.7000000476837","","image-keyboard-response","584","2433028","0.0-8.0-0.1","","img/pink.png","32","trial","null","false","0.4,0.6","4:nogo_d","",""
"null","","html-keyboard-response","585","2434033","0.0-8.0-1.1","","<img src=""img/pink-n.png"" border=""10"">","null","trial","null","","0.4,0.6","4:nogo_d","0",""
"null","","html-keyboard-response","586","2435035","0.0-8.0-2.1","","<div style=""font-size:60px;"">+</div>","null","","","","","","",""
"635.8000000715256","","image-keyboard-response","587","2435671","0.0-8.0-0.2","","img/orange.png","32","trial","32","true","0.6,0.4","3:go_c","",""
"null","","html-keyboard-response","588","2436674","0.0-8.0-1.2","","<img src=""img/orange-n.png"" border=""10"">","null","trial","32","","0.6,0.4","3:go_c","0",""
"null","","html-keyboard-response","589","2437679","0.0-8.0-2.2","","<div style=""font-size:60px;"">+</div>","null","","","","","","",""
"499.89999997615814","","image-keyboard-response","590","2438188","0.0-8.0-0.3","","img/red.png","32","trial","null","false","0.4,0.6","2:nogo_b","",""
"null","","html-keyboard-response","591","2439196","0.0-8.0-1.3","","<img src=""img/red-n.png"" border=""10"">","null","trial","null","","0.4,0.6","2:nogo_b","0",""
"null","","html-keyboard-response","592","2440198","0.0-8.0-2.3","","<div style=""font-size:60px;"">+</div>","null","","","","","","",""
"1268.7000000476837","","image-keyboard-response","593","2441468","0.0-8.0-0.4","","img/pink.png","32","trial","null","false","0.4,0.6","4:nogo_d","",""
"null","","html-keyboard-response","594","2442470","0.0-8.0-1.4","","<img src=""img/pink-n.png"" border=""10"">","null","trial","null","","0.4,0.6","4:nogo_d","0",""
"null","","html-keyboard-response","595","2443472","0.0-8.0-2.4","","<div style=""font-size:60px;"">+</div>","null","","","","","","",""
"724","","image-keyboard-response","596","2444197","0.0-8.0-0.5","","img/red.png","32","trial","null","false","0.4,0.6","2:nogo_b","",""
"null","","html-keyboard-response","597","2445201","0.0-8.0-1.5","","<img src=""img/red-r.png"" border=""10"">","null","trial","null","","0.4,0.6","2:nogo_b","1",""
"null","","html-keyboard-response","598","2446202","0.0-8.0-2.5","","<div style=""font-size:60px;"">+</div>","null","","","","","","",""
"1088.4000000953674","","image-keyboard-response","599","2447291","0.0-8.0-0.6","","img/orange.png","32","trial","32","true","0.6,0.4","3:go_c","",""
"null","","html-keyboard-response","600","2448293","0.0-8.0-1.6","","<img src=""img/orange-n.png"" border=""10"">","null","trial","32","","0.6,0.4","3:go_c","0",""
"null","","html-keyboard-response","601","2449304","0.0-8.0-2.6","","<div style=""font-size:60px;"">+</div>","null","","","","","","",""
"690.7999999523163","","image-keyboard-response","602","2449995","0.0-8.0-0.7","","img/grey.png","32","trial","32","true","0.6,0.4","1:go_a","",""
"null","","html-keyboard-response","603","2450997","0.0-8.0-1.7","","<img src=""img/grey-r.png"" border=""10"">","null","trial","32","","0.6,0.4","1:go_a","1",""
"null","","html-keyboard-response","604","2451998","0.0-8.0-2.7","","<div style=""font-size:60px;"">+</div>","null","","","","","","",""
"1334.6000000238419","","image-keyboard-response","605","2453334","0.0-8.0-0.8","","img/grey.png","32","trial","32","true","0.6,0.4","1:go_a","",""
"null","","html-keyboard-response","606","2454337","0.0-8.0-1.8","","<img src=""img/grey-r.png"" border=""10"">","null","trial","32","","0.6,0.4","1:go_a","1",""
"null","","html-keyboard-response","607","2455338","0.0-8.0-2.8","","<div style=""font-size:60px;"">+</div>","null","","","","","","",""
"null","","image-keyboard-response","608","2456839","0.0-8.0-0.9","","img/pink.png","null","trial","null","true","0.4,0.6","4:nogo_d","",""
"null","","html-keyboard-response","609","2457841","0.0-8.0-1.9","","<img src=""img/pink-r.png"">","null","trial","null","","0.4,0.6","4:nogo_d","1",""
"null","","html-keyboard-response","610","2458843","0.0-8.0-2.9","","<div style=""font-size:60px;"">+</div>","null","","","","","","",""
"null","","image-keyboard-response","611","2460344","0.0-8.0-0.10","","img/orange.png","null","trial","32","false","0.6,0.4","3:go_c","",""
"null","","html-keyboard-response","612","2461347","0.0-8.0-1.10","","<img src=""img/orange-r.png"">","null","trial","32","","0.6,0.4","3:go_c","1",""
"null","","html-keyboard-response","613","2462349","0.0-8.0-2.10","","<div style=""font-size:60px;"">+</div>","null","","","","","","",""
"502.7000000476837","","image-keyboard-response","614","2462852","0.0-8.0-0.11","","img/red.png","32","trial","null","false","0.4,0.6","2:nogo_b","",""
"null","","html-keyboard-response","615","2463855","0.0-8.0-1.11","","<img src=""img/red-n.png"" border=""10"">","null","trial","null","","0.4,0.6","2:nogo_b","0",""
"null","","html-keyboard-response","616","2464857","0.0-8.0-2.11","","<div style=""font-size:60px;"">+</div>","null","","","","","","",""
"null","","image-keyboard-response","617","2466367","0.0-8.0-0.12","","img/red.png","null","trial","null","true","0.4,0.6","2:nogo_b","",""
"null","","html-keyboard-response","618","2467381","0.0-8.0-1.12","","<img src=""img/red-n.png"">","null","trial","null","","0.4,0.6","2:nogo_b","0",""
"null","","html-keyboard-response","619","2468384","0.0-8.0-2.12","","<div style=""font-size:60px;"">+</div>","null","","","","","","",""
"null","","image-keyboard-response","620","2469886","0.0-8.0-0.13","","img/pink.png","null","trial","null","true","0.4,0.6","4:nogo_d","",""
"null","","html-keyboard-response","621","2470887","0.0-8.0-1.13","","<img src=""img/pink-n.png"">","null","trial","null","","0.4,0.6","4:nogo_d","0",""
"null","","html-keyboard-response","622","2471889","0.0-8.0-2.13","","<div style=""font-size:60px;"">+</div>","null","","","","","","",""
"633.2000000476837","","image-keyboard-response","623","2472523","0.0-8.0-0.14","","img/grey.png","32","trial","32","true","0.6,0.4","1:go_a","",""
"null","","html-keyboard-response","624","2473525","0.0-8.0-1.14","","<img src=""img/grey-n.png"" border=""10"">","null","trial","32","","0.6,0.4","1:go_a","0",""
"null","","html-keyboard-response","625","2474526","0.0-8.0-2.14","","<div style=""font-size:60px;"">+</div>","null","","","","","","",""
"null","","image-keyboard-response","626","2476028","0.0-8.0-0.15","","img/orange.png","null","trial","32","false","0.6,0.4","3:go_c","",""
"null","","html-keyboard-response","627","2477029","0.0-8.0-1.15","","<img src=""img/orange-n.png"">","null","trial","32","","0.6,0.4","3:go_c","0",""
"null","","html-keyboard-response","628","2478030","0.0-8.0-2.15","","<div style=""font-size:60px;"">+</div>","null","","","","","","",""
"604.1000000238419","","image-keyboard-response","629","2478635","0.0-8.0-0.16","","img/orange.png","32","trial","32","true","0.6,0.4","3:go_c","",""
"null","","html-keyboard-response","630","2479637","0.0-8.0-1.16","","<img src=""img/orange-r.png"" border=""10"">","null","trial","32","","0.6,0.4","3:go_c","1",""
"null","","html-keyboard-response","631","2480639","0.0-8.0-2.16","","<div style=""font-size:60px;"">+</div>","null","","","","","","",""
"709.0999999046326","","image-keyboard-response","632","2481349","0.0-8.0-0.17","","img/grey.png","32","trial","32","true","0.6,0.4","1:go_a","",""
"null","","html-keyboard-response","633","2482350","0.0-8.0-1.17","","<img src=""img/grey-r.png"" border=""10"">","null","trial","32","","0.6,0.4","1:go_a","1",""
"null","","html-keyboard-response","634","2483351","0.0-8.0-2.17","","<div style=""font-size:60px;"">+</div>","null","","","","","","",""
"null","","image-keyboard-response","635","2484853","0.0-8.0-0.18","","img/pink.png","null","trial","null","true","0.4,0.6","4:nogo_d","",""
"null","","html-keyboard-response","636","2485856","0.0-8.0-1.18","","<img src=""img/pink-r.png"">","null","trial","null","","0.4,0.6","4:nogo_d","1",""
"null","","html-keyboard-response","637","2486857","0.0-8.0-2.18","","<div style=""font-size:60px;"">+</div>","null","","","","","","",""
"633.1999999284744","","image-keyboard-response","638","2487491","0.0-8.0-0.19","","img/red.png","32","trial","null","false","0.4,0.6","2:nogo_b","",""
"null","","html-keyboard-response","639","2488493","0.0-8.0-1.19","","<img src=""img/red-n.png"" border=""10"">","null","trial","null","","0.4,0.6","2:nogo_b","0",""
"null","","html-keyboard-response","640","2489495","0.0-8.0-2.19","","<div style=""font-size:60px;"">+</div>","null","","","","","","",""
"572.0999999046326","","image-keyboard-response","641","2490067","0.0-8.0-0.20","","img/red.png","32","trial","null","false","0.4,0.6","2:nogo_b","",""
"null","","html-keyboard-response","642","2491069","0.0-8.0-1.20","","<img src=""img/red-n.png"" border=""10"">","null","trial","null","","0.4,0.6","2:nogo_b","0",""
"null","","html-keyboard-response","643","2492071","0.0-8.0-2.20","","<div style=""font-size:60px;"">+</div>","null","","","","","","",""
"795.8999999761581","","image-keyboard-response","644","2492867","0.0-8.0-0.21","","img/grey.png","32","trial","32","true","0.6,0.4","1:go_a","",""
"null","","html-keyboard-response","645","2493875","0.0-8.0-1.21","","<img src=""img/grey-n.png"" border=""10"">","null","trial","32","","0.6,0.4","1:go_a","0",""
"null","","html-keyboard-response","646","2494877","0.0-8.0-2.21","","<div style=""font-size:60px;"">+</div>","null","","","","","","",""
"null","","image-keyboard-response","647","2496379","0.0-8.0-0.22","","img/pink.png","null","trial","null","true","0.4,0.6","4:nogo_d","",""
"null","","html-keyboard-response","648","2497380","0.0-8.0-1.22","","<img src=""img/pink-r.png"">","null","trial","null","","0.4,0.6","4:nogo_d","1",""
"null","","html-keyboard-response","649","2498382","0.0-8.0-2.22","","<div style=""font-size:60px;"">+</div>","null","","","","","","",""
"757.5999999046326","","image-keyboard-response","650","2499140","0.0-8.0-0.23","","img/orange.png","32","trial","32","true","0.6,0.4","3:go_c","",""
"null","","html-keyboard-response","651","2500143","0.0-8.0-1.23","","<img src=""img/orange-r.png"" border=""10"">","null","trial","32","","0.6,0.4","3:go_c","1",""
"null","","html-keyboard-response","652","2501145","0.0-8.0-2.23","","<div style=""font-size:60px;"">+</div>","null","","","","","","",""
"689.1000000238419","","image-keyboard-response","653","2501835","0.0-8.0-0.24","","img/pink.png","32","trial","null","false","0.4,0.6","4:nogo_d","",""
"null","","html-keyboard-response","654","2502837","0.0-8.0-1.24","","<img src=""img/pink-r.png"" border=""10"">","null","trial","null","","0.4,0.6","4:nogo_d","1",""
"null","","html-keyboard-response","655","2503850","0.0-8.0-2.24","","<div style=""font-size:60px;"">+</div>","null","","","","","","",""
"1032.1000000238419","","image-keyboard-response","656","2504883","0.0-8.0-0.25","","img/grey.png","32","trial","32","true","0.6,0.4","1:go_a","",""
"null","","html-keyboard-response","657","2505886","0.0-8.0-1.25","","<img src=""img/grey-r.png"" border=""10"">","null","trial","32","","0.6,0.4","1:go_a","1",""
"null","","html-keyboard-response","658","2506886","0.0-8.0-2.25","","<div style=""font-size:60px;"">+</div>","null","","","","","","",""
"693.2000000476837","","image-keyboard-response","659","2507580","0.0-8.0-0.26","","img/red.png","32","trial","null","false","0.4,0.6","2:nogo_b","",""
"null","","html-keyboard-response","660","2508583","0.0-8.0-1.26","","<img src=""img/red-n.png"" border=""10"">","null","trial","null","","0.4,0.6","2:nogo_b","0",""
"null","","html-keyboard-response","661","2509584","0.0-8.0-2.26","","<div style=""font-size:60px;"">+</div>","null","","","","","","",""
"609.4000000953674","","image-keyboard-response","662","2510195","0.0-8.0-0.27","","img/orange.png","32","trial","32","true","0.6,0.4","3:go_c","",""
"null","","html-keyboard-response","663","2511196","0.0-8.0-1.27","","<img src=""img/orange-r.png"" border=""10"">","null","trial","32","","0.6,0.4","3:go_c","1",""
"null","","html-keyboard-response","664","2512198","0.0-8.0-2.27","","<div style=""font-size:60px;"">+</div>","null","","","","","","",""
"861","","image-keyboard-response","665","2513060","0.0-8.0-0.28","","img/pink.png","32","trial","null","false","0.4,0.6","4:nogo_d","",""
"null","","html-keyboard-response","666","2514062","0.0-8.0-1.28","","<img src=""img/pink-n.png"" border=""10"">","null","trial","null","","0.4,0.6","4:nogo_d","0",""
"null","","html-keyboard-response","667","2515063","0.0-8.0-2.28","","<div style=""font-size:60px;"">+</div>","null","","","","","","",""
"null","","image-keyboard-response","668","2516564","0.0-8.0-0.29","","img/red.png","null","trial","null","true","0.4,0.6","2:nogo_b","",""
"null","","html-keyboard-response","669","2517566","0.0-8.0-1.29","","<img src=""img/red-r.png"">","null","trial","null","","0.4,0.6","2:nogo_b","1",""
"null","","html-keyboard-response","670","2518567","0.0-8.0-2.29","","<div style=""font-size:60px;"">+</div>","null","","","","","","",""
"883.1000000238419","","image-keyboard-response","671","2519451","0.0-8.0-0.30","","img/orange.png","32","trial","32","true","0.6,0.4","3:go_c","",""
"null","","html-keyboard-response","672","2520454","0.0-8.0-1.30","","<img src=""img/orange-r.png"" border=""10"">","null","trial","32","","0.6,0.4","3:go_c","1",""
"null","","html-keyboard-response","673","2521456","0.0-8.0-2.30","","<div style=""font-size:60px;"">+</div>","null","","","","","","",""
"626.8999999761581","","image-keyboard-response","674","2522084","0.0-8.0-0.31","","img/grey.png","32","trial","32","true","0.6,0.4","1:go_a","",""
"null","","html-keyboard-response","675","2523085","0.0-8.0-1.31","","<img src=""img/grey-r.png"" border=""10"">","null","trial","32","","0.6,0.4","1:go_a","1",""
"null","","html-keyboard-response","676","2524094","0.0-8.0-2.31","","<div style=""font-size:60px;"">+</div>","null","","","","","","",""
"812.1999999284744","","image-keyboard-response","677","2524907","0.0-8.0-0.32","","img/pink.png","32","trial","null","false","0.4,0.6","4:nogo_d","",""
"null","","html-keyboard-response","678","2525909","0.0-8.0-1.32","","<img src=""img/pink-n.png"" border=""10"">","null","trial","null","","0.4,0.6","4:nogo_d","0",""
