"rt","url","trial_type","trial_index","time_elapsed","internal_node_id","view_history","stimulus","key_press","test_part","correct_response","correct","use_rew","which_stim","reward","responses"
"7255.265000043437","consent.html","external-html","0","7308","0.0-0.0","","","","","","","","","",""
"57730.62000004575","","instructions","1","65042","0.0-1.0","[{""page_index"":0,""viewing_time"":2582.590000005439},{""page_index"":1,""viewing_time"":12070.654999930412},{""page_index"":2,""viewing_time"":6769.629999995232},{""page_index"":3,""viewing_time"":13727.79000014998},{""page_index"":4,""viewing_time"":7913.414999842644},{""page_index"":5,""viewing_time"":5912.025000201538},{""page_index"":6,""viewing_time"":8753.864999860525}]","","","","","","","","",""
"925.054999999702","","image-keyboard-response","2","65972","0.0-2.0-0.0","","img/test1.PNG","32","practice","32","true","","","",""
"null","","html-keyboard-response","3","66973","0.0-2.0-1.0","","<img src=""img/test1-reward.PNG"" border=""10px; grey"">","null","","","","","","",""
"null","","html-keyboard-response","4","67974","0.0-2.0-2.0","","<div style=""font-size:60px;"">+</div>","null","","","","","","",""
"null","","image-keyboard-response","5","69476","0.0-2.0-0.1","","img/test3.PNG","null","practice","null","true","","","",""
"null","","html-keyboard-response","6","70477","0.0-2.0-1.1","","<img src=""img/test3-reward.PNG"">","null","","","","","","",""
"null","","html-keyboard-response","7","71479","0.0-2.0-2.1","","<div style=""font-size:60px;"">+</div>","null","","","","","","",""
"null","","image-keyboard-response","8","72981","0.0-2.0-0.2","","img/test2.PNG","null","practice","null","true","","","",""
"null","","html-keyboard-response","9","73982","0.0-2.0-1.2","","<img src=""img/test2-reward.PNG"">","null","","","","","","",""
"null","","html-keyboard-response","10","74982","0.0-2.0-2.2","","<div style=""font-size:60px;"">+</div>","null","","","","","","",""
"445.34999993629754","","image-keyboard-response","11","75429","0.0-2.0-0.3","","img/test1.PNG","32","practice","32","true","","","",""
"null","","html-keyboard-response","12","76430","0.0-2.0-1.3","","<img src=""img/test1-reward.PNG"" border=""10px; grey"">","null","","","","","","",""
"null","","html-keyboard-response","13","77431","0.0-2.0-2.3","","<div style=""font-size:60px;"">+</div>","null","","","","","","",""
"null","","image-keyboard-response","14","78935","0.0-2.0-0.4","","img/test3.PNG","null","practice","null","true","","","",""
"null","","html-keyboard-response","15","79936","0.0-2.0-1.4","","<img src=""img/test3-reward.PNG"">","null","","","","","","",""
"null","","html-keyboard-response","16","80938","0.0-2.0-2.4","","<div style=""font-size:60px;"">+</div>","null","","","","","","",""
"null","","image-keyboard-response","17","82439","0.0-2.0-0.5","","img/test2.PNG","null","practice","null","true","","","",""
"null","","html-keyboard-response","18","83440","0.0-2.0-1.5","","<img src=""img/test2-reward.PNG"">","null","","","","","","",""
"null","","html-keyboard-response","19","84441","0.0-2.0-2.5","","<div style=""font-size:60px;"">+</div>","null","","","","","","",""
"null","","image-keyboard-response","20","85944","0.0-2.0-0.6","","img/test3.PNG","null","practice","null","true","","","",""
"null","","html-keyboard-response","21","86946","0.0-2.0-1.6","","<img src=""img/test3-reward.PNG"">","null","","","","","","",""
"null","","html-keyboard-response","22","87947","0.0-2.0-2.6","","<div style=""font-size:60px;"">+</div>","null","","","","","","",""
"null","","image-keyboard-response","23","89461","0.0-2.0-0.7","","img/test2.PNG","null","practice","null","true","","","",""
"null","","html-keyboard-response","24","90463","0.0-2.0-1.7","","<img src=""img/test2-reward.PNG"">","null","","","","","","",""
"null","","html-keyboard-response","25","91464","0.0-2.0-2.7","","<div style=""font-size:60px;"">+</div>","null","","","","","","",""
"1075.1800001598895","","image-keyboard-response","26","92540","0.0-2.0-0.8","","img/test1.PNG","32","practice","32","true","","","",""
"null","","html-keyboard-response","27","93541","0.0-2.0-1.8","","<img src=""img/test1-reward.PNG"" border=""10px; grey"">","null","","","","","","",""
"null","","html-keyboard-response","28","94542","0.0-2.0-2.8","","<div style=""font-size:60px;"">+</div>","null","","","","","","",""
"null","","image-keyboard-response","29","96043","0.0-2.0-0.9","","img/test3.PNG","null","practice","null","true","","","",""
"null","","html-keyboard-response","30","97045","0.0-2.0-1.9","","<img src=""img/test3-reward.PNG"">","null","","","","","","",""
"null","","html-keyboard-response","31","98046","0.0-2.0-2.9","","<div style=""font-size:60px;"">+</div>","null","","","","","","",""
"null","","image-keyboard-response","32","99548","0.0-2.0-0.10","","img/test2.PNG","null","practice","null","true","","","",""
"null","","html-keyboard-response","33","100549","0.0-2.0-1.10","","<img src=""img/test2-reward.PNG"">","null","","","","","","",""
"null","","html-keyboard-response","34","101550","0.0-2.0-2.10","","<div style=""font-size:60px;"">+</div>","null","","","","","","",""
"508.7599998805672","","image-keyboard-response","35","102059","0.0-2.0-0.11","","img/test1.PNG","32","practice","32","true","","","",""
"null","","html-keyboard-response","36","103063","0.0-2.0-1.11","","<img src=""img/test1-reward.PNG"" border=""10px; grey"">","null","","","","","","",""
"null","","html-keyboard-response","37","104065","0.0-2.0-2.11","","<div style=""font-size:60px;"">+</div>","null","","","","","","",""
"1771.0700000170618","","instructions","38","105836","0.0-3.0","[{""page_index"":0,""viewing_time"":1770.8899998106062}]","","","","","","","","",""
"966.8000000528991","","image-keyboard-response","39","106804","0.0-4.0-0.0","","img/red.png","32","trial","32","true","0.8,0.2","1:go_a","",""
"null","","html-keyboard-response","40","107805","0.0-4.0-1.0","","<img src=""img/red-r.png"" border=""10"">","null","trial","32","","0.8,0.2","1:go_a","1",""
"null","","html-keyboard-response","41","108807","0.0-4.0-2.0","","<div style=""font-size:60px;"">+</div>","null","","","","","","",""
"860.1349999662489","","image-keyboard-response","42","109667","0.0-4.0-0.1","","img/pink.png","32","trial","null","false","0.2,0.8","2:nogo_b","",""
"null","","html-keyboard-response","43","110669","0.0-4.0-1.1","","<img src=""img/pink-n.png"" border=""10"">","null","trial","null","","0.2,0.8","2:nogo_b","0",""
"null","","html-keyboard-response","44","111670","0.0-4.0-2.1","","<div style=""font-size:60px;"">+</div>","null","","","","","","",""
"null","","image-keyboard-response","45","113172","0.0-4.0-0.2","","img/pink.png","null","trial","null","true","0.2,0.8","2:nogo_b","",""
"null","","html-keyboard-response","46","114178","0.0-4.0-1.2","","<img src=""img/pink-n.png"">","null","trial","null","","0.2,0.8","2:nogo_b","0",""
"null","","html-keyboard-response","47","115180","0.0-4.0-2.2","","<div style=""font-size:60px;"">+</div>","null","","","","","","",""
"415.59999994933605","","image-keyboard-response","48","115596","0.0-4.0-0.3","","img/red.png","32","trial","32","true","0.8,0.2","1:go_a","",""
"null","","html-keyboard-response","49","116597","0.0-4.0-1.3","","<img src=""img/red-r.png"" border=""10"">","null","trial","32","","0.8,0.2","1:go_a","1",""
"null","","html-keyboard-response","50","117599","0.0-4.0-2.3","","<div style=""font-size:60px;"">+</div>","null","","","","","","",""
"null","","image-keyboard-response","51","119100","0.0-4.0-0.4","","img/pink.png","null","trial","null","true","0.2,0.8","2:nogo_b","",""
"null","","html-keyboard-response","52","120102","0.0-4.0-1.4","","<img src=""img/pink-r.png"">","null","trial","null","","0.2,0.8","2:nogo_b","1",""
"null","","html-keyboard-response","53","121104","0.0-4.0-2.4","","<div style=""font-size:60px;"">+</div>","null","","","","","","",""
"420.0750000309199","","image-keyboard-response","54","121525","0.0-4.0-0.5","","img/red.png","32","trial","32","true","0.8,0.2","1:go_a","",""
"null","","html-keyboard-response","55","122526","0.0-4.0-1.5","","<img src=""img/red-r.png"" border=""10"">","null","trial","32","","0.8,0.2","1:go_a","1",""
"null","","html-keyboard-response","56","123536","0.0-4.0-2.5","","<div style=""font-size:60px;"">+</div>","null","","","","","","",""
"null","","image-keyboard-response","57","125037","0.0-4.0-0.6","","img/pink.png","null","trial","null","true","0.2,0.8","2:nogo_b","",""
"null","","html-keyboard-response","58","126039","0.0-4.0-1.6","","<img src=""img/pink-n.png"">","null","trial","null","","0.2,0.8","2:nogo_b","0",""
"null","","html-keyboard-response","59","127040","0.0-4.0-2.6","","<div style=""font-size:60px;"">+</div>","null","","","","","","",""
"426.7400000244379","","image-keyboard-response","60","127468","0.0-4.0-0.7","","img/red.png","32","trial","32","true","0.8,0.2","1:go_a","",""
"null","","html-keyboard-response","61","128470","0.0-4.0-1.7","","<img src=""img/red-n.png"" border=""10"">","null","trial","32","","0.8,0.2","1:go_a","0",""
"null","","html-keyboard-response","62","129472","0.0-4.0-2.7","","<div style=""font-size:60px;"">+</div>","null","","","","","","",""
"null","","image-keyboard-response","63","130974","0.0-4.0-0.8","","img/pink.png","null","trial","null","true","0.2,0.8","2:nogo_b","",""
"null","","html-keyboard-response","64","131979","0.0-4.0-1.8","","<img src=""img/pink-r.png"">","null","trial","null","","0.2,0.8","2:nogo_b","1",""
"null","","html-keyboard-response","65","132980","0.0-4.0-2.8","","<div style=""font-size:60px;"">+</div>","null","","","","","","",""
"439.7799998987466","","image-keyboard-response","66","133420","0.0-4.0-0.9","","img/red.png","32","trial","32","true","0.8,0.2","1:go_a","",""
"null","","html-keyboard-response","67","134422","0.0-4.0-1.9","","<img src=""img/red-r.png"" border=""10"">","null","trial","32","","0.8,0.2","1:go_a","1",""
"null","","html-keyboard-response","68","135424","0.0-4.0-2.9","","<div style=""font-size:60px;"">+</div>","null","","","","","","",""
"683.1500001717359","","image-keyboard-response","69","136108","0.0-4.0-0.10","","img/red.png","32","trial","32","true","0.8,0.2","1:go_a","",""
"null","","html-keyboard-response","70","137111","0.0-4.0-1.10","","<img src=""img/red-r.png"" border=""10"">","null","trial","32","","0.8,0.2","1:go_a","1",""
"null","","html-keyboard-response","71","138113","0.0-4.0-2.10","","<div style=""font-size:60px;"">+</div>","null","","","","","","",""
"null","","image-keyboard-response","72","139614","0.0-4.0-0.11","","img/pink.png","null","trial","null","true","0.2,0.8","2:nogo_b","",""
"null","","html-keyboard-response","73","140616","0.0-4.0-1.11","","<img src=""img/pink-r.png"">","null","trial","null","","0.2,0.8","2:nogo_b","1",""
"null","","html-keyboard-response","74","141632","0.0-4.0-2.11","","<div style=""font-size:60px;"">+</div>","null","","","","","","",""
"null","","image-keyboard-response","75","143134","0.0-4.0-0.12","","img/pink.png","null","trial","null","true","0.2,0.8","2:nogo_b","",""
"null","","html-keyboard-response","76","144136","0.0-4.0-1.12","","<img src=""img/pink-r.png"">","null","trial","null","","0.2,0.8","2:nogo_b","1",""
"null","","html-keyboard-response","77","145137","0.0-4.0-2.12","","<div style=""font-size:60px;"">+</div>","null","","","","","","",""
"540.1200000196695","","image-keyboard-response","78","145677","0.0-4.0-0.13","","img/red.png","32","trial","32","true","0.8,0.2","1:go_a","",""
"null","","html-keyboard-response","79","146679","0.0-4.0-1.13","","<img src=""img/red-r.png"" border=""10"">","null","trial","32","","0.8,0.2","1:go_a","1",""
"null","","html-keyboard-response","80","147681","0.0-4.0-2.13","","<div style=""font-size:60px;"">+</div>","null","","","","","","",""
"1297.1350001171231","","image-keyboard-response","81","148980","0.0-4.0-0.14","","img/red.png","32","trial","32","true","0.8,0.2","1:go_a","",""
"null","","html-keyboard-response","82","149982","0.0-4.0-1.14","","<img src=""img/red-r.png"" border=""10"">","null","trial","32","","0.8,0.2","1:go_a","1",""
"null","","html-keyboard-response","83","150983","0.0-4.0-2.14","","<div style=""font-size:60px;"">+</div>","null","","","","","","",""
"null","","image-keyboard-response","84","152484","0.0-4.0-0.15","","img/pink.png","null","trial","null","true","0.2,0.8","2:nogo_b","",""
"null","","html-keyboard-response","85","153486","0.0-4.0-1.15","","<img src=""img/pink-r.png"">","null","trial","null","","0.2,0.8","2:nogo_b","1",""
"null","","html-keyboard-response","86","154487","0.0-4.0-2.15","","<div style=""font-size:60px;"">+</div>","null","","","","","","",""
"null","","image-keyboard-response","87","155989","0.0-4.0-0.16","","img/pink.png","null","trial","null","true","0.2,0.8","2:nogo_b","",""
"null","","html-keyboard-response","88","156991","0.0-4.0-1.16","","<img src=""img/pink-r.png"">","null","trial","null","","0.2,0.8","2:nogo_b","1",""
"null","","html-keyboard-response","89","157992","0.0-4.0-2.16","","<div style=""font-size:60px;"">+</div>","null","","","","","","",""
"514.7249998990446","","image-keyboard-response","90","158508","0.0-4.0-0.17","","img/red.png","32","trial","32","true","0.8,0.2","1:go_a","",""
"null","","html-keyboard-response","91","159509","0.0-4.0-1.17","","<img src=""img/red-r.png"" border=""10"">","null","trial","32","","0.8,0.2","1:go_a","1",""
"null","","html-keyboard-response","92","160511","0.0-4.0-2.17","","<div style=""font-size:60px;"">+</div>","null","","","","","","",""
"532.5499998871237","","image-keyboard-response","93","161044","0.0-4.0-0.18","","img/red.png","32","trial","32","true","0.8,0.2","1:go_a","",""
"null","","html-keyboard-response","94","162046","0.0-4.0-1.18","","<img src=""img/red-r.png"" border=""10"">","null","trial","32","","0.8,0.2","1:go_a","1",""
"null","","html-keyboard-response","95","163047","0.0-4.0-2.18","","<div style=""font-size:60px;"">+</div>","null","","","","","","",""
"null","","image-keyboard-response","96","164548","0.0-4.0-0.19","","img/pink.png","null","trial","null","true","0.2,0.8","2:nogo_b","",""
"null","","html-keyboard-response","97","165550","0.0-4.0-1.19","","<img src=""img/pink-n.png"">","null","trial","null","","0.2,0.8","2:nogo_b","0",""
"null","","html-keyboard-response","98","166551","0.0-4.0-2.19","","<div style=""font-size:60px;"">+</div>","null","","","","","","",""
"539.5949999801815","","image-keyboard-response","99","167092","0.0-4.0-0.20","","img/red.png","32","trial","32","true","0.8,0.2","1:go_a","",""
"null","","html-keyboard-response","100","168093","0.0-4.0-1.20","","<img src=""img/red-r.png"" border=""10"">","null","trial","32","","0.8,0.2","1:go_a","1",""
"null","","html-keyboard-response","101","169095","0.0-4.0-2.20","","<div style=""font-size:60px;"">+</div>","null","","","","","","",""
"null","","image-keyboard-response","102","170596","0.0-4.0-0.21","","img/pink.png","null","trial","null","true","0.2,0.8","2:nogo_b","",""
"null","","html-keyboard-response","103","171598","0.0-4.0-1.21","","<img src=""img/pink-r.png"">","null","trial","null","","0.2,0.8","2:nogo_b","1",""
"null","","html-keyboard-response","104","172599","0.0-4.0-2.21","","<div style=""font-size:60px;"">+</div>","null","","","","","","",""
"373.3149999752641","","image-keyboard-response","105","172972","0.0-4.0-0.22","","img/red.png","32","trial","32","true","0.8,0.2","1:go_a","",""
"null","","html-keyboard-response","106","173974","0.0-4.0-1.22","","<img src=""img/red-r.png"" border=""10"">","null","trial","32","","0.8,0.2","1:go_a","1",""
"null","","html-keyboard-response","107","174976","0.0-4.0-2.22","","<div style=""font-size:60px;"">+</div>","null","","","","","","",""
"null","","image-keyboard-response","108","176476","0.0-4.0-0.23","","img/pink.png","null","trial","null","true","0.2,0.8","2:nogo_b","",""
"null","","html-keyboard-response","109","177478","0.0-4.0-1.23","","<img src=""img/pink-r.png"">","null","trial","null","","0.2,0.8","2:nogo_b","1",""
"null","","html-keyboard-response","110","178479","0.0-4.0-2.23","","<div style=""font-size:60px;"">+</div>","null","","","","","","",""
"null","","image-keyboard-response","111","179980","0.0-4.0-0.24","","img/pink.png","null","trial","null","true","0.2,0.8","2:nogo_b","",""
"null","","html-keyboard-response","112","180982","0.0-4.0-1.24","","<img src=""img/pink-n.png"">","null","trial","null","","0.2,0.8","2:nogo_b","0",""
"null","","html-keyboard-response","113","181983","0.0-4.0-2.24","","<div style=""font-size:60px;"">+</div>","null","","","","","","",""
"700.4600001964718","","image-keyboard-response","114","182684","0.0-4.0-0.25","","img/red.png","32","trial","32","true","0.8,0.2","1:go_a","",""
"null","","html-keyboard-response","115","183685","0.0-4.0-1.25","","<img src=""img/red-r.png"" border=""10"">","null","trial","32","","0.8,0.2","1:go_a","1",""
"null","","html-keyboard-response","116","184686","0.0-4.0-2.25","","<div style=""font-size:60px;"">+</div>","null","","","","","","",""
"null","","image-keyboard-response","117","186187","0.0-4.0-0.26","","img/pink.png","null","trial","null","true","0.2,0.8","2:nogo_b","",""
"null","","html-keyboard-response","118","187188","0.0-4.0-1.26","","<img src=""img/pink-n.png"">","null","trial","null","","0.2,0.8","2:nogo_b","0",""
"null","","html-keyboard-response","119","188190","0.0-4.0-2.26","","<div style=""font-size:60px;"">+</div>","null","","","","","","",""
"429.8050000797957","","image-keyboard-response","120","188621","0.0-4.0-0.27","","img/red.png","32","trial","32","true","0.8,0.2","1:go_a","",""
"null","","html-keyboard-response","121","189623","0.0-4.0-1.27","","<img src=""img/red-n.png"" border=""10"">","null","trial","32","","0.8,0.2","1:go_a","0",""
"null","","html-keyboard-response","122","190624","0.0-4.0-2.27","","<div style=""font-size:60px;"">+</div>","null","","","","","","",""
"null","","image-keyboard-response","123","192126","0.0-4.0-0.28","","img/pink.png","null","trial","null","true","0.2,0.8","2:nogo_b","",""
"null","","html-keyboard-response","124","193128","0.0-4.0-1.28","","<img src=""img/pink-r.png"">","null","trial","null","","0.2,0.8","2:nogo_b","1",""
"null","","html-keyboard-response","125","194129","0.0-4.0-2.28","","<div style=""font-size:60px;"">+</div>","null","","","","","","",""
"330.0850000232458","","image-keyboard-response","126","194460","0.0-4.0-0.29","","img/red.png","32","trial","32","true","0.8,0.2","1:go_a","",""
"null","","html-keyboard-response","127","195462","0.0-4.0-1.29","","<img src=""img/red-r.png"" border=""10"">","null","trial","32","","0.8,0.2","1:go_a","1",""
"null","","html-keyboard-response","128","196464","0.0-4.0-2.29","","<div style=""font-size:60px;"">+</div>","null","","","","","","",""
"635.5700001586229","","image-keyboard-response","129","197100","0.0-4.0-0.30","","img/red.png","32","trial","32","true","0.8,0.2","1:go_a","",""
"null","","html-keyboard-response","130","198102","0.0-4.0-1.30","","<img src=""img/red-r.png"" border=""10"">","null","trial","32","","0.8,0.2","1:go_a","1",""
"null","","html-keyboard-response","131","199104","0.0-4.0-2.30","","<div style=""font-size:60px;"">+</div>","null","","","","","","",""
"null","","image-keyboard-response","132","200619","0.0-4.0-0.31","","img/pink.png","null","trial","null","true","0.2,0.8","2:nogo_b","",""
"null","","html-keyboard-response","133","201622","0.0-4.0-1.31","","<img src=""img/pink-r.png"">","null","trial","null","","0.2,0.8","2:nogo_b","1",""
"null","","html-keyboard-response","134","202622","0.0-4.0-2.31","","<div style=""font-size:60px;"">+</div>","null","","","","","","",""
"null","","image-keyboard-response","135","204124","0.0-4.0-0.32","","img/pink.png","null","trial","null","true","0.2,0.8","2:nogo_b","",""
"null","","html-keyboard-response","136","205126","0.0-4.0-1.32","","<img src=""img/pink-r.png"">","null","trial","null","","0.2,0.8","2:nogo_b","1",""
"null","","html-keyboard-response","137","206127","0.0-4.0-2.32","","<div style=""font-size:60px;"">+</div>","null","","","","","","",""
"435.2600001730025","","image-keyboard-response","138","206564","0.0-4.0-0.33","","img/red.png","32","trial","32","true","0.8,0.2","1:go_a","",""
"null","","html-keyboard-response","139","207565","0.0-4.0-1.33","","<img src=""img/red-n.png"" border=""10"">","null","trial","32","","0.8,0.2","1:go_a","0",""
"null","","html-keyboard-response","140","208566","0.0-4.0-2.33","","<div style=""font-size:60px;"">+</div>","null","","","","","","",""
"493.30999981611967","","image-keyboard-response","141","209060","0.0-4.0-0.34","","img/red.png","32","trial","32","true","0.8,0.2","1:go_a","",""
"null","","html-keyboard-response","142","210061","0.0-4.0-1.34","","<img src=""img/red-r.png"" border=""10"">","null","trial","32","","0.8,0.2","1:go_a","1",""
"null","","html-keyboard-response","143","211062","0.0-4.0-2.34","","<div style=""font-size:60px;"">+</div>","null","","","","","","",""
"null","","image-keyboard-response","144","212564","0.0-4.0-0.35","","img/pink.png","null","trial","null","true","0.2,0.8","2:nogo_b","",""
"null","","html-keyboard-response","145","213567","0.0-4.0-1.35","","<img src=""img/pink-r.png"">","null","trial","null","","0.2,0.8","2:nogo_b","1",""
"null","","html-keyboard-response","146","214568","0.0-4.0-2.35","","<div style=""font-size:60px;"">+</div>","null","","","","","","",""
"523.130000103265","","image-keyboard-response","147","215091","0.0-4.0-0.36","","img/red.png","32","trial","32","true","0.8,0.2","1:go_a","",""
"null","","html-keyboard-response","148","216093","0.0-4.0-1.36","","<img src=""img/red-r.png"" border=""10"">","null","trial","32","","0.8,0.2","1:go_a","1",""
"null","","html-keyboard-response","149","217095","0.0-4.0-2.36","","<div style=""font-size:60px;"">+</div>","null","","","","","","",""
"null","","image-keyboard-response","150","218596","0.0-4.0-0.37","","img/pink.png","null","trial","null","true","0.2,0.8","2:nogo_b","",""
"null","","html-keyboard-response","151","219597","0.0-4.0-1.37","","<img src=""img/pink-r.png"">","null","trial","null","","0.2,0.8","2:nogo_b","1",""
"null","","html-keyboard-response","152","220597","0.0-4.0-2.37","","<div style=""font-size:60px;"">+</div>","null","","","","","","",""
"365.69999996572733","","image-keyboard-response","153","220964","0.0-4.0-0.38","","img/red.png","32","trial","32","true","0.8,0.2","1:go_a","",""
"null","","html-keyboard-response","154","221966","0.0-4.0-1.38","","<img src=""img/red-r.png"" border=""10"">","null","trial","32","","0.8,0.2","1:go_a","1",""
"null","","html-keyboard-response","155","222968","0.0-4.0-2.38","","<div style=""font-size:60px;"">+</div>","null","","","","","","",""
"null","","image-keyboard-response","156","224470","0.0-4.0-0.39","","img/pink.png","null","trial","null","true","0.2,0.8","2:nogo_b","",""
"null","","html-keyboard-response","157","225471","0.0-4.0-1.39","","<img src=""img/pink-r.png"">","null","trial","null","","0.2,0.8","2:nogo_b","1",""
"null","","html-keyboard-response","158","226473","0.0-4.0-2.39","","<div style=""font-size:60px;"">+</div>","null","","","","","","",""
"null","","image-keyboard-response","159","227975","0.0-4.0-0.40","","img/pink.png","null","trial","null","true","0.2,0.8","2:nogo_b","",""
"null","","html-keyboard-response","160","228976","0.0-4.0-1.40","","<img src=""img/pink-r.png"">","null","trial","null","","0.2,0.8","2:nogo_b","1",""
"null","","html-keyboard-response","161","229977","0.0-4.0-2.40","","<div style=""font-size:60px;"">+</div>","null","","","","","","",""
"497.68500006757677","","image-keyboard-response","162","230476","0.0-4.0-0.41","","img/red.png","32","trial","32","true","0.8,0.2","1:go_a","",""
"null","","html-keyboard-response","163","231478","0.0-4.0-1.41","","<img src=""img/red-r.png"" border=""10"">","null","trial","32","","0.8,0.2","1:go_a","1",""
"null","","html-keyboard-response","164","232479","0.0-4.0-2.41","","<div style=""font-size:60px;"">+</div>","null","","","","","","",""
"null","","image-keyboard-response","165","233981","0.0-4.0-0.42","","img/pink.png","null","trial","null","true","0.2,0.8","2:nogo_b","",""
"null","","html-keyboard-response","166","234983","0.0-4.0-1.42","","<img src=""img/pink-r.png"">","null","trial","null","","0.2,0.8","2:nogo_b","1",""
"null","","html-keyboard-response","167","235993","0.0-4.0-2.42","","<div style=""font-size:60px;"">+</div>","null","","","","","","",""
"474.71500001847744","","image-keyboard-response","168","236468","0.0-4.0-0.43","","img/red.png","32","trial","32","true","0.8,0.2","1:go_a","",""
"null","","html-keyboard-response","169","237479","0.0-4.0-1.43","","<img src=""img/red-r.png"" border=""10"">","null","trial","32","","0.8,0.2","1:go_a","1",""
"null","","html-keyboard-response","170","238481","0.0-4.0-2.43","","<div style=""font-size:60px;"">+</div>","null","","","","","","",""
"null","","image-keyboard-response","171","239998","0.0-4.0-0.44","","img/pink.png","null","trial","null","true","0.2,0.8","2:nogo_b","",""
"null","","html-keyboard-response","172","240999","0.0-4.0-1.44","","<img src=""img/pink-r.png"">","null","trial","null","","0.2,0.8","2:nogo_b","1",""
"null","","html-keyboard-response","173","242000","0.0-4.0-2.44","","<div style=""font-size:60px;"">+</div>","null","","","","","","",""
"467.6200000103563","","image-keyboard-response","174","242468","0.0-4.0-0.45","","img/red.png","32","trial","32","true","0.8,0.2","1:go_a","",""
"null","","html-keyboard-response","175","243470","0.0-4.0-1.45","","<img src=""img/red-r.png"" border=""10"">","null","trial","32","","0.8,0.2","1:go_a","1",""
"null","","html-keyboard-response","176","244477","0.0-4.0-2.45","","<div style=""font-size:60px;"">+</div>","null","","","","","","",""
"486.39999981969595","","image-keyboard-response","177","244964","0.0-4.0-0.46","","img/red.png","32","trial","32","true","0.8,0.2","1:go_a","",""
"null","","html-keyboard-response","178","245965","0.0-4.0-1.46","","<img src=""img/red-r.png"" border=""10"">","null","trial","32","","0.8,0.2","1:go_a","1",""
"null","","html-keyboard-response","179","246966","0.0-4.0-2.46","","<div style=""font-size:60px;"">+</div>","null","","","","","","",""
"null","","image-keyboard-response","180","248467","0.0-4.0-0.47","","img/pink.png","null","trial","null","true","0.2,0.8","2:nogo_b","",""
"null","","html-keyboard-response","181","249469","0.0-4.0-1.47","","<img src=""img/pink-n.png"">","null","trial","null","","0.2,0.8","2:nogo_b","0",""
"null","","html-keyboard-response","182","250470","0.0-4.0-2.47","","<div style=""font-size:60px;"">+</div>","null","","","","","","",""
"null","","image-keyboard-response","183","251985","0.0-4.0-0.48","","img/pink.png","null","trial","null","true","0.2,0.8","2:nogo_b","",""
"null","","html-keyboard-response","184","252987","0.0-4.0-1.48","","<img src=""img/pink-r.png"">","null","trial","null","","0.2,0.8","2:nogo_b","1",""
"null","","html-keyboard-response","185","253988","0.0-4.0-2.48","","<div style=""font-size:60px;"">+</div>","null","","","","","","",""
"327.73500005714595","","image-keyboard-response","186","254316","0.0-4.0-0.49","","img/red.png","32","trial","32","true","0.8,0.2","1:go_a","",""
"null","","html-keyboard-response","187","255318","0.0-4.0-1.49","","<img src=""img/red-n.png"" border=""10"">","null","trial","32","","0.8,0.2","1:go_a","0",""
"null","","html-keyboard-response","188","256319","0.0-4.0-2.49","","<div style=""font-size:60px;"">+</div>","null","","","","","","",""
"null","","image-keyboard-response","189","257821","0.0-4.0-0.50","","img/pink.png","null","trial","null","true","0.2,0.8","2:nogo_b","",""
"null","","html-keyboard-response","190","258823","0.0-4.0-1.50","","<img src=""img/pink-n.png"">","null","trial","null","","0.2,0.8","2:nogo_b","0",""
"null","","html-keyboard-response","191","259824","0.0-4.0-2.50","","<div style=""font-size:60px;"">+</div>","null","","","","","","",""
"387.30500009842217","","image-keyboard-response","192","260212","0.0-4.0-0.51","","img/red.png","32","trial","32","true","0.8,0.2","1:go_a","",""
"null","","html-keyboard-response","193","261214","0.0-4.0-1.51","","<img src=""img/red-r.png"" border=""10"">","null","trial","32","","0.8,0.2","1:go_a","1",""
"null","","html-keyboard-response","194","262215","0.0-4.0-2.51","","<div style=""font-size:60px;"">+</div>","null","","","","","","",""
"843.9449998550117","","image-keyboard-response","195","263059","0.0-4.0-0.52","","img/red.png","32","trial","32","true","0.8,0.2","1:go_a","",""
"null","","html-keyboard-response","196","264062","0.0-4.0-1.52","","<img src=""img/red-n.png"" border=""10"">","null","trial","32","","0.8,0.2","1:go_a","0",""
"null","","html-keyboard-response","197","265063","0.0-4.0-2.52","","<div style=""font-size:60px;"">+</div>","null","","","","","","",""
"null","","image-keyboard-response","198","266565","0.0-4.0-0.53","","img/pink.png","null","trial","null","true","0.2,0.8","2:nogo_b","",""
"null","","html-keyboard-response","199","267566","0.0-4.0-1.53","","<img src=""img/pink-n.png"">","null","trial","null","","0.2,0.8","2:nogo_b","0",""
"null","","html-keyboard-response","200","268567","0.0-4.0-2.53","","<div style=""font-size:60px;"">+</div>","null","","","","","","",""
"379.93500009179115","","image-keyboard-response","201","268948","0.0-4.0-0.54","","img/red.png","32","trial","32","true","0.8,0.2","1:go_a","",""
"null","","html-keyboard-response","202","269964","0.0-4.0-1.54","","<img src=""img/red-n.png"" border=""10"">","null","trial","32","","0.8,0.2","1:go_a","0",""
"null","","html-keyboard-response","203","270966","0.0-4.0-2.54","","<div style=""font-size:60px;"">+</div>","null","","","","","","",""
"null","","image-keyboard-response","204","272468","0.0-4.0-0.55","","img/pink.png","null","trial","null","true","0.2,0.8","2:nogo_b","",""
"null","","html-keyboard-response","205","273470","0.0-4.0-1.55","","<img src=""img/pink-r.png"">","null","trial","null","","0.2,0.8","2:nogo_b","1",""
"null","","html-keyboard-response","206","274471","0.0-4.0-2.55","","<div style=""font-size:60px;"">+</div>","null","","","","","","",""
"null","","image-keyboard-response","207","275973","0.0-4.0-0.56","","img/pink.png","null","trial","null","true","0.2,0.8","2:nogo_b","",""
"null","","html-keyboard-response","208","276974","0.0-4.0-1.56","","<img src=""img/pink-r.png"">","null","trial","null","","0.2,0.8","2:nogo_b","1",""
"null","","html-keyboard-response","209","277975","0.0-4.0-2.56","","<div style=""font-size:60px;"">+</div>","null","","","","","","",""
"436.0100000631064","","image-keyboard-response","210","278412","0.0-4.0-0.57","","img/red.png","32","trial","32","true","0.8,0.2","1:go_a","",""
"null","","html-keyboard-response","211","279413","0.0-4.0-1.57","","<img src=""img/red-r.png"" border=""10"">","null","trial","32","","0.8,0.2","1:go_a","1",""
"null","","html-keyboard-response","212","280414","0.0-4.0-2.57","","<div style=""font-size:60px;"">+</div>","null","","","","","","",""
"null","","image-keyboard-response","213","281916","0.0-4.0-0.58","","img/pink.png","null","trial","null","true","0.2,0.8","2:nogo_b","",""
"null","","html-keyboard-response","214","282917","0.0-4.0-1.58","","<img src=""img/pink-n.png"">","null","trial","null","","0.2,0.8","2:nogo_b","0",""
"null","","html-keyboard-response","215","283919","0.0-4.0-2.58","","<div style=""font-size:60px;"">+</div>","null","","","","","","",""
"484.65500003658235","","image-keyboard-response","216","284404","0.0-4.0-0.59","","img/red.png","32","trial","32","true","0.8,0.2","1:go_a","",""
"null","","html-keyboard-response","217","285420","0.0-4.0-1.59","","<img src=""img/red-r.png"" border=""10"">","null","trial","32","","0.8,0.2","1:go_a","1",""
"null","","html-keyboard-response","218","286430","0.0-4.0-2.59","","<div style=""font-size:60px;"">+</div>","null","","","","","","",""
"3357.1350001730025","","instructions","219","289788","0.0-5.0","[{""page_index"":0,""viewing_time"":3356.8400000222027}]","","","","","","","","",""
"686.930000083521","","image-keyboard-response","220","290475","0.0-6.0-0.0","","img/green.png","32","trial","null","false","0.4,0.6","4:nogo_d","",""
"null","","html-keyboard-response","221","291490","0.0-6.0-1.0","","<img src=""img/green-r.png"" border=""10"">","null","trial","null","","0.4,0.6","4:nogo_d","1",""
"null","","html-keyboard-response","222","292491","0.0-6.0-2.0","","<div style=""font-size:60px;"">+</div>","null","","","","","","",""
"656.2850000336766","","image-keyboard-response","223","293148","0.0-6.0-0.1","","img/grey.png","32","trial","32","true","0.6,0.4","3:go_c","",""
"null","","html-keyboard-response","224","294150","0.0-6.0-1.1","","<img src=""img/grey-n.png"" border=""10"">","null","trial","32","","0.6,0.4","3:go_c","0",""
"null","","html-keyboard-response","225","295150","0.0-6.0-2.1","","<div style=""font-size:60px;"">+</div>","null","","","","","","",""
"null","","image-keyboard-response","226","296652","0.0-6.0-0.2","","img/pink.png","null","trial","null","true","0.2,0.8","2:nogo_b","",""
"null","","html-keyboard-response","227","297655","0.0-6.0-1.2","","<img src=""img/pink-r.png"">","null","trial","null","","0.2,0.8","2:nogo_b","1",""
"null","","html-keyboard-response","228","298657","0.0-6.0-2.2","","<div style=""font-size:60px;"">+</div>","null","","","","","","",""
"1002.8399999719113","","image-keyboard-response","229","299660","0.0-6.0-0.3","","img/blue.png","32","trial","32","true","0.8,0.2","1:go_a","",""
"null","","html-keyboard-response","230","300661","0.0-6.0-1.3","","<img src=""img/blue-r.png"" border=""10"">","null","trial","32","","0.8,0.2","1:go_a","1",""
"null","","html-keyboard-response","231","301662","0.0-6.0-2.3","","<div style=""font-size:60px;"">+</div>","null","","","","","","",""
"null","","image-keyboard-response","232","303163","0.0-6.0-0.4","","img/grey.png","null","trial","32","false","0.6,0.4","3:go_c","",""
"null","","html-keyboard-response","233","304165","0.0-6.0-1.4","","<img src=""img/grey-r.png"">","null","trial","32","","0.6,0.4","3:go_c","1",""
"null","","html-keyboard-response","234","305167","0.0-6.0-2.4","","<div style=""font-size:60px;"">+</div>","null","","","","","","",""
"460.21499997004867","","image-keyboard-response","235","305627","0.0-6.0-0.5","","img/green.png","32","trial","null","false","0.4,0.6","4:nogo_d","",""
"null","","html-keyboard-response","236","306629","0.0-6.0-1.5","","<img src=""img/green-r.png"" border=""10"">","null","trial","null","","0.4,0.6","4:nogo_d","1",""
"null","","html-keyboard-response","237","307630","0.0-6.0-2.5","","<div style=""font-size:60px;"">+</div>","null","","","","","","",""
"484.6699999179691","","image-keyboard-response","238","308116","0.0-6.0-0.6","","img/blue.png","32","trial","32","true","0.8,0.2","1:go_a","",""
"null","","html-keyboard-response","239","309118","0.0-6.0-1.6","","<img src=""img/blue-r.png"" border=""10"">","null","trial","32","","0.8,0.2","1:go_a","1",""
"null","","html-keyboard-response","240","310119","0.0-6.0-2.6","","<div style=""font-size:60px;"">+</div>","null","","","","","","",""
"null","","image-keyboard-response","241","311621","0.0-6.0-0.7","","img/pink.png","null","trial","null","true","0.2,0.8","2:nogo_b","",""
"null","","html-keyboard-response","242","312624","0.0-6.0-1.7","","<img src=""img/pink-r.png"">","null","trial","null","","0.2,0.8","2:nogo_b","1",""
"null","","html-keyboard-response","243","313626","0.0-6.0-2.7","","<div style=""font-size:60px;"">+</div>","null","","","","","","",""
"481.8049999885261","","image-keyboard-response","244","314108","0.0-6.0-0.8","","img/blue.png","32","trial","32","true","0.8,0.2","1:go_a","",""
"null","","html-keyboard-response","245","315110","0.0-6.0-1.8","","<img src=""img/blue-r.png"" border=""10"">","null","trial","32","","0.8,0.2","1:go_a","1",""
"null","","html-keyboard-response","246","316111","0.0-6.0-2.8","","<div style=""font-size:60px;"">+</div>","null","","","","","","",""
"null","","image-keyboard-response","247","317613","0.0-6.0-0.9","","img/pink.png","null","trial","null","true","0.2,0.8","2:nogo_b","",""
"null","","html-keyboard-response","248","318620","0.0-6.0-1.9","","<img src=""img/pink-r.png"">","null","trial","null","","0.2,0.8","2:nogo_b","1",""
"null","","html-keyboard-response","249","319622","0.0-6.0-2.9","","<div style=""font-size:60px;"">+</div>","null","","","","","","",""
"613.5300002060831","","image-keyboard-response","250","320236","0.0-6.0-0.10","","img/green.png","32","trial","null","false","0.4,0.6","4:nogo_d","",""
"null","","html-keyboard-response","251","321238","0.0-6.0-1.10","","<img src=""img/green-r.png"" border=""10"">","null","trial","null","","0.4,0.6","4:nogo_d","1",""
"null","","html-keyboard-response","252","322240","0.0-6.0-2.10","","<div style=""font-size:60px;"">+</div>","null","","","","","","",""
"null","","image-keyboard-response","253","323741","0.0-6.0-0.11","","img/grey.png","null","trial","32","false","0.6,0.4","3:go_c","",""
"null","","html-keyboard-response","254","324743","0.0-6.0-1.11","","<img src=""img/grey-r.png"">","null","trial","32","","0.6,0.4","3:go_c","1",""
"null","","html-keyboard-response","255","325744","0.0-6.0-2.11","","<div style=""font-size:60px;"">+</div>","null","","","","","","",""
"491.98000016622245","","image-keyboard-response","256","326236","0.0-6.0-0.12","","img/green.png","32","trial","null","false","0.4,0.6","4:nogo_d","",""
"null","","html-keyboard-response","257","327237","0.0-6.0-1.12","","<img src=""img/green-n.png"" border=""10"">","null","trial","null","","0.4,0.6","4:nogo_d","0",""
"null","","html-keyboard-response","258","328238","0.0-6.0-2.12","","<div style=""font-size:60px;"">+</div>","null","","","","","","",""
"null","","image-keyboard-response","259","329740","0.0-6.0-0.13","","img/grey.png","null","trial","32","false","0.6,0.4","3:go_c","",""
"null","","html-keyboard-response","260","330742","0.0-6.0-1.13","","<img src=""img/grey-n.png"">","null","trial","32","","0.6,0.4","3:go_c","0",""
"null","","html-keyboard-response","261","331743","0.0-6.0-2.13","","<div style=""font-size:60px;"">+</div>","null","","","","","","",""
"null","","image-keyboard-response","262","333245","0.0-6.0-0.14","","img/pink.png","null","trial","null","true","0.2,0.8","2:nogo_b","",""
"null","","html-keyboard-response","263","334247","0.0-6.0-1.14","","<img src=""img/pink-r.png"">","null","trial","null","","0.2,0.8","2:nogo_b","1",""
"null","","html-keyboard-response","264","335249","0.0-6.0-2.14","","<div style=""font-size:60px;"">+</div>","null","","","","","","",""
"529.625000199303","","image-keyboard-response","265","335779","0.0-6.0-0.15","","img/blue.png","32","trial","32","true","0.8,0.2","1:go_a","",""
"null","","html-keyboard-response","266","336781","0.0-6.0-1.15","","<img src=""img/blue-r.png"" border=""10"">","null","trial","32","","0.8,0.2","1:go_a","1",""
"null","","html-keyboard-response","267","337783","0.0-6.0-2.15","","<div style=""font-size:60px;"">+</div>","null","","","","","","",""
"460.5100001208484","","image-keyboard-response","268","338244","0.0-6.0-0.16","","img/green.png","32","trial","null","false","0.4,0.6","4:nogo_d","",""
"null","","html-keyboard-response","269","339245","0.0-6.0-1.16","","<img src=""img/green-r.png"" border=""10"">","null","trial","null","","0.4,0.6","4:nogo_d","1",""
"null","","html-keyboard-response","270","340246","0.0-6.0-2.16","","<div style=""font-size:60px;"">+</div>","null","","","","","","",""
"null","","image-keyboard-response","271","341749","0.0-6.0-0.17","","img/grey.png","null","trial","32","false","0.6,0.4","3:go_c","",""
"null","","html-keyboard-response","272","342750","0.0-6.0-1.17","","<img src=""img/grey-r.png"">","null","trial","32","","0.6,0.4","3:go_c","1",""
"null","","html-keyboard-response","273","343751","0.0-6.0-2.17","","<div style=""font-size:60px;"">+</div>","null","","","","","","",""
"475.57999985292554","","image-keyboard-response","274","344227","0.0-6.0-0.18","","img/blue.png","32","trial","32","true","0.8,0.2","1:go_a","",""
"null","","html-keyboard-response","275","345229","0.0-6.0-1.18","","<img src=""img/blue-r.png"" border=""10"">","null","trial","32","","0.8,0.2","1:go_a","1",""
"null","","html-keyboard-response","276","346231","0.0-6.0-2.18","","<div style=""font-size:60px;"">+</div>","null","","","","","","",""
"null","","image-keyboard-response","277","347732","0.0-6.0-0.19","","img/pink.png","null","trial","null","true","0.2,0.8","2:nogo_b","",""
"null","","html-keyboard-response","278","348734","0.0-6.0-1.19","","<img src=""img/pink-r.png"">","null","trial","null","","0.2,0.8","2:nogo_b","1",""
"null","","html-keyboard-response","279","349735","0.0-6.0-2.19","","<div style=""font-size:60px;"">+</div>","null","","","","","","",""
"452.3300000000745","","image-keyboard-response","280","350188","0.0-6.0-0.20","","img/blue.png","32","trial","32","true","0.8,0.2","1:go_a","",""
"null","","html-keyboard-response","281","351189","0.0-6.0-1.20","","<img src=""img/blue-r.png"" border=""10"">","null","trial","32","","0.8,0.2","1:go_a","1",""
"null","","html-keyboard-response","282","352190","0.0-6.0-2.20","","<div style=""font-size:60px;"">+</div>","null","","","","","","",""
"null","","image-keyboard-response","283","353692","0.0-6.0-0.21","","img/pink.png","null","trial","null","true","0.2,0.8","2:nogo_b","",""
"null","","html-keyboard-response","284","354694","0.0-6.0-1.21","","<img src=""img/pink-r.png"">","null","trial","null","","0.2,0.8","2:nogo_b","1",""
"null","","html-keyboard-response","285","355695","0.0-6.0-2.21","","<div style=""font-size:60px;"">+</div>","null","","","","","","",""
"444.38000000081956","","image-keyboard-response","286","356140","0.0-6.0-0.22","","img/green.png","32","trial","null","false","0.4,0.6","4:nogo_d","",""
"null","","html-keyboard-response","287","357148","0.0-6.0-1.22","","<img src=""img/green-r.png"" border=""10"">","null","trial","null","","0.4,0.6","4:nogo_d","1",""
"null","","html-keyboard-response","288","358158","0.0-6.0-2.22","","<div style=""font-size:60px;"">+</div>","null","","","","","","",""
"null","","image-keyboard-response","289","359660","0.0-6.0-0.23","","img/grey.png","null","trial","32","false","0.6,0.4","3:go_c","",""
"null","","html-keyboard-response","290","360666","0.0-6.0-1.23","","<img src=""img/grey-r.png"">","null","trial","32","","0.6,0.4","3:go_c","1",""
"null","","html-keyboard-response","291","361668","0.0-6.0-2.23","","<div style=""font-size:60px;"">+</div>","null","","","","","","",""
"null","","image-keyboard-response","292","363169","0.0-6.0-0.24","","img/grey.png","null","trial","32","false","0.6,0.4","3:go_c","",""
"null","","html-keyboard-response","293","364171","0.0-6.0-1.24","","<img src=""img/grey-n.png"">","null","trial","32","","0.6,0.4","3:go_c","0",""
"null","","html-keyboard-response","294","365172","0.0-6.0-2.24","","<div style=""font-size:60px;"">+</div>","null","","","","","","",""
"398.93499994650483","","image-keyboard-response","295","365572","0.0-6.0-0.25","","img/green.png","32","trial","null","false","0.4,0.6","4:nogo_d","",""
"null","","html-keyboard-response","296","366573","0.0-6.0-1.25","","<img src=""img/green-r.png"" border=""10"">","null","trial","null","","0.4,0.6","4:nogo_d","1",""
"null","","html-keyboard-response","297","367575","0.0-6.0-2.25","","<div style=""font-size:60px;"">+</div>","null","","","","","","",""
"603.9800001308322","","image-keyboard-response","298","368180","0.0-6.0-0.26","","img/blue.png","32","trial","32","true","0.8,0.2","1:go_a","",""
"null","","html-keyboard-response","299","369180","0.0-6.0-1.26","","<img src=""img/blue-r.png"" border=""10"">","null","trial","32","","0.8,0.2","1:go_a","1",""
"null","","html-keyboard-response","300","370181","0.0-6.0-2.26","","<div style=""font-size:60px;"">+</div>","null","","","","","","",""
"null","","image-keyboard-response","301","371683","0.0-6.0-0.27","","img/pink.png","null","trial","null","true","0.2,0.8","2:nogo_b","",""
"null","","html-keyboard-response","302","372685","0.0-6.0-1.27","","<img src=""img/pink-r.png"">","null","trial","null","","0.2,0.8","2:nogo_b","1",""
"null","","html-keyboard-response","303","373686","0.0-6.0-2.27","","<div style=""font-size:60px;"">+</div>","null","","","","","","",""
"412.6399999950081","","image-keyboard-response","304","374099","0.0-6.0-0.28","","img/green.png","32","trial","null","false","0.4,0.6","4:nogo_d","",""
"null","","html-keyboard-response","305","375101","0.0-6.0-1.28","","<img src=""img/green-n.png"" border=""10"">","null","trial","null","","0.4,0.6","4:nogo_d","0",""
"null","","html-keyboard-response","306","376102","0.0-6.0-2.28","","<div style=""font-size:60px;"">+</div>","null","","","","","","",""
"null","","image-keyboard-response","307","377603","0.0-6.0-0.29","","img/pink.png","null","trial","null","true","0.2,0.8","2:nogo_b","",""
"null","","html-keyboard-response","308","378604","0.0-6.0-1.29","","<img src=""img/pink-r.png"">","null","trial","null","","0.2,0.8","2:nogo_b","1",""
"null","","html-keyboard-response","309","379610","0.0-6.0-2.29","","<div style=""font-size:60px;"">+</div>","null","","","","","","",""
"null","","image-keyboard-response","310","381112","0.0-6.0-0.30","","img/grey.png","null","trial","32","false","0.6,0.4","3:go_c","",""
"null","","html-keyboard-response","311","382114","0.0-6.0-1.30","","<img src=""img/grey-r.png"">","null","trial","32","","0.6,0.4","3:go_c","1",""
"null","","html-keyboard-response","312","383115","0.0-6.0-2.30","","<div style=""font-size:60px;"">+</div>","null","","","","","","",""
"504.59499983116984","","image-keyboard-response","313","383620","0.0-6.0-0.31","","img/blue.png","32","trial","32","true","0.8,0.2","1:go_a","",""
"null","","html-keyboard-response","314","384622","0.0-6.0-1.31","","<img src=""img/blue-r.png"" border=""10"">","null","trial","32","","0.8,0.2","1:go_a","1",""
"null","","html-keyboard-response","315","385623","0.0-6.0-2.31","","<div style=""font-size:60px;"">+</div>","null","","","","","","",""
"692.1599998604506","","image-keyboard-response","316","386316","0.0-6.0-0.32","","img/blue.png","32","trial","32","true","0.8,0.2","1:go_a","",""
"null","","html-keyboard-response","317","387318","0.0-6.0-1.32","","<img src=""img/blue-r.png"" border=""10"">","null","trial","32","","0.8,0.2","1:go_a","1",""
"null","","html-keyboard-response","318","388320","0.0-6.0-2.32","","<div style=""font-size:60px;"">+</div>","null","","","","","","",""
"null","","image-keyboard-response","319","389821","0.0-6.0-0.33","","img/pink.png","null","trial","null","true","0.2,0.8","2:nogo_b","",""
"null","","html-keyboard-response","320","390823","0.0-6.0-1.33","","<img src=""img/pink-r.png"">","null","trial","null","","0.2,0.8","2:nogo_b","1",""
"null","","html-keyboard-response","321","391825","0.0-6.0-2.33","","<div style=""font-size:60px;"">+</div>","null","","","","","","",""
"482.5500000733882","","image-keyboard-response","322","392308","0.0-6.0-0.34","","img/green.png","32","trial","null","false","0.4,0.6","4:nogo_d","",""
"null","","html-keyboard-response","323","393310","0.0-6.0-1.34","","<img src=""img/green-n.png"" border=""10"">","null","trial","null","","0.4,0.6","4:nogo_d","0",""
"null","","html-keyboard-response","324","394311","0.0-6.0-2.34","","<div style=""font-size:60px;"">+</div>","null","","","","","","",""
"null","","image-keyboard-response","325","395814","0.0-6.0-0.35","","img/grey.png","null","trial","32","false","0.6,0.4","3:go_c","",""
"null","","html-keyboard-response","326","396816","0.0-6.0-1.35","","<img src=""img/grey-n.png"">","null","trial","32","","0.6,0.4","3:go_c","0",""
"null","","html-keyboard-response","327","397817","0.0-6.0-2.35","","<div style=""font-size:60px;"">+</div>","null","","","","","","",""
"null","","image-keyboard-response","328","399318","0.0-6.0-0.36","","img/pink.png","null","trial","null","true","0.2,0.8","2:nogo_b","",""
"null","","html-keyboard-response","329","400320","0.0-6.0-1.36","","<img src=""img/pink-n.png"">","null","trial","null","","0.2,0.8","2:nogo_b","0",""
"null","","html-keyboard-response","330","401321","0.0-6.0-2.36","","<div style=""font-size:60px;"">+</div>","null","","","","","","",""
"474.0100000053644","","image-keyboard-response","331","401796","0.0-6.0-0.37","","img/blue.png","32","trial","32","true","0.8,0.2","1:go_a","",""
"null","","html-keyboard-response","332","402797","0.0-6.0-1.37","","<img src=""img/blue-r.png"" border=""10"">","null","trial","32","","0.8,0.2","1:go_a","1",""
"null","","html-keyboard-response","333","403798","0.0-6.0-2.37","","<div style=""font-size:60px;"">+</div>","null","","","","","","",""
"null","","image-keyboard-response","334","405300","0.0-6.0-0.38","","img/grey.png","null","trial","32","false","0.6,0.4","3:go_c","",""
"null","","html-keyboard-response","335","406302","0.0-6.0-1.38","","<img src=""img/grey-r.png"">","null","trial","32","","0.6,0.4","3:go_c","1",""
"null","","html-keyboard-response","336","407303","0.0-6.0-2.38","","<div style=""font-size:60px;"">+</div>","null","","","","","","",""
"516.1200000438839","","image-keyboard-response","337","407820","0.0-6.0-0.39","","img/green.png","32","trial","null","false","0.4,0.6","4:nogo_d","",""
"null","","html-keyboard-response","338","408822","0.0-6.0-1.39","","<img src=""img/green-r.png"" border=""10"">","null","trial","null","","0.4,0.6","4:nogo_d","1",""
"null","","html-keyboard-response","339","409824","0.0-6.0-2.39","","<div style=""font-size:60px;"">+</div>","null","","","","","","",""
"null","","image-keyboard-response","340","411327","0.0-6.0-0.40","","img/grey.png","null","trial","32","false","0.6,0.4","3:go_c","",""
"null","","html-keyboard-response","341","412329","0.0-6.0-1.40","","<img src=""img/grey-r.png"">","null","trial","32","","0.6,0.4","3:go_c","1",""
"null","","html-keyboard-response","342","413330","0.0-6.0-2.40","","<div style=""font-size:60px;"">+</div>","null","","","","","","",""
"null","","image-keyboard-response","343","414832","0.0-6.0-0.41","","img/pink.png","null","trial","null","true","0.2,0.8","2:nogo_b","",""
"null","","html-keyboard-response","344","415834","0.0-6.0-1.41","","<img src=""img/pink-r.png"">","null","trial","null","","0.2,0.8","2:nogo_b","1",""
"null","","html-keyboard-response","345","416835","0.0-6.0-2.41","","<div style=""font-size:60px;"">+</div>","null","","","","","","",""
"544.1149999387562","","image-keyboard-response","346","417380","0.0-6.0-0.42","","img/green.png","32","trial","null","false","0.4,0.6","4:nogo_d","",""
"null","","html-keyboard-response","347","418383","0.0-6.0-1.42","","<img src=""img/green-n.png"" border=""10"">","null","trial","null","","0.4,0.6","4:nogo_d","0",""
"null","","html-keyboard-response","348","419384","0.0-6.0-2.42","","<div style=""font-size:60px;"">+</div>","null","","","","","","",""
"731.6850000061095","","image-keyboard-response","349","420116","0.0-6.0-0.43","","img/blue.png","32","trial","32","true","0.8,0.2","1:go_a","",""
"null","","html-keyboard-response","350","421118","0.0-6.0-1.43","","<img src=""img/blue-r.png"" border=""10"">","null","trial","32","","0.8,0.2","1:go_a","1",""
"null","","html-keyboard-response","351","422119","0.0-6.0-2.43","","<div style=""font-size:60px;"">+</div>","null","","","","","","",""
"755.8550001122057","","image-keyboard-response","352","422876","0.0-6.0-0.44","","img/green.png","32","trial","null","false","0.4,0.6","4:nogo_d","",""
"null","","html-keyboard-response","353","423878","0.0-6.0-1.44","","<img src=""img/green-r.png"" border=""10"">","null","trial","null","","0.4,0.6","4:nogo_d","1",""
"null","","html-keyboard-response","354","424880","0.0-6.0-2.44","","<div style=""font-size:60px;"">+</div>","null","","","","","","",""
"null","","image-keyboard-response","355","426382","0.0-6.0-0.45","","img/pink.png","null","trial","null","true","0.2,0.8","2:nogo_b","",""
"null","","html-keyboard-response","356","427385","0.0-6.0-1.45","","<img src=""img/pink-r.png"">","null","trial","null","","0.2,0.8","2:nogo_b","1",""
"null","","html-keyboard-response","357","428386","0.0-6.0-2.45","","<div style=""font-size:60px;"">+</div>","null","","","","","","",""
"null","","image-keyboard-response","358","429888","0.0-6.0-0.46","","img/grey.png","null","trial","32","false","0.6,0.4","3:go_c","",""
"null","","html-keyboard-response","359","430889","0.0-6.0-1.46","","<img src=""img/grey-n.png"">","null","trial","32","","0.6,0.4","3:go_c","0",""
"null","","html-keyboard-response","360","431891","0.0-6.0-2.46","","<div style=""font-size:60px;"">+</div>","null","","","","","","",""
"592.01499982737","","image-keyboard-response","361","432484","0.0-6.0-0.47","","img/blue.png","32","trial","32","true","0.8,0.2","1:go_a","",""
"null","","html-keyboard-response","362","433493","0.0-6.0-1.47","","<img src=""img/blue-r.png"" border=""10"">","null","trial","32","","0.8,0.2","1:go_a","1",""
"null","","html-keyboard-response","363","434508","0.0-6.0-2.47","","<div style=""font-size:60px;"">+</div>","null","","","","","","",""
"767.0850001741201","","image-keyboard-response","364","435276","0.0-6.0-0.48","","img/blue.png","32","trial","32","true","0.8,0.2","1:go_a","",""
"null","","html-keyboard-response","365","436278","0.0-6.0-1.48","","<img src=""img/blue-r.png"" border=""10"">","null","trial","32","","0.8,0.2","1:go_a","1",""
"null","","html-keyboard-response","366","437280","0.0-6.0-2.48","","<div style=""font-size:60px;"">+</div>","null","","","","","","",""
"null","","image-keyboard-response","367","438781","0.0-6.0-0.49","","img/grey.png","null","trial","32","false","0.6,0.4","3:go_c","",""
"null","","html-keyboard-response","368","439786","0.0-6.0-1.49","","<img src=""img/grey-n.png"">","null","trial","32","","0.6,0.4","3:go_c","0",""
"null","","html-keyboard-response","369","440788","0.0-6.0-2.49","","<div style=""font-size:60px;"">+</div>","null","","","","","","",""
"606.5000002272427","","image-keyboard-response","370","441396","0.0-6.0-0.50","","img/green.png","32","trial","null","false","0.4,0.6","4:nogo_d","",""
"null","","html-keyboard-response","371","442397","0.0-6.0-1.50","","<img src=""img/green-r.png"" border=""10"">","null","trial","null","","0.4,0.6","4:nogo_d","1",""
"null","","html-keyboard-response","372","443399","0.0-6.0-2.50","","<div style=""font-size:60px;"">+</div>","null","","","","","","",""
"null","","image-keyboard-response","373","444901","0.0-6.0-0.51","","img/pink.png","null","trial","null","true","0.2,0.8","2:nogo_b","",""
"null","","html-keyboard-response","374","445902","0.0-6.0-1.51","","<img src=""img/pink-r.png"">","null","trial","null","","0.2,0.8","2:nogo_b","1",""
"null","","html-keyboard-response","375","446904","0.0-6.0-2.51","","<div style=""font-size:60px;"">+</div>","null","","","","","","",""
"1259.1349999420345","","image-keyboard-response","376","448164","0.0-6.0-0.52","","img/blue.png","32","trial","32","true","0.8,0.2","1:go_a","",""
"null","","html-keyboard-response","377","449166","0.0-6.0-1.52","","<img src=""img/blue-r.png"" border=""10"">","null","trial","32","","0.8,0.2","1:go_a","1",""
"null","","html-keyboard-response","378","450167","0.0-6.0-2.52","","<div style=""font-size:60px;"">+</div>","null","","","","","","",""
"null","","image-keyboard-response","379","451669","0.0-6.0-0.53","","img/grey.png","null","trial","32","false","0.6,0.4","3:go_c","",""
"null","","html-keyboard-response","380","452671","0.0-6.0-1.53","","<img src=""img/grey-r.png"">","null","trial","32","","0.6,0.4","3:go_c","1",""
"null","","html-keyboard-response","381","453673","0.0-6.0-2.53","","<div style=""font-size:60px;"">+</div>","null","","","","","","",""
"794.6750000119209","","image-keyboard-response","382","454468","0.0-6.0-0.54","","img/green.png","32","trial","null","false","0.4,0.6","4:nogo_d","",""
"null","","html-keyboard-response","383","455471","0.0-6.0-1.54","","<img src=""img/green-r.png"" border=""10"">","null","trial","null","","0.4,0.6","4:nogo_d","1",""
"null","","html-keyboard-response","384","456473","0.0-6.0-2.54","","<div style=""font-size:60px;"">+</div>","null","","","","","","",""
"null","","image-keyboard-response","385","457974","0.0-6.0-0.55","","img/pink.png","null","trial","null","true","0.2,0.8","2:nogo_b","",""
"null","","html-keyboard-response","386","458976","0.0-6.0-1.55","","<img src=""img/pink-n.png"">","null","trial","null","","0.2,0.8","2:nogo_b","0",""
"null","","html-keyboard-response","387","459978","0.0-6.0-2.55","","<div style=""font-size:60px;"">+</div>","null","","","","","","",""
"null","","image-keyboard-response","388","461484","0.0-6.0-0.56","","img/pink.png","null","trial","null","true","0.2,0.8","2:nogo_b","",""
"null","","html-keyboard-response","389","462486","0.0-6.0-1.56","","<img src=""img/pink-r.png"">","null","trial","null","","0.2,0.8","2:nogo_b","1",""
"null","","html-keyboard-response","390","463488","0.0-6.0-2.56","","<div style=""font-size:60px;"">+</div>","null","","","","","","",""
"1179.3450000695884","","image-keyboard-response","391","464668","0.0-6.0-0.57","","img/green.png","32","trial","null","false","0.4,0.6","4:nogo_d","",""
"null","","html-keyboard-response","392","465669","0.0-6.0-1.57","","<img src=""img/green-n.png"" border=""10"">","null","trial","null","","0.4,0.6","4:nogo_d","0",""
"null","","html-keyboard-response","393","466671","0.0-6.0-2.57","","<div style=""font-size:60px;"">+</div>","null","","","","","","",""
"1331.93500014022","","image-keyboard-response","394","468004","0.0-6.0-0.58","","img/blue.png","32","trial","32","true","0.8,0.2","1:go_a","",""
"null","","html-keyboard-response","395","469005","0.0-6.0-1.58","","<img src=""img/blue-n.png"" border=""10"">","null","trial","32","","0.8,0.2","1:go_a","0",""
"null","","html-keyboard-response","396","470006","0.0-6.0-2.58","","<div style=""font-size:60px;"">+</div>","null","","","","","","",""
"null","","image-keyboard-response","397","471508","0.0-6.0-0.59","","img/grey.png","null","trial","32","false","0.6,0.4","3:go_c","",""
"null","","html-keyboard-response","398","472509","0.0-6.0-1.59","","<img src=""img/grey-n.png"">","null","trial","32","","0.6,0.4","3:go_c","0",""
"null","","html-keyboard-response","399","473511","0.0-6.0-2.59","","<div style=""font-size:60px;"">+</div>","null","","","","","","",""
"null","","image-keyboard-response","400","475012","0.0-6.0-0.60","","img/pink.png","null","trial","null","true","0.2,0.8","2:nogo_b","",""
"null","","html-keyboard-response","401","476014","0.0-6.0-1.60","","<img src=""img/pink-n.png"">","null","trial","null","","0.2,0.8","2:nogo_b","0",""
"null","","html-keyboard-response","402","477016","0.0-6.0-2.60","","<div style=""font-size:60px;"">+</div>","null","","","","","","",""
"499.5200000703335","","image-keyboard-response","403","477516","0.0-6.0-0.61","","img/green.png","32","trial","null","false","0.4,0.6","4:nogo_d","",""
"null","","html-keyboard-response","404","478518","0.0-6.0-1.61","","<img src=""img/green-r.png"" border=""10"">","null","trial","null","","0.4,0.6","4:nogo_d","1",""
"null","","html-keyboard-response","405","479520","0.0-6.0-2.61","","<div style=""font-size:60px;"">+</div>","null","","","","","","",""
"null","","image-keyboard-response","406","481021","0.0-6.0-0.62","","img/grey.png","null","trial","32","false","0.6,0.4","3:go_c","",""
"null","","html-keyboard-response","407","482023","0.0-6.0-1.62","","<img src=""img/grey-r.png"">","null","trial","32","","0.6,0.4","3:go_c","1",""
"null","","html-keyboard-response","408","483025","0.0-6.0-2.62","","<div style=""font-size:60px;"">+</div>","null","","","","","","",""
"546.339999884367","","image-keyboard-response","409","483572","0.0-6.0-0.63","","img/blue.png","32","trial","32","true","0.8,0.2","1:go_a","",""
"null","","html-keyboard-response","410","484575","0.0-6.0-1.63","","<img src=""img/blue-n.png"" border=""10"">","null","trial","32","","0.8,0.2","1:go_a","0",""
"null","","html-keyboard-response","411","485576","0.0-6.0-2.63","","<div style=""font-size:60px;"">+</div>","null","","","","","","",""
"1187.595000024885","","image-keyboard-response","412","486764","0.0-6.0-0.64","","img/blue.png","32","trial","32","true","0.8,0.2","1:go_a","",""
"null","","html-keyboard-response","413","487767","0.0-6.0-1.64","","<img src=""img/blue-n.png"" border=""10"">","null","trial","32","","0.8,0.2","1:go_a","0",""
"null","","html-keyboard-response","414","488768","0.0-6.0-2.64","","<div style=""font-size:60px;"">+</div>","null","","","","","","",""
"514.9399999063462","","image-keyboard-response","415","489284","0.0-6.0-0.65","","img/green.png","32","trial","null","false","0.4,0.6","4:nogo_d","",""
"null","","html-keyboard-response","416","490286","0.0-6.0-1.65","","<img src=""img/green-n.png"" border=""10"">","null","trial","null","","0.4,0.6","4:nogo_d","0",""
"null","","html-keyboard-response","417","491298","0.0-6.0-2.65","","<div style=""font-size:60px;"">+</div>","null","","","","","","",""
"null","","image-keyboard-response","418","492800","0.0-6.0-0.66","","img/grey.png","null","trial","32","false","0.6,0.4","3:go_c","",""
"null","","html-keyboard-response","419","493802","0.0-6.0-1.66","","<img src=""img/grey-r.png"">","null","trial","32","","0.6,0.4","3:go_c","1",""
"null","","html-keyboard-response","420","494803","0.0-6.0-2.66","","<div style=""font-size:60px;"">+</div>","null","","","","","","",""
"null","","image-keyboard-response","421","496305","0.0-6.0-0.67","","img/pink.png","null","trial","null","true","0.2,0.8","2:nogo_b","",""
"null","","html-keyboard-response","422","497307","0.0-6.0-1.67","","<img src=""img/pink-n.png"">","null","trial","null","","0.2,0.8","2:nogo_b","0",""
"null","","html-keyboard-response","423","498308","0.0-6.0-2.67","","<div style=""font-size:60px;"">+</div>","null","","","","","","",""
"null","","image-keyboard-response","424","499809","0.0-6.0-0.68","","img/grey.png","null","trial","32","false","0.6,0.4","3:go_c","",""
"null","","html-keyboard-response","425","500812","0.0-6.0-1.68","","<img src=""img/grey-r.png"">","null","trial","32","","0.6,0.4","3:go_c","1",""
"null","","html-keyboard-response","426","501815","0.0-6.0-2.68","","<div style=""font-size:60px;"">+</div>","null","","","","","","",""
"533.3050000481308","","image-keyboard-response","427","502349","0.0-6.0-0.69","","img/blue.png","32","trial","32","true","0.8,0.2","1:go_a","",""
"null","","html-keyboard-response","428","503351","0.0-6.0-1.69","","<img src=""img/blue-r.png"" border=""10"">","null","trial","32","","0.8,0.2","1:go_a","1",""
"null","","html-keyboard-response","429","504353","0.0-6.0-2.69","","<div style=""font-size:60px;"">+</div>","null","","","","","","",""
"570.0950000900775","","image-keyboard-response","430","504924","0.0-6.0-0.70","","img/green.png","32","trial","null","false","0.4,0.6","4:nogo_d","",""
"null","","html-keyboard-response","431","505926","0.0-6.0-1.70","","<img src=""img/green-n.png"" border=""10"">","null","trial","null","","0.4,0.6","4:nogo_d","0",""
"null","","html-keyboard-response","432","506927","0.0-6.0-2.70","","<div style=""font-size:60px;"">+</div>","null","","","","","","",""
"null","","image-keyboard-response","433","508429","0.0-6.0-0.71","","img/pink.png","null","trial","null","true","0.2,0.8","2:nogo_b","",""
"null","","html-keyboard-response","434","509431","0.0-6.0-1.71","","<img src=""img/pink-r.png"">","null","trial","null","","0.2,0.8","2:nogo_b","1",""
"null","","html-keyboard-response","435","510431","0.0-6.0-2.71","","<div style=""font-size:60px;"">+</div>","null","","","","","","",""
"739.449999993667","","image-keyboard-response","436","511172","0.0-6.0-0.72","","img/blue.png","32","trial","32","true","0.8,0.2","1:go_a","",""
"null","","html-keyboard-response","437","512173","0.0-6.0-1.72","","<img src=""img/blue-r.png"" border=""10"">","null","trial","32","","0.8,0.2","1:go_a","1",""
"null","","html-keyboard-response","438","513174","0.0-6.0-2.72","","<div style=""font-size:60px;"">+</div>","null","","","","","","",""
"null","","image-keyboard-response","439","514676","0.0-6.0-0.73","","img/grey.png","null","trial","32","false","0.6,0.4","3:go_c","",""
"null","","html-keyboard-response","440","515678","0.0-6.0-1.73","","<img src=""img/grey-r.png"">","null","trial","32","","0.6,0.4","3:go_c","1",""
"null","","html-keyboard-response","441","516680","0.0-6.0-2.73","","<div style=""font-size:60px;"">+</div>","null","","","","","","",""
"564.2550000920892","","image-keyboard-response","442","517245","0.0-6.0-0.74","","img/green.png","32","trial","null","false","0.4,0.6","4:nogo_d","",""
"null","","html-keyboard-response","443","518247","0.0-6.0-1.74","","<img src=""img/green-n.png"" border=""10"">","null","trial","null","","0.4,0.6","4:nogo_d","0",""
"null","","html-keyboard-response","444","519249","0.0-6.0-2.74","","<div style=""font-size:60px;"">+</div>","null","","","","","","",""
"null","","image-keyboard-response","445","520750","0.0-6.0-0.75","","img/pink.png","null","trial","null","true","0.2,0.8","2:nogo_b","",""
"null","","html-keyboard-response","446","521752","0.0-6.0-1.75","","<img src=""img/pink-r.png"">","null","trial","null","","0.2,0.8","2:nogo_b","1",""
"null","","html-keyboard-response","447","522753","0.0-6.0-2.75","","<div style=""font-size:60px;"">+</div>","null","","","","","","",""
"1065.550000173971","","image-keyboard-response","448","523820","0.0-6.0-0.76","","img/blue.png","32","trial","32","true","0.8,0.2","1:go_a","",""
"null","","html-keyboard-response","449","524821","0.0-6.0-1.76","","<img src=""img/blue-r.png"" border=""10"">","null","trial","32","","0.8,0.2","1:go_a","1",""
"null","","html-keyboard-response","450","525823","0.0-6.0-2.76","","<div style=""font-size:60px;"">+</div>","null","","","","","","",""
"null","","image-keyboard-response","451","527325","0.0-6.0-0.77","","img/grey.png","null","trial","32","false","0.6,0.4","3:go_c","",""
"null","","html-keyboard-response","452","528326","0.0-6.0-1.77","","<img src=""img/grey-n.png"">","null","trial","32","","0.6,0.4","3:go_c","0",""
"null","","html-keyboard-response","453","529327","0.0-6.0-2.77","","<div style=""font-size:60px;"">+</div>","null","","","","","","",""
"null","","image-keyboard-response","454","530828","0.0-6.0-0.78","","img/pink.png","null","trial","null","true","0.2,0.8","2:nogo_b","",""
"null","","html-keyboard-response","455","531829","0.0-6.0-1.78","","<img src=""img/pink-r.png"">","null","trial","null","","0.2,0.8","2:nogo_b","1",""
"null","","html-keyboard-response","456","532831","0.0-6.0-2.78","","<div style=""font-size:60px;"">+</div>","null","","","","","","",""
"676.475000102073","","image-keyboard-response","457","533508","0.0-6.0-0.79","","img/green.png","32","trial","null","false","0.4,0.6","4:nogo_d","",""
"null","","html-keyboard-response","458","534510","0.0-6.0-1.79","","<img src=""img/green-n.png"" border=""10"">","null","trial","null","","0.4,0.6","4:nogo_d","0",""
"null","","html-keyboard-response","459","535511","0.0-6.0-2.79","","<div style=""font-size:60px;"">+</div>","null","","","","","","",""
"null","","image-keyboard-response","460","537013","0.0-6.0-0.80","","img/pink.png","null","trial","null","true","0.2,0.8","2:nogo_b","",""
"null","","html-keyboard-response","461","538015","0.0-6.0-1.80","","<img src=""img/pink-r.png"">","null","trial","null","","0.2,0.8","2:nogo_b","1",""
"null","","html-keyboard-response","462","539016","0.0-6.0-2.80","","<div style=""font-size:60px;"">+</div>","null","","","","","","",""
"null","","image-keyboard-response","463","540518","0.0-6.0-0.81","","img/grey.png","null","trial","32","false","0.6,0.4","3:go_c","",""
"null","","html-keyboard-response","464","541520","0.0-6.0-1.81","","<img src=""img/grey-n.png"">","null","trial","32","","0.6,0.4","3:go_c","0",""
"null","","html-keyboard-response","465","542521","0.0-6.0-2.81","","<div style=""font-size:60px;"">+</div>","null","","","","","","",""
"530.2550001069903","","image-keyboard-response","466","543052","0.0-6.0-0.82","","img/blue.png","32","trial","32","true","0.8,0.2","1:go_a","",""
"null","","html-keyboard-response","467","544054","0.0-6.0-1.82","","<img src=""img/blue-r.png"" border=""10"">","null","trial","32","","0.8,0.2","1:go_a","1",""
"null","","html-keyboard-response","468","545069","0.0-6.0-2.82","","<div style=""font-size:60px;"">+</div>","null","","","","","","",""
"806.8599998950958","","image-keyboard-response","469","545877","0.0-6.0-0.83","","img/green.png","32","trial","null","false","0.4,0.6","4:nogo_d","",""
"null","","html-keyboard-response","470","546879","0.0-6.0-1.83","","<img src=""img/green-n.png"" border=""10"">","null","trial","null","","0.4,0.6","4:nogo_d","0",""
"null","","html-keyboard-response","471","547880","0.0-6.0-2.83","","<div style=""font-size:60px;"">+</div>","null","","","","","","",""
"570.3850002028048","","image-keyboard-response","472","548452","0.0-6.0-0.84","","img/blue.png","32","trial","32","true","0.8,0.2","1:go_a","",""
"null","","html-keyboard-response","473","549453","0.0-6.0-1.84","","<img src=""img/blue-n.png"" border=""10"">","null","trial","32","","0.8,0.2","1:go_a","0",""
"null","","html-keyboard-response","474","550459","0.0-6.0-2.84","","<div style=""font-size:60px;"">+</div>","null","","","","","","",""
"null","","image-keyboard-response","475","551960","0.0-6.0-0.85","","img/pink.png","null","trial","null","true","0.2,0.8","2:nogo_b","",""
"null","","html-keyboard-response","476","552961","0.0-6.0-1.85","","<img src=""img/pink-n.png"">","null","trial","null","","0.2,0.8","2:nogo_b","0",""
"null","","html-keyboard-response","477","553962","0.0-6.0-2.85","","<div style=""font-size:60px;"">+</div>","null","","","","","","",""
"504.62500005960464","","image-keyboard-response","478","554468","0.0-6.0-0.86","","img/green.png","32","trial","null","false","0.4,0.6","4:nogo_d","",""
"null","","html-keyboard-response","479","555470","0.0-6.0-1.86","","<img src=""img/green-n.png"" border=""10"">","null","trial","null","","0.4,0.6","4:nogo_d","0",""
"null","","html-keyboard-response","480","556473","0.0-6.0-2.86","","<div style=""font-size:60px;"">+</div>","null","","","","","","",""
"null","","image-keyboard-response","481","557974","0.0-6.0-0.87","","img/grey.png","null","trial","32","false","0.6,0.4","3:go_c","",""
"null","","html-keyboard-response","482","558976","0.0-6.0-1.87","","<img src=""img/grey-r.png"">","null","trial","32","","0.6,0.4","3:go_c","1",""
"null","","html-keyboard-response","483","559977","0.0-6.0-2.87","","<div style=""font-size:60px;"">+</div>","null","","","","","","",""
"505.8500000741333","","image-keyboard-response","484","560484","0.0-6.0-0.88","","img/blue.png","32","trial","32","true","0.8,0.2","1:go_a","",""
"null","","html-keyboard-response","485","561486","0.0-6.0-1.88","","<img src=""img/blue-r.png"" border=""10"">","null","trial","32","","0.8,0.2","1:go_a","1",""
"null","","html-keyboard-response","486","562488","0.0-6.0-2.88","","<div style=""font-size:60px;"">+</div>","null","","","","","","",""
"null","","image-keyboard-response","487","563989","0.0-6.0-0.89","","img/grey.png","null","trial","32","false","0.6,0.4","3:go_c","",""
"null","","html-keyboard-response","488","564991","0.0-6.0-1.89","","<img src=""img/grey-r.png"">","null","trial","32","","0.6,0.4","3:go_c","1",""
"null","","html-keyboard-response","489","565993","0.0-6.0-2.89","","<div style=""font-size:60px;"">+</div>","null","","","","","","",""
"578.1849999912083","","image-keyboard-response","490","566572","0.0-6.0-0.90","","img/green.png","32","trial","null","false","0.4,0.6","4:nogo_d","",""
"null","","html-keyboard-response","491","567574","0.0-6.0-1.90","","<img src=""img/green-n.png"" border=""10"">","null","trial","null","","0.4,0.6","4:nogo_d","0",""
"null","","html-keyboard-response","492","568575","0.0-6.0-2.90","","<div style=""font-size:60px;"">+</div>","null","","","","","","",""
"null","","image-keyboard-response","493","570077","0.0-6.0-0.91","","img/pink.png","null","trial","null","true","0.2,0.8","2:nogo_b","",""
"null","","html-keyboard-response","494","571078","0.0-6.0-1.91","","<img src=""img/pink-n.png"">","null","trial","null","","0.2,0.8","2:nogo_b","0",""
"null","","html-keyboard-response","495","572079","0.0-6.0-2.91","","<div style=""font-size:60px;"">+</div>","null","","","","","","",""
"null","","image-keyboard-response","496","573581","0.0-6.0-0.92","","img/pink.png","null","trial","null","true","0.2,0.8","2:nogo_b","",""
"null","","html-keyboard-response","497","574582","0.0-6.0-1.92","","<img src=""img/pink-n.png"">","null","trial","null","","0.2,0.8","2:nogo_b","0",""
"null","","html-keyboard-response","498","575585","0.0-6.0-2.92","","<div style=""font-size:60px;"">+</div>","null","","","","","","",""
"914.5800000987947","","image-keyboard-response","499","576500","0.0-6.0-0.93","","img/green.png","32","trial","null","false","0.4,0.6","4:nogo_d","",""
"null","","html-keyboard-response","500","577502","0.0-6.0-1.93","","<img src=""img/green-n.png"" border=""10"">","null","trial","null","","0.4,0.6","4:nogo_d","0",""
"null","","html-keyboard-response","501","578503","0.0-6.0-2.93","","<div style=""font-size:60px;"">+</div>","null","","","","","","",""
"1116.1899999715388","","image-keyboard-response","502","579619","0.0-6.0-0.94","","img/blue.png","32","trial","32","true","0.8,0.2","1:go_a","",""
"null","","html-keyboard-response","503","580621","0.0-6.0-1.94","","<img src=""img/blue-n.png"" border=""10"">","null","trial","32","","0.8,0.2","1:go_a","0",""
"null","","html-keyboard-response","504","581623","0.0-6.0-2.94","","<div style=""font-size:60px;"">+</div>","null","","","","","","",""
"null","","image-keyboard-response","505","583125","0.0-6.0-0.95","","img/grey.png","null","trial","32","false","0.6,0.4","3:go_c","",""
"null","","html-keyboard-response","506","584127","0.0-6.0-1.95","","<img src=""img/grey-n.png"">","null","trial","32","","0.6,0.4","3:go_c","0",""
"null","","html-keyboard-response","507","585128","0.0-6.0-2.95","","<div style=""font-size:60px;"">+</div>","null","","","","","","",""
"610.564999980852","","image-keyboard-response","508","585740","0.0-6.0-0.96","","img/green.png","32","trial","null","false","0.4,0.6","4:nogo_d","",""
"null","","html-keyboard-response","509","586742","0.0-6.0-1.96","","<img src=""img/green-r.png"" border=""10"">","null","trial","null","","0.4,0.6","4:nogo_d","1",""
"null","","html-keyboard-response","510","587744","0.0-6.0-2.96","","<div style=""font-size:60px;"">+</div>","null","","","","","","",""
"null","","image-keyboard-response","511","589246","0.0-6.0-0.97","","img/pink.png","null","trial","null","true","0.2,0.8","2:nogo_b","",""
"null","","html-keyboard-response","512","590248","0.0-6.0-1.97","","<img src=""img/pink-r.png"">","null","trial","null","","0.2,0.8","2:nogo_b","1",""
"null","","html-keyboard-response","513","591249","0.0-6.0-2.97","","<div style=""font-size:60px;"">+</div>","null","","","","","","",""
"906.0549999121577","","image-keyboard-response","514","592156","0.0-6.0-0.98","","img/blue.png","32","trial","32","true","0.8,0.2","1:go_a","",""
"null","","html-keyboard-response","515","593158","0.0-6.0-1.98","","<img src=""img/blue-r.png"" border=""10"">","null","trial","32","","0.8,0.2","1:go_a","1",""
"null","","html-keyboard-response","516","594161","0.0-6.0-2.98","","<div style=""font-size:60px;"">+</div>","null","","","","","","",""
"null","","image-keyboard-response","517","595663","0.0-6.0-0.99","","img/grey.png","null","trial","32","false","0.6,0.4","3:go_c","",""
"null","","html-keyboard-response","518","596664","0.0-6.0-1.99","","<img src=""img/grey-r.png"">","null","trial","32","","0.6,0.4","3:go_c","1",""
"null","","html-keyboard-response","519","597664","0.0-6.0-2.99","","<div style=""font-size:60px;"">+</div>","null","","","","","","",""
"null","","image-keyboard-response","520","599166","0.0-6.0-0.100","","img/pink.png","null","trial","null","true","0.2,0.8","2:nogo_b","",""
"null","","html-keyboard-response","521","600167","0.0-6.0-1.100","","<img src=""img/pink-r.png"">","null","trial","null","","0.2,0.8","2:nogo_b","1",""
"null","","html-keyboard-response","522","601169","0.0-6.0-2.100","","<div style=""font-size:60px;"">+</div>","null","","","","","","",""
"null","","image-keyboard-response","523","602671","0.0-6.0-0.101","","img/grey.png","null","trial","32","false","0.6,0.4","3:go_c","",""
"null","","html-keyboard-response","524","603673","0.0-6.0-1.101","","<img src=""img/grey-n.png"">","null","trial","32","","0.6,0.4","3:go_c","0",""
"null","","html-keyboard-response","525","604674","0.0-6.0-2.101","","<div style=""font-size:60px;"">+</div>","null","","","","","","",""
"432.790000224486","","image-keyboard-response","526","605108","0.0-6.0-0.102","","img/blue.png","32","trial","32","true","0.8,0.2","1:go_a","",""
"null","","html-keyboard-response","527","606111","0.0-6.0-1.102","","<img src=""img/blue-r.png"" border=""10"">","null","trial","32","","0.8,0.2","1:go_a","1",""
"null","","html-keyboard-response","528","607113","0.0-6.0-2.102","","<div style=""font-size:60px;"">+</div>","null","","","","","","",""
"506.5200000535697","","image-keyboard-response","529","607620","0.0-6.0-0.103","","img/green.png","32","trial","null","false","0.4,0.6","4:nogo_d","",""
"null","","html-keyboard-response","530","608621","0.0-6.0-1.103","","<img src=""img/green-n.png"" border=""10"">","null","trial","null","","0.4,0.6","4:nogo_d","0",""
"null","","html-keyboard-response","531","609623","0.0-6.0-2.103","","<div style=""font-size:60px;"">+</div>","null","","","","","","",""
"420.3449999913573","","image-keyboard-response","532","610044","0.0-6.0-0.104","","img/green.png","32","trial","null","false","0.4,0.6","4:nogo_d","",""
"null","","html-keyboard-response","533","611046","0.0-6.0-1.104","","<img src=""img/green-r.png"" border=""10"">","null","trial","null","","0.4,0.6","4:nogo_d","1",""
"null","","html-keyboard-response","534","612047","0.0-6.0-2.104","","<div style=""font-size:60px;"">+</div>","null","","","","","","",""
"null","","image-keyboard-response","535","613548","0.0-6.0-0.105","","img/grey.png","null","trial","32","false","0.6,0.4","3:go_c","",""
"null","","html-keyboard-response","536","614550","0.0-6.0-1.105","","<img src=""img/grey-r.png"">","null","trial","32","","0.6,0.4","3:go_c","1",""
"null","","html-keyboard-response","537","615550","0.0-6.0-2.105","","<div style=""font-size:60px;"">+</div>","null","","","","","","",""
"null","","image-keyboard-response","538","617062","0.0-6.0-0.106","","img/pink.png","null","trial","null","true","0.2,0.8","2:nogo_b","",""
"null","","html-keyboard-response","539","618064","0.0-6.0-1.106","","<img src=""img/pink-r.png"">","null","trial","null","","0.2,0.8","2:nogo_b","1",""
"null","","html-keyboard-response","540","619065","0.0-6.0-2.106","","<div style=""font-size:60px;"">+</div>","null","","","","","","",""
"505.9700000565499","","image-keyboard-response","541","619572","0.0-6.0-0.107","","img/blue.png","32","trial","32","true","0.8,0.2","1:go_a","",""
"null","","html-keyboard-response","542","620574","0.0-6.0-1.107","","<img src=""img/blue-n.png"" border=""10"">","null","trial","32","","0.8,0.2","1:go_a","0",""
"null","","html-keyboard-response","543","621576","0.0-6.0-2.107","","<div style=""font-size:60px;"">+</div>","null","","","","","","",""
"null","","image-keyboard-response","544","623077","0.0-6.0-0.108","","img/grey.png","null","trial","32","false","0.6,0.4","3:go_c","",""
"null","","html-keyboard-response","545","624080","0.0-6.0-1.108","","<img src=""img/grey-n.png"">","null","trial","32","","0.6,0.4","3:go_c","0",""
"null","","html-keyboard-response","546","625081","0.0-6.0-2.108","","<div style=""font-size:60px;"">+</div>","null","","","","","","",""
"466.0300000105053","","image-keyboard-response","547","625547","0.0-6.0-0.109","","img/green.png","32","trial","null","false","0.4,0.6","4:nogo_d","",""
"null","","html-keyboard-response","548","626555","0.0-6.0-1.109","","<img src=""img/green-n.png"" border=""10"">","null","trial","null","","0.4,0.6","4:nogo_d","0",""
"null","","html-keyboard-response","549","627557","0.0-6.0-2.109","","<div style=""font-size:60px;"">+</div>","null","","","","","","",""
"null","","image-keyboard-response","550","629058","0.0-6.0-0.110","","img/pink.png","null","trial","null","true","0.2,0.8","2:nogo_b","",""
"null","","html-keyboard-response","551","630060","0.0-6.0-1.110","","<img src=""img/pink-r.png"">","null","trial","null","","0.2,0.8","2:nogo_b","1",""
"null","","html-keyboard-response","552","631063","0.0-6.0-2.110","","<div style=""font-size:60px;"">+</div>","null","","","","","","",""
"460.48999996855855","","image-keyboard-response","553","631524","0.0-6.0-0.111","","img/blue.png","32","trial","32","true","0.8,0.2","1:go_a","",""
"null","","html-keyboard-response","554","632525","0.0-6.0-1.111","","<img src=""img/blue-r.png"" border=""10"">","null","trial","32","","0.8,0.2","1:go_a","1",""
"null","","html-keyboard-response","555","633538","0.0-6.0-2.111","","<div style=""font-size:60px;"">+</div>","null","","","","","","",""
"null","","image-keyboard-response","556","635040","0.0-6.0-0.112","","img/pink.png","null","trial","null","true","0.2,0.8","2:nogo_b","",""
"null","","html-keyboard-response","557","636041","0.0-6.0-1.112","","<img src=""img/pink-r.png"">","null","trial","null","","0.2,0.8","2:nogo_b","1",""
"null","","html-keyboard-response","558","637042","0.0-6.0-2.112","","<div style=""font-size:60px;"">+</div>","null","","","","","","",""
"null","","image-keyboard-response","559","638544","0.0-6.0-0.113","","img/grey.png","null","trial","32","false","0.6,0.4","3:go_c","",""
"null","","html-keyboard-response","560","639546","0.0-6.0-1.113","","<img src=""img/grey-n.png"">","null","trial","32","","0.6,0.4","3:go_c","0",""
"null","","html-keyboard-response","561","640548","0.0-6.0-2.113","","<div style=""font-size:60px;"">+</div>","null","","","","","","",""
"839.0599999111146","","image-keyboard-response","562","641388","0.0-6.0-0.114","","img/blue.png","32","trial","32","true","0.8,0.2","1:go_a","",""
"null","","html-keyboard-response","563","642390","0.0-6.0-1.114","","<img src=""img/blue-r.png"" border=""10"">","null","trial","32","","0.8,0.2","1:go_a","1",""
"null","","html-keyboard-response","564","643391","0.0-6.0-2.114","","<div style=""font-size:60px;"">+</div>","null","","","","","","",""
"588.759999955073","","image-keyboard-response","565","643980","0.0-6.0-0.115","","img/green.png","32","trial","null","false","0.4,0.6","4:nogo_d","",""
"null","","html-keyboard-response","566","644982","0.0-6.0-1.115","","<img src=""img/green-r.png"" border=""10"">","null","trial","null","","0.4,0.6","4:nogo_d","1",""
"null","","html-keyboard-response","567","645983","0.0-6.0-2.115","","<div style=""font-size:60px;"">+</div>","null","","","","","","",""
"499.77999995462596","","image-keyboard-response","568","646483","0.0-6.0-0.116","","img/green.png","32","trial","null","false","0.4,0.6","4:nogo_d","",""
"null","","html-keyboard-response","569","647485","0.0-6.0-1.116","","<img src=""img/green-r.png"" border=""10"">","null","trial","null","","0.4,0.6","4:nogo_d","1",""
"null","","html-keyboard-response","570","648486","0.0-6.0-2.116","","<div style=""font-size:60px;"">+</div>","null","","","","","","",""
"null","","image-keyboard-response","571","649988","0.0-6.0-0.117","","img/grey.png","null","trial","32","false","0.6,0.4","3:go_c","",""
"null","","html-keyboard-response","572","650989","0.0-6.0-1.117","","<img src=""img/grey-n.png"">","null","trial","32","","0.6,0.4","3:go_c","0",""
"null","","html-keyboard-response","573","651990","0.0-6.0-2.117","","<div style=""font-size:60px;"">+</div>","null","","","","","","",""
"516.2800000980496","","image-keyboard-response","574","652507","0.0-6.0-0.118","","img/blue.png","32","trial","32","true","0.8,0.2","1:go_a","",""
"null","","html-keyboard-response","575","653510","0.0-6.0-1.118","","<img src=""img/blue-r.png"" border=""10"">","null","trial","32","","0.8,0.2","1:go_a","1",""
"null","","html-keyboard-response","576","654511","0.0-6.0-2.118","","<div style=""font-size:60px;"">+</div>","null","","","","","","",""
"null","","image-keyboard-response","577","656025","0.0-6.0-0.119","","img/pink.png","null","trial","null","true","0.2,0.8","2:nogo_b","",""
"null","","html-keyboard-response","578","657028","0.0-6.0-1.119","","<img src=""img/pink-r.png"">","null","trial","null","","0.2,0.8","2:nogo_b","1",""
"null","","html-keyboard-response","579","658030","0.0-6.0-2.119","","<div style=""font-size:60px;"">+</div>","null","","","","","","",""
"408382.8499999363","","instructions","580","1066413","0.0-7.0","[{""page_index"":0,""viewing_time"":408382.50499987043}]","","","","","","","","",""
"587.9349999595433","","image-keyboard-response","581","1067004","0.0-8.0-0.0","","img/blue.png","32","trial","32","true","1,0","3:go_c","",""
"null","","html-keyboard-response","582","1068005","0.0-8.0-1.0","","<img src=""img/blue-r.png"" border=""10"">","null","trial","32","","1,0","3:go_c","1",""
"null","","html-keyboard-response","583","1069007","0.0-8.0-2.0","","<div style=""font-size:60px;"">+</div>","null","","","","","","",""
"443.94499994814396","","image-keyboard-response","584","1069452","0.0-8.0-0.1","","img/green.png","32","trial","null","false","0.2,0.8","2:nogo_b","",""
"null","","html-keyboard-response","585","1070457","0.0-8.0-1.1","","<img src=""img/green-n.png"" border=""10"">","null","trial","null","","0.2,0.8","2:nogo_b","0",""
"null","","html-keyboard-response","586","1071458","0.0-8.0-2.1","","<div style=""font-size:60px;"">+</div>","null","","","","","","",""
"417.7249998319894","","image-keyboard-response","587","1071876","0.0-8.0-0.2","","img/orange.png","32","trial","null","false","0,1","4:nogo_d","",""
"null","","html-keyboard-response","588","1072878","0.0-8.0-1.2","","<img src=""img/orange-n.png"" border=""10"">","null","trial","null","","0,1","4:nogo_d","0",""
"null","","html-keyboard-response","589","1073879","0.0-8.0-2.2","","<div style=""font-size:60px;"">+</div>","null","","","","","","",""
"347.7949998341501","","image-keyboard-response","590","1074228","0.0-8.0-0.3","","img/red.png","32","trial","32","true","0.8,0.2","1:go_a","",""
"null","","html-keyboard-response","591","1075230","0.0-8.0-1.3","","<img src=""img/red-n.png"" border=""10"">","null","trial","32","","0.8,0.2","1:go_a","0",""
"null","","html-keyboard-response","592","1076231","0.0-8.0-2.3","","<div style=""font-size:60px;"">+</div>","null","","","","","","",""
"371.430000057444","","image-keyboard-response","593","1076604","0.0-8.0-0.4","","img/blue.png","32","trial","32","true","1,0","3:go_c","",""
"null","","html-keyboard-response","594","1077617","0.0-8.0-1.4","","<img src=""img/blue-r.png"" border=""10"">","null","trial","32","","1,0","3:go_c","1",""
"null","","html-keyboard-response","595","1078618","0.0-8.0-2.4","","<div style=""font-size:60px;"">+</div>","null","","","","","","",""
"752.610000083223","","image-keyboard-response","596","1079372","0.0-8.0-0.5","","img/orange.png","32","trial","null","false","0,1","4:nogo_d","",""
"null","","html-keyboard-response","597","1080373","0.0-8.0-1.5","","<img src=""img/orange-n.png"" border=""10"">","null","trial","null","","0,1","4:nogo_d","0",""
"null","","html-keyboard-response","598","1081375","0.0-8.0-2.5","","<div style=""font-size:60px;"">+</div>","null","","","","","","",""
"null","","image-keyboard-response","599","1082877","0.0-8.0-0.6","","img/red.png","null","trial","32","false","0.8,0.2","1:go_a","",""
"null","","html-keyboard-response","600","1083880","0.0-8.0-1.6","","<img src=""img/red-n.png"">","null","trial","32","","0.8,0.2","1:go_a","0",""
"null","","html-keyboard-response","601","1084881","0.0-8.0-2.6","","<div style=""font-size:60px;"">+</div>","null","","","","","","",""
"377.78500001877546","","image-keyboard-response","602","1085260","0.0-8.0-0.7","","img/green.png","32","trial","null","false","0.2,0.8","2:nogo_b","",""
"null","","html-keyboard-response","603","1086266","0.0-8.0-1.7","","<img src=""img/green-n.png"" border=""10"">","null","trial","null","","0.2,0.8","2:nogo_b","0",""
"null","","html-keyboard-response","604","1087269","0.0-8.0-2.7","","<div style=""font-size:60px;"">+</div>","null","","","","","","",""
"446.32999994792044","","image-keyboard-response","605","1087716","0.0-8.0-0.8","","img/blue.png","32","trial","32","true","1,0","3:go_c","",""
"null","","html-keyboard-response","606","1088717","0.0-8.0-1.8","","<img src=""img/blue-r.png"" border=""10"">","null","trial","32","","1,0","3:go_c","1",""
"null","","html-keyboard-response","607","1089718","0.0-8.0-2.8","","<div style=""font-size:60px;"">+</div>","null","","","","","","",""
"null","","image-keyboard-response","608","1091220","0.0-8.0-0.9","","img/red.png","null","trial","32","false","0.8,0.2","1:go_a","",""
"null","","html-keyboard-response","609","1092222","0.0-8.0-1.9","","<img src=""img/red-n.png"">","null","trial","32","","0.8,0.2","1:go_a","0",""
"null","","html-keyboard-response","610","1093224","0.0-8.0-2.9","","<div style=""font-size:60px;"">+</div>","null","","","","","","",""
"null","","image-keyboard-response","611","1094727","0.0-8.0-0.10","","img/green.png","null","trial","null","true","0.2,0.8","2:nogo_b","",""
"null","","html-keyboard-response","612","1095730","0.0-8.0-1.10","","<img src=""img/green-n.png"">","null","trial","null","","0.2,0.8","2:nogo_b","0",""
"null","","html-keyboard-response","613","1096732","0.0-8.0-2.10","","<div style=""font-size:60px;"">+</div>","null","","","","","","",""
"null","","image-keyboard-response","614","1098235","0.0-8.0-0.11","","img/orange.png","null","trial","null","true","0,1","4:nogo_d","",""
"null","","html-keyboard-response","615","1099237","0.0-8.0-1.11","","<img src=""img/orange-r.png"">","null","trial","null","","0,1","4:nogo_d","1",""
"null","","html-keyboard-response","616","1100238","0.0-8.0-2.11","","<div style=""font-size:60px;"">+</div>","null","","","","","","",""
"413.8350000139326","","image-keyboard-response","617","1100653","0.0-8.0-0.12","","img/red.png","32","trial","32","true","0.8,0.2","1:go_a","",""
"null","","html-keyboard-response","618","1101656","0.0-8.0-1.12","","<img src=""img/red-r.png"" border=""10"">","null","trial","32","","0.8,0.2","1:go_a","1",""
"null","","html-keyboard-response","619","1102665","0.0-8.0-2.12","","<div style=""font-size:60px;"">+</div>","null","","","","","","",""
"null","","image-keyboard-response","620","1104166","0.0-8.0-0.13","","img/orange.png","null","trial","null","true","0,1","4:nogo_d","",""
"null","","html-keyboard-response","621","1105171","0.0-8.0-1.13","","<img src=""img/orange-r.png"">","null","trial","null","","0,1","4:nogo_d","1",""
"null","","html-keyboard-response","622","1106173","0.0-8.0-2.13","","<div style=""font-size:60px;"">+</div>","null","","","","","","",""
"541.9449999462813","","image-keyboard-response","623","1106716","0.0-8.0-0.14","","img/blue.png","32","trial","32","true","1,0","3:go_c","",""
"null","","html-keyboard-response","624","1107718","0.0-8.0-1.14","","<img src=""img/blue-r.png"" border=""10"">","null","trial","32","","1,0","3:go_c","1",""
"null","","html-keyboard-response","625","1108720","0.0-8.0-2.14","","<div style=""font-size:60px;"">+</div>","null","","","","","","",""
"570.9949999582022","","image-keyboard-response","626","1109292","0.0-8.0-0.15","","img/green.png","32","trial","null","false","0.2,0.8","2:nogo_b","",""
"null","","html-keyboard-response","627","1110294","0.0-8.0-1.15","","<img src=""img/green-n.png"" border=""10"">","null","trial","null","","0.2,0.8","2:nogo_b","0",""
"null","","html-keyboard-response","628","1111297","0.0-8.0-2.15","","<div style=""font-size:60px;"">+</div>","null","","","","","","",""
"690.6500000040978","","image-keyboard-response","629","1111988","0.0-8.0-0.16","","img/red.png","32","trial","32","true","0.8,0.2","1:go_a","",""
"null","","html-keyboard-response","630","1112990","0.0-8.0-1.16","","<img src=""img/red-r.png"" border=""10"">","null","trial","32","","0.8,0.2","1:go_a","1",""
"null","","html-keyboard-response","631","1113992","0.0-8.0-2.16","","<div style=""font-size:60px;"">+</div>","null","","","","","","",""
"530.8850000146776","","image-keyboard-response","632","1114524","0.0-8.0-0.17","","img/green.png","32","trial","null","false","0.2,0.8","2:nogo_b","",""
"null","","html-keyboard-response","633","1115526","0.0-8.0-1.17","","<img src=""img/green-n.png"" border=""10"">","null","trial","null","","0.2,0.8","2:nogo_b","0",""
"null","","html-keyboard-response","634","1116528","0.0-8.0-2.17","","<div style=""font-size:60px;"">+</div>","null","","","","","","",""
"null","","image-keyboard-response","635","1118030","0.0-8.0-0.18","","img/orange.png","null","trial","null","true","0,1","4:nogo_d","",""
"null","","html-keyboard-response","636","1119032","0.0-8.0-1.18","","<img src=""img/orange-r.png"">","null","trial","null","","0,1","4:nogo_d","1",""
"null","","html-keyboard-response","637","1120033","0.0-8.0-2.18","","<div style=""font-size:60px;"">+</div>","null","","","","","","",""
"609.5050000585616","","image-keyboard-response","638","1120644","0.0-8.0-0.19","","img/blue.png","32","trial","32","true","1,0","3:go_c","",""
"null","","html-keyboard-response","639","1121647","0.0-8.0-1.19","","<img src=""img/blue-r.png"" border=""10"">","null","trial","32","","1,0","3:go_c","1",""
"null","","html-keyboard-response","640","1122650","0.0-8.0-2.19","","<div style=""font-size:60px;"">+</div>","null","","","","","","",""
"544.8499999474734","","image-keyboard-response","641","1123196","0.0-8.0-0.20","","img/blue.png","32","trial","32","true","1,0","3:go_c","",""
"null","","html-keyboard-response","642","1124199","0.0-8.0-1.20","","<img src=""img/blue-r.png"" border=""10"">","null","trial","32","","1,0","3:go_c","1",""
"null","","html-keyboard-response","643","1125200","0.0-8.0-2.20","","<div style=""font-size:60px;"">+</div>","null","","","","","","",""
"null","","image-keyboard-response","644","1126702","0.0-8.0-0.21","","img/green.png","null","trial","null","true","0.2,0.8","2:nogo_b","",""
"null","","html-keyboard-response","645","1127703","0.0-8.0-1.21","","<img src=""img/green-n.png"">","null","trial","null","","0.2,0.8","2:nogo_b","0",""
"null","","html-keyboard-response","646","1128704","0.0-8.0-2.21","","<div style=""font-size:60px;"">+</div>","null","","","","","","",""
"610.6749998871237","","image-keyboard-response","647","1129316","0.0-8.0-0.22","","img/red.png","32","trial","32","true","0.8,0.2","1:go_a","",""
"null","","html-keyboard-response","648","1130319","0.0-8.0-1.22","","<img src=""img/red-r.png"" border=""10"">","null","trial","32","","0.8,0.2","1:go_a","1",""
"null","","html-keyboard-response","649","1131320","0.0-8.0-2.22","","<div style=""font-size:60px;"">+</div>","null","","","","","","",""
"null","","image-keyboard-response","650","1132821","0.0-8.0-0.23","","img/orange.png","null","trial","null","true","0,1","4:nogo_d","",""
"null","","html-keyboard-response","651","1133823","0.0-8.0-1.23","","<img src=""img/orange-r.png"">","null","trial","null","","0,1","4:nogo_d","1",""
"null","","html-keyboard-response","652","1134826","0.0-8.0-2.23","","<div style=""font-size:60px;"">+</div>","null","","","","","","",""
"465.8049999270588","","image-keyboard-response","653","1135293","0.0-8.0-0.24","","img/blue.png","32","trial","32","true","1,0","3:go_c","",""
"null","","html-keyboard-response","654","1136295","0.0-8.0-1.24","","<img src=""img/blue-r.png"" border=""10"">","null","trial","32","","1,0","3:go_c","1",""
"null","","html-keyboard-response","655","1137296","0.0-8.0-2.24","","<div style=""font-size:60px;"">+</div>","null","","","","","","",""
"594.6600001771003","","image-keyboard-response","656","1137892","0.0-8.0-0.25","","img/green.png","32","trial","null","false","0.2,0.8","2:nogo_b","",""
"null","","html-keyboard-response","657","1138894","0.0-8.0-1.25","","<img src=""img/green-n.png"" border=""10"">","null","trial","null","","0.2,0.8","2:nogo_b","0",""
"null","","html-keyboard-response","658","1139907","0.0-8.0-2.25","","<div style=""font-size:60px;"">+</div>","null","","","","","","",""
"551.2399999424815","","image-keyboard-response","659","1140459","0.0-8.0-0.26","","img/red.png","32","trial","32","true","0.8,0.2","1:go_a","",""
"null","","html-keyboard-response","660","1141462","0.0-8.0-1.26","","<img src=""img/red-r.png"" border=""10"">","null","trial","32","","0.8,0.2","1:go_a","1",""
"null","","html-keyboard-response","661","1142468","0.0-8.0-2.26","","<div style=""font-size:60px;"">+</div>","null","","","","","","",""
"null","","image-keyboard-response","662","1143969","0.0-8.0-0.27","","img/orange.png","null","trial","null","true","0,1","4:nogo_d","",""
"null","","html-keyboard-response","663","1144971","0.0-8.0-1.27","","<img src=""img/orange-r.png"">","null","trial","null","","0,1","4:nogo_d","1",""
"null","","html-keyboard-response","664","1145972","0.0-8.0-2.27","","<div style=""font-size:60px;"">+</div>","null","","","","","","",""
"534.8350000567734","","image-keyboard-response","665","1146508","0.0-8.0-0.28","","img/red.png","32","trial","32","true","0.8,0.2","1:go_a","",""
"null","","html-keyboard-response","666","1147511","0.0-8.0-1.28","","<img src=""img/red-r.png"" border=""10"">","null","trial","32","","0.8,0.2","1:go_a","1",""
"null","","html-keyboard-response","667","1148514","0.0-8.0-2.28","","<div style=""font-size:60px;"">+</div>","null","","","","","","",""
"585.2999999187887","","image-keyboard-response","668","1149100","0.0-8.0-0.29","","img/green.png","32","trial","null","false","0.2,0.8","2:nogo_b","",""
"null","","html-keyboard-response","669","1150101","0.0-8.0-1.29","","<img src=""img/green-r.png"" border=""10"">","null","trial","null","","0.2,0.8","2:nogo_b","1",""
"null","","html-keyboard-response","670","1151103","0.0-8.0-2.29","","<div style=""font-size:60px;"">+</div>","null","","","","","","",""
"555.9400001075119","","image-keyboard-response","671","1151661","0.0-8.0-0.30","","img/blue.png","32","trial","32","true","1,0","3:go_c","",""
"null","","html-keyboard-response","672","1152662","0.0-8.0-1.30","","<img src=""img/blue-r.png"" border=""10"">","null","trial","32","","1,0","3:go_c","1",""
"null","","html-keyboard-response","673","1153664","0.0-8.0-2.30","","<div style=""font-size:60px;"">+</div>","null","","","","","","",""
"null","","image-keyboard-response","674","1155165","0.0-8.0-0.31","","img/orange.png","null","trial","null","true","0,1","4:nogo_d","",""
"null","","html-keyboard-response","675","1156167","0.0-8.0-1.31","","<img src=""img/orange-r.png"">","null","trial","null","","0,1","4:nogo_d","1",""
"null","","html-keyboard-response","676","1157169","0.0-8.0-2.31","","<div style=""font-size:60px;"">+</div>","null","","","","","","",""
"842.875000089407","","image-keyboard-response","677","1158013","0.0-8.0-0.32","","img/green.png","32","trial","null","false","0.2,0.8","2:nogo_b","",""
"null","","html-keyboard-response","678","1159016","0.0-8.0-1.32","","<img src=""img/green-n.png"" border=""10"">","null","trial","null","","0.2,0.8","2:nogo_b","0",""
"null","","html-keyboard-response","679","1160017","0.0-8.0-2.32","","<div style=""font-size:60px;"">+</div>","null","","","","","","",""
"425.5999999586493","","image-keyboard-response","680","1160444","0.0-8.0-0.33","","img/red.png","32","trial","32","true","0.8,0.2","1:go_a","",""
"null","","html-keyboard-response","681","1161445","0.0-8.0-1.33","","<img src=""img/red-r.png"" border=""10"">","null","trial","32","","0.8,0.2","1:go_a","1",""
"null","","html-keyboard-response","682","1162446","0.0-8.0-2.33","","<div style=""font-size:60px;"">+</div>","null","","","","","","",""
