"rt","url","trial_type","trial_index","time_elapsed","internal_node_id","view_history","stimulus","key_press","test_part","correct_response","correct","use_rew","which_stim","reward","responses"
"17793.989999998303","consent.html","external-html","0","17901","0.0-0.0","","","","","","","","","",""
"135711.4049999982","","instructions","1","153614","0.0-1.0","[{""page_index"":0,""viewing_time"":7959.4599999982165},{""page_index"":1,""viewing_time"":29104.425000001356},{""page_index"":2,""viewing_time"":11296.469999997498},{""page_index"":3,""viewing_time"":37511.05000000098},{""page_index"":4,""viewing_time"":20302.050000002055},{""page_index"":5,""viewing_time"":10063.454999999522},{""page_index"":6,""viewing_time"":19472.86499999973}]","","","","","","","","",""
"null","","image-keyboard-response","2","155119","0.0-2.0-0.0","","img/test2.PNG","null","practice","null","true","","","",""
"null","","html-keyboard-response","3","156128","0.0-2.0-1.0","","<img src=""img/test2-reward.PNG"">","null","","","","","","",""
"null","","html-keyboard-response","4","157130","0.0-2.0-2.0","","<div style=""font-size:60px;"">+</div>","null","","","","","","",""
"388.27500000115833","","image-keyboard-response","5","157520","0.0-2.0-0.1","","img/test1.PNG","32","practice","32","true","","","",""
"null","","html-keyboard-response","6","158527","0.0-2.0-1.1","","<img src=""img/test1-reward.PNG"" border=""10px; grey"">","null","","","","","","",""
"null","","html-keyboard-response","7","159535","0.0-2.0-2.1","","<div style=""font-size:60px;"">+</div>","null","","","","","","",""
"null","","image-keyboard-response","8","161043","0.0-2.0-0.2","","img/test3.PNG","null","practice","null","true","","","",""
"null","","html-keyboard-response","9","162051","0.0-2.0-1.2","","<img src=""img/test3-reward.PNG"">","null","","","","","","",""
"null","","html-keyboard-response","10","163056","0.0-2.0-2.2","","<div style=""font-size:60px;"">+</div>","null","","","","","","",""
"null","","image-keyboard-response","11","164559","0.0-2.0-0.3","","img/test2.PNG","null","practice","null","true","","","",""
"null","","html-keyboard-response","12","165564","0.0-2.0-1.3","","<img src=""img/test2-reward.PNG"">","null","","","","","","",""
"null","","html-keyboard-response","13","166571","0.0-2.0-2.3","","<div style=""font-size:60px;"">+</div>","null","","","","","","",""
"319.9899999999616","","image-keyboard-response","14","166893","0.0-2.0-0.4","","img/test1.PNG","32","practice","32","true","","","",""
"null","","html-keyboard-response","15","167898","0.0-2.0-1.4","","<img src=""img/test1-reward.PNG"" border=""10px; grey"">","null","","","","","","",""
"null","","html-keyboard-response","16","168903","0.0-2.0-2.4","","<div style=""font-size:60px;"">+</div>","null","","","","","","",""
"null","","image-keyboard-response","17","170408","0.0-2.0-0.5","","img/test3.PNG","null","practice","null","true","","","",""
"null","","html-keyboard-response","18","171422","0.0-2.0-1.5","","<img src=""img/test3-reward.PNG"">","null","","","","","","",""
"null","","html-keyboard-response","19","172427","0.0-2.0-2.5","","<div style=""font-size:60px;"">+</div>","null","","","","","","",""
"null","","image-keyboard-response","20","173931","0.0-2.0-0.6","","img/test2.PNG","null","practice","null","true","","","",""
"null","","html-keyboard-response","21","174938","0.0-2.0-1.6","","<img src=""img/test2-reward.PNG"">","null","","","","","","",""
"null","","html-keyboard-response","22","175947","0.0-2.0-2.6","","<div style=""font-size:60px;"">+</div>","null","","","","","","",""
"337.91500000006636","","image-keyboard-response","23","176287","0.0-2.0-0.7","","img/test1.PNG","32","practice","32","true","","","",""
"null","","html-keyboard-response","24","177295","0.0-2.0-1.7","","<img src=""img/test1-reward.PNG"" border=""10px; grey"">","null","","","","","","",""
"null","","html-keyboard-response","25","178297","0.0-2.0-2.7","","<div style=""font-size:60px;"">+</div>","null","","","","","","",""
"null","","image-keyboard-response","26","179799","0.0-2.0-0.8","","img/test3.PNG","null","practice","null","true","","","",""
"null","","html-keyboard-response","27","180801","0.0-2.0-1.8","","<img src=""img/test3-reward.PNG"">","null","","","","","","",""
"null","","html-keyboard-response","28","181808","0.0-2.0-2.8","","<div style=""font-size:60px;"">+</div>","null","","","","","","",""
"null","","image-keyboard-response","29","183312","0.0-2.0-0.9","","img/test2.PNG","null","practice","null","true","","","",""
"null","","html-keyboard-response","30","184314","0.0-2.0-1.9","","<img src=""img/test2-reward.PNG"">","null","","","","","","",""
"null","","html-keyboard-response","31","185319","0.0-2.0-2.9","","<div style=""font-size:60px;"">+</div>","null","","","","","","",""
"332.55500000086613","","image-keyboard-response","32","185652","0.0-2.0-0.10","","img/test1.PNG","32","practice","32","true","","","",""
"null","","html-keyboard-response","33","186656","0.0-2.0-1.10","","<img src=""img/test1-reward.PNG"" border=""10px; grey"">","null","","","","","","",""
"null","","html-keyboard-response","34","187662","0.0-2.0-2.10","","<div style=""font-size:60px;"">+</div>","null","","","","","","",""
"null","","image-keyboard-response","35","189168","0.0-2.0-0.11","","img/test3.PNG","null","practice","null","true","","","",""
"null","","html-keyboard-response","36","190178","0.0-2.0-1.11","","<img src=""img/test3-reward.PNG"">","null","","","","","","",""
"null","","html-keyboard-response","37","191181","0.0-2.0-2.11","","<div style=""font-size:60px;"">+</div>","null","","","","","","",""
"3643.615000000864","","instructions","38","194825","0.0-3.0","[{""page_index"":0,""viewing_time"":3643.000000000029}]","","","","","","","","",""
"883.7599999969825","","image-keyboard-response","39","195711","0.0-4.0-0.0","","img/grey.png","32","trial","null","false","0.2,0.8","2:nogo_b","",""
"null","","html-keyboard-response","40","196718","0.0-4.0-1.0","","<img src=""img/grey-n.png"" border=""10"">","null","trial","null","","0.2,0.8","2:nogo_b","0",""
"null","","html-keyboard-response","41","197729","0.0-4.0-2.0","","<div style=""font-size:60px;"">+</div>","null","","","","","","",""
"449.44000000032247","","image-keyboard-response","42","198180","0.0-4.0-0.1","","img/green.png","32","trial","32","true","0.8,0.2","1:go_a","",""
"null","","html-keyboard-response","43","199185","0.0-4.0-1.1","","<img src=""img/green-r.png"" border=""10"">","null","trial","32","","0.8,0.2","1:go_a","1",""
"null","","html-keyboard-response","44","200192","0.0-4.0-2.1","","<div style=""font-size:60px;"">+</div>","null","","","","","","",""
"538.6900000012247","","image-keyboard-response","45","200732","0.0-4.0-0.2","","img/green.png","32","trial","32","true","0.8,0.2","1:go_a","",""
"null","","html-keyboard-response","46","201739","0.0-4.0-1.2","","<img src=""img/green-r.png"" border=""10"">","null","trial","32","","0.8,0.2","1:go_a","1",""
"null","","html-keyboard-response","47","202743","0.0-4.0-2.2","","<div style=""font-size:60px;"">+</div>","null","","","","","","",""
"null","","image-keyboard-response","48","204248","0.0-4.0-0.3","","img/grey.png","null","trial","null","true","0.2,0.8","2:nogo_b","",""
"null","","html-keyboard-response","49","205251","0.0-4.0-1.3","","<img src=""img/grey-n.png"">","null","trial","null","","0.2,0.8","2:nogo_b","0",""
"null","","html-keyboard-response","50","206253","0.0-4.0-2.3","","<div style=""font-size:60px;"">+</div>","null","","","","","","",""
"null","","image-keyboard-response","51","207760","0.0-4.0-0.4","","img/grey.png","null","trial","null","true","0.2,0.8","2:nogo_b","",""
"null","","html-keyboard-response","52","208762","0.0-4.0-1.4","","<img src=""img/grey-r.png"">","null","trial","null","","0.2,0.8","2:nogo_b","1",""
"null","","html-keyboard-response","53","209772","0.0-4.0-2.4","","<div style=""font-size:60px;"">+</div>","null","","","","","","",""
"450.94500000050175","","image-keyboard-response","54","210224","0.0-4.0-0.5","","img/green.png","32","trial","32","true","0.8,0.2","1:go_a","",""
"null","","html-keyboard-response","55","211231","0.0-4.0-1.5","","<img src=""img/green-r.png"" border=""10"">","null","trial","32","","0.8,0.2","1:go_a","1",""
"null","","html-keyboard-response","56","212233","0.0-4.0-2.5","","<div style=""font-size:60px;"">+</div>","null","","","","","","",""
"null","","image-keyboard-response","57","213739","0.0-4.0-0.6","","img/grey.png","null","trial","null","true","0.2,0.8","2:nogo_b","",""
"null","","html-keyboard-response","58","214749","0.0-4.0-1.6","","<img src=""img/grey-n.png"">","null","trial","null","","0.2,0.8","2:nogo_b","0",""
"null","","html-keyboard-response","59","215753","0.0-4.0-2.6","","<div style=""font-size:60px;"">+</div>","null","","","","","","",""
"402.4250000002212","","image-keyboard-response","60","216157","0.0-4.0-0.7","","img/green.png","32","trial","32","true","0.8,0.2","1:go_a","",""
"null","","html-keyboard-response","61","217160","0.0-4.0-1.7","","<img src=""img/green-r.png"" border=""10"">","null","trial","32","","0.8,0.2","1:go_a","1",""
"null","","html-keyboard-response","62","218162","0.0-4.0-2.7","","<div style=""font-size:60px;"">+</div>","null","","","","","","",""
"465.51499999986845","","image-keyboard-response","63","218628","0.0-4.0-0.8","","img/green.png","32","trial","32","true","0.8,0.2","1:go_a","",""
"null","","html-keyboard-response","64","219634","0.0-4.0-1.8","","<img src=""img/green-r.png"" border=""10"">","null","trial","32","","0.8,0.2","1:go_a","1",""
"null","","html-keyboard-response","65","220640","0.0-4.0-2.8","","<div style=""font-size:60px;"">+</div>","null","","","","","","",""
"451.64999999906286","","image-keyboard-response","66","221093","0.0-4.0-0.9","","img/grey.png","32","trial","null","false","0.2,0.8","2:nogo_b","",""
"null","","html-keyboard-response","67","222102","0.0-4.0-1.9","","<img src=""img/grey-r.png"" border=""10"">","null","trial","null","","0.2,0.8","2:nogo_b","1",""
"null","","html-keyboard-response","68","223105","0.0-4.0-2.9","","<div style=""font-size:60px;"">+</div>","null","","","","","","",""
"null","","image-keyboard-response","69","224622","0.0-4.0-0.10","","img/grey.png","null","trial","null","true","0.2,0.8","2:nogo_b","",""
"null","","html-keyboard-response","70","225629","0.0-4.0-1.10","","<img src=""img/grey-r.png"">","null","trial","null","","0.2,0.8","2:nogo_b","1",""
"null","","html-keyboard-response","71","226631","0.0-4.0-2.10","","<div style=""font-size:60px;"">+</div>","null","","","","","","",""
"479.0500000017346","","image-keyboard-response","72","227111","0.0-4.0-0.11","","img/green.png","32","trial","32","true","0.8,0.2","1:go_a","",""
"null","","html-keyboard-response","73","228114","0.0-4.0-1.11","","<img src=""img/green-r.png"" border=""10"">","null","trial","32","","0.8,0.2","1:go_a","1",""
"null","","html-keyboard-response","74","229123","0.0-4.0-2.11","","<div style=""font-size:60px;"">+</div>","null","","","","","","",""
"474.9900000024354","","image-keyboard-response","75","229599","0.0-4.0-0.12","","img/grey.png","32","trial","null","false","0.2,0.8","2:nogo_b","",""
"null","","html-keyboard-response","76","230607","0.0-4.0-1.12","","<img src=""img/grey-n.png"" border=""10"">","null","trial","null","","0.2,0.8","2:nogo_b","0",""
"null","","html-keyboard-response","77","231620","0.0-4.0-2.12","","<div style=""font-size:60px;"">+</div>","null","","","","","","",""
"467.59000000020023","","image-keyboard-response","78","232088","0.0-4.0-0.13","","img/green.png","32","trial","32","true","0.8,0.2","1:go_a","",""
"null","","html-keyboard-response","79","233091","0.0-4.0-1.13","","<img src=""img/green-r.png"" border=""10"">","null","trial","32","","0.8,0.2","1:go_a","1",""
"null","","html-keyboard-response","80","234093","0.0-4.0-2.13","","<div style=""font-size:60px;"">+</div>","null","","","","","","",""
"null","","image-keyboard-response","81","235599","0.0-4.0-0.14","","img/grey.png","null","trial","null","true","0.2,0.8","2:nogo_b","",""
"null","","html-keyboard-response","82","236603","0.0-4.0-1.14","","<img src=""img/grey-r.png"">","null","trial","null","","0.2,0.8","2:nogo_b","1",""
"null","","html-keyboard-response","83","237609","0.0-4.0-2.14","","<div style=""font-size:60px;"">+</div>","null","","","","","","",""
"428.7350000013248","","image-keyboard-response","84","238039","0.0-4.0-0.15","","img/green.png","32","trial","32","true","0.8,0.2","1:go_a","",""
"null","","html-keyboard-response","85","239049","0.0-4.0-1.15","","<img src=""img/green-n.png"" border=""10"">","null","trial","32","","0.8,0.2","1:go_a","0",""
"null","","html-keyboard-response","86","240051","0.0-4.0-2.15","","<div style=""font-size:60px;"">+</div>","null","","","","","","",""
"435.7049999998708","","image-keyboard-response","87","240488","0.0-4.0-0.16","","img/green.png","32","trial","32","true","0.8,0.2","1:go_a","",""
"null","","html-keyboard-response","88","241500","0.0-4.0-1.16","","<img src=""img/green-n.png"" border=""10"">","null","trial","32","","0.8,0.2","1:go_a","0",""
"null","","html-keyboard-response","89","242502","0.0-4.0-2.16","","<div style=""font-size:60px;"">+</div>","null","","","","","","",""
"384.6049999992829","","image-keyboard-response","90","242888","0.0-4.0-0.17","","img/grey.png","32","trial","null","false","0.2,0.8","2:nogo_b","",""
"null","","html-keyboard-response","91","243893","0.0-4.0-1.17","","<img src=""img/grey-r.png"" border=""10"">","null","trial","null","","0.2,0.8","2:nogo_b","1",""
"null","","html-keyboard-response","92","244900","0.0-4.0-2.17","","<div style=""font-size:60px;"">+</div>","null","","","","","","",""
"544.065000001865","","image-keyboard-response","93","245445","0.0-4.0-0.18","","img/green.png","32","trial","32","true","0.8,0.2","1:go_a","",""
"null","","html-keyboard-response","94","246447","0.0-4.0-1.18","","<img src=""img/green-r.png"" border=""10"">","null","trial","32","","0.8,0.2","1:go_a","1",""
"null","","html-keyboard-response","95","247452","0.0-4.0-2.18","","<div style=""font-size:60px;"">+</div>","null","","","","","","",""
"420.5049999982293","","image-keyboard-response","96","247873","0.0-4.0-0.19","","img/grey.png","32","trial","null","false","0.2,0.8","2:nogo_b","",""
"null","","html-keyboard-response","97","248878","0.0-4.0-1.19","","<img src=""img/grey-r.png"" border=""10"">","null","trial","null","","0.2,0.8","2:nogo_b","1",""
"null","","html-keyboard-response","98","249884","0.0-4.0-2.19","","<div style=""font-size:60px;"">+</div>","null","","","","","","",""
"441.0250000000815","","image-keyboard-response","99","250326","0.0-4.0-0.20","","img/green.png","32","trial","32","true","0.8,0.2","1:go_a","",""
"null","","html-keyboard-response","100","251329","0.0-4.0-1.20","","<img src=""img/green-r.png"" border=""10"">","null","trial","32","","0.8,0.2","1:go_a","1",""
"null","","html-keyboard-response","101","252341","0.0-4.0-2.20","","<div style=""font-size:60px;"">+</div>","null","","","","","","",""
"373.1900000020687","","image-keyboard-response","102","252715","0.0-4.0-0.21","","img/grey.png","32","trial","null","false","0.2,0.8","2:nogo_b","",""
"null","","html-keyboard-response","103","253719","0.0-4.0-1.21","","<img src=""img/grey-r.png"" border=""10"">","null","trial","null","","0.2,0.8","2:nogo_b","1",""
"null","","html-keyboard-response","104","254725","0.0-4.0-2.21","","<div style=""font-size:60px;"">+</div>","null","","","","","","",""
"332.2149999985413","","image-keyboard-response","105","255058","0.0-4.0-0.22","","img/green.png","32","trial","32","true","0.8,0.2","1:go_a","",""
"null","","html-keyboard-response","106","256065","0.0-4.0-1.22","","<img src=""img/green-r.png"" border=""10"">","null","trial","32","","0.8,0.2","1:go_a","1",""
"null","","html-keyboard-response","107","257080","0.0-4.0-2.22","","<div style=""font-size:60px;"">+</div>","null","","","","","","",""
"null","","image-keyboard-response","108","258585","0.0-4.0-0.23","","img/grey.png","null","trial","null","true","0.2,0.8","2:nogo_b","",""
"null","","html-keyboard-response","109","259590","0.0-4.0-1.23","","<img src=""img/grey-r.png"">","null","trial","null","","0.2,0.8","2:nogo_b","1",""
"null","","html-keyboard-response","110","260600","0.0-4.0-2.23","","<div style=""font-size:60px;"">+</div>","null","","","","","","",""
"434.04999999981374","","image-keyboard-response","111","261036","0.0-4.0-0.24","","img/grey.png","32","trial","null","false","0.2,0.8","2:nogo_b","",""
"null","","html-keyboard-response","112","262041","0.0-4.0-1.24","","<img src=""img/grey-n.png"" border=""10"">","null","trial","null","","0.2,0.8","2:nogo_b","0",""
"null","","html-keyboard-response","113","263049","0.0-4.0-2.24","","<div style=""font-size:60px;"">+</div>","null","","","","","","",""
"355.22499999933643","","image-keyboard-response","114","263405","0.0-4.0-0.25","","img/green.png","32","trial","32","true","0.8,0.2","1:go_a","",""
"null","","html-keyboard-response","115","264412","0.0-4.0-1.25","","<img src=""img/green-r.png"" border=""10"">","null","trial","32","","0.8,0.2","1:go_a","1",""
"null","","html-keyboard-response","116","265421","0.0-4.0-2.25","","<div style=""font-size:60px;"">+</div>","null","","","","","","",""
"393.90500000084285","","image-keyboard-response","117","265816","0.0-4.0-0.26","","img/green.png","32","trial","32","true","0.8,0.2","1:go_a","",""
"null","","html-keyboard-response","118","266823","0.0-4.0-1.26","","<img src=""img/green-n.png"" border=""10"">","null","trial","32","","0.8,0.2","1:go_a","0",""
"null","","html-keyboard-response","119","267832","0.0-4.0-2.26","","<div style=""font-size:60px;"">+</div>","null","","","","","","",""
"394.189999999071","","image-keyboard-response","120","268227","0.0-4.0-0.27","","img/grey.png","32","trial","null","false","0.2,0.8","2:nogo_b","",""
"null","","html-keyboard-response","121","269233","0.0-4.0-1.27","","<img src=""img/grey-n.png"" border=""10"">","null","trial","null","","0.2,0.8","2:nogo_b","0",""
"null","","html-keyboard-response","122","270235","0.0-4.0-2.27","","<div style=""font-size:60px;"">+</div>","null","","","","","","",""
"417.40999999816995","","image-keyboard-response","123","270653","0.0-4.0-0.28","","img/grey.png","32","trial","null","false","0.2,0.8","2:nogo_b","",""
"null","","html-keyboard-response","124","271658","0.0-4.0-1.28","","<img src=""img/grey-n.png"" border=""10"">","null","trial","null","","0.2,0.8","2:nogo_b","0",""
"null","","html-keyboard-response","125","272663","0.0-4.0-2.28","","<div style=""font-size:60px;"">+</div>","null","","","","","","",""
"469.7999999989406","","image-keyboard-response","126","273134","0.0-4.0-0.29","","img/green.png","32","trial","32","true","0.8,0.2","1:go_a","",""
"null","","html-keyboard-response","127","274137","0.0-4.0-1.29","","<img src=""img/green-r.png"" border=""10"">","null","trial","32","","0.8,0.2","1:go_a","1",""
"null","","html-keyboard-response","128","275138","0.0-4.0-2.29","","<div style=""font-size:60px;"">+</div>","null","","","","","","",""
"480.199999998149","","image-keyboard-response","129","275619","0.0-4.0-0.30","","img/green.png","32","trial","32","true","0.8,0.2","1:go_a","",""
"null","","html-keyboard-response","130","276627","0.0-4.0-1.30","","<img src=""img/green-r.png"" border=""10"">","null","trial","32","","0.8,0.2","1:go_a","1",""
"null","","html-keyboard-response","131","277628","0.0-4.0-2.30","","<div style=""font-size:60px;"">+</div>","null","","","","","","",""
"null","","image-keyboard-response","132","279144","0.0-4.0-0.31","","img/grey.png","null","trial","null","true","0.2,0.8","2:nogo_b","",""
"null","","html-keyboard-response","133","280147","0.0-4.0-1.31","","<img src=""img/grey-n.png"">","null","trial","null","","0.2,0.8","2:nogo_b","0",""
"null","","html-keyboard-response","134","281150","0.0-4.0-2.31","","<div style=""font-size:60px;"">+</div>","null","","","","","","",""
"null","","image-keyboard-response","135","282658","0.0-4.0-0.32","","img/grey.png","null","trial","null","true","0.2,0.8","2:nogo_b","",""
"null","","html-keyboard-response","136","283662","0.0-4.0-1.32","","<img src=""img/grey-r.png"">","null","trial","null","","0.2,0.8","2:nogo_b","1",""
"null","","html-keyboard-response","137","284669","0.0-4.0-2.32","","<div style=""font-size:60px;"">+</div>","null","","","","","","",""
"423.0999999999767","","image-keyboard-response","138","285093","0.0-4.0-0.33","","img/green.png","32","trial","32","true","0.8,0.2","1:go_a","",""
"null","","html-keyboard-response","139","286098","0.0-4.0-1.33","","<img src=""img/green-r.png"" border=""10"">","null","trial","32","","0.8,0.2","1:go_a","1",""
"null","","html-keyboard-response","140","287101","0.0-4.0-2.33","","<div style=""font-size:60px;"">+</div>","null","","","","","","",""
"469.16500000224914","","image-keyboard-response","141","287571","0.0-4.0-0.34","","img/grey.png","32","trial","null","false","0.2,0.8","2:nogo_b","",""
"null","","html-keyboard-response","142","288577","0.0-4.0-1.34","","<img src=""img/grey-n.png"" border=""10"">","null","trial","null","","0.2,0.8","2:nogo_b","0",""
"null","","html-keyboard-response","143","289580","0.0-4.0-2.34","","<div style=""font-size:60px;"">+</div>","null","","","","","","",""
"379.1500000007218","","image-keyboard-response","144","289960","0.0-4.0-0.35","","img/green.png","32","trial","32","true","0.8,0.2","1:go_a","",""
"null","","html-keyboard-response","145","290969","0.0-4.0-1.35","","<img src=""img/green-r.png"" border=""10"">","null","trial","32","","0.8,0.2","1:go_a","1",""
"null","","html-keyboard-response","146","291977","0.0-4.0-2.35","","<div style=""font-size:60px;"">+</div>","null","","","","","","",""
"416.6850000001723","","image-keyboard-response","147","292395","0.0-4.0-0.36","","img/grey.png","32","trial","null","false","0.2,0.8","2:nogo_b","",""
"null","","html-keyboard-response","148","293404","0.0-4.0-1.36","","<img src=""img/grey-n.png"" border=""10"">","null","trial","null","","0.2,0.8","2:nogo_b","0",""
"null","","html-keyboard-response","149","294406","0.0-4.0-2.36","","<div style=""font-size:60px;"">+</div>","null","","","","","","",""
"460.7350000005681","","image-keyboard-response","150","294868","0.0-4.0-0.37","","img/green.png","32","trial","32","true","0.8,0.2","1:go_a","",""
"null","","html-keyboard-response","151","295881","0.0-4.0-1.37","","<img src=""img/green-r.png"" border=""10"">","null","trial","32","","0.8,0.2","1:go_a","1",""
"null","","html-keyboard-response","152","296887","0.0-4.0-2.37","","<div style=""font-size:60px;"">+</div>","null","","","","","","",""
"376.3250000010594","","image-keyboard-response","153","297264","0.0-4.0-0.38","","img/green.png","32","trial","32","true","0.8,0.2","1:go_a","",""
"null","","html-keyboard-response","154","298266","0.0-4.0-1.38","","<img src=""img/green-r.png"" border=""10"">","null","trial","32","","0.8,0.2","1:go_a","1",""
"null","","html-keyboard-response","155","299275","0.0-4.0-2.38","","<div style=""font-size:60px;"">+</div>","null","","","","","","",""
"null","","image-keyboard-response","156","300799","0.0-4.0-0.39","","img/grey.png","null","trial","null","true","0.2,0.8","2:nogo_b","",""
"null","","html-keyboard-response","157","301802","0.0-4.0-1.39","","<img src=""img/grey-r.png"">","null","trial","null","","0.2,0.8","2:nogo_b","1",""
"null","","html-keyboard-response","158","302808","0.0-4.0-2.39","","<div style=""font-size:60px;"">+</div>","null","","","","","","",""
"384.56500000029337","","image-keyboard-response","159","303194","0.0-4.0-0.40","","img/green.png","32","trial","32","true","0.8,0.2","1:go_a","",""
"null","","html-keyboard-response","160","304198","0.0-4.0-1.40","","<img src=""img/green-r.png"" border=""10"">","null","trial","32","","0.8,0.2","1:go_a","1",""
"null","","html-keyboard-response","161","305199","0.0-4.0-2.40","","<div style=""font-size:60px;"">+</div>","null","","","","","","",""
"null","","image-keyboard-response","162","306737","0.0-4.0-0.41","","img/grey.png","null","trial","null","true","0.2,0.8","2:nogo_b","",""
"null","","html-keyboard-response","163","307745","0.0-4.0-1.41","","<img src=""img/grey-r.png"">","null","trial","null","","0.2,0.8","2:nogo_b","1",""
"null","","html-keyboard-response","164","308750","0.0-4.0-2.41","","<div style=""font-size:60px;"">+</div>","null","","","","","","",""
"356.23000000120373","","image-keyboard-response","165","309107","0.0-4.0-0.42","","img/green.png","32","trial","32","true","0.8,0.2","1:go_a","",""
"null","","html-keyboard-response","166","310114","0.0-4.0-1.42","","<img src=""img/green-r.png"" border=""10"">","null","trial","32","","0.8,0.2","1:go_a","1",""
"null","","html-keyboard-response","167","311131","0.0-4.0-2.42","","<div style=""font-size:60px;"">+</div>","null","","","","","","",""
"389.51499999896623","","image-keyboard-response","168","311522","0.0-4.0-0.43","","img/grey.png","32","trial","null","false","0.2,0.8","2:nogo_b","",""
"null","","html-keyboard-response","169","312525","0.0-4.0-1.43","","<img src=""img/grey-n.png"" border=""10"">","null","trial","null","","0.2,0.8","2:nogo_b","0",""
"null","","html-keyboard-response","170","313531","0.0-4.0-2.43","","<div style=""font-size:60px;"">+</div>","null","","","","","","",""
"444.03499999677297","","image-keyboard-response","171","313976","0.0-4.0-0.44","","img/green.png","32","trial","32","true","0.8,0.2","1:go_a","",""
"null","","html-keyboard-response","172","314982","0.0-4.0-1.44","","<img src=""img/green-r.png"" border=""10"">","null","trial","32","","0.8,0.2","1:go_a","1",""
"null","","html-keyboard-response","173","315985","0.0-4.0-2.44","","<div style=""font-size:60px;"">+</div>","null","","","","","","",""
"null","","image-keyboard-response","174","317486","0.0-4.0-0.45","","img/grey.png","null","trial","null","true","0.2,0.8","2:nogo_b","",""
"null","","html-keyboard-response","175","318489","0.0-4.0-1.45","","<img src=""img/grey-r.png"">","null","trial","null","","0.2,0.8","2:nogo_b","1",""
"null","","html-keyboard-response","176","319492","0.0-4.0-2.45","","<div style=""font-size:60px;"">+</div>","null","","","","","","",""
"null","","image-keyboard-response","177","321001","0.0-4.0-0.46","","img/grey.png","null","trial","null","true","0.2,0.8","2:nogo_b","",""
"null","","html-keyboard-response","178","322007","0.0-4.0-1.46","","<img src=""img/grey-n.png"">","null","trial","null","","0.2,0.8","2:nogo_b","0",""
"null","","html-keyboard-response","179","323013","0.0-4.0-2.46","","<div style=""font-size:60px;"">+</div>","null","","","","","","",""
"362.12499999965075","","image-keyboard-response","180","323376","0.0-4.0-0.47","","img/green.png","32","trial","32","true","0.8,0.2","1:go_a","",""
"null","","html-keyboard-response","181","324384","0.0-4.0-1.47","","<img src=""img/green-r.png"" border=""10"">","null","trial","32","","0.8,0.2","1:go_a","1",""
"null","","html-keyboard-response","182","325386","0.0-4.0-2.47","","<div style=""font-size:60px;"">+</div>","null","","","","","","",""
"367.79999999998836","","image-keyboard-response","183","325755","0.0-4.0-0.48","","img/grey.png","32","trial","null","false","0.2,0.8","2:nogo_b","",""
"null","","html-keyboard-response","184","326763","0.0-4.0-1.48","","<img src=""img/grey-r.png"" border=""10"">","null","trial","null","","0.2,0.8","2:nogo_b","1",""
"null","","html-keyboard-response","185","327772","0.0-4.0-2.48","","<div style=""font-size:60px;"">+</div>","null","","","","","","",""
"406.1099999999278","","image-keyboard-response","186","328179","0.0-4.0-0.49","","img/green.png","32","trial","32","true","0.8,0.2","1:go_a","",""
"null","","html-keyboard-response","187","329185","0.0-4.0-1.49","","<img src=""img/green-r.png"" border=""10"">","null","trial","32","","0.8,0.2","1:go_a","1",""
"null","","html-keyboard-response","188","330188","0.0-4.0-2.49","","<div style=""font-size:60px;"">+</div>","null","","","","","","",""
"null","","image-keyboard-response","189","331702","0.0-4.0-0.50","","img/grey.png","null","trial","null","true","0.2,0.8","2:nogo_b","",""
"null","","html-keyboard-response","190","332708","0.0-4.0-1.50","","<img src=""img/grey-r.png"">","null","trial","null","","0.2,0.8","2:nogo_b","1",""
"null","","html-keyboard-response","191","333714","0.0-4.0-2.50","","<div style=""font-size:60px;"">+</div>","null","","","","","","",""
"390.77499999979045","","image-keyboard-response","192","334108","0.0-4.0-0.51","","img/green.png","32","trial","32","true","0.8,0.2","1:go_a","",""
"null","","html-keyboard-response","193","335115","0.0-4.0-1.51","","<img src=""img/green-r.png"" border=""10"">","null","trial","32","","0.8,0.2","1:go_a","1",""
"null","","html-keyboard-response","194","336119","0.0-4.0-2.51","","<div style=""font-size:60px;"">+</div>","null","","","","","","",""
"null","","image-keyboard-response","195","337621","0.0-4.0-0.52","","img/grey.png","null","trial","null","true","0.2,0.8","2:nogo_b","",""
"null","","html-keyboard-response","196","338627","0.0-4.0-1.52","","<img src=""img/grey-r.png"">","null","trial","null","","0.2,0.8","2:nogo_b","1",""
"null","","html-keyboard-response","197","339629","0.0-4.0-2.52","","<div style=""font-size:60px;"">+</div>","null","","","","","","",""
"328.90499999845633","","image-keyboard-response","198","339959","0.0-4.0-0.53","","img/green.png","32","trial","32","true","0.8,0.2","1:go_a","",""
"null","","html-keyboard-response","199","340963","0.0-4.0-1.53","","<img src=""img/green-r.png"" border=""10"">","null","trial","32","","0.8,0.2","1:go_a","1",""
"null","","html-keyboard-response","200","341971","0.0-4.0-2.53","","<div style=""font-size:60px;"">+</div>","null","","","","","","",""
"420.5099999998929","","image-keyboard-response","201","342393","0.0-4.0-0.54","","img/grey.png","32","trial","null","false","0.2,0.8","2:nogo_b","",""
"null","","html-keyboard-response","202","343401","0.0-4.0-1.54","","<img src=""img/grey-n.png"" border=""10"">","null","trial","null","","0.2,0.8","2:nogo_b","0",""
"null","","html-keyboard-response","203","344408","0.0-4.0-2.54","","<div style=""font-size:60px;"">+</div>","null","","","","","","",""
"437.38999999914085","","image-keyboard-response","204","344847","0.0-4.0-0.55","","img/green.png","32","trial","32","true","0.8,0.2","1:go_a","",""
"null","","html-keyboard-response","205","345857","0.0-4.0-1.55","","<img src=""img/green-n.png"" border=""10"">","null","trial","32","","0.8,0.2","1:go_a","0",""
"null","","html-keyboard-response","206","346859","0.0-4.0-2.55","","<div style=""font-size:60px;"">+</div>","null","","","","","","",""
"404.95500000182074","","image-keyboard-response","207","347265","0.0-4.0-0.56","","img/green.png","32","trial","32","true","0.8,0.2","1:go_a","",""
"null","","html-keyboard-response","208","348269","0.0-4.0-1.56","","<img src=""img/green-r.png"" border=""10"">","null","trial","32","","0.8,0.2","1:go_a","1",""
"null","","html-keyboard-response","209","349277","0.0-4.0-2.56","","<div style=""font-size:60px;"">+</div>","null","","","","","","",""
"364.85999999783235","","image-keyboard-response","210","349643","0.0-4.0-0.57","","img/grey.png","32","trial","null","false","0.2,0.8","2:nogo_b","",""
"null","","html-keyboard-response","211","350656","0.0-4.0-1.57","","<img src=""img/grey-n.png"" border=""10"">","null","trial","null","","0.2,0.8","2:nogo_b","0",""
"null","","html-keyboard-response","212","351658","0.0-4.0-2.57","","<div style=""font-size:60px;"">+</div>","null","","","","","","",""
"362.12000000162516","","image-keyboard-response","213","352021","0.0-4.0-0.58","","img/green.png","32","trial","32","true","0.8,0.2","1:go_a","",""
"null","","html-keyboard-response","214","353025","0.0-4.0-1.58","","<img src=""img/green-n.png"" border=""10"">","null","trial","32","","0.8,0.2","1:go_a","0",""
"null","","html-keyboard-response","215","354027","0.0-4.0-2.58","","<div style=""font-size:60px;"">+</div>","null","","","","","","",""
"318.3100000023842","","image-keyboard-response","216","354347","0.0-4.0-0.59","","img/grey.png","32","trial","null","false","0.2,0.8","2:nogo_b","",""
"null","","html-keyboard-response","217","355350","0.0-4.0-1.59","","<img src=""img/grey-n.png"" border=""10"">","null","trial","null","","0.2,0.8","2:nogo_b","0",""
"null","","html-keyboard-response","218","356358","0.0-4.0-2.59","","<div style=""font-size:60px;"">+</div>","null","","","","","","",""
"2587.79499999946","","instructions","219","358946","0.0-5.0","[{""page_index"":0,""viewing_time"":2587.530000000668}]","","","","","","","","",""
"918.9750000004424","","image-keyboard-response","220","359867","0.0-6.0-0.0","","img/pink.png","32","trial","null","false","0.2,0.8","2:nogo_b","",""
"null","","html-keyboard-response","221","360875","0.0-6.0-1.0","","<img src=""img/pink-n.png"" border=""10"">","null","trial","null","","0.2,0.8","2:nogo_b","0",""
"null","","html-keyboard-response","222","361882","0.0-6.0-2.0","","<div style=""font-size:60px;"">+</div>","null","","","","","","",""
"528.214999998454","","image-keyboard-response","223","362411","0.0-6.0-0.1","","img/grey.png","32","trial","32","true","0.8,0.2","1:go_a","",""
"null","","html-keyboard-response","224","363420","0.0-6.0-1.1","","<img src=""img/grey-r.png"" border=""10"">","null","trial","32","","0.8,0.2","1:go_a","1",""
"null","","html-keyboard-response","225","364425","0.0-6.0-2.1","","<div style=""font-size:60px;"">+</div>","null","","","","","","",""
"622.7450000005774","","image-keyboard-response","226","365049","0.0-6.0-0.2","","img/orange.png","32","trial","32","true","0.8,0.2","3:go_c","",""
"null","","html-keyboard-response","227","366063","0.0-6.0-1.2","","<img src=""img/orange-r.png"" border=""10"">","null","trial","32","","0.8,0.2","3:go_c","1",""
"null","","html-keyboard-response","228","367065","0.0-6.0-2.2","","<div style=""font-size:60px;"">+</div>","null","","","","","","",""
"837.3949999986799","","image-keyboard-response","229","367903","0.0-6.0-0.3","","img/yellow.png","32","trial","null","false","0.2,0.8","4:nogo_d","",""
"null","","html-keyboard-response","230","368908","0.0-6.0-1.3","","<img src=""img/yellow-n.png"" border=""10"">","null","trial","null","","0.2,0.8","4:nogo_d","0",""
"null","","html-keyboard-response","231","369916","0.0-6.0-2.3","","<div style=""font-size:60px;"">+</div>","null","","","","","","",""
"931.1799999995856","","image-keyboard-response","232","370850","0.0-6.0-0.4","","img/grey.png","32","trial","32","true","0.8,0.2","1:go_a","",""
"null","","html-keyboard-response","233","371855","0.0-6.0-1.4","","<img src=""img/grey-r.png"" border=""10"">","null","trial","32","","0.8,0.2","1:go_a","1",""
"null","","html-keyboard-response","234","372857","0.0-6.0-2.4","","<div style=""font-size:60px;"">+</div>","null","","","","","","",""
"null","","image-keyboard-response","235","374362","0.0-6.0-0.5","","img/pink.png","null","trial","null","true","0.2,0.8","2:nogo_b","",""
"null","","html-keyboard-response","236","375369","0.0-6.0-1.5","","<img src=""img/pink-r.png"">","null","trial","null","","0.2,0.8","2:nogo_b","1",""
"null","","html-keyboard-response","237","376391","0.0-6.0-2.5","","<div style=""font-size:60px;"">+</div>","null","","","","","","",""
"null","","image-keyboard-response","238","377898","0.0-6.0-0.6","","img/orange.png","null","trial","32","false","0.8,0.2","3:go_c","",""
"null","","html-keyboard-response","239","378907","0.0-6.0-1.6","","<img src=""img/orange-n.png"">","null","trial","32","","0.8,0.2","3:go_c","0",""
"null","","html-keyboard-response","240","379911","0.0-6.0-2.6","","<div style=""font-size:60px;"">+</div>","null","","","","","","",""
"450.51500000047963","","image-keyboard-response","241","380362","0.0-6.0-0.7","","img/yellow.png","32","trial","null","false","0.2,0.8","4:nogo_d","",""
"null","","html-keyboard-response","242","381370","0.0-6.0-1.7","","<img src=""img/yellow-n.png"" border=""10"">","null","trial","null","","0.2,0.8","4:nogo_d","0",""
"null","","html-keyboard-response","243","382375","0.0-6.0-2.7","","<div style=""font-size:60px;"">+</div>","null","","","","","","",""
"500.41000000055647","","image-keyboard-response","244","382876","0.0-6.0-0.8","","img/pink.png","32","trial","null","false","0.2,0.8","2:nogo_b","",""
"null","","html-keyboard-response","245","383883","0.0-6.0-1.8","","<img src=""img/pink-n.png"" border=""10"">","null","trial","null","","0.2,0.8","2:nogo_b","0",""
"null","","html-keyboard-response","246","384900","0.0-6.0-2.8","","<div style=""font-size:60px;"">+</div>","null","","","","","","",""
"null","","image-keyboard-response","247","386402","0.0-6.0-0.9","","img/yellow.png","null","trial","null","true","0.2,0.8","4:nogo_d","",""
"null","","html-keyboard-response","248","387405","0.0-6.0-1.9","","<img src=""img/yellow-n.png"">","null","trial","null","","0.2,0.8","4:nogo_d","0",""
"null","","html-keyboard-response","249","388407","0.0-6.0-2.9","","<div style=""font-size:60px;"">+</div>","null","","","","","","",""
"481.3949999989127","","image-keyboard-response","250","388889","0.0-6.0-0.10","","img/orange.png","32","trial","32","true","0.8,0.2","3:go_c","",""
"null","","html-keyboard-response","251","389893","0.0-6.0-1.10","","<img src=""img/orange-r.png"" border=""10"">","null","trial","32","","0.8,0.2","3:go_c","1",""
"null","","html-keyboard-response","252","390901","0.0-6.0-2.10","","<div style=""font-size:60px;"">+</div>","null","","","","","","",""
"567.0399999980582","","image-keyboard-response","253","391469","0.0-6.0-0.11","","img/grey.png","32","trial","32","true","0.8,0.2","1:go_a","",""
"null","","html-keyboard-response","254","392474","0.0-6.0-1.11","","<img src=""img/grey-r.png"" border=""10"">","null","trial","32","","0.8,0.2","1:go_a","1",""
"null","","html-keyboard-response","255","393478","0.0-6.0-2.11","","<div style=""font-size:60px;"">+</div>","null","","","","","","",""
"435.025000002468","","image-keyboard-response","256","393914","0.0-6.0-0.12","","img/grey.png","32","trial","32","true","0.8,0.2","1:go_a","",""
"null","","html-keyboard-response","257","394922","0.0-6.0-1.12","","<img src=""img/grey-r.png"" border=""10"">","null","trial","32","","0.8,0.2","1:go_a","1",""
"null","","html-keyboard-response","258","395929","0.0-6.0-2.12","","<div style=""font-size:60px;"">+</div>","null","","","","","","",""
"null","","image-keyboard-response","259","397431","0.0-6.0-0.13","","img/yellow.png","null","trial","null","true","0.2,0.8","4:nogo_d","",""
"null","","html-keyboard-response","260","398442","0.0-6.0-1.13","","<img src=""img/yellow-r.png"">","null","trial","null","","0.2,0.8","4:nogo_d","1",""
"null","","html-keyboard-response","261","399444","0.0-6.0-2.13","","<div style=""font-size:60px;"">+</div>","null","","","","","","",""
"null","","image-keyboard-response","262","400952","0.0-6.0-0.14","","img/pink.png","null","trial","null","true","0.2,0.8","2:nogo_b","",""
"null","","html-keyboard-response","263","401961","0.0-6.0-1.14","","<img src=""img/pink-r.png"">","null","trial","null","","0.2,0.8","2:nogo_b","1",""
"null","","html-keyboard-response","264","402978","0.0-6.0-2.14","","<div style=""font-size:60px;"">+</div>","null","","","","","","",""
"674.0300000019488","","image-keyboard-response","265","403652","0.0-6.0-0.15","","img/orange.png","32","trial","32","true","0.8,0.2","3:go_c","",""
"null","","html-keyboard-response","266","404655","0.0-6.0-1.15","","<img src=""img/orange-r.png"" border=""10"">","null","trial","32","","0.8,0.2","3:go_c","1",""
"null","","html-keyboard-response","267","405659","0.0-6.0-2.15","","<div style=""font-size:60px;"">+</div>","null","","","","","","",""
"521.2199999987497","","image-keyboard-response","268","406181","0.0-6.0-0.16","","img/orange.png","32","trial","32","true","0.8,0.2","3:go_c","",""
"null","","html-keyboard-response","269","407187","0.0-6.0-1.16","","<img src=""img/orange-r.png"" border=""10"">","null","trial","32","","0.8,0.2","3:go_c","1",""
"null","","html-keyboard-response","270","408192","0.0-6.0-2.16","","<div style=""font-size:60px;"">+</div>","null","","","","","","",""
"null","","image-keyboard-response","271","409700","0.0-6.0-0.17","","img/pink.png","null","trial","null","true","0.2,0.8","2:nogo_b","",""
"null","","html-keyboard-response","272","410706","0.0-6.0-1.17","","<img src=""img/pink-r.png"">","null","trial","null","","0.2,0.8","2:nogo_b","1",""
"null","","html-keyboard-response","273","411713","0.0-6.0-2.17","","<div style=""font-size:60px;"">+</div>","null","","","","","","",""
"481.31999999901745","","image-keyboard-response","274","412195","0.0-6.0-0.18","","img/grey.png","32","trial","32","true","0.8,0.2","1:go_a","",""
"null","","html-keyboard-response","275","413198","0.0-6.0-1.18","","<img src=""img/grey-n.png"" border=""10"">","null","trial","32","","0.8,0.2","1:go_a","0",""
"null","","html-keyboard-response","276","414206","0.0-6.0-2.18","","<div style=""font-size:60px;"">+</div>","null","","","","","","",""
"null","","image-keyboard-response","277","415716","0.0-6.0-0.19","","img/yellow.png","null","trial","null","true","0.2,0.8","4:nogo_d","",""
"null","","html-keyboard-response","278","416722","0.0-6.0-1.19","","<img src=""img/yellow-r.png"">","null","trial","null","","0.2,0.8","4:nogo_d","1",""
"null","","html-keyboard-response","279","417730","0.0-6.0-2.19","","<div style=""font-size:60px;"">+</div>","null","","","","","","",""
"446.58999999955995","","image-keyboard-response","280","418178","0.0-6.0-0.20","","img/grey.png","32","trial","32","true","0.8,0.2","1:go_a","",""
"null","","html-keyboard-response","281","419183","0.0-6.0-1.20","","<img src=""img/grey-n.png"" border=""10"">","null","trial","32","","0.8,0.2","1:go_a","0",""
"null","","html-keyboard-response","282","420190","0.0-6.0-2.20","","<div style=""font-size:60px;"">+</div>","null","","","","","","",""
"1041.3200000002398","","image-keyboard-response","283","421233","0.0-6.0-0.21","","img/pink.png","32","trial","null","false","0.2,0.8","2:nogo_b","",""
"null","","html-keyboard-response","284","422238","0.0-6.0-1.21","","<img src=""img/pink-r.png"" border=""10"">","null","trial","null","","0.2,0.8","2:nogo_b","1",""
"null","","html-keyboard-response","285","423244","0.0-6.0-2.21","","<div style=""font-size:60px;"">+</div>","null","","","","","","",""
"629.1000000019558","","image-keyboard-response","286","423868","0.0-6.0-0.22","","img/yellow.png","32","trial","null","false","0.2,0.8","4:nogo_d","",""
"null","","html-keyboard-response","287","424874","0.0-6.0-1.22","","<img src=""img/yellow-n.png"" border=""10"">","null","trial","null","","0.2,0.8","4:nogo_d","0",""
"null","","html-keyboard-response","288","425879","0.0-6.0-2.22","","<div style=""font-size:60px;"">+</div>","null","","","","","","",""
"637.8400000031106","","image-keyboard-response","289","426518","0.0-6.0-0.23","","img/orange.png","32","trial","32","true","0.8,0.2","3:go_c","",""
"null","","html-keyboard-response","290","427522","0.0-6.0-1.23","","<img src=""img/orange-r.png"" border=""10"">","null","trial","32","","0.8,0.2","3:go_c","1",""
"null","","html-keyboard-response","291","428530","0.0-6.0-2.23","","<div style=""font-size:60px;"">+</div>","null","","","","","","",""
"null","","image-keyboard-response","292","430033","0.0-6.0-0.24","","img/yellow.png","null","trial","null","true","0.2,0.8","4:nogo_d","",""
"null","","html-keyboard-response","293","431040","0.0-6.0-1.24","","<img src=""img/yellow-n.png"">","null","trial","null","","0.2,0.8","4:nogo_d","0",""
"null","","html-keyboard-response","294","432053","0.0-6.0-2.24","","<div style=""font-size:60px;"">+</div>","null","","","","","","",""
"523.9350000010454","","image-keyboard-response","295","432578","0.0-6.0-0.25","","img/orange.png","32","trial","32","true","0.8,0.2","3:go_c","",""
"null","","html-keyboard-response","296","433586","0.0-6.0-1.25","","<img src=""img/orange-n.png"" border=""10"">","null","trial","32","","0.8,0.2","3:go_c","0",""
"null","","html-keyboard-response","297","434594","0.0-6.0-2.25","","<div style=""font-size:60px;"">+</div>","null","","","","","","",""
"475.9849999973085","","image-keyboard-response","298","435072","0.0-6.0-0.26","","img/grey.png","32","trial","32","true","0.8,0.2","1:go_a","",""
"null","","html-keyboard-response","299","436076","0.0-6.0-1.26","","<img src=""img/grey-r.png"" border=""10"">","null","trial","32","","0.8,0.2","1:go_a","1",""
"null","","html-keyboard-response","300","437081","0.0-6.0-2.26","","<div style=""font-size:60px;"">+</div>","null","","","","","","",""
"null","","image-keyboard-response","301","438589","0.0-6.0-0.27","","img/pink.png","null","trial","null","true","0.2,0.8","2:nogo_b","",""
"null","","html-keyboard-response","302","439594","0.0-6.0-1.27","","<img src=""img/pink-r.png"">","null","trial","null","","0.2,0.8","2:nogo_b","1",""
"null","","html-keyboard-response","303","440604","0.0-6.0-2.27","","<div style=""font-size:60px;"">+</div>","null","","","","","","",""
"755.0499999996973","","image-keyboard-response","304","441360","0.0-6.0-0.28","","img/grey.png","32","trial","32","true","0.8,0.2","1:go_a","",""
"null","","html-keyboard-response","305","442366","0.0-6.0-1.28","","<img src=""img/grey-r.png"" border=""10"">","null","trial","32","","0.8,0.2","1:go_a","1",""
"null","","html-keyboard-response","306","443369","0.0-6.0-2.28","","<div style=""font-size:60px;"">+</div>","null","","","","","","",""
"423.61999999778345","","image-keyboard-response","307","443794","0.0-6.0-0.29","","img/pink.png","32","trial","null","false","0.2,0.8","2:nogo_b","",""
"null","","html-keyboard-response","308","444802","0.0-6.0-1.29","","<img src=""img/pink-n.png"" border=""10"">","null","trial","null","","0.2,0.8","2:nogo_b","0",""
"null","","html-keyboard-response","309","445811","0.0-6.0-2.29","","<div style=""font-size:60px;"">+</div>","null","","","","","","",""
"null","","image-keyboard-response","310","447318","0.0-6.0-0.30","","img/orange.png","null","trial","32","false","0.8,0.2","3:go_c","",""
"null","","html-keyboard-response","311","448324","0.0-6.0-1.30","","<img src=""img/orange-n.png"">","null","trial","32","","0.8,0.2","3:go_c","0",""
"null","","html-keyboard-response","312","449335","0.0-6.0-2.30","","<div style=""font-size:60px;"">+</div>","null","","","","","","",""
"null","","image-keyboard-response","313","450836","0.0-6.0-0.31","","img/yellow.png","null","trial","null","true","0.2,0.8","4:nogo_d","",""
"null","","html-keyboard-response","314","451841","0.0-6.0-1.31","","<img src=""img/yellow-r.png"">","null","trial","null","","0.2,0.8","4:nogo_d","1",""
"null","","html-keyboard-response","315","452846","0.0-6.0-2.31","","<div style=""font-size:60px;"">+</div>","null","","","","","","",""
"450.7350000021397","","image-keyboard-response","316","453298","0.0-6.0-0.32","","img/grey.png","32","trial","32","true","0.8,0.2","1:go_a","",""
"null","","html-keyboard-response","317","454305","0.0-6.0-1.32","","<img src=""img/grey-r.png"" border=""10"">","null","trial","32","","0.8,0.2","1:go_a","1",""
"null","","html-keyboard-response","318","455307","0.0-6.0-2.32","","<div style=""font-size:60px;"">+</div>","null","","","","","","",""
"null","","image-keyboard-response","319","456816","0.0-6.0-0.33","","img/yellow.png","null","trial","null","true","0.2,0.8","4:nogo_d","",""
"null","","html-keyboard-response","320","457819","0.0-6.0-1.33","","<img src=""img/yellow-r.png"">","null","trial","null","","0.2,0.8","4:nogo_d","1",""
"null","","html-keyboard-response","321","458824","0.0-6.0-2.33","","<div style=""font-size:60px;"">+</div>","null","","","","","","",""
"753.564999999071","","image-keyboard-response","322","459579","0.0-6.0-0.34","","img/orange.png","32","trial","32","true","0.8,0.2","3:go_c","",""
"null","","html-keyboard-response","323","460585","0.0-6.0-1.34","","<img src=""img/orange-r.png"" border=""10"">","null","trial","32","","0.8,0.2","3:go_c","1",""
"null","","html-keyboard-response","324","461586","0.0-6.0-2.34","","<div style=""font-size:60px;"">+</div>","null","","","","","","",""
"1152.6750000012107","","image-keyboard-response","325","462740","0.0-6.0-0.35","","img/pink.png","32","trial","null","false","0.2,0.8","2:nogo_b","",""
"null","","html-keyboard-response","326","463744","0.0-6.0-1.35","","<img src=""img/pink-n.png"" border=""10"">","null","trial","null","","0.2,0.8","2:nogo_b","0",""
"null","","html-keyboard-response","327","464751","0.0-6.0-2.35","","<div style=""font-size:60px;"">+</div>","null","","","","","","",""
"567.6550000025891","","image-keyboard-response","328","465319","0.0-6.0-0.36","","img/grey.png","32","trial","32","true","0.8,0.2","1:go_a","",""
"null","","html-keyboard-response","329","466324","0.0-6.0-1.36","","<img src=""img/grey-r.png"" border=""10"">","null","trial","32","","0.8,0.2","1:go_a","1",""
"null","","html-keyboard-response","330","467340","0.0-6.0-2.36","","<div style=""font-size:60px;"">+</div>","null","","","","","","",""
"null","","image-keyboard-response","331","468846","0.0-6.0-0.37","","img/pink.png","null","trial","null","true","0.2,0.8","2:nogo_b","",""
"null","","html-keyboard-response","332","469852","0.0-6.0-1.37","","<img src=""img/pink-r.png"">","null","trial","null","","0.2,0.8","2:nogo_b","1",""
"null","","html-keyboard-response","333","470853","0.0-6.0-2.37","","<div style=""font-size:60px;"">+</div>","null","","","","","","",""
"474.6149999991758","","image-keyboard-response","334","471329","0.0-6.0-0.38","","img/orange.png","32","trial","32","true","0.8,0.2","3:go_c","",""
"null","","html-keyboard-response","335","472337","0.0-6.0-1.38","","<img src=""img/orange-n.png"" border=""10"">","null","trial","32","","0.8,0.2","3:go_c","0",""
"null","","html-keyboard-response","336","473344","0.0-6.0-2.38","","<div style=""font-size:60px;"">+</div>","null","","","","","","",""
"581.7749999987427","","image-keyboard-response","337","473927","0.0-6.0-0.39","","img/yellow.png","32","trial","null","false","0.2,0.8","4:nogo_d","",""
"null","","html-keyboard-response","338","474934","0.0-6.0-1.39","","<img src=""img/yellow-n.png"" border=""10"">","null","trial","null","","0.2,0.8","4:nogo_d","0",""
"null","","html-keyboard-response","339","475940","0.0-6.0-2.39","","<div style=""font-size:60px;"">+</div>","null","","","","","","",""
"null","","image-keyboard-response","340","477443","0.0-6.0-0.40","","img/yellow.png","null","trial","null","true","0.2,0.8","4:nogo_d","",""
"null","","html-keyboard-response","341","478445","0.0-6.0-1.40","","<img src=""img/yellow-r.png"">","null","trial","null","","0.2,0.8","4:nogo_d","1",""
"null","","html-keyboard-response","342","479456","0.0-6.0-2.40","","<div style=""font-size:60px;"">+</div>","null","","","","","","",""
"487.2350000005099","","image-keyboard-response","343","479944","0.0-6.0-0.41","","img/grey.png","32","trial","32","true","0.8,0.2","1:go_a","",""
"null","","html-keyboard-response","344","480948","0.0-6.0-1.41","","<img src=""img/grey-r.png"" border=""10"">","null","trial","32","","0.8,0.2","1:go_a","1",""
"null","","html-keyboard-response","345","481951","0.0-6.0-2.41","","<div style=""font-size:60px;"">+</div>","null","","","","","","",""
"702.1999999997206","","image-keyboard-response","346","482654","0.0-6.0-0.42","","img/orange.png","32","trial","32","true","0.8,0.2","3:go_c","",""
"null","","html-keyboard-response","347","483662","0.0-6.0-1.42","","<img src=""img/orange-r.png"" border=""10"">","null","trial","32","","0.8,0.2","3:go_c","1",""
"null","","html-keyboard-response","348","484673","0.0-6.0-2.42","","<div style=""font-size:60px;"">+</div>","null","","","","","","",""
"575.9550000002491","","image-keyboard-response","349","485251","0.0-6.0-0.43","","img/pink.png","32","trial","null","false","0.2,0.8","2:nogo_b","",""
"null","","html-keyboard-response","350","486254","0.0-6.0-1.43","","<img src=""img/pink-n.png"" border=""10"">","null","trial","null","","0.2,0.8","2:nogo_b","0",""
"null","","html-keyboard-response","351","487261","0.0-6.0-2.43","","<div style=""font-size:60px;"">+</div>","null","","","","","","",""
"null","","image-keyboard-response","352","488793","0.0-6.0-0.44","","img/orange.png","null","trial","32","false","0.8,0.2","3:go_c","",""
"null","","html-keyboard-response","353","489798","0.0-6.0-1.44","","<img src=""img/orange-n.png"">","null","trial","32","","0.8,0.2","3:go_c","0",""
"null","","html-keyboard-response","354","490802","0.0-6.0-2.44","","<div style=""font-size:60px;"">+</div>","null","","","","","","",""
"843.1349999991362","","image-keyboard-response","355","491647","0.0-6.0-0.45","","img/yellow.png","32","trial","null","false","0.2,0.8","4:nogo_d","",""
"null","","html-keyboard-response","356","492650","0.0-6.0-1.45","","<img src=""img/yellow-n.png"" border=""10"">","null","trial","null","","0.2,0.8","4:nogo_d","0",""
"null","","html-keyboard-response","357","493654","0.0-6.0-2.45","","<div style=""font-size:60px;"">+</div>","null","","","","","","",""
"432.02000000019325","","image-keyboard-response","358","494087","0.0-6.0-0.46","","img/grey.png","32","trial","32","true","0.8,0.2","1:go_a","",""
"null","","html-keyboard-response","359","495098","0.0-6.0-1.46","","<img src=""img/grey-r.png"" border=""10"">","null","trial","32","","0.8,0.2","1:go_a","1",""
"null","","html-keyboard-response","360","496100","0.0-6.0-2.46","","<div style=""font-size:60px;"">+</div>","null","","","","","","",""
"551.9099999983446","","image-keyboard-response","361","496653","0.0-6.0-0.47","","img/pink.png","32","trial","null","false","0.2,0.8","2:nogo_b","",""
"null","","html-keyboard-response","362","497663","0.0-6.0-1.47","","<img src=""img/pink-n.png"" border=""10"">","null","trial","null","","0.2,0.8","2:nogo_b","0",""
"null","","html-keyboard-response","363","498667","0.0-6.0-2.47","","<div style=""font-size:60px;"">+</div>","null","","","","","","",""
"491.08499999780906","","image-keyboard-response","364","499159","0.0-6.0-0.48","","img/grey.png","32","trial","32","true","0.8,0.2","1:go_a","",""
"null","","html-keyboard-response","365","500163","0.0-6.0-1.48","","<img src=""img/grey-n.png"" border=""10"">","null","trial","32","","0.8,0.2","1:go_a","0",""
"null","","html-keyboard-response","366","501168","0.0-6.0-2.48","","<div style=""font-size:60px;"">+</div>","null","","","","","","",""
"1011.0050000002957","","image-keyboard-response","367","502180","0.0-6.0-0.49","","img/pink.png","32","trial","null","false","0.2,0.8","2:nogo_b","",""
"null","","html-keyboard-response","368","503188","0.0-6.0-1.49","","<img src=""img/pink-n.png"" border=""10"">","null","trial","null","","0.2,0.8","2:nogo_b","0",""
"null","","html-keyboard-response","369","504194","0.0-6.0-2.49","","<div style=""font-size:60px;"">+</div>","null","","","","","","",""
"1026.5349999972386","","image-keyboard-response","370","505221","0.0-6.0-0.50","","img/yellow.png","32","trial","null","false","0.2,0.8","4:nogo_d","",""
"null","","html-keyboard-response","371","506227","0.0-6.0-1.50","","<img src=""img/yellow-n.png"" border=""10"">","null","trial","null","","0.2,0.8","4:nogo_d","0",""
"null","","html-keyboard-response","372","507235","0.0-6.0-2.50","","<div style=""font-size:60px;"">+</div>","null","","","","","","",""
"723.454999999376","","image-keyboard-response","373","507959","0.0-6.0-0.51","","img/orange.png","32","trial","32","true","0.8,0.2","3:go_c","",""
"null","","html-keyboard-response","374","508967","0.0-6.0-1.51","","<img src=""img/orange-r.png"" border=""10"">","null","trial","32","","0.8,0.2","3:go_c","1",""
"null","","html-keyboard-response","375","509975","0.0-6.0-2.51","","<div style=""font-size:60px;"">+</div>","null","","","","","","",""
"831.0300000011921","","image-keyboard-response","376","510807","0.0-6.0-0.52","","img/orange.png","32","trial","32","true","0.8,0.2","3:go_c","",""
"null","","html-keyboard-response","377","511813","0.0-6.0-1.52","","<img src=""img/orange-r.png"" border=""10"">","null","trial","32","","0.8,0.2","3:go_c","1",""
"null","","html-keyboard-response","378","512822","0.0-6.0-2.52","","<div style=""font-size:60px;"">+</div>","null","","","","","","",""
"636.1849999993574","","image-keyboard-response","379","513459","0.0-6.0-0.53","","img/grey.png","32","trial","32","true","0.8,0.2","1:go_a","",""
"null","","html-keyboard-response","380","514465","0.0-6.0-1.53","","<img src=""img/grey-r.png"" border=""10"">","null","trial","32","","0.8,0.2","1:go_a","1",""
"null","","html-keyboard-response","381","515481","0.0-6.0-2.53","","<div style=""font-size:60px;"">+</div>","null","","","","","","",""
"null","","image-keyboard-response","382","516990","0.0-6.0-0.54","","img/pink.png","null","trial","null","true","0.2,0.8","2:nogo_b","",""
"null","","html-keyboard-response","383","517997","0.0-6.0-1.54","","<img src=""img/pink-r.png"">","null","trial","null","","0.2,0.8","2:nogo_b","1",""
"null","","html-keyboard-response","384","519003","0.0-6.0-2.54","","<div style=""font-size:60px;"">+</div>","null","","","","","","",""
"null","","image-keyboard-response","385","520507","0.0-6.0-0.55","","img/yellow.png","null","trial","null","true","0.2,0.8","4:nogo_d","",""
"null","","html-keyboard-response","386","521516","0.0-6.0-1.55","","<img src=""img/yellow-r.png"">","null","trial","null","","0.2,0.8","4:nogo_d","1",""
"null","","html-keyboard-response","387","522524","0.0-6.0-2.55","","<div style=""font-size:60px;"">+</div>","null","","","","","","",""
"559.3250000020489","","image-keyboard-response","388","523084","0.0-6.0-0.56","","img/orange.png","32","trial","32","true","0.8,0.2","3:go_c","",""
"null","","html-keyboard-response","389","524096","0.0-6.0-1.56","","<img src=""img/orange-r.png"" border=""10"">","null","trial","32","","0.8,0.2","3:go_c","1",""
"null","","html-keyboard-response","390","525102","0.0-6.0-2.56","","<div style=""font-size:60px;"">+</div>","null","","","","","","",""
"822.5649999985471","","image-keyboard-response","391","525926","0.0-6.0-0.57","","img/yellow.png","32","trial","null","false","0.2,0.8","4:nogo_d","",""
"null","","html-keyboard-response","392","526930","0.0-6.0-1.57","","<img src=""img/yellow-r.png"" border=""10"">","null","trial","null","","0.2,0.8","4:nogo_d","1",""
"null","","html-keyboard-response","393","527932","0.0-6.0-2.57","","<div style=""font-size:60px;"">+</div>","null","","","","","","",""
"689.890000001411","","image-keyboard-response","394","528623","0.0-6.0-0.58","","img/pink.png","32","trial","null","false","0.2,0.8","2:nogo_b","",""
"null","","html-keyboard-response","395","529627","0.0-6.0-1.58","","<img src=""img/pink-n.png"" border=""10"">","null","trial","null","","0.2,0.8","2:nogo_b","0",""
"null","","html-keyboard-response","396","530635","0.0-6.0-2.58","","<div style=""font-size:60px;"">+</div>","null","","","","","","",""
"470.7699999999022","","image-keyboard-response","397","531106","0.0-6.0-0.59","","img/grey.png","32","trial","32","true","0.8,0.2","1:go_a","",""
"null","","html-keyboard-response","398","532114","0.0-6.0-1.59","","<img src=""img/grey-r.png"" border=""10"">","null","trial","32","","0.8,0.2","1:go_a","1",""
"null","","html-keyboard-response","399","533116","0.0-6.0-2.59","","<div style=""font-size:60px;"">+</div>","null","","","","","","",""
"null","","image-keyboard-response","400","534617","0.0-6.0-0.60","","img/pink.png","null","trial","null","true","0.2,0.8","2:nogo_b","",""
"null","","html-keyboard-response","401","535623","0.0-6.0-1.60","","<img src=""img/pink-r.png"">","null","trial","null","","0.2,0.8","2:nogo_b","1",""
"null","","html-keyboard-response","402","536626","0.0-6.0-2.60","","<div style=""font-size:60px;"">+</div>","null","","","","","","",""
"551.2349999989383","","image-keyboard-response","403","537178","0.0-6.0-0.61","","img/grey.png","32","trial","32","true","0.8,0.2","1:go_a","",""
"null","","html-keyboard-response","404","538183","0.0-6.0-1.61","","<img src=""img/grey-n.png"" border=""10"">","null","trial","32","","0.8,0.2","1:go_a","0",""
"null","","html-keyboard-response","405","539188","0.0-6.0-2.61","","<div style=""font-size:60px;"">+</div>","null","","","","","","",""
"567.2000000013504","","image-keyboard-response","406","539756","0.0-6.0-0.62","","img/yellow.png","32","trial","null","false","0.2,0.8","4:nogo_d","",""
"null","","html-keyboard-response","407","540769","0.0-6.0-1.62","","<img src=""img/yellow-r.png"" border=""10"">","null","trial","null","","0.2,0.8","4:nogo_d","1",""
"null","","html-keyboard-response","408","541771","0.0-6.0-2.62","","<div style=""font-size:60px;"">+</div>","null","","","","","","",""
"641.6149999968475","","image-keyboard-response","409","542414","0.0-6.0-0.63","","img/orange.png","32","trial","32","true","0.8,0.2","3:go_c","",""
"null","","html-keyboard-response","410","543423","0.0-6.0-1.63","","<img src=""img/orange-n.png"" border=""10"">","null","trial","32","","0.8,0.2","3:go_c","0",""
"null","","html-keyboard-response","411","544427","0.0-6.0-2.63","","<div style=""font-size:60px;"">+</div>","null","","","","","","",""
"null","","image-keyboard-response","412","545931","0.0-6.0-0.64","","img/pink.png","null","trial","null","true","0.2,0.8","2:nogo_b","",""
"null","","html-keyboard-response","413","546937","0.0-6.0-1.64","","<img src=""img/pink-n.png"">","null","trial","null","","0.2,0.8","2:nogo_b","0",""
"null","","html-keyboard-response","414","547943","0.0-6.0-2.64","","<div style=""font-size:60px;"">+</div>","null","","","","","","",""
"726.9850000011502","","image-keyboard-response","415","548671","0.0-6.0-0.65","","img/orange.png","32","trial","32","true","0.8,0.2","3:go_c","",""
"null","","html-keyboard-response","416","549675","0.0-6.0-1.65","","<img src=""img/orange-r.png"" border=""10"">","null","trial","32","","0.8,0.2","3:go_c","1",""
"null","","html-keyboard-response","417","550683","0.0-6.0-2.65","","<div style=""font-size:60px;"">+</div>","null","","","","","","",""
"658.2150000031106","","image-keyboard-response","418","551342","0.0-6.0-0.66","","img/grey.png","32","trial","32","true","0.8,0.2","1:go_a","",""
"null","","html-keyboard-response","419","552348","0.0-6.0-1.66","","<img src=""img/grey-r.png"" border=""10"">","null","trial","32","","0.8,0.2","1:go_a","1",""
"null","","html-keyboard-response","420","553363","0.0-6.0-2.66","","<div style=""font-size:60px;"">+</div>","null","","","","","","",""
"null","","image-keyboard-response","421","554869","0.0-6.0-0.67","","img/yellow.png","null","trial","null","true","0.2,0.8","4:nogo_d","",""
"null","","html-keyboard-response","422","555878","0.0-6.0-1.67","","<img src=""img/yellow-n.png"">","null","trial","null","","0.2,0.8","4:nogo_d","0",""
"null","","html-keyboard-response","423","556887","0.0-6.0-2.67","","<div style=""font-size:60px;"">+</div>","null","","","","","","",""
"null","","image-keyboard-response","424","558395","0.0-6.0-0.68","","img/yellow.png","null","trial","null","true","0.2,0.8","4:nogo_d","",""
"null","","html-keyboard-response","425","559403","0.0-6.0-1.68","","<img src=""img/yellow-r.png"">","null","trial","null","","0.2,0.8","4:nogo_d","1",""
"null","","html-keyboard-response","426","560414","0.0-6.0-2.68","","<div style=""font-size:60px;"">+</div>","null","","","","","","",""
"538.7399999998743","","image-keyboard-response","427","560953","0.0-6.0-0.69","","img/orange.png","32","trial","32","true","0.8,0.2","3:go_c","",""
"null","","html-keyboard-response","428","561965","0.0-6.0-1.69","","<img src=""img/orange-n.png"" border=""10"">","null","trial","32","","0.8,0.2","3:go_c","0",""
"null","","html-keyboard-response","429","562967","0.0-6.0-2.69","","<div style=""font-size:60px;"">+</div>","null","","","","","","",""
"461.7050000015879","","image-keyboard-response","430","563430","0.0-6.0-0.70","","img/grey.png","32","trial","32","true","0.8,0.2","1:go_a","",""
"null","","html-keyboard-response","431","564439","0.0-6.0-1.70","","<img src=""img/grey-r.png"" border=""10"">","null","trial","32","","0.8,0.2","1:go_a","1",""
"null","","html-keyboard-response","432","565443","0.0-6.0-2.70","","<div style=""font-size:60px;"">+</div>","null","","","","","","",""
"1134.7449999994133","","image-keyboard-response","433","566579","0.0-6.0-0.71","","img/pink.png","32","trial","null","false","0.2,0.8","2:nogo_b","",""
"null","","html-keyboard-response","434","567587","0.0-6.0-1.71","","<img src=""img/pink-n.png"" border=""10"">","null","trial","null","","0.2,0.8","2:nogo_b","0",""
"null","","html-keyboard-response","435","568591","0.0-6.0-2.71","","<div style=""font-size:60px;"">+</div>","null","","","","","","",""
"1087.8400000000838","","image-keyboard-response","436","569679","0.0-6.0-0.72","","img/pink.png","32","trial","null","false","0.2,0.8","2:nogo_b","",""
"null","","html-keyboard-response","437","570684","0.0-6.0-1.72","","<img src=""img/pink-n.png"" border=""10"">","null","trial","null","","0.2,0.8","2:nogo_b","0",""
"null","","html-keyboard-response","438","571690","0.0-6.0-2.72","","<div style=""font-size:60px;"">+</div>","null","","","","","","",""
"637.3700000003446","","image-keyboard-response","439","572329","0.0-6.0-0.73","","img/orange.png","32","trial","32","true","0.8,0.2","3:go_c","",""
"null","","html-keyboard-response","440","573344","0.0-6.0-1.73","","<img src=""img/orange-r.png"" border=""10"">","null","trial","32","","0.8,0.2","3:go_c","1",""
"null","","html-keyboard-response","441","574346","0.0-6.0-2.73","","<div style=""font-size:60px;"">+</div>","null","","","","","","",""
"null","","image-keyboard-response","442","575849","0.0-6.0-0.74","","img/yellow.png","null","trial","null","true","0.2,0.8","4:nogo_d","",""
"null","","html-keyboard-response","443","576852","0.0-6.0-1.74","","<img src=""img/yellow-r.png"">","null","trial","null","","0.2,0.8","4:nogo_d","1",""
"null","","html-keyboard-response","444","577854","0.0-6.0-2.74","","<div style=""font-size:60px;"">+</div>","null","","","","","","",""
"504.77499999757856","","image-keyboard-response","445","578360","0.0-6.0-0.75","","img/grey.png","32","trial","32","true","0.8,0.2","1:go_a","",""
"null","","html-keyboard-response","446","579363","0.0-6.0-1.75","","<img src=""img/grey-r.png"" border=""10"">","null","trial","32","","0.8,0.2","1:go_a","1",""
"null","","html-keyboard-response","447","580371","0.0-6.0-2.75","","<div style=""font-size:60px;"">+</div>","null","","","","","","",""
"638.7749999994412","","image-keyboard-response","448","581011","0.0-6.0-0.76","","img/grey.png","32","trial","32","true","0.8,0.2","1:go_a","",""
"null","","html-keyboard-response","449","582017","0.0-6.0-1.76","","<img src=""img/grey-r.png"" border=""10"">","null","trial","32","","0.8,0.2","1:go_a","1",""
"null","","html-keyboard-response","450","583025","0.0-6.0-2.76","","<div style=""font-size:60px;"">+</div>","null","","","","","","",""
"null","","image-keyboard-response","451","584527","0.0-6.0-0.77","","img/yellow.png","null","trial","null","true","0.2,0.8","4:nogo_d","",""
"null","","html-keyboard-response","452","585537","0.0-6.0-1.77","","<img src=""img/yellow-r.png"">","null","trial","null","","0.2,0.8","4:nogo_d","1",""
"null","","html-keyboard-response","453","586547","0.0-6.0-2.77","","<div style=""font-size:60px;"">+</div>","null","","","","","","",""
"601.539999999688","","image-keyboard-response","454","587150","0.0-6.0-0.78","","img/orange.png","32","trial","32","true","0.8,0.2","3:go_c","",""
"null","","html-keyboard-response","455","588158","0.0-6.0-1.78","","<img src=""img/orange-n.png"" border=""10"">","null","trial","32","","0.8,0.2","3:go_c","0",""
"null","","html-keyboard-response","456","589164","0.0-6.0-2.78","","<div style=""font-size:60px;"">+</div>","null","","","","","","",""
"1091.0899999981048","","image-keyboard-response","457","590256","0.0-6.0-0.79","","img/pink.png","32","trial","null","false","0.2,0.8","2:nogo_b","",""
"null","","html-keyboard-response","458","591266","0.0-6.0-1.79","","<img src=""img/pink-n.png"" border=""10"">","null","trial","null","","0.2,0.8","2:nogo_b","0",""
"null","","html-keyboard-response","459","592277","0.0-6.0-2.79","","<div style=""font-size:60px;"">+</div>","null","","","","","","",""
"831.4350000000559","","image-keyboard-response","460","593110","0.0-6.0-0.80","","img/orange.png","32","trial","32","true","0.8,0.2","3:go_c","",""
"null","","html-keyboard-response","461","594114","0.0-6.0-1.80","","<img src=""img/orange-r.png"" border=""10"">","null","trial","32","","0.8,0.2","3:go_c","1",""
"null","","html-keyboard-response","462","595117","0.0-6.0-2.80","","<div style=""font-size:60px;"">+</div>","null","","","","","","",""
"null","","image-keyboard-response","463","596625","0.0-6.0-0.81","","img/yellow.png","null","trial","null","true","0.2,0.8","4:nogo_d","",""
"null","","html-keyboard-response","464","597627","0.0-6.0-1.81","","<img src=""img/yellow-r.png"">","null","trial","null","","0.2,0.8","4:nogo_d","1",""
"null","","html-keyboard-response","465","598633","0.0-6.0-2.81","","<div style=""font-size:60px;"">+</div>","null","","","","","","",""
"null","","image-keyboard-response","466","600139","0.0-6.0-0.82","","img/pink.png","null","trial","null","true","0.2,0.8","2:nogo_b","",""
"null","","html-keyboard-response","467","601145","0.0-6.0-1.82","","<img src=""img/pink-r.png"">","null","trial","null","","0.2,0.8","2:nogo_b","1",""
"null","","html-keyboard-response","468","602147","0.0-6.0-2.82","","<div style=""font-size:60px;"">+</div>","null","","","","","","",""
"490.7950000014389","","image-keyboard-response","469","602639","0.0-6.0-0.83","","img/grey.png","32","trial","32","true","0.8,0.2","1:go_a","",""
"null","","html-keyboard-response","470","603648","0.0-6.0-1.83","","<img src=""img/grey-r.png"" border=""10"">","null","trial","32","","0.8,0.2","1:go_a","1",""
"null","","html-keyboard-response","471","604651","0.0-6.0-2.83","","<div style=""font-size:60px;"">+</div>","null","","","","","","",""
"1247.1799999984214","","image-keyboard-response","472","605899","0.0-6.0-0.84","","img/orange.png","32","trial","32","true","0.8,0.2","3:go_c","",""
"null","","html-keyboard-response","473","606907","0.0-6.0-1.84","","<img src=""img/orange-r.png"" border=""10"">","null","trial","32","","0.8,0.2","3:go_c","1",""
"null","","html-keyboard-response","474","607909","0.0-6.0-2.84","","<div style=""font-size:60px;"">+</div>","null","","","","","","",""
"610.0050000022165","","image-keyboard-response","475","608520","0.0-6.0-0.85","","img/grey.png","32","trial","32","true","0.8,0.2","1:go_a","",""
"null","","html-keyboard-response","476","609525","0.0-6.0-1.85","","<img src=""img/grey-r.png"" border=""10"">","null","trial","32","","0.8,0.2","1:go_a","1",""
"null","","html-keyboard-response","477","610533","0.0-6.0-2.85","","<div style=""font-size:60px;"">+</div>","null","","","","","","",""
"1080.5400000027148","","image-keyboard-response","478","611615","0.0-6.0-0.86","","img/yellow.png","32","trial","null","false","0.2,0.8","4:nogo_d","",""
"null","","html-keyboard-response","479","612618","0.0-6.0-1.86","","<img src=""img/yellow-r.png"" border=""10"">","null","trial","null","","0.2,0.8","4:nogo_d","1",""
"null","","html-keyboard-response","480","613626","0.0-6.0-2.86","","<div style=""font-size:60px;"">+</div>","null","","","","","","",""
"1040.0249999983935","","image-keyboard-response","481","614667","0.0-6.0-0.87","","img/pink.png","32","trial","null","false","0.2,0.8","2:nogo_b","",""
"null","","html-keyboard-response","482","615674","0.0-6.0-1.87","","<img src=""img/pink-r.png"" border=""10"">","null","trial","null","","0.2,0.8","2:nogo_b","1",""
"null","","html-keyboard-response","483","616678","0.0-6.0-2.87","","<div style=""font-size:60px;"">+</div>","null","","","","","","",""
"null","","image-keyboard-response","484","618186","0.0-6.0-0.88","","img/yellow.png","null","trial","null","true","0.2,0.8","4:nogo_d","",""
"null","","html-keyboard-response","485","619192","0.0-6.0-1.88","","<img src=""img/yellow-r.png"">","null","trial","null","","0.2,0.8","4:nogo_d","1",""
"null","","html-keyboard-response","486","620201","0.0-6.0-2.88","","<div style=""font-size:60px;"">+</div>","null","","","","","","",""
"461.9649999985704","","image-keyboard-response","487","620664","0.0-6.0-0.89","","img/pink.png","32","trial","null","false","0.2,0.8","2:nogo_b","",""
"null","","html-keyboard-response","488","621672","0.0-6.0-1.89","","<img src=""img/pink-n.png"" border=""10"">","null","trial","null","","0.2,0.8","2:nogo_b","0",""
"null","","html-keyboard-response","489","622681","0.0-6.0-2.89","","<div style=""font-size:60px;"">+</div>","null","","","","","","",""
"792.920000003418","","image-keyboard-response","490","623475","0.0-6.0-0.90","","img/orange.png","32","trial","32","true","0.8,0.2","3:go_c","",""
"null","","html-keyboard-response","491","624485","0.0-6.0-1.90","","<img src=""img/orange-n.png"" border=""10"">","null","trial","32","","0.8,0.2","3:go_c","0",""
"null","","html-keyboard-response","492","625491","0.0-6.0-2.90","","<div style=""font-size:60px;"">+</div>","null","","","","","","",""
"535.6900000006426","","image-keyboard-response","493","626027","0.0-6.0-0.91","","img/grey.png","32","trial","32","true","0.8,0.2","1:go_a","",""
"null","","html-keyboard-response","494","627037","0.0-6.0-1.91","","<img src=""img/grey-r.png"" border=""10"">","null","trial","32","","0.8,0.2","1:go_a","1",""
"null","","html-keyboard-response","495","628039","0.0-6.0-2.91","","<div style=""font-size:60px;"">+</div>","null","","","","","","",""
"454.50500000151806","","image-keyboard-response","496","628495","0.0-6.0-0.92","","img/grey.png","32","trial","32","true","0.8,0.2","1:go_a","",""
"null","","html-keyboard-response","497","629504","0.0-6.0-1.92","","<img src=""img/grey-r.png"" border=""10"">","null","trial","32","","0.8,0.2","1:go_a","1",""
"null","","html-keyboard-response","498","630506","0.0-6.0-2.92","","<div style=""font-size:60px;"">+</div>","null","","","","","","",""
"null","","image-keyboard-response","499","632029","0.0-6.0-0.93","","img/yellow.png","null","trial","null","true","0.2,0.8","4:nogo_d","",""
"null","","html-keyboard-response","500","633033","0.0-6.0-1.93","","<img src=""img/yellow-r.png"">","null","trial","null","","0.2,0.8","4:nogo_d","1",""
"null","","html-keyboard-response","501","634034","0.0-6.0-2.93","","<div style=""font-size:60px;"">+</div>","null","","","","","","",""
"null","","image-keyboard-response","502","635540","0.0-6.0-0.94","","img/pink.png","null","trial","null","true","0.2,0.8","2:nogo_b","",""
"null","","html-keyboard-response","503","636544","0.0-6.0-1.94","","<img src=""img/pink-r.png"">","null","trial","null","","0.2,0.8","2:nogo_b","1",""
"null","","html-keyboard-response","504","637553","0.0-6.0-2.94","","<div style=""font-size:60px;"">+</div>","null","","","","","","",""
"null","","image-keyboard-response","505","639058","0.0-6.0-0.95","","img/orange.png","null","trial","32","false","0.8,0.2","3:go_c","",""
"null","","html-keyboard-response","506","640068","0.0-6.0-1.95","","<img src=""img/orange-r.png"">","null","trial","32","","0.8,0.2","3:go_c","1",""
"null","","html-keyboard-response","507","641071","0.0-6.0-2.95","","<div style=""font-size:60px;"">+</div>","null","","","","","","",""
"null","","image-keyboard-response","508","642579","0.0-6.0-0.96","","img/yellow.png","null","trial","null","true","0.2,0.8","4:nogo_d","",""
"null","","html-keyboard-response","509","643596","0.0-6.0-1.96","","<img src=""img/yellow-r.png"">","null","trial","null","","0.2,0.8","4:nogo_d","1",""
"null","","html-keyboard-response","510","644603","0.0-6.0-2.96","","<div style=""font-size:60px;"">+</div>","null","","","","","","",""
"586.9650000022957","","image-keyboard-response","511","645191","0.0-6.0-0.97","","img/orange.png","32","trial","32","true","0.8,0.2","3:go_c","",""
"null","","html-keyboard-response","512","646204","0.0-6.0-1.97","","<img src=""img/orange-n.png"" border=""10"">","null","trial","32","","0.8,0.2","3:go_c","0",""
"null","","html-keyboard-response","513","647208","0.0-6.0-2.97","","<div style=""font-size:60px;"">+</div>","null","","","","","","",""
"482.67999999737367","","image-keyboard-response","514","647692","0.0-6.0-0.98","","img/grey.png","32","trial","32","true","0.8,0.2","1:go_a","",""
"null","","html-keyboard-response","515","648695","0.0-6.0-1.98","","<img src=""img/grey-r.png"" border=""10"">","null","trial","32","","0.8,0.2","1:go_a","1",""
"null","","html-keyboard-response","516","649696","0.0-6.0-2.98","","<div style=""font-size:60px;"">+</div>","null","","","","","","",""
"592.915000001085","","image-keyboard-response","517","650290","0.0-6.0-0.99","","img/pink.png","32","trial","null","false","0.2,0.8","2:nogo_b","",""
"null","","html-keyboard-response","518","651308","0.0-6.0-1.99","","<img src=""img/pink-n.png"" border=""10"">","null","trial","null","","0.2,0.8","2:nogo_b","0",""
"null","","html-keyboard-response","519","652312","0.0-6.0-2.99","","<div style=""font-size:60px;"">+</div>","null","","","","","","",""
"575.9099999994505","","image-keyboard-response","520","652889","0.0-6.0-0.100","","img/orange.png","32","trial","32","true","0.8,0.2","3:go_c","",""
"null","","html-keyboard-response","521","653898","0.0-6.0-1.100","","<img src=""img/orange-r.png"" border=""10"">","null","trial","32","","0.8,0.2","3:go_c","1",""
"null","","html-keyboard-response","522","654902","0.0-6.0-2.100","","<div style=""font-size:60px;"">+</div>","null","","","","","","",""
"553.3950000026962","","image-keyboard-response","523","655457","0.0-6.0-0.101","","img/grey.png","32","trial","32","true","0.8,0.2","1:go_a","",""
"null","","html-keyboard-response","524","656465","0.0-6.0-1.101","","<img src=""img/grey-n.png"" border=""10"">","null","trial","32","","0.8,0.2","1:go_a","0",""
"null","","html-keyboard-response","525","657466","0.0-6.0-2.101","","<div style=""font-size:60px;"">+</div>","null","","","","","","",""
"844.8649999990594","","image-keyboard-response","526","658312","0.0-6.0-0.102","","img/yellow.png","32","trial","null","false","0.2,0.8","4:nogo_d","",""
"null","","html-keyboard-response","527","659318","0.0-6.0-1.102","","<img src=""img/yellow-r.png"" border=""10"">","null","trial","null","","0.2,0.8","4:nogo_d","1",""
"null","","html-keyboard-response","528","660325","0.0-6.0-2.102","","<div style=""font-size:60px;"">+</div>","null","","","","","","",""
"565.3999999995576","","image-keyboard-response","529","660892","0.0-6.0-0.103","","img/pink.png","32","trial","null","false","0.2,0.8","2:nogo_b","",""
"null","","html-keyboard-response","530","661898","0.0-6.0-1.103","","<img src=""img/pink-n.png"" border=""10"">","null","trial","null","","0.2,0.8","2:nogo_b","0",""
"null","","html-keyboard-response","531","662901","0.0-6.0-2.103","","<div style=""font-size:60px;"">+</div>","null","","","","","","",""
"683.8500000012573","","image-keyboard-response","532","663586","0.0-6.0-0.104","","img/pink.png","32","trial","null","false","0.2,0.8","2:nogo_b","",""
"null","","html-keyboard-response","533","664590","0.0-6.0-1.104","","<img src=""img/pink-n.png"" border=""10"">","null","trial","null","","0.2,0.8","2:nogo_b","0",""
"null","","html-keyboard-response","534","665599","0.0-6.0-2.104","","<div style=""font-size:60px;"">+</div>","null","","","","","","",""
"491.2349999976577","","image-keyboard-response","535","666099","0.0-6.0-0.105","","img/orange.png","32","trial","32","true","0.8,0.2","3:go_c","",""
"null","","html-keyboard-response","536","667101","0.0-6.0-1.105","","<img src=""img/orange-r.png"" border=""10"">","null","trial","32","","0.8,0.2","3:go_c","1",""
"null","","html-keyboard-response","537","668103","0.0-6.0-2.105","","<div style=""font-size:60px;"">+</div>","null","","","","","","",""
"518.7350000014994","","image-keyboard-response","538","668623","0.0-6.0-0.106","","img/grey.png","32","trial","32","true","0.8,0.2","1:go_a","",""
"null","","html-keyboard-response","539","669640","0.0-6.0-1.106","","<img src=""img/grey-r.png"" border=""10"">","null","trial","32","","0.8,0.2","1:go_a","1",""
"null","","html-keyboard-response","540","670647","0.0-6.0-2.106","","<div style=""font-size:60px;"">+</div>","null","","","","","","",""
"668.2650000003632","","image-keyboard-response","541","671317","0.0-6.0-0.107","","img/yellow.png","32","trial","null","false","0.2,0.8","4:nogo_d","",""
"null","","html-keyboard-response","542","672322","0.0-6.0-1.107","","<img src=""img/yellow-r.png"" border=""10"">","null","trial","null","","0.2,0.8","4:nogo_d","1",""
"null","","html-keyboard-response","543","673327","0.0-6.0-2.107","","<div style=""font-size:60px;"">+</div>","null","","","","","","",""
"443.71000000310596","","image-keyboard-response","544","673772","0.0-6.0-0.108","","img/pink.png","32","trial","null","false","0.2,0.8","2:nogo_b","",""
"null","","html-keyboard-response","545","674775","0.0-6.0-1.108","","<img src=""img/pink-n.png"" border=""10"">","null","trial","null","","0.2,0.8","2:nogo_b","0",""
"null","","html-keyboard-response","546","675785","0.0-6.0-2.108","","<div style=""font-size:60px;"">+</div>","null","","","","","","",""
"582.9800000028918","","image-keyboard-response","547","676369","0.0-6.0-0.109","","img/orange.png","32","trial","32","true","0.8,0.2","3:go_c","",""
"null","","html-keyboard-response","548","677375","0.0-6.0-1.109","","<img src=""img/orange-r.png"" border=""10"">","null","trial","32","","0.8,0.2","3:go_c","1",""
"null","","html-keyboard-response","549","678378","0.0-6.0-2.109","","<div style=""font-size:60px;"">+</div>","null","","","","","","",""
"520.2749999989755","","image-keyboard-response","550","678900","0.0-6.0-0.110","","img/grey.png","32","trial","32","true","0.8,0.2","1:go_a","",""
"null","","html-keyboard-response","551","679907","0.0-6.0-1.110","","<img src=""img/grey-n.png"" border=""10"">","null","trial","32","","0.8,0.2","1:go_a","0",""
"null","","html-keyboard-response","552","680912","0.0-6.0-2.110","","<div style=""font-size:60px;"">+</div>","null","","","","","","",""
"741.0350000027101","","image-keyboard-response","553","681657","0.0-6.0-0.111","","img/yellow.png","32","trial","null","false","0.2,0.8","4:nogo_d","",""
"null","","html-keyboard-response","554","682674","0.0-6.0-1.111","","<img src=""img/yellow-n.png"" border=""10"">","null","trial","null","","0.2,0.8","4:nogo_d","0",""
"null","","html-keyboard-response","555","683682","0.0-6.0-2.111","","<div style=""font-size:60px;"">+</div>","null","","","","","","",""
"607.0849999996135","","image-keyboard-response","556","684290","0.0-6.0-0.112","","img/grey.png","32","trial","32","true","0.8,0.2","1:go_a","",""
"null","","html-keyboard-response","557","685295","0.0-6.0-1.112","","<img src=""img/grey-n.png"" border=""10"">","null","trial","32","","0.8,0.2","1:go_a","0",""
"null","","html-keyboard-response","558","686304","0.0-6.0-2.112","","<div style=""font-size:60px;"">+</div>","null","","","","","","",""
"null","","image-keyboard-response","559","687808","0.0-6.0-0.113","","img/yellow.png","null","trial","null","true","0.2,0.8","4:nogo_d","",""
"null","","html-keyboard-response","560","688814","0.0-6.0-1.113","","<img src=""img/yellow-r.png"">","null","trial","null","","0.2,0.8","4:nogo_d","1",""
"null","","html-keyboard-response","561","689816","0.0-6.0-2.113","","<div style=""font-size:60px;"">+</div>","null","","","","","","",""
"1053.5049999998882","","image-keyboard-response","562","690871","0.0-6.0-0.114","","img/pink.png","32","trial","null","false","0.2,0.8","2:nogo_b","",""
"null","","html-keyboard-response","563","691879","0.0-6.0-1.114","","<img src=""img/pink-n.png"" border=""10"">","null","trial","null","","0.2,0.8","2:nogo_b","0",""
"null","","html-keyboard-response","564","692883","0.0-6.0-2.114","","<div style=""font-size:60px;"">+</div>","null","","","","","","",""
"993.5499999992317","","image-keyboard-response","565","693879","0.0-6.0-0.115","","img/orange.png","32","trial","32","true","0.8,0.2","3:go_c","",""
"null","","html-keyboard-response","566","694884","0.0-6.0-1.115","","<img src=""img/orange-r.png"" border=""10"">","null","trial","32","","0.8,0.2","3:go_c","1",""
"null","","html-keyboard-response","567","695893","0.0-6.0-2.115","","<div style=""font-size:60px;"">+</div>","null","","","","","","",""
"null","","image-keyboard-response","568","697402","0.0-6.0-0.116","","img/yellow.png","null","trial","null","true","0.2,0.8","4:nogo_d","",""
"null","","html-keyboard-response","569","698410","0.0-6.0-1.116","","<img src=""img/yellow-n.png"">","null","trial","null","","0.2,0.8","4:nogo_d","0",""
"null","","html-keyboard-response","570","699416","0.0-6.0-2.116","","<div style=""font-size:60px;"">+</div>","null","","","","","","",""
"1492.2499999993015","","image-keyboard-response","571","700909","0.0-6.0-0.117","","img/pink.png","32","trial","null","false","0.2,0.8","2:nogo_b","",""
"null","","html-keyboard-response","572","701915","0.0-6.0-1.117","","<img src=""img/pink-r.png"" border=""10"">","null","trial","null","","0.2,0.8","2:nogo_b","1",""
"null","","html-keyboard-response","573","702920","0.0-6.0-2.117","","<div style=""font-size:60px;"">+</div>","null","","","","","","",""
"929.9500000015832","","image-keyboard-response","574","703851","0.0-6.0-0.118","","img/orange.png","32","trial","32","true","0.8,0.2","3:go_c","",""
"null","","html-keyboard-response","575","704855","0.0-6.0-1.118","","<img src=""img/orange-r.png"" border=""10"">","null","trial","32","","0.8,0.2","3:go_c","1",""
"null","","html-keyboard-response","576","705863","0.0-6.0-2.118","","<div style=""font-size:60px;"">+</div>","null","","","","","","",""
"547.600000001723","","image-keyboard-response","577","706412","0.0-6.0-0.119","","img/grey.png","32","trial","32","true","0.8,0.2","1:go_a","",""
"null","","html-keyboard-response","578","707420","0.0-6.0-1.119","","<img src=""img/grey-r.png"" border=""10"">","null","trial","32","","0.8,0.2","1:go_a","1",""
"null","","html-keyboard-response","579","708425","0.0-6.0-2.119","","<div style=""font-size:60px;"">+</div>","null","","","","","","",""
"2181.205000000773","","instructions","580","710607","0.0-7.0","[{""page_index"":0,""viewing_time"":2180.820000001462}]","","","","","","","","",""
"1153.3649999982445","","image-keyboard-response","581","711762","0.0-8.0-0.0","","img/blue.png","32","trial","null","false","0.2,0.8","2:nogo_b","",""
"null","","html-keyboard-response","582","712771","0.0-8.0-1.0","","<img src=""img/blue-n.png"" border=""10"">","null","trial","null","","0.2,0.8","2:nogo_b","0",""
"null","","html-keyboard-response","583","713778","0.0-8.0-2.0","","<div style=""font-size:60px;"">+</div>","null","","","","","","",""
"533.6649999989895","","image-keyboard-response","584","714313","0.0-8.0-0.1","","img/purple.png","32","trial","32","true","0.6,0.4","3:go_c","",""
"null","","html-keyboard-response","585","715320","0.0-8.0-1.1","","<img src=""img/purple-r.png"" border=""10"">","null","trial","32","","0.6,0.4","3:go_c","1",""
"null","","html-keyboard-response","586","716322","0.0-8.0-2.1","","<div style=""font-size:60px;"">+</div>","null","","","","","","",""
"554.5000000019791","","image-keyboard-response","587","716878","0.0-8.0-0.2","","img/orange.png","32","trial","null","false","0.4,0.6","4:nogo_d","",""
"null","","html-keyboard-response","588","717883","0.0-8.0-1.2","","<img src=""img/orange-n.png"" border=""10"">","null","trial","null","","0.4,0.6","4:nogo_d","0",""
"null","","html-keyboard-response","589","718892","0.0-8.0-2.2","","<div style=""font-size:60px;"">+</div>","null","","","","","","",""
"597.4549999991432","","image-keyboard-response","590","719490","0.0-8.0-0.3","","img/yellow.png","32","trial","32","true","0.8,0.2","1:go_a","",""
"null","","html-keyboard-response","591","720499","0.0-8.0-1.3","","<img src=""img/yellow-r.png"" border=""10"">","null","trial","32","","0.8,0.2","1:go_a","1",""
"null","","html-keyboard-response","592","721506","0.0-8.0-2.3","","<div style=""font-size:60px;"">+</div>","null","","","","","","",""
"529.1250000009313","","image-keyboard-response","593","722036","0.0-8.0-0.4","","img/yellow.png","32","trial","32","true","0.8,0.2","1:go_a","",""
"null","","html-keyboard-response","594","723040","0.0-8.0-1.4","","<img src=""img/yellow-r.png"" border=""10"">","null","trial","32","","0.8,0.2","1:go_a","1",""
"null","","html-keyboard-response","595","724044","0.0-8.0-2.4","","<div style=""font-size:60px;"">+</div>","null","","","","","","",""
"null","","image-keyboard-response","596","725549","0.0-8.0-0.5","","img/blue.png","null","trial","null","true","0.2,0.8","2:nogo_b","",""
"null","","html-keyboard-response","597","726555","0.0-8.0-1.5","","<img src=""img/blue-r.png"">","null","trial","null","","0.2,0.8","2:nogo_b","1",""
"null","","html-keyboard-response","598","727564","0.0-8.0-2.5","","<div style=""font-size:60px;"">+</div>","null","","","","","","",""
"568.9099999980535","","image-keyboard-response","599","728134","0.0-8.0-0.6","","img/purple.png","32","trial","32","true","0.6,0.4","3:go_c","",""
"null","","html-keyboard-response","600","729141","0.0-8.0-1.6","","<img src=""img/purple-n.png"" border=""10"">","null","trial","32","","0.6,0.4","3:go_c","0",""
"null","","html-keyboard-response","601","730145","0.0-8.0-2.6","","<div style=""font-size:60px;"">+</div>","null","","","","","","",""
"1114.9750000004424","","image-keyboard-response","602","731261","0.0-8.0-0.7","","img/orange.png","32","trial","null","false","0.4,0.6","4:nogo_d","",""
"null","","html-keyboard-response","603","732270","0.0-8.0-1.7","","<img src=""img/orange-n.png"" border=""10"">","null","trial","null","","0.4,0.6","4:nogo_d","0",""
"null","","html-keyboard-response","604","733277","0.0-8.0-2.7","","<div style=""font-size:60px;"">+</div>","null","","","","","","",""
"984.7000000008848","","image-keyboard-response","605","734262","0.0-8.0-0.8","","img/blue.png","32","trial","null","false","0.2,0.8","2:nogo_b","",""
"null","","html-keyboard-response","606","735264","0.0-8.0-1.8","","<img src=""img/blue-n.png"" border=""10"">","null","trial","null","","0.2,0.8","2:nogo_b","0",""
"null","","html-keyboard-response","607","736279","0.0-8.0-2.8","","<div style=""font-size:60px;"">+</div>","null","","","","","","",""
"592.2500000015134","","image-keyboard-response","608","736873","0.0-8.0-0.9","","img/purple.png","32","trial","32","true","0.6,0.4","3:go_c","",""
"null","","html-keyboard-response","609","737882","0.0-8.0-1.9","","<img src=""img/purple-r.png"" border=""10"">","null","trial","32","","0.6,0.4","3:go_c","1",""
"null","","html-keyboard-response","610","738887","0.0-8.0-2.9","","<div style=""font-size:60px;"">+</div>","null","","","","","","",""
"null","","image-keyboard-response","611","740393","0.0-8.0-0.10","","img/orange.png","null","trial","null","true","0.4,0.6","4:nogo_d","",""
"null","","html-keyboard-response","612","741401","0.0-8.0-1.10","","<img src=""img/orange-r.png"">","null","trial","null","","0.4,0.6","4:nogo_d","1",""
"null","","html-keyboard-response","613","742410","0.0-8.0-2.10","","<div style=""font-size:60px;"">+</div>","null","","","","","","",""
"917.910000000149","","image-keyboard-response","614","743329","0.0-8.0-0.11","","img/yellow.png","32","trial","32","true","0.8,0.2","1:go_a","",""
"null","","html-keyboard-response","615","744335","0.0-8.0-1.11","","<img src=""img/yellow-r.png"" border=""10"">","null","trial","32","","0.8,0.2","1:go_a","1",""
"null","","html-keyboard-response","616","745343","0.0-8.0-2.11","","<div style=""font-size:60px;"">+</div>","null","","","","","","",""
"null","","image-keyboard-response","617","746851","0.0-8.0-0.12","","img/blue.png","null","trial","null","true","0.2,0.8","2:nogo_b","",""
"null","","html-keyboard-response","618","747860","0.0-8.0-1.12","","<img src=""img/blue-n.png"">","null","trial","null","","0.2,0.8","2:nogo_b","0",""
"null","","html-keyboard-response","619","748869","0.0-8.0-2.12","","<div style=""font-size:60px;"">+</div>","null","","","","","","",""
"509.57999999809545","","image-keyboard-response","620","749380","0.0-8.0-0.13","","img/orange.png","32","trial","null","false","0.4,0.6","4:nogo_d","",""
"null","","html-keyboard-response","621","750383","0.0-8.0-1.13","","<img src=""img/orange-n.png"" border=""10"">","null","trial","null","","0.4,0.6","4:nogo_d","0",""
"null","","html-keyboard-response","622","751385","0.0-8.0-2.13","","<div style=""font-size:60px;"">+</div>","null","","","","","","",""
"956.5399999992223","","image-keyboard-response","623","752343","0.0-8.0-0.14","","img/purple.png","32","trial","32","true","0.6,0.4","3:go_c","",""
"null","","html-keyboard-response","624","753351","0.0-8.0-1.14","","<img src=""img/purple-r.png"" border=""10"">","null","trial","32","","0.6,0.4","3:go_c","1",""
"null","","html-keyboard-response","625","754359","0.0-8.0-2.14","","<div style=""font-size:60px;"">+</div>","null","","","","","","",""
"1134.8799999977928","","image-keyboard-response","626","755495","0.0-8.0-0.15","","img/yellow.png","32","trial","32","true","0.8,0.2","1:go_a","",""
"null","","html-keyboard-response","627","756497","0.0-8.0-1.15","","<img src=""img/yellow-r.png"" border=""10"">","null","trial","32","","0.8,0.2","1:go_a","1",""
"null","","html-keyboard-response","628","757517","0.0-8.0-2.15","","<div style=""font-size:60px;"">+</div>","null","","","","","","",""
"634.5700000020443","","image-keyboard-response","629","758152","0.0-8.0-0.16","","img/yellow.png","32","trial","32","true","0.8,0.2","1:go_a","",""
"null","","html-keyboard-response","630","759159","0.0-8.0-1.16","","<img src=""img/yellow-r.png"" border=""10"">","null","trial","32","","0.8,0.2","1:go_a","1",""
"null","","html-keyboard-response","631","760160","0.0-8.0-2.16","","<div style=""font-size:60px;"">+</div>","null","","","","","","",""
"null","","image-keyboard-response","632","761667","0.0-8.0-0.17","","img/blue.png","null","trial","null","true","0.2,0.8","2:nogo_b","",""
"null","","html-keyboard-response","633","762676","0.0-8.0-1.17","","<img src=""img/blue-r.png"">","null","trial","null","","0.2,0.8","2:nogo_b","1",""
"null","","html-keyboard-response","634","763681","0.0-8.0-2.17","","<div style=""font-size:60px;"">+</div>","null","","","","","","",""
"null","","image-keyboard-response","635","765189","0.0-8.0-0.18","","img/orange.png","null","trial","null","true","0.4,0.6","4:nogo_d","",""
"null","","html-keyboard-response","636","766198","0.0-8.0-1.18","","<img src=""img/orange-r.png"">","null","trial","null","","0.4,0.6","4:nogo_d","1",""
"null","","html-keyboard-response","637","767207","0.0-8.0-2.18","","<div style=""font-size:60px;"">+</div>","null","","","","","","",""
"717.9299999988871","","image-keyboard-response","638","767926","0.0-8.0-0.19","","img/purple.png","32","trial","32","true","0.6,0.4","3:go_c","",""
"null","","html-keyboard-response","639","768932","0.0-8.0-1.19","","<img src=""img/purple-n.png"" border=""10"">","null","trial","32","","0.6,0.4","3:go_c","0",""
"null","","html-keyboard-response","640","769937","0.0-8.0-2.19","","<div style=""font-size:60px;"">+</div>","null","","","","","","",""
"464.10499999916647","","image-keyboard-response","641","770403","0.0-8.0-0.20","","img/orange.png","32","trial","null","false","0.4,0.6","4:nogo_d","",""
"null","","html-keyboard-response","642","771412","0.0-8.0-1.20","","<img src=""img/orange-n.png"" border=""10"">","null","trial","null","","0.4,0.6","4:nogo_d","0",""
"null","","html-keyboard-response","643","772421","0.0-8.0-2.20","","<div style=""font-size:60px;"">+</div>","null","","","","","","",""
"405.5399999998044","","image-keyboard-response","644","772827","0.0-8.0-0.21","","img/purple.png","32","trial","32","true","0.6,0.4","3:go_c","",""
"null","","html-keyboard-response","645","773845","0.0-8.0-1.21","","<img src=""img/purple-n.png"" border=""10"">","null","trial","32","","0.6,0.4","3:go_c","0",""
"null","","html-keyboard-response","646","774852","0.0-8.0-2.21","","<div style=""font-size:60px;"">+</div>","null","","","","","","",""
"673.9550000020536","","image-keyboard-response","647","775527","0.0-8.0-0.22","","img/yellow.png","32","trial","32","true","0.8,0.2","1:go_a","",""
"null","","html-keyboard-response","648","776532","0.0-8.0-1.22","","<img src=""img/yellow-r.png"" border=""10"">","null","trial","32","","0.8,0.2","1:go_a","1",""
"null","","html-keyboard-response","649","777540","0.0-8.0-2.22","","<div style=""font-size:60px;"">+</div>","null","","","","","","",""
"null","","image-keyboard-response","650","779047","0.0-8.0-0.23","","img/blue.png","null","trial","null","true","0.2,0.8","2:nogo_b","",""
"null","","html-keyboard-response","651","780054","0.0-8.0-1.23","","<img src=""img/blue-r.png"">","null","trial","null","","0.2,0.8","2:nogo_b","1",""
"null","","html-keyboard-response","652","781059","0.0-8.0-2.23","","<div style=""font-size:60px;"">+</div>","null","","","","","","",""
"null","","image-keyboard-response","653","782575","0.0-8.0-0.24","","img/orange.png","null","trial","null","true","0.4,0.6","4:nogo_d","",""
"null","","html-keyboard-response","654","783584","0.0-8.0-1.24","","<img src=""img/orange-r.png"">","null","trial","null","","0.4,0.6","4:nogo_d","1",""
"null","","html-keyboard-response","655","784585","0.0-8.0-2.24","","<div style=""font-size:60px;"">+</div>","null","","","","","","",""
"698.2299999981187","","image-keyboard-response","656","785285","0.0-8.0-0.25","","img/yellow.png","32","trial","32","true","0.8,0.2","1:go_a","",""
"null","","html-keyboard-response","657","786294","0.0-8.0-1.25","","<img src=""img/yellow-r.png"" border=""10"">","null","trial","32","","0.8,0.2","1:go_a","1",""
"null","","html-keyboard-response","658","787295","0.0-8.0-2.25","","<div style=""font-size:60px;"">+</div>","null","","","","","","",""
"694.0999999969499","","image-keyboard-response","659","787986","0.0-8.0-0.26","","img/purple.png","32","trial","32","true","0.6,0.4","3:go_c","",""
"null","","html-keyboard-response","660","788992","0.0-8.0-1.26","","<img src=""img/purple-n.png"" border=""10"">","null","trial","32","","0.6,0.4","3:go_c","0",""
"null","","html-keyboard-response","661","790005","0.0-8.0-2.26","","<div style=""font-size:60px;"">+</div>","null","","","","","","",""
"661.725000001723","","image-keyboard-response","662","790668","0.0-8.0-0.27","","img/blue.png","32","trial","null","false","0.2,0.8","2:nogo_b","",""
"null","","html-keyboard-response","663","791675","0.0-8.0-1.27","","<img src=""img/blue-n.png"" border=""10"">","null","trial","null","","0.2,0.8","2:nogo_b","0",""
"null","","html-keyboard-response","664","792676","0.0-8.0-2.27","","<div style=""font-size:60px;"">+</div>","null","","","","","","",""
"763.6249999995343","","image-keyboard-response","665","793441","0.0-8.0-0.28","","img/purple.png","32","trial","32","true","0.6,0.4","3:go_c","",""
"null","","html-keyboard-response","666","794450","0.0-8.0-1.28","","<img src=""img/purple-r.png"" border=""10"">","null","trial","32","","0.6,0.4","3:go_c","1",""
"null","","html-keyboard-response","667","795459","0.0-8.0-2.28","","<div style=""font-size:60px;"">+</div>","null","","","","","","",""
"1027.5299999993294","","image-keyboard-response","668","796488","0.0-8.0-0.29","","img/blue.png","32","trial","null","false","0.2,0.8","2:nogo_b","",""
"null","","html-keyboard-response","669","797492","0.0-8.0-1.29","","<img src=""img/blue-n.png"" border=""10"">","null","trial","null","","0.2,0.8","2:nogo_b","0",""
"null","","html-keyboard-response","670","798495","0.0-8.0-2.29","","<div style=""font-size:60px;"">+</div>","null","","","","","","",""
"null","","image-keyboard-response","671","800001","0.0-8.0-0.30","","img/orange.png","null","trial","null","true","0.4,0.6","4:nogo_d","",""
"null","","html-keyboard-response","672","801009","0.0-8.0-1.30","","<img src=""img/orange-r.png"">","null","trial","null","","0.4,0.6","4:nogo_d","1",""
