"rt","url","trial_type","trial_index","time_elapsed","internal_node_id","view_history","stimulus","key_press","test_part","correct_response","correct","use_rew","which_stim","reward","responses"
"15615.880000001198","consent.html","external-html","0","15771","0.0-0.0","","","","","","","","","",""
"195308.04999999964","","instructions","1","211080","0.0-1.0","[{""page_index"":0,""viewing_time"":3004.3000000005122},{""page_index"":1,""viewing_time"":21585.649999999077},{""page_index"":2,""viewing_time"":4673.9550000002055},{""page_index"":3,""viewing_time"":20441.155000000435},{""page_index"":4,""viewing_time"":128962.12000000013},{""page_index"":5,""viewing_time"":1557.9749999997439},{""page_index"":4,""viewing_time"":1378.9799999994866},{""page_index"":5,""viewing_time"":4174.925000001182},{""page_index"":6,""viewing_time"":9528.164999999688}]","","","","","","","","",""
"null","","image-keyboard-response","2","212581","0.0-2.0-0.0","","img/test3.PNG","null","practice","null","true","","","",""
"null","","html-keyboard-response","3","213591","0.0-2.0-1.0","","<img src=""img/test3-reward.PNG"">","null","","","","","","",""
"null","","html-keyboard-response","4","214601","0.0-2.0-2.0","","<div style=""font-size:60px;"">+</div>","null","","","","","","",""
"null","","image-keyboard-response","5","216108","0.0-2.0-0.1","","img/test2.PNG","null","practice","null","true","","","",""
"null","","html-keyboard-response","6","217119","0.0-2.0-1.1","","<img src=""img/test2-reward.PNG"">","null","","","","","","",""
"null","","html-keyboard-response","7","218127","0.0-2.0-2.1","","<div style=""font-size:60px;"">+</div>","null","","","","","","",""
"331.6700000013807","","image-keyboard-response","8","218459","0.0-2.0-0.2","","img/test1.PNG","32","practice","32","true","","","",""
"null","","html-keyboard-response","9","219465","0.0-2.0-1.2","","<img src=""img/test1-reward.PNG"" border=""10px; grey"">","null","","","","","","",""
"null","","html-keyboard-response","10","220481","0.0-2.0-2.2","","<div style=""font-size:60px;"">+</div>","null","","","","","","",""
"null","","image-keyboard-response","11","221982","0.0-2.0-0.3","","img/test2.PNG","null","practice","null","true","","","",""
"null","","html-keyboard-response","12","222995","0.0-2.0-1.3","","<img src=""img/test2-reward.PNG"">","null","","","","","","",""
"null","","html-keyboard-response","13","224007","0.0-2.0-2.3","","<div style=""font-size:60px;"">+</div>","null","","","","","","",""
"328.8049999992072","","image-keyboard-response","14","224337","0.0-2.0-0.4","","img/test1.PNG","32","practice","32","true","","","",""
"null","","html-keyboard-response","15","225344","0.0-2.0-1.4","","<img src=""img/test1-reward.PNG"" border=""10px; grey"">","null","","","","","","",""
"null","","html-keyboard-response","16","226352","0.0-2.0-2.4","","<div style=""font-size:60px;"">+</div>","null","","","","","","",""
"null","","image-keyboard-response","17","227854","0.0-2.0-0.5","","img/test3.PNG","null","practice","null","true","","","",""
"null","","html-keyboard-response","18","228867","0.0-2.0-1.5","","<img src=""img/test3-reward.PNG"">","null","","","","","","",""
"null","","html-keyboard-response","19","229882","0.0-2.0-2.5","","<div style=""font-size:60px;"">+</div>","null","","","","","","",""
"null","","image-keyboard-response","20","231386","0.0-2.0-0.6","","img/test2.PNG","null","practice","null","true","","","",""
"null","","html-keyboard-response","21","232399","0.0-2.0-1.6","","<img src=""img/test2-reward.PNG"">","null","","","","","","",""
"null","","html-keyboard-response","22","233404","0.0-2.0-2.6","","<div style=""font-size:60px;"">+</div>","null","","","","","","",""
"365.23499999928754","","image-keyboard-response","23","233770","0.0-2.0-0.7","","img/test1.PNG","32","practice","32","true","","","",""
"null","","html-keyboard-response","24","234772","0.0-2.0-1.7","","<img src=""img/test1-reward.PNG"" border=""10px; grey"">","null","","","","","","",""
"null","","html-keyboard-response","25","235784","0.0-2.0-2.7","","<div style=""font-size:60px;"">+</div>","null","","","","","","",""
"null","","image-keyboard-response","26","237285","0.0-2.0-0.8","","img/test3.PNG","null","practice","null","true","","","",""
"null","","html-keyboard-response","27","238295","0.0-2.0-1.8","","<img src=""img/test3-reward.PNG"">","null","","","","","","",""
"null","","html-keyboard-response","28","239308","0.0-2.0-2.8","","<div style=""font-size:60px;"">+</div>","null","","","","","","",""
"404.66500000000815","","image-keyboard-response","29","239714","0.0-2.0-0.9","","img/test1.PNG","32","practice","32","true","","","",""
"null","","html-keyboard-response","30","240729","0.0-2.0-1.9","","<img src=""img/test1-reward.PNG"" border=""10px; grey"">","null","","","","","","",""
"null","","html-keyboard-response","31","241736","0.0-2.0-2.9","","<div style=""font-size:60px;"">+</div>","null","","","","","","",""
"null","","image-keyboard-response","32","243245","0.0-2.0-0.10","","img/test2.PNG","null","practice","null","true","","","",""
"null","","html-keyboard-response","33","244255","0.0-2.0-1.10","","<img src=""img/test2-reward.PNG"">","null","","","","","","",""
"null","","html-keyboard-response","34","245263","0.0-2.0-2.10","","<div style=""font-size:60px;"">+</div>","null","","","","","","",""
"null","","image-keyboard-response","35","246767","0.0-2.0-0.11","","img/test3.PNG","null","practice","null","true","","","",""
"null","","html-keyboard-response","36","247781","0.0-2.0-1.11","","<img src=""img/test3-reward.PNG"">","null","","","","","","",""
"null","","html-keyboard-response","37","248793","0.0-2.0-2.11","","<div style=""font-size:60px;"">+</div>","null","","","","","","",""
"2168.475000000384","","instructions","38","250962","0.0-3.0","[{""page_index"":0,""viewing_time"":2168.3200000006764}]","","","","","","","","",""
"453.04500000021653","","image-keyboard-response","39","251415","0.0-4.0-0.0","","img/green.png","32","trial","null","false","0.2,0.8","2:nogo_b","",""
"null","","html-keyboard-response","40","252419","0.0-4.0-1.0","","<img src=""img/green-n.png"" border=""10"">","null","trial","null","","0.2,0.8","2:nogo_b","0",""
"null","","html-keyboard-response","41","253427","0.0-4.0-2.0","","<div style=""font-size:60px;"">+</div>","null","","","","","","",""
"502.9450000001816","","image-keyboard-response","42","253931","0.0-4.0-0.1","","img/purple.png","32","trial","32","true","0.8,0.2","1:go_a","",""
"null","","html-keyboard-response","43","254936","0.0-4.0-1.1","","<img src=""img/purple-r.png"" border=""10"">","null","trial","32","","0.8,0.2","1:go_a","1",""
"null","","html-keyboard-response","44","255945","0.0-4.0-2.1","","<div style=""font-size:60px;"">+</div>","null","","","","","","",""
"null","","image-keyboard-response","45","257451","0.0-4.0-0.2","","img/green.png","null","trial","null","true","0.2,0.8","2:nogo_b","",""
"null","","html-keyboard-response","46","258453","0.0-4.0-1.2","","<img src=""img/green-r.png"">","null","trial","null","","0.2,0.8","2:nogo_b","1",""
"null","","html-keyboard-response","47","259457","0.0-4.0-2.2","","<div style=""font-size:60px;"">+</div>","null","","","","","","",""
"364.1950000000943","","image-keyboard-response","48","259821","0.0-4.0-0.3","","img/purple.png","32","trial","32","true","0.8,0.2","1:go_a","",""
"null","","html-keyboard-response","49","260830","0.0-4.0-1.3","","<img src=""img/purple-r.png"" border=""10"">","null","trial","32","","0.8,0.2","1:go_a","1",""
"null","","html-keyboard-response","50","261841","0.0-4.0-2.3","","<div style=""font-size:60px;"">+</div>","null","","","","","","",""
"457.11500000109663","","image-keyboard-response","51","262299","0.0-4.0-0.4","","img/purple.png","32","trial","32","true","0.8,0.2","1:go_a","",""
"null","","html-keyboard-response","52","263301","0.0-4.0-1.4","","<img src=""img/purple-r.png"" border=""10"">","null","trial","32","","0.8,0.2","1:go_a","1",""
"null","","html-keyboard-response","53","264312","0.0-4.0-2.4","","<div style=""font-size:60px;"">+</div>","null","","","","","","",""
"null","","image-keyboard-response","54","265823","0.0-4.0-0.5","","img/green.png","null","trial","null","true","0.2,0.8","2:nogo_b","",""
"null","","html-keyboard-response","55","266846","0.0-4.0-1.5","","<img src=""img/green-r.png"">","null","trial","null","","0.2,0.8","2:nogo_b","1",""
"null","","html-keyboard-response","56","267848","0.0-4.0-2.5","","<div style=""font-size:60px;"">+</div>","null","","","","","","",""
"363.6750000005122","","image-keyboard-response","57","268212","0.0-4.0-0.6","","img/purple.png","32","trial","32","true","0.8,0.2","1:go_a","",""
"null","","html-keyboard-response","58","269215","0.0-4.0-1.6","","<img src=""img/purple-n.png"" border=""10"">","null","trial","32","","0.8,0.2","1:go_a","0",""
"null","","html-keyboard-response","59","270219","0.0-4.0-2.6","","<div style=""font-size:60px;"">+</div>","null","","","","","","",""
"null","","image-keyboard-response","60","271732","0.0-4.0-0.7","","img/green.png","null","trial","null","true","0.2,0.8","2:nogo_b","",""
"null","","html-keyboard-response","61","272746","0.0-4.0-1.7","","<img src=""img/green-r.png"">","null","trial","null","","0.2,0.8","2:nogo_b","1",""
"null","","html-keyboard-response","62","273753","0.0-4.0-2.7","","<div style=""font-size:60px;"">+</div>","null","","","","","","",""
"322.8749999998254","","image-keyboard-response","63","274076","0.0-4.0-0.8","","img/purple.png","32","trial","32","true","0.8,0.2","1:go_a","",""
"null","","html-keyboard-response","64","275089","0.0-4.0-1.8","","<img src=""img/purple-r.png"" border=""10"">","null","trial","32","","0.8,0.2","1:go_a","1",""
"null","","html-keyboard-response","65","276100","0.0-4.0-2.8","","<div style=""font-size:60px;"">+</div>","null","","","","","","",""
"null","","image-keyboard-response","66","277607","0.0-4.0-0.9","","img/green.png","null","trial","null","true","0.2,0.8","2:nogo_b","",""
"null","","html-keyboard-response","67","278617","0.0-4.0-1.9","","<img src=""img/green-r.png"">","null","trial","null","","0.2,0.8","2:nogo_b","1",""
"null","","html-keyboard-response","68","279624","0.0-4.0-2.9","","<div style=""font-size:60px;"">+</div>","null","","","","","","",""
"null","","image-keyboard-response","69","281128","0.0-4.0-0.10","","img/green.png","null","trial","null","true","0.2,0.8","2:nogo_b","",""
"null","","html-keyboard-response","70","282140","0.0-4.0-1.10","","<img src=""img/green-r.png"">","null","trial","null","","0.2,0.8","2:nogo_b","1",""
"null","","html-keyboard-response","71","283152","0.0-4.0-2.10","","<div style=""font-size:60px;"">+</div>","null","","","","","","",""
"330.6150000007474","","image-keyboard-response","72","283483","0.0-4.0-0.11","","img/purple.png","32","trial","32","true","0.8,0.2","1:go_a","",""
"null","","html-keyboard-response","73","284495","0.0-4.0-1.11","","<img src=""img/purple-r.png"" border=""10"">","null","trial","32","","0.8,0.2","1:go_a","1",""
"null","","html-keyboard-response","74","285498","0.0-4.0-2.11","","<div style=""font-size:60px;"">+</div>","null","","","","","","",""
"null","","image-keyboard-response","75","287021","0.0-4.0-0.12","","img/green.png","null","trial","null","true","0.2,0.8","2:nogo_b","",""
"null","","html-keyboard-response","76","288032","0.0-4.0-1.12","","<img src=""img/green-r.png"">","null","trial","null","","0.2,0.8","2:nogo_b","1",""
"null","","html-keyboard-response","77","289041","0.0-4.0-2.12","","<div style=""font-size:60px;"">+</div>","null","","","","","","",""
"464.2700000003679","","image-keyboard-response","78","289506","0.0-4.0-0.13","","img/purple.png","32","trial","32","true","0.8,0.2","1:go_a","",""
"null","","html-keyboard-response","79","290521","0.0-4.0-1.13","","<img src=""img/purple-n.png"" border=""10"">","null","trial","32","","0.8,0.2","1:go_a","0",""
"null","","html-keyboard-response","80","291531","0.0-4.0-2.13","","<div style=""font-size:60px;"">+</div>","null","","","","","","",""
"649.9099999982864","","image-keyboard-response","81","292182","0.0-4.0-0.14","","img/purple.png","32","trial","32","true","0.8,0.2","1:go_a","",""
"null","","html-keyboard-response","82","293196","0.0-4.0-1.14","","<img src=""img/purple-r.png"" border=""10"">","null","trial","32","","0.8,0.2","1:go_a","1",""
"null","","html-keyboard-response","83","294202","0.0-4.0-2.14","","<div style=""font-size:60px;"">+</div>","null","","","","","","",""
"null","","image-keyboard-response","84","295710","0.0-4.0-0.15","","img/green.png","null","trial","null","true","0.2,0.8","2:nogo_b","",""
"null","","html-keyboard-response","85","296711","0.0-4.0-1.15","","<img src=""img/green-r.png"">","null","trial","null","","0.2,0.8","2:nogo_b","1",""
"null","","html-keyboard-response","86","297727","0.0-4.0-2.15","","<div style=""font-size:60px;"">+</div>","null","","","","","","",""
"318.5400000002701","","image-keyboard-response","87","298047","0.0-4.0-0.16","","img/purple.png","32","trial","32","true","0.8,0.2","1:go_a","",""
"null","","html-keyboard-response","88","299062","0.0-4.0-1.16","","<img src=""img/purple-r.png"" border=""10"">","null","trial","32","","0.8,0.2","1:go_a","1",""
"null","","html-keyboard-response","89","300077","0.0-4.0-2.16","","<div style=""font-size:60px;"">+</div>","null","","","","","","",""
"null","","image-keyboard-response","90","301587","0.0-4.0-0.17","","img/green.png","null","trial","null","true","0.2,0.8","2:nogo_b","",""
"null","","html-keyboard-response","91","302595","0.0-4.0-1.17","","<img src=""img/green-r.png"">","null","trial","null","","0.2,0.8","2:nogo_b","1",""
"null","","html-keyboard-response","92","303601","0.0-4.0-2.17","","<div style=""font-size:60px;"">+</div>","null","","","","","","",""
"392.16000000125496","","image-keyboard-response","93","303994","0.0-4.0-0.18","","img/purple.png","32","trial","32","true","0.8,0.2","1:go_a","",""
"null","","html-keyboard-response","94","305000","0.0-4.0-1.18","","<img src=""img/purple-n.png"" border=""10"">","null","trial","32","","0.8,0.2","1:go_a","0",""
"null","","html-keyboard-response","95","306013","0.0-4.0-2.18","","<div style=""font-size:60px;"">+</div>","null","","","","","","",""
"null","","image-keyboard-response","96","307523","0.0-4.0-0.19","","img/green.png","null","trial","null","true","0.2,0.8","2:nogo_b","",""
"null","","html-keyboard-response","97","308533","0.0-4.0-1.19","","<img src=""img/green-r.png"">","null","trial","null","","0.2,0.8","2:nogo_b","1",""
"null","","html-keyboard-response","98","309540","0.0-4.0-2.19","","<div style=""font-size:60px;"">+</div>","null","","","","","","",""
"null","","image-keyboard-response","99","311044","0.0-4.0-0.20","","img/green.png","null","trial","null","true","0.2,0.8","2:nogo_b","",""
"null","","html-keyboard-response","100","312056","0.0-4.0-1.20","","<img src=""img/green-r.png"">","null","trial","null","","0.2,0.8","2:nogo_b","1",""
"null","","html-keyboard-response","101","313063","0.0-4.0-2.20","","<div style=""font-size:60px;"">+</div>","null","","","","","","",""
"336.91499999986263","","image-keyboard-response","102","313401","0.0-4.0-0.21","","img/purple.png","32","trial","32","true","0.8,0.2","1:go_a","",""
"null","","html-keyboard-response","103","314416","0.0-4.0-1.21","","<img src=""img/purple-n.png"" border=""10"">","null","trial","32","","0.8,0.2","1:go_a","0",""
"null","","html-keyboard-response","104","315424","0.0-4.0-2.21","","<div style=""font-size:60px;"">+</div>","null","","","","","","",""
"null","","image-keyboard-response","105","316938","0.0-4.0-0.22","","img/green.png","null","trial","null","true","0.2,0.8","2:nogo_b","",""
"null","","html-keyboard-response","106","317948","0.0-4.0-1.22","","<img src=""img/green-r.png"">","null","trial","null","","0.2,0.8","2:nogo_b","1",""
"null","","html-keyboard-response","107","318956","0.0-4.0-2.22","","<div style=""font-size:60px;"">+</div>","null","","","","","","",""
"null","","image-keyboard-response","108","320468","0.0-4.0-0.23","","img/purple.png","null","trial","32","false","0.8,0.2","1:go_a","",""
"null","","html-keyboard-response","109","321481","0.0-4.0-1.23","","<img src=""img/purple-n.png"">","null","trial","32","","0.8,0.2","1:go_a","0",""
"null","","html-keyboard-response","110","322490","0.0-4.0-2.23","","<div style=""font-size:60px;"">+</div>","null","","","","","","",""
"395.9050000011921","","image-keyboard-response","111","322886","0.0-4.0-0.24","","img/purple.png","32","trial","32","true","0.8,0.2","1:go_a","",""
"null","","html-keyboard-response","112","323900","0.0-4.0-1.24","","<img src=""img/purple-r.png"" border=""10"">","null","trial","32","","0.8,0.2","1:go_a","1",""
"null","","html-keyboard-response","113","324916","0.0-4.0-2.24","","<div style=""font-size:60px;"">+</div>","null","","","","","","",""
"null","","image-keyboard-response","114","326426","0.0-4.0-0.25","","img/green.png","null","trial","null","true","0.2,0.8","2:nogo_b","",""
"null","","html-keyboard-response","115","327438","0.0-4.0-1.25","","<img src=""img/green-r.png"">","null","trial","null","","0.2,0.8","2:nogo_b","1",""
"null","","html-keyboard-response","116","328449","0.0-4.0-2.25","","<div style=""font-size:60px;"">+</div>","null","","","","","","",""
"973.4599999992643","","image-keyboard-response","117","329423","0.0-4.0-0.26","","img/purple.png","32","trial","32","true","0.8,0.2","1:go_a","",""
"null","","html-keyboard-response","118","330431","0.0-4.0-1.26","","<img src=""img/purple-r.png"" border=""10"">","null","trial","32","","0.8,0.2","1:go_a","1",""
"null","","html-keyboard-response","119","331446","0.0-4.0-2.26","","<div style=""font-size:60px;"">+</div>","null","","","","","","",""
"null","","image-keyboard-response","120","332948","0.0-4.0-0.27","","img/green.png","null","trial","null","true","0.2,0.8","2:nogo_b","",""
"null","","html-keyboard-response","121","333957","0.0-4.0-1.27","","<img src=""img/green-r.png"">","null","trial","null","","0.2,0.8","2:nogo_b","1",""
"null","","html-keyboard-response","122","334964","0.0-4.0-2.27","","<div style=""font-size:60px;"">+</div>","null","","","","","","",""
"360.30500000016764","","image-keyboard-response","123","335324","0.0-4.0-0.28","","img/purple.png","32","trial","32","true","0.8,0.2","1:go_a","",""
"null","","html-keyboard-response","124","336334","0.0-4.0-1.28","","<img src=""img/purple-n.png"" border=""10"">","null","trial","32","","0.8,0.2","1:go_a","0",""
"null","","html-keyboard-response","125","337338","0.0-4.0-2.28","","<div style=""font-size:60px;"">+</div>","null","","","","","","",""
"null","","image-keyboard-response","126","338845","0.0-4.0-0.29","","img/green.png","null","trial","null","true","0.2,0.8","2:nogo_b","",""
"null","","html-keyboard-response","127","339850","0.0-4.0-1.29","","<img src=""img/green-r.png"">","null","trial","null","","0.2,0.8","2:nogo_b","1",""
"null","","html-keyboard-response","128","340862","0.0-4.0-2.29","","<div style=""font-size:60px;"">+</div>","null","","","","","","",""
"336.7450000005192","","image-keyboard-response","129","341199","0.0-4.0-0.30","","img/purple.png","32","trial","32","true","0.8,0.2","1:go_a","",""
"null","","html-keyboard-response","130","342212","0.0-4.0-1.30","","<img src=""img/purple-r.png"" border=""10"">","null","trial","32","","0.8,0.2","1:go_a","1",""
"null","","html-keyboard-response","131","343227","0.0-4.0-2.30","","<div style=""font-size:60px;"">+</div>","null","","","","","","",""
"null","","image-keyboard-response","132","344729","0.0-4.0-0.31","","img/green.png","null","trial","null","true","0.2,0.8","2:nogo_b","",""
"null","","html-keyboard-response","133","345731","0.0-4.0-1.31","","<img src=""img/green-r.png"">","null","trial","null","","0.2,0.8","2:nogo_b","1",""
"null","","html-keyboard-response","134","346743","0.0-4.0-2.31","","<div style=""font-size:60px;"">+</div>","null","","","","","","",""
"1240.3599999997532","","image-keyboard-response","135","347984","0.0-4.0-0.32","","img/purple.png","32","trial","32","true","0.8,0.2","1:go_a","",""
"null","","html-keyboard-response","136","348989","0.0-4.0-1.32","","<img src=""img/purple-r.png"" border=""10"">","null","trial","32","","0.8,0.2","1:go_a","1",""
"null","","html-keyboard-response","137","349997","0.0-4.0-2.32","","<div style=""font-size:60px;"">+</div>","null","","","","","","",""
"null","","image-keyboard-response","138","351512","0.0-4.0-0.33","","img/green.png","null","trial","null","true","0.2,0.8","2:nogo_b","",""
"null","","html-keyboard-response","139","352528","0.0-4.0-1.33","","<img src=""img/green-r.png"">","null","trial","null","","0.2,0.8","2:nogo_b","1",""
"null","","html-keyboard-response","140","353528","0.0-4.0-2.33","","<div style=""font-size:60px;"">+</div>","null","","","","","","",""
"null","","image-keyboard-response","141","355042","0.0-4.0-0.34","","img/green.png","null","trial","null","true","0.2,0.8","2:nogo_b","",""
"null","","html-keyboard-response","142","356053","0.0-4.0-1.34","","<img src=""img/green-r.png"">","null","trial","null","","0.2,0.8","2:nogo_b","1",""
"null","","html-keyboard-response","143","357064","0.0-4.0-2.34","","<div style=""font-size:60px;"">+</div>","null","","","","","","",""
"406.34500000125263","","image-keyboard-response","144","357471","0.0-4.0-0.35","","img/purple.png","32","trial","32","true","0.8,0.2","1:go_a","",""
"null","","html-keyboard-response","145","358486","0.0-4.0-1.35","","<img src=""img/purple-r.png"" border=""10"">","null","trial","32","","0.8,0.2","1:go_a","1",""
"null","","html-keyboard-response","146","359496","0.0-4.0-2.35","","<div style=""font-size:60px;"">+</div>","null","","","","","","",""
"null","","image-keyboard-response","147","361001","0.0-4.0-0.36","","img/green.png","null","trial","null","true","0.2,0.8","2:nogo_b","",""
"null","","html-keyboard-response","148","362012","0.0-4.0-1.36","","<img src=""img/green-r.png"">","null","trial","null","","0.2,0.8","2:nogo_b","1",""
"null","","html-keyboard-response","149","363012","0.0-4.0-2.36","","<div style=""font-size:60px;"">+</div>","null","","","","","","",""
"408.13499999966007","","image-keyboard-response","150","363421","0.0-4.0-0.37","","img/purple.png","32","trial","32","true","0.8,0.2","1:go_a","",""
"null","","html-keyboard-response","151","364424","0.0-4.0-1.37","","<img src=""img/purple-r.png"" border=""10"">","null","trial","32","","0.8,0.2","1:go_a","1",""
"null","","html-keyboard-response","152","365425","0.0-4.0-2.37","","<div style=""font-size:60px;"">+</div>","null","","","","","","",""
"495.1049999999814","","image-keyboard-response","153","365921","0.0-4.0-0.38","","img/purple.png","32","trial","32","true","0.8,0.2","1:go_a","",""
"null","","html-keyboard-response","154","366935","0.0-4.0-1.38","","<img src=""img/purple-r.png"" border=""10"">","null","trial","32","","0.8,0.2","1:go_a","1",""
"null","","html-keyboard-response","155","367946","0.0-4.0-2.38","","<div style=""font-size:60px;"">+</div>","null","","","","","","",""
"null","","image-keyboard-response","156","369460","0.0-4.0-0.39","","img/green.png","null","trial","null","true","0.2,0.8","2:nogo_b","",""
"null","","html-keyboard-response","157","370469","0.0-4.0-1.39","","<img src=""img/green-r.png"">","null","trial","null","","0.2,0.8","2:nogo_b","1",""
"null","","html-keyboard-response","158","371470","0.0-4.0-2.39","","<div style=""font-size:60px;"">+</div>","null","","","","","","",""
"411.8950000011246","","image-keyboard-response","159","371882","0.0-4.0-0.40","","img/purple.png","32","trial","32","true","0.8,0.2","1:go_a","",""
"null","","html-keyboard-response","160","372898","0.0-4.0-1.40","","<img src=""img/purple-r.png"" border=""10"">","null","trial","32","","0.8,0.2","1:go_a","1",""
"null","","html-keyboard-response","161","373899","0.0-4.0-2.40","","<div style=""font-size:60px;"">+</div>","null","","","","","","",""
"null","","image-keyboard-response","162","375414","0.0-4.0-0.41","","img/green.png","null","trial","null","true","0.2,0.8","2:nogo_b","",""
"null","","html-keyboard-response","163","376423","0.0-4.0-1.41","","<img src=""img/green-n.png"">","null","trial","null","","0.2,0.8","2:nogo_b","0",""
"null","","html-keyboard-response","164","377433","0.0-4.0-2.41","","<div style=""font-size:60px;"">+</div>","null","","","","","","",""
"327.5799999992596","","image-keyboard-response","165","377761","0.0-4.0-0.42","","img/purple.png","32","trial","32","true","0.8,0.2","1:go_a","",""
"null","","html-keyboard-response","166","378767","0.0-4.0-1.42","","<img src=""img/purple-r.png"" border=""10"">","null","trial","32","","0.8,0.2","1:go_a","1",""
"null","","html-keyboard-response","167","379783","0.0-4.0-2.42","","<div style=""font-size:60px;"">+</div>","null","","","","","","",""
"null","","image-keyboard-response","168","381294","0.0-4.0-0.43","","img/green.png","null","trial","null","true","0.2,0.8","2:nogo_b","",""
"null","","html-keyboard-response","169","382308","0.0-4.0-1.43","","<img src=""img/green-r.png"">","null","trial","null","","0.2,0.8","2:nogo_b","1",""
"null","","html-keyboard-response","170","383313","0.0-4.0-2.43","","<div style=""font-size:60px;"">+</div>","null","","","","","","",""
"null","","image-keyboard-response","171","384825","0.0-4.0-0.44","","img/green.png","null","trial","null","true","0.2,0.8","2:nogo_b","",""
"null","","html-keyboard-response","172","385835","0.0-4.0-1.44","","<img src=""img/green-r.png"">","null","trial","null","","0.2,0.8","2:nogo_b","1",""
"null","","html-keyboard-response","173","386847","0.0-4.0-2.44","","<div style=""font-size:60px;"">+</div>","null","","","","","","",""
"774.7749999999069","","image-keyboard-response","174","387622","0.0-4.0-0.45","","img/purple.png","32","trial","32","true","0.8,0.2","1:go_a","",""
"null","","html-keyboard-response","175","388630","0.0-4.0-1.45","","<img src=""img/purple-r.png"" border=""10"">","null","trial","32","","0.8,0.2","1:go_a","1",""
"null","","html-keyboard-response","176","389634","0.0-4.0-2.45","","<div style=""font-size:60px;"">+</div>","null","","","","","","",""
"534.1049999988172","","image-keyboard-response","177","390169","0.0-4.0-0.46","","img/purple.png","32","trial","32","true","0.8,0.2","1:go_a","",""
"null","","html-keyboard-response","178","391183","0.0-4.0-1.46","","<img src=""img/purple-r.png"" border=""10"">","null","trial","32","","0.8,0.2","1:go_a","1",""
"null","","html-keyboard-response","179","392196","0.0-4.0-2.46","","<div style=""font-size:60px;"">+</div>","null","","","","","","",""
"null","","image-keyboard-response","180","393703","0.0-4.0-0.47","","img/green.png","null","trial","null","true","0.2,0.8","2:nogo_b","",""
"null","","html-keyboard-response","181","394715","0.0-4.0-1.47","","<img src=""img/green-n.png"">","null","trial","null","","0.2,0.8","2:nogo_b","0",""
"null","","html-keyboard-response","182","395721","0.0-4.0-2.47","","<div style=""font-size:60px;"">+</div>","null","","","","","","",""
"864.529999998922","","image-keyboard-response","183","396586","0.0-4.0-0.48","","img/purple.png","32","trial","32","true","0.8,0.2","1:go_a","",""
"null","","html-keyboard-response","184","397594","0.0-4.0-1.48","","<img src=""img/purple-n.png"" border=""10"">","null","trial","32","","0.8,0.2","1:go_a","0",""
"null","","html-keyboard-response","185","398604","0.0-4.0-2.48","","<div style=""font-size:60px;"">+</div>","null","","","","","","",""
"null","","image-keyboard-response","186","400115","0.0-4.0-0.49","","img/green.png","null","trial","null","true","0.2,0.8","2:nogo_b","",""
"null","","html-keyboard-response","187","401125","0.0-4.0-1.49","","<img src=""img/green-r.png"">","null","trial","null","","0.2,0.8","2:nogo_b","1",""
"null","","html-keyboard-response","188","402137","0.0-4.0-2.49","","<div style=""font-size:60px;"">+</div>","null","","","","","","",""
"null","","image-keyboard-response","189","403642","0.0-4.0-0.50","","img/green.png","null","trial","null","true","0.2,0.8","2:nogo_b","",""
"null","","html-keyboard-response","190","404652","0.0-4.0-1.50","","<img src=""img/green-r.png"">","null","trial","null","","0.2,0.8","2:nogo_b","1",""
"null","","html-keyboard-response","191","405656","0.0-4.0-2.50","","<div style=""font-size:60px;"">+</div>","null","","","","","","",""
"626.8800000016345","","image-keyboard-response","192","406284","0.0-4.0-0.51","","img/purple.png","32","trial","32","true","0.8,0.2","1:go_a","",""
"null","","html-keyboard-response","193","407289","0.0-4.0-1.51","","<img src=""img/purple-r.png"" border=""10"">","null","trial","32","","0.8,0.2","1:go_a","1",""
"null","","html-keyboard-response","194","408299","0.0-4.0-2.51","","<div style=""font-size:60px;"">+</div>","null","","","","","","",""
"1279.3700000002282","","image-keyboard-response","195","409578","0.0-4.0-0.52","","img/purple.png","32","trial","32","true","0.8,0.2","1:go_a","",""
"null","","html-keyboard-response","196","410589","0.0-4.0-1.52","","<img src=""img/purple-r.png"" border=""10"">","null","trial","32","","0.8,0.2","1:go_a","1",""
"null","","html-keyboard-response","197","411604","0.0-4.0-2.52","","<div style=""font-size:60px;"">+</div>","null","","","","","","",""
"null","","image-keyboard-response","198","413110","0.0-4.0-0.53","","img/green.png","null","trial","null","true","0.2,0.8","2:nogo_b","",""
"null","","html-keyboard-response","199","414120","0.0-4.0-1.53","","<img src=""img/green-r.png"">","null","trial","null","","0.2,0.8","2:nogo_b","1",""
"null","","html-keyboard-response","200","415123","0.0-4.0-2.53","","<div style=""font-size:60px;"">+</div>","null","","","","","","",""
"425.11000000016065","","image-keyboard-response","201","415548","0.0-4.0-0.54","","img/purple.png","32","trial","32","true","0.8,0.2","1:go_a","",""
"null","","html-keyboard-response","202","416561","0.0-4.0-1.54","","<img src=""img/purple-r.png"" border=""10"">","null","trial","32","","0.8,0.2","1:go_a","1",""
"null","","html-keyboard-response","203","417575","0.0-4.0-2.54","","<div style=""font-size:60px;"">+</div>","null","","","","","","",""
"null","","image-keyboard-response","204","419101","0.0-4.0-0.55","","img/green.png","null","trial","null","true","0.2,0.8","2:nogo_b","",""
"null","","html-keyboard-response","205","420115","0.0-4.0-1.55","","<img src=""img/green-r.png"">","null","trial","null","","0.2,0.8","2:nogo_b","1",""
"null","","html-keyboard-response","206","421122","0.0-4.0-2.55","","<div style=""font-size:60px;"">+</div>","null","","","","","","",""
"null","","image-keyboard-response","207","422635","0.0-4.0-0.56","","img/green.png","null","trial","null","true","0.2,0.8","2:nogo_b","",""
"null","","html-keyboard-response","208","423641","0.0-4.0-1.56","","<img src=""img/green-n.png"">","null","trial","null","","0.2,0.8","2:nogo_b","0",""
"null","","html-keyboard-response","209","424653","0.0-4.0-2.56","","<div style=""font-size:60px;"">+</div>","null","","","","","","",""
"368.4650000013644","","image-keyboard-response","210","425022","0.0-4.0-0.57","","img/purple.png","32","trial","32","true","0.8,0.2","1:go_a","",""
"null","","html-keyboard-response","211","426031","0.0-4.0-1.57","","<img src=""img/purple-r.png"" border=""10"">","null","trial","32","","0.8,0.2","1:go_a","1",""
"null","","html-keyboard-response","212","427043","0.0-4.0-2.57","","<div style=""font-size:60px;"">+</div>","null","","","","","","",""
"null","","image-keyboard-response","213","428556","0.0-4.0-0.58","","img/green.png","null","trial","null","true","0.2,0.8","2:nogo_b","",""
"null","","html-keyboard-response","214","429563","0.0-4.0-1.58","","<img src=""img/green-r.png"">","null","trial","null","","0.2,0.8","2:nogo_b","1",""
"null","","html-keyboard-response","215","430575","0.0-4.0-2.58","","<div style=""font-size:60px;"">+</div>","null","","","","","","",""
"424.2599999997765","","image-keyboard-response","216","431000","0.0-4.0-0.59","","img/purple.png","32","trial","32","true","0.8,0.2","1:go_a","",""
"null","","html-keyboard-response","217","432003","0.0-4.0-1.59","","<img src=""img/purple-r.png"" border=""10"">","null","trial","32","","0.8,0.2","1:go_a","1",""
"null","","html-keyboard-response","218","433015","0.0-4.0-2.59","","<div style=""font-size:60px;"">+</div>","null","","","","","","",""
"93650.2799999998","","instructions","219","526665","0.0-5.0","[{""page_index"":0,""viewing_time"":93649.95000000088}]","","","","","","","","",""
"893.6949999987846","","image-keyboard-response","220","527559","0.0-6.0-0.0","","img/pink.png","32","trial","32","true","0.6,0.4","1:go_a","",""
"null","","html-keyboard-response","221","528573","0.0-6.0-1.0","","<img src=""img/pink-n.png"" border=""10"">","null","trial","32","","0.6,0.4","1:go_a","0",""
"null","","html-keyboard-response","222","529588","0.0-6.0-2.0","","<div style=""font-size:60px;"">+</div>","null","","","","","","",""
"818.4400000008754","","image-keyboard-response","223","530407","0.0-6.0-0.1","","img/green.png","32","trial","null","false","0.4,0.6","4:nogo_d","",""
"null","","html-keyboard-response","224","531415","0.0-6.0-1.1","","<img src=""img/green-r.png"" border=""10"">","null","trial","null","","0.4,0.6","4:nogo_d","1",""
"null","","html-keyboard-response","225","532424","0.0-6.0-2.1","","<div style=""font-size:60px;"">+</div>","null","","","","","","",""
"987.2049999994924","","image-keyboard-response","226","533412","0.0-6.0-0.2","","img/grey.png","32","trial","null","false","0.4,0.6","2:nogo_b","",""
"null","","html-keyboard-response","227","534421","0.0-6.0-1.2","","<img src=""img/grey-r.png"" border=""10"">","null","trial","null","","0.4,0.6","2:nogo_b","1",""
"null","","html-keyboard-response","228","535423","0.0-6.0-2.2","","<div style=""font-size:60px;"">+</div>","null","","","","","","",""
"1437.925000000163","","image-keyboard-response","229","536861","0.0-6.0-0.3","","img/blue.png","32","trial","32","true","0.6,0.4","3:go_c","",""
"null","","html-keyboard-response","230","537868","0.0-6.0-1.3","","<img src=""img/blue-r.png"" border=""10"">","null","trial","32","","0.6,0.4","3:go_c","1",""
"null","","html-keyboard-response","231","538880","0.0-6.0-2.3","","<div style=""font-size:60px;"">+</div>","null","","","","","","",""
"null","","image-keyboard-response","232","540391","0.0-6.0-0.4","","img/green.png","null","trial","null","true","0.4,0.6","4:nogo_d","",""
"null","","html-keyboard-response","233","541405","0.0-6.0-1.4","","<img src=""img/green-n.png"">","null","trial","null","","0.4,0.6","4:nogo_d","0",""
"null","","html-keyboard-response","234","542415","0.0-6.0-2.4","","<div style=""font-size:60px;"">+</div>","null","","","","","","",""
"884.1250000004657","","image-keyboard-response","235","543299","0.0-6.0-0.5","","img/blue.png","32","trial","32","true","0.6,0.4","3:go_c","",""
"null","","html-keyboard-response","236","544307","0.0-6.0-1.5","","<img src=""img/blue-r.png"" border=""10"">","null","trial","32","","0.6,0.4","3:go_c","1",""
"null","","html-keyboard-response","237","545320","0.0-6.0-2.5","","<div style=""font-size:60px;"">+</div>","null","","","","","","",""
"656.2699999994365","","image-keyboard-response","238","545976","0.0-6.0-0.6","","img/grey.png","32","trial","null","false","0.4,0.6","2:nogo_b","",""
"null","","html-keyboard-response","239","546992","0.0-6.0-1.6","","<img src=""img/grey-r.png"" border=""10"">","null","trial","null","","0.4,0.6","2:nogo_b","1",""
"null","","html-keyboard-response","240","548001","0.0-6.0-2.6","","<div style=""font-size:60px;"">+</div>","null","","","","","","",""
"null","","image-keyboard-response","241","549506","0.0-6.0-0.7","","img/pink.png","null","trial","32","false","0.6,0.4","1:go_a","",""
"null","","html-keyboard-response","242","550514","0.0-6.0-1.7","","<img src=""img/pink-n.png"">","null","trial","32","","0.6,0.4","1:go_a","0",""
"null","","html-keyboard-response","243","551516","0.0-6.0-2.7","","<div style=""font-size:60px;"">+</div>","null","","","","","","",""
"872.8700000010431","","image-keyboard-response","244","552389","0.0-6.0-0.8","","img/blue.png","32","trial","32","true","0.6,0.4","3:go_c","",""
"null","","html-keyboard-response","245","553398","0.0-6.0-1.8","","<img src=""img/blue-n.png"" border=""10"">","null","trial","32","","0.6,0.4","3:go_c","0",""
"null","","html-keyboard-response","246","554407","0.0-6.0-2.8","","<div style=""font-size:60px;"">+</div>","null","","","","","","",""
"675.2400000004563","","image-keyboard-response","247","555082","0.0-6.0-0.9","","img/pink.png","32","trial","32","true","0.6,0.4","1:go_a","",""
"null","","html-keyboard-response","248","556094","0.0-6.0-1.9","","<img src=""img/pink-r.png"" border=""10"">","null","trial","32","","0.6,0.4","1:go_a","1",""
"null","","html-keyboard-response","249","557104","0.0-6.0-2.9","","<div style=""font-size:60px;"">+</div>","null","","","","","","",""
"745.0200000002515","","image-keyboard-response","250","557849","0.0-6.0-0.10","","img/green.png","32","trial","null","false","0.4,0.6","4:nogo_d","",""
"null","","html-keyboard-response","251","558855","0.0-6.0-1.10","","<img src=""img/green-n.png"" border=""10"">","null","trial","null","","0.4,0.6","4:nogo_d","0",""
"null","","html-keyboard-response","252","559869","0.0-6.0-2.10","","<div style=""font-size:60px;"">+</div>","null","","","","","","",""
"563.9899999988265","","image-keyboard-response","253","560433","0.0-6.0-0.11","","img/grey.png","32","trial","null","false","0.4,0.6","2:nogo_b","",""
"null","","html-keyboard-response","254","561438","0.0-6.0-1.11","","<img src=""img/grey-n.png"" border=""10"">","null","trial","null","","0.4,0.6","2:nogo_b","0",""
"null","","html-keyboard-response","255","562451","0.0-6.0-2.11","","<div style=""font-size:60px;"">+</div>","null","","","","","","",""
"920.8450000005541","","image-keyboard-response","256","563372","0.0-6.0-0.12","","img/green.png","32","trial","null","false","0.4,0.6","4:nogo_d","",""
"null","","html-keyboard-response","257","564377","0.0-6.0-1.12","","<img src=""img/green-r.png"" border=""10"">","null","trial","null","","0.4,0.6","4:nogo_d","1",""
"null","","html-keyboard-response","258","565386","0.0-6.0-2.12","","<div style=""font-size:60px;"">+</div>","null","","","","","","",""
"null","","image-keyboard-response","259","566892","0.0-6.0-0.13","","img/pink.png","null","trial","32","false","0.6,0.4","1:go_a","",""
"null","","html-keyboard-response","260","567902","0.0-6.0-1.13","","<img src=""img/pink-n.png"">","null","trial","32","","0.6,0.4","1:go_a","0",""
"null","","html-keyboard-response","261","568912","0.0-6.0-2.13","","<div style=""font-size:60px;"">+</div>","null","","","","","","",""
"null","","image-keyboard-response","262","570423","0.0-6.0-0.14","","img/grey.png","null","trial","null","true","0.4,0.6","2:nogo_b","",""
"null","","html-keyboard-response","263","571434","0.0-6.0-1.14","","<img src=""img/grey-r.png"">","null","trial","null","","0.4,0.6","2:nogo_b","1",""
"null","","html-keyboard-response","264","572442","0.0-6.0-2.14","","<div style=""font-size:60px;"">+</div>","null","","","","","","",""
"517.2949999996927","","image-keyboard-response","265","572960","0.0-6.0-0.15","","img/blue.png","32","trial","32","true","0.6,0.4","3:go_c","",""
"null","","html-keyboard-response","266","573963","0.0-6.0-1.15","","<img src=""img/blue-r.png"" border=""10"">","null","trial","32","","0.6,0.4","3:go_c","1",""
"null","","html-keyboard-response","267","574977","0.0-6.0-2.15","","<div style=""font-size:60px;"">+</div>","null","","","","","","",""
"510.999999998603","","image-keyboard-response","268","575488","0.0-6.0-0.16","","img/green.png","32","trial","null","false","0.4,0.6","4:nogo_d","",""
"null","","html-keyboard-response","269","576495","0.0-6.0-1.16","","<img src=""img/green-r.png"" border=""10"">","null","trial","null","","0.4,0.6","4:nogo_d","1",""
"null","","html-keyboard-response","270","577510","0.0-6.0-2.16","","<div style=""font-size:60px;"">+</div>","null","","","","","","",""
"null","","image-keyboard-response","271","579026","0.0-6.0-0.17","","img/grey.png","null","trial","null","true","0.4,0.6","2:nogo_b","",""
"null","","html-keyboard-response","272","580042","0.0-6.0-1.17","","<img src=""img/grey-n.png"">","null","trial","null","","0.4,0.6","2:nogo_b","0",""
"null","","html-keyboard-response","273","581056","0.0-6.0-2.17","","<div style=""font-size:60px;"">+</div>","null","","","","","","",""
"766.8049999993527","","image-keyboard-response","274","581823","0.0-6.0-0.18","","img/blue.png","32","trial","32","true","0.6,0.4","3:go_c","",""
"null","","html-keyboard-response","275","582835","0.0-6.0-1.18","","<img src=""img/blue-n.png"" border=""10"">","null","trial","32","","0.6,0.4","3:go_c","0",""
"null","","html-keyboard-response","276","583842","0.0-6.0-2.18","","<div style=""font-size:60px;"">+</div>","null","","","","","","",""
"987.6000000004424","","image-keyboard-response","277","584830","0.0-6.0-0.19","","img/pink.png","32","trial","32","true","0.6,0.4","1:go_a","",""
"null","","html-keyboard-response","278","585842","0.0-6.0-1.19","","<img src=""img/pink-r.png"" border=""10"">","null","trial","32","","0.6,0.4","1:go_a","1",""
"null","","html-keyboard-response","279","586844","0.0-6.0-2.19","","<div style=""font-size:60px;"">+</div>","null","","","","","","",""
"919.0199999994365","","image-keyboard-response","280","587763","0.0-6.0-0.20","","img/blue.png","32","trial","32","true","0.6,0.4","3:go_c","",""
"null","","html-keyboard-response","281","588778","0.0-6.0-1.20","","<img src=""img/blue-n.png"" border=""10"">","null","trial","32","","0.6,0.4","3:go_c","0",""
"null","","html-keyboard-response","282","589794","0.0-6.0-2.20","","<div style=""font-size:60px;"">+</div>","null","","","","","","",""
"null","","image-keyboard-response","283","591304","0.0-6.0-0.21","","img/green.png","null","trial","null","true","0.4,0.6","4:nogo_d","",""
"null","","html-keyboard-response","284","592318","0.0-6.0-1.21","","<img src=""img/green-r.png"">","null","trial","null","","0.4,0.6","4:nogo_d","1",""
"null","","html-keyboard-response","285","593327","0.0-6.0-2.21","","<div style=""font-size:60px;"">+</div>","null","","","","","","",""
"869.8899999998976","","image-keyboard-response","286","594197","0.0-6.0-0.22","","img/pink.png","32","trial","32","true","0.6,0.4","1:go_a","",""
"null","","html-keyboard-response","287","595206","0.0-6.0-1.22","","<img src=""img/pink-n.png"" border=""10"">","null","trial","32","","0.6,0.4","1:go_a","0",""
"null","","html-keyboard-response","288","596217","0.0-6.0-2.22","","<div style=""font-size:60px;"">+</div>","null","","","","","","",""
"941.6899999997113","","image-keyboard-response","289","597160","0.0-6.0-0.23","","img/grey.png","32","trial","null","false","0.4,0.6","2:nogo_b","",""
"null","","html-keyboard-response","290","598166","0.0-6.0-1.23","","<img src=""img/grey-n.png"" border=""10"">","null","trial","null","","0.4,0.6","2:nogo_b","0",""
"null","","html-keyboard-response","291","599169","0.0-6.0-2.23","","<div style=""font-size:60px;"">+</div>","null","","","","","","",""
"null","","image-keyboard-response","292","600681","0.0-6.0-0.24","","img/grey.png","null","trial","null","true","0.4,0.6","2:nogo_b","",""
"null","","html-keyboard-response","293","601696","0.0-6.0-1.24","","<img src=""img/grey-n.png"">","null","trial","null","","0.4,0.6","2:nogo_b","0",""
"null","","html-keyboard-response","294","602698","0.0-6.0-2.24","","<div style=""font-size:60px;"">+</div>","null","","","","","","",""
"702.3449999997392","","image-keyboard-response","295","603401","0.0-6.0-0.25","","img/pink.png","32","trial","32","true","0.6,0.4","1:go_a","",""
"null","","html-keyboard-response","296","604415","0.0-6.0-1.25","","<img src=""img/pink-n.png"" border=""10"">","null","trial","32","","0.6,0.4","1:go_a","0",""
"null","","html-keyboard-response","297","605415","0.0-6.0-2.25","","<div style=""font-size:60px;"">+</div>","null","","","","","","",""
"959.7100000010105","","image-keyboard-response","298","606376","0.0-6.0-0.26","","img/green.png","32","trial","null","false","0.4,0.6","4:nogo_d","",""
"null","","html-keyboard-response","299","607384","0.0-6.0-1.26","","<img src=""img/green-n.png"" border=""10"">","null","trial","null","","0.4,0.6","4:nogo_d","0",""
"null","","html-keyboard-response","300","608393","0.0-6.0-2.26","","<div style=""font-size:60px;"">+</div>","null","","","","","","",""
"null","","image-keyboard-response","301","609897","0.0-6.0-0.27","","img/blue.png","null","trial","32","false","0.6,0.4","3:go_c","",""
"null","","html-keyboard-response","302","610901","0.0-6.0-1.27","","<img src=""img/blue-r.png"">","null","trial","32","","0.6,0.4","3:go_c","1",""
"null","","html-keyboard-response","303","611903","0.0-6.0-2.27","","<div style=""font-size:60px;"">+</div>","null","","","","","","",""
"946.9799999988172","","image-keyboard-response","304","612850","0.0-6.0-0.28","","img/green.png","32","trial","null","false","0.4,0.6","4:nogo_d","",""
"null","","html-keyboard-response","305","613863","0.0-6.0-1.28","","<img src=""img/green-n.png"" border=""10"">","null","trial","null","","0.4,0.6","4:nogo_d","0",""
"null","","html-keyboard-response","306","614873","0.0-6.0-2.28","","<div style=""font-size:60px;"">+</div>","null","","","","","","",""
"1192.2400000002235","","image-keyboard-response","307","616066","0.0-6.0-0.29","","img/blue.png","32","trial","32","true","0.6,0.4","3:go_c","",""
"null","","html-keyboard-response","308","617074","0.0-6.0-1.29","","<img src=""img/blue-r.png"" border=""10"">","null","trial","32","","0.6,0.4","3:go_c","1",""
"null","","html-keyboard-response","309","618089","0.0-6.0-2.29","","<div style=""font-size:60px;"">+</div>","null","","","","","","",""
"583.1349999989616","","image-keyboard-response","310","618672","0.0-6.0-0.30","","img/grey.png","32","trial","null","false","0.4,0.6","2:nogo_b","",""
"null","","html-keyboard-response","311","619685","0.0-6.0-1.30","","<img src=""img/grey-n.png"" border=""10"">","null","trial","null","","0.4,0.6","2:nogo_b","0",""
"null","","html-keyboard-response","312","620690","0.0-6.0-2.30","","<div style=""font-size:60px;"">+</div>","null","","","","","","",""
"null","","image-keyboard-response","313","622194","0.0-6.0-0.31","","img/pink.png","null","trial","32","false","0.6,0.4","1:go_a","",""
"null","","html-keyboard-response","314","623199","0.0-6.0-1.31","","<img src=""img/pink-n.png"">","null","trial","32","","0.6,0.4","1:go_a","0",""
"null","","html-keyboard-response","315","624208","0.0-6.0-2.31","","<div style=""font-size:60px;"">+</div>","null","","","","","","",""
"472.669999999227","","image-keyboard-response","316","624682","0.0-6.0-0.32","","img/green.png","32","trial","null","false","0.4,0.6","4:nogo_d","",""
"null","","html-keyboard-response","317","625687","0.0-6.0-1.32","","<img src=""img/green-n.png"" border=""10"">","null","trial","null","","0.4,0.6","4:nogo_d","0",""
"null","","html-keyboard-response","318","626695","0.0-6.0-2.32","","<div style=""font-size:60px;"">+</div>","null","","","","","","",""
"744.4349999986589","","image-keyboard-response","319","627440","0.0-6.0-0.33","","img/blue.png","32","trial","32","true","0.6,0.4","3:go_c","",""
"null","","html-keyboard-response","320","628447","0.0-6.0-1.33","","<img src=""img/blue-r.png"" border=""10"">","null","trial","32","","0.6,0.4","3:go_c","1",""
"null","","html-keyboard-response","321","629453","0.0-6.0-2.33","","<div style=""font-size:60px;"">+</div>","null","","","","","","",""
"null","","image-keyboard-response","322","630959","0.0-6.0-0.34","","img/pink.png","null","trial","32","false","0.6,0.4","1:go_a","",""
"null","","html-keyboard-response","323","631968","0.0-6.0-1.34","","<img src=""img/pink-r.png"">","null","trial","32","","0.6,0.4","1:go_a","1",""
"null","","html-keyboard-response","324","632979","0.0-6.0-2.34","","<div style=""font-size:60px;"">+</div>","null","","","","","","",""
"803.7600000007078","","image-keyboard-response","325","633784","0.0-6.0-0.35","","img/grey.png","32","trial","null","false","0.4,0.6","2:nogo_b","",""
"null","","html-keyboard-response","326","634796","0.0-6.0-1.35","","<img src=""img/grey-r.png"" border=""10"">","null","trial","null","","0.4,0.6","2:nogo_b","1",""
"null","","html-keyboard-response","327","635800","0.0-6.0-2.35","","<div style=""font-size:60px;"">+</div>","null","","","","","","",""
"569.8000000010943","","image-keyboard-response","328","636370","0.0-6.0-0.36","","img/blue.png","32","trial","32","true","0.6,0.4","3:go_c","",""
"null","","html-keyboard-response","329","637374","0.0-6.0-1.36","","<img src=""img/blue-n.png"" border=""10"">","null","trial","32","","0.6,0.4","3:go_c","0",""
"null","","html-keyboard-response","330","638387","0.0-6.0-2.36","","<div style=""font-size:60px;"">+</div>","null","","","","","","",""
"null","","image-keyboard-response","331","639900","0.0-6.0-0.37","","img/pink.png","null","trial","32","false","0.6,0.4","1:go_a","",""
"null","","html-keyboard-response","332","640911","0.0-6.0-1.37","","<img src=""img/pink-n.png"">","null","trial","32","","0.6,0.4","1:go_a","0",""
"null","","html-keyboard-response","333","641919","0.0-6.0-2.37","","<div style=""font-size:60px;"">+</div>","null","","","","","","",""
"357.2100000001956","","image-keyboard-response","334","642277","0.0-6.0-0.38","","img/green.png","32","trial","null","false","0.4,0.6","4:nogo_d","",""
"null","","html-keyboard-response","335","643290","0.0-6.0-1.38","","<img src=""img/green-n.png"" border=""10"">","null","trial","null","","0.4,0.6","4:nogo_d","0",""
"null","","html-keyboard-response","336","644299","0.0-6.0-2.38","","<div style=""font-size:60px;"">+</div>","null","","","","","","",""
"951.1800000000512","","image-keyboard-response","337","645251","0.0-6.0-0.39","","img/grey.png","32","trial","null","false","0.4,0.6","2:nogo_b","",""
"null","","html-keyboard-response","338","646265","0.0-6.0-1.39","","<img src=""img/grey-r.png"" border=""10"">","null","trial","null","","0.4,0.6","2:nogo_b","1",""
"null","","html-keyboard-response","339","647273","0.0-6.0-2.39","","<div style=""font-size:60px;"">+</div>","null","","","","","","",""
"null","","image-keyboard-response","340","648781","0.0-6.0-0.40","","img/grey.png","null","trial","null","true","0.4,0.6","2:nogo_b","",""
"null","","html-keyboard-response","341","649792","0.0-6.0-1.40","","<img src=""img/grey-r.png"">","null","trial","null","","0.4,0.6","2:nogo_b","1",""
"null","","html-keyboard-response","342","650805","0.0-6.0-2.40","","<div style=""font-size:60px;"">+</div>","null","","","","","","",""
"null","","image-keyboard-response","343","652306","0.0-6.0-0.41","","img/green.png","null","trial","null","true","0.4,0.6","4:nogo_d","",""
"null","","html-keyboard-response","344","653312","0.0-6.0-1.41","","<img src=""img/green-r.png"">","null","trial","null","","0.4,0.6","4:nogo_d","1",""
"null","","html-keyboard-response","345","654328","0.0-6.0-2.41","","<div style=""font-size:60px;"">+</div>","null","","","","","","",""
"784.4050000003772","","image-keyboard-response","346","655113","0.0-6.0-0.42","","img/pink.png","32","trial","32","true","0.6,0.4","1:go_a","",""
"null","","html-keyboard-response","347","656117","0.0-6.0-1.42","","<img src=""img/pink-r.png"" border=""10"">","null","trial","32","","0.6,0.4","1:go_a","1",""
"null","","html-keyboard-response","348","657124","0.0-6.0-2.42","","<div style=""font-size:60px;"">+</div>","null","","","","","","",""
"null","","image-keyboard-response","349","658639","0.0-6.0-0.43","","img/blue.png","null","trial","32","false","0.6,0.4","3:go_c","",""
"null","","html-keyboard-response","350","659648","0.0-6.0-1.43","","<img src=""img/blue-n.png"">","null","trial","32","","0.6,0.4","3:go_c","0",""
"null","","html-keyboard-response","351","660654","0.0-6.0-2.43","","<div style=""font-size:60px;"">+</div>","null","","","","","","",""
"566.0749999987893","","image-keyboard-response","352","661221","0.0-6.0-0.44","","img/grey.png","32","trial","null","false","0.4,0.6","2:nogo_b","",""
"null","","html-keyboard-response","353","662232","0.0-6.0-1.44","","<img src=""img/grey-r.png"" border=""10"">","null","trial","null","","0.4,0.6","2:nogo_b","1",""
"null","","html-keyboard-response","354","663243","0.0-6.0-2.44","","<div style=""font-size:60px;"">+</div>","null","","","","","","",""
"null","","image-keyboard-response","355","664749","0.0-6.0-0.45","","img/blue.png","null","trial","32","false","0.6,0.4","3:go_c","",""
"null","","html-keyboard-response","356","665763","0.0-6.0-1.45","","<img src=""img/blue-r.png"">","null","trial","32","","0.6,0.4","3:go_c","1",""
"null","","html-keyboard-response","357","666776","0.0-6.0-2.45","","<div style=""font-size:60px;"">+</div>","null","","","","","","",""
"881.9650000005495","","image-keyboard-response","358","667659","0.0-6.0-0.46","","img/pink.png","32","trial","32","true","0.6,0.4","1:go_a","",""
"null","","html-keyboard-response","359","668670","0.0-6.0-1.46","","<img src=""img/pink-r.png"" border=""10"">","null","trial","32","","0.6,0.4","1:go_a","1",""
"null","","html-keyboard-response","360","669683","0.0-6.0-2.46","","<div style=""font-size:60px;"">+</div>","null","","","","","","",""
"null","","image-keyboard-response","361","671197","0.0-6.0-0.47","","img/green.png","null","trial","null","true","0.4,0.6","4:nogo_d","",""
"null","","html-keyboard-response","362","672211","0.0-6.0-1.47","","<img src=""img/green-n.png"">","null","trial","null","","0.4,0.6","4:nogo_d","0",""
"null","","html-keyboard-response","363","673212","0.0-6.0-2.47","","<div style=""font-size:60px;"">+</div>","null","","","","","","",""
"null","","image-keyboard-response","364","674731","0.0-6.0-0.48","","img/blue.png","null","trial","32","false","0.6,0.4","3:go_c","",""
"null","","html-keyboard-response","365","675747","0.0-6.0-1.48","","<img src=""img/blue-r.png"">","null","trial","32","","0.6,0.4","3:go_c","1",""
"null","","html-keyboard-response","366","676760","0.0-6.0-2.48","","<div style=""font-size:60px;"">+</div>","null","","","","","","",""
"null","","image-keyboard-response","367","678265","0.0-6.0-0.49","","img/green.png","null","trial","null","true","0.4,0.6","4:nogo_d","",""
"null","","html-keyboard-response","368","679267","0.0-6.0-1.49","","<img src=""img/green-r.png"">","null","trial","null","","0.4,0.6","4:nogo_d","1",""
"null","","html-keyboard-response","369","680274","0.0-6.0-2.49","","<div style=""font-size:60px;"">+</div>","null","","","","","","",""
"614.4350000013364","","image-keyboard-response","370","680889","0.0-6.0-0.50","","img/pink.png","32","trial","32","true","0.6,0.4","1:go_a","",""
"null","","html-keyboard-response","371","681890","0.0-6.0-1.50","","<img src=""img/pink-r.png"" border=""10"">","null","trial","32","","0.6,0.4","1:go_a","1",""
"null","","html-keyboard-response","372","682904","0.0-6.0-2.50","","<div style=""font-size:60px;"">+</div>","null","","","","","","",""
"771.5900000003166","","image-keyboard-response","373","683676","0.0-6.0-0.51","","img/grey.png","32","trial","null","false","0.4,0.6","2:nogo_b","",""
"null","","html-keyboard-response","374","684683","0.0-6.0-1.51","","<img src=""img/grey-r.png"" border=""10"">","null","trial","null","","0.4,0.6","2:nogo_b","1",""
"null","","html-keyboard-response","375","685693","0.0-6.0-2.51","","<div style=""font-size:60px;"">+</div>","null","","","","","","",""
"null","","image-keyboard-response","376","687203","0.0-6.0-0.52","","img/blue.png","null","trial","32","false","0.6,0.4","3:go_c","",""
"null","","html-keyboard-response","377","688219","0.0-6.0-1.52","","<img src=""img/blue-n.png"">","null","trial","32","","0.6,0.4","3:go_c","0",""
"null","","html-keyboard-response","378","689226","0.0-6.0-2.52","","<div style=""font-size:60px;"">+</div>","null","","","","","","",""
"493.40499999921303","","image-keyboard-response","379","689720","0.0-6.0-0.53","","img/grey.png","32","trial","null","false","0.4,0.6","2:nogo_b","",""
"null","","html-keyboard-response","380","690729","0.0-6.0-1.53","","<img src=""img/grey-n.png"" border=""10"">","null","trial","null","","0.4,0.6","2:nogo_b","0",""
"null","","html-keyboard-response","381","691738","0.0-6.0-2.53","","<div style=""font-size:60px;"">+</div>","null","","","","","","",""
"null","","image-keyboard-response","382","693244","0.0-6.0-0.54","","img/green.png","null","trial","null","true","0.4,0.6","4:nogo_d","",""
"null","","html-keyboard-response","383","694250","0.0-6.0-1.54","","<img src=""img/green-r.png"">","null","trial","null","","0.4,0.6","4:nogo_d","1",""
"null","","html-keyboard-response","384","695261","0.0-6.0-2.54","","<div style=""font-size:60px;"">+</div>","null","","","","","","",""
"575.8500000011409","","image-keyboard-response","385","695838","0.0-6.0-0.55","","img/pink.png","32","trial","32","true","0.6,0.4","1:go_a","",""
"null","","html-keyboard-response","386","696843","0.0-6.0-1.55","","<img src=""img/pink-r.png"" border=""10"">","null","trial","32","","0.6,0.4","1:go_a","1",""
"null","","html-keyboard-response","387","697852","0.0-6.0-2.55","","<div style=""font-size:60px;"">+</div>","null","","","","","","",""
"573.4449999999488","","image-keyboard-response","388","698427","0.0-6.0-0.56","","img/grey.png","32","trial","null","false","0.4,0.6","2:nogo_b","",""
"null","","html-keyboard-response","389","699436","0.0-6.0-1.56","","<img src=""img/grey-n.png"" border=""10"">","null","trial","null","","0.4,0.6","2:nogo_b","0",""
"null","","html-keyboard-response","390","700448","0.0-6.0-2.56","","<div style=""font-size:60px;"">+</div>","null","","","","","","",""
"null","","image-keyboard-response","391","701964","0.0-6.0-0.57","","img/green.png","null","trial","null","true","0.4,0.6","4:nogo_d","",""
"null","","html-keyboard-response","392","702975","0.0-6.0-1.57","","<img src=""img/green-n.png"">","null","trial","null","","0.4,0.6","4:nogo_d","0",""
"null","","html-keyboard-response","393","703979","0.0-6.0-2.57","","<div style=""font-size:60px;"">+</div>","null","","","","","","",""
"855.1049999987008","","image-keyboard-response","394","704835","0.0-6.0-0.58","","img/pink.png","32","trial","32","true","0.6,0.4","1:go_a","",""
"null","","html-keyboard-response","395","705844","0.0-6.0-1.58","","<img src=""img/pink-n.png"" border=""10"">","null","trial","32","","0.6,0.4","1:go_a","0",""
"null","","html-keyboard-response","396","706855","0.0-6.0-2.58","","<div style=""font-size:60px;"">+</div>","null","","","","","","",""
"962.1799999985378","","image-keyboard-response","397","707818","0.0-6.0-0.59","","img/blue.png","32","trial","32","true","0.6,0.4","3:go_c","",""
"null","","html-keyboard-response","398","708830","0.0-6.0-1.59","","<img src=""img/blue-r.png"" border=""10"">","null","trial","32","","0.6,0.4","3:go_c","1",""
"null","","html-keyboard-response","399","709840","0.0-6.0-2.59","","<div style=""font-size:60px;"">+</div>","null","","","","","","",""
"null","","image-keyboard-response","400","711342","0.0-6.0-0.60","","img/blue.png","null","trial","32","false","0.6,0.4","3:go_c","",""
"null","","html-keyboard-response","401","712353","0.0-6.0-1.60","","<img src=""img/blue-r.png"">","null","trial","32","","0.6,0.4","3:go_c","1",""
"null","","html-keyboard-response","402","713359","0.0-6.0-2.60","","<div style=""font-size:60px;"">+</div>","null","","","","","","",""
"786.5149999997811","","image-keyboard-response","403","714147","0.0-6.0-0.61","","img/grey.png","32","trial","null","false","0.4,0.6","2:nogo_b","",""
"null","","html-keyboard-response","404","715150","0.0-6.0-1.61","","<img src=""img/grey-n.png"" border=""10"">","null","trial","null","","0.4,0.6","2:nogo_b","0",""
"null","","html-keyboard-response","405","716165","0.0-6.0-2.61","","<div style=""font-size:60px;"">+</div>","null","","","","","","",""
"null","","image-keyboard-response","406","717670","0.0-6.0-0.62","","img/green.png","null","trial","null","true","0.4,0.6","4:nogo_d","",""
"null","","html-keyboard-response","407","718680","0.0-6.0-1.62","","<img src=""img/green-n.png"">","null","trial","null","","0.4,0.6","4:nogo_d","0",""
"null","","html-keyboard-response","408","719684","0.0-6.0-2.62","","<div style=""font-size:60px;"">+</div>","null","","","","","","",""
"1138.2649999995483","","image-keyboard-response","409","720823","0.0-6.0-0.63","","img/pink.png","32","trial","32","true","0.6,0.4","1:go_a","",""
"null","","html-keyboard-response","410","721829","0.0-6.0-1.63","","<img src=""img/pink-r.png"" border=""10"">","null","trial","32","","0.6,0.4","1:go_a","1",""
"null","","html-keyboard-response","411","722844","0.0-6.0-2.63","","<div style=""font-size:60px;"">+</div>","null","","","","","","",""
"null","","image-keyboard-response","412","724352","0.0-6.0-0.64","","img/pink.png","null","trial","32","false","0.6,0.4","1:go_a","",""
"null","","html-keyboard-response","413","725366","0.0-6.0-1.64","","<img src=""img/pink-n.png"">","null","trial","32","","0.6,0.4","1:go_a","0",""
"null","","html-keyboard-response","414","726371","0.0-6.0-2.64","","<div style=""font-size:60px;"">+</div>","null","","","","","","",""
"null","","image-keyboard-response","415","727872","0.0-6.0-0.65","","img/grey.png","null","trial","null","true","0.4,0.6","2:nogo_b","",""
"null","","html-keyboard-response","416","728886","0.0-6.0-1.65","","<img src=""img/grey-r.png"">","null","trial","null","","0.4,0.6","2:nogo_b","1",""
"null","","html-keyboard-response","417","729898","0.0-6.0-2.65","","<div style=""font-size:60px;"">+</div>","null","","","","","","",""
"689.420000000624","","image-keyboard-response","418","730588","0.0-6.0-0.66","","img/blue.png","32","trial","32","true","0.6,0.4","3:go_c","",""
"null","","html-keyboard-response","419","731592","0.0-6.0-1.66","","<img src=""img/blue-n.png"" border=""10"">","null","trial","32","","0.6,0.4","3:go_c","0",""
"null","","html-keyboard-response","420","732607","0.0-6.0-2.66","","<div style=""font-size:60px;"">+</div>","null","","","","","","",""
"1103.950000000652","","image-keyboard-response","421","733712","0.0-6.0-0.67","","img/green.png","32","trial","null","false","0.4,0.6","4:nogo_d","",""
"null","","html-keyboard-response","422","734720","0.0-6.0-1.67","","<img src=""img/green-n.png"" border=""10"">","null","trial","null","","0.4,0.6","4:nogo_d","0",""
"null","","html-keyboard-response","423","735725","0.0-6.0-2.67","","<div style=""font-size:60px;"">+</div>","null","","","","","","",""
"null","","image-keyboard-response","424","737234","0.0-6.0-0.68","","img/grey.png","null","trial","null","true","0.4,0.6","2:nogo_b","",""
"null","","html-keyboard-response","425","738250","0.0-6.0-1.68","","<img src=""img/grey-r.png"">","null","trial","null","","0.4,0.6","2:nogo_b","1",""
"null","","html-keyboard-response","426","739266","0.0-6.0-2.68","","<div style=""font-size:60px;"">+</div>","null","","","","","","",""
"747.3099999988917","","image-keyboard-response","427","740014","0.0-6.0-0.69","","img/green.png","32","trial","null","false","0.4,0.6","4:nogo_d","",""
"null","","html-keyboard-response","428","741028","0.0-6.0-1.69","","<img src=""img/green-n.png"" border=""10"">","null","trial","null","","0.4,0.6","4:nogo_d","0",""
"null","","html-keyboard-response","429","742034","0.0-6.0-2.69","","<div style=""font-size:60px;"">+</div>","null","","","","","","",""
"901.8649999998743","","image-keyboard-response","430","742937","0.0-6.0-0.70","","img/pink.png","32","trial","32","true","0.6,0.4","1:go_a","",""
"null","","html-keyboard-response","431","743946","0.0-6.0-1.70","","<img src=""img/pink-n.png"" border=""10"">","null","trial","32","","0.6,0.4","1:go_a","0",""
"null","","html-keyboard-response","432","744958","0.0-6.0-2.70","","<div style=""font-size:60px;"">+</div>","null","","","","","","",""
"null","","image-keyboard-response","433","746460","0.0-6.0-0.71","","img/blue.png","null","trial","32","false","0.6,0.4","3:go_c","",""
"null","","html-keyboard-response","434","747461","0.0-6.0-1.71","","<img src=""img/blue-n.png"">","null","trial","32","","0.6,0.4","3:go_c","0",""
"null","","html-keyboard-response","435","748469","0.0-6.0-2.71","","<div style=""font-size:60px;"">+</div>","null","","","","","","",""
"522.3200000000652","","image-keyboard-response","436","748992","0.0-6.0-0.72","","img/blue.png","32","trial","32","true","0.6,0.4","3:go_c","",""
"null","","html-keyboard-response","437","750004","0.0-6.0-1.72","","<img src=""img/blue-n.png"" border=""10"">","null","trial","32","","0.6,0.4","3:go_c","0",""
"null","","html-keyboard-response","438","751016","0.0-6.0-2.72","","<div style=""font-size:60px;"">+</div>","null","","","","","","",""
"null","","image-keyboard-response","439","752526","0.0-6.0-0.73","","img/green.png","null","trial","null","true","0.4,0.6","4:nogo_d","",""
"null","","html-keyboard-response","440","753527","0.0-6.0-1.73","","<img src=""img/green-r.png"">","null","trial","null","","0.4,0.6","4:nogo_d","1",""
"null","","html-keyboard-response","441","754532","0.0-6.0-2.73","","<div style=""font-size:60px;"">+</div>","null","","","","","","",""
"875.6899999988964","","image-keyboard-response","442","755409","0.0-6.0-0.74","","img/grey.png","32","trial","null","false","0.4,0.6","2:nogo_b","",""
"null","","html-keyboard-response","443","756410","0.0-6.0-1.74","","<img src=""img/grey-r.png"" border=""10"">","null","trial","null","","0.4,0.6","2:nogo_b","1",""
"null","","html-keyboard-response","444","757424","0.0-6.0-2.74","","<div style=""font-size:60px;"">+</div>","null","","","","","","",""
"null","","image-keyboard-response","445","758933","0.0-6.0-0.75","","img/pink.png","null","trial","32","false","0.6,0.4","1:go_a","",""
"null","","html-keyboard-response","446","759946","0.0-6.0-1.75","","<img src=""img/pink-n.png"">","null","trial","32","","0.6,0.4","1:go_a","0",""
"null","","html-keyboard-response","447","760947","0.0-6.0-2.75","","<div style=""font-size:60px;"">+</div>","null","","","","","","",""
"1073.9249999988824","","image-keyboard-response","448","762021","0.0-6.0-0.76","","img/blue.png","32","trial","32","true","0.6,0.4","3:go_c","",""
"null","","html-keyboard-response","449","763027","0.0-6.0-1.76","","<img src=""img/blue-r.png"" border=""10"">","null","trial","32","","0.6,0.4","3:go_c","1",""
"null","","html-keyboard-response","450","764030","0.0-6.0-2.76","","<div style=""font-size:60px;"">+</div>","null","","","","","","",""
"null","","image-keyboard-response","451","765533","0.0-6.0-0.77","","img/grey.png","null","trial","null","true","0.4,0.6","2:nogo_b","",""
"null","","html-keyboard-response","452","766543","0.0-6.0-1.77","","<img src=""img/grey-r.png"">","null","trial","null","","0.4,0.6","2:nogo_b","1",""
"null","","html-keyboard-response","453","767546","0.0-6.0-2.77","","<div style=""font-size:60px;"">+</div>","null","","","","","","",""
"null","","image-keyboard-response","454","769058","0.0-6.0-0.78","","img/green.png","null","trial","null","true","0.4,0.6","4:nogo_d","",""
"null","","html-keyboard-response","455","770061","0.0-6.0-1.78","","<img src=""img/green-n.png"">","null","trial","null","","0.4,0.6","4:nogo_d","0",""
"null","","html-keyboard-response","456","771061","0.0-6.0-2.78","","<div style=""font-size:60px;"">+</div>","null","","","","","","",""
"333.6399999988498","","image-keyboard-response","457","771395","0.0-6.0-0.79","","img/pink.png","32","trial","32","true","0.6,0.4","1:go_a","",""
"null","","html-keyboard-response","458","772408","0.0-6.0-1.79","","<img src=""img/pink-n.png"" border=""10"">","null","trial","32","","0.6,0.4","1:go_a","0",""
"null","","html-keyboard-response","459","773417","0.0-6.0-2.79","","<div style=""font-size:60px;"">+</div>","null","","","","","","",""
"null","","image-keyboard-response","460","774923","0.0-6.0-0.80","","img/grey.png","null","trial","null","true","0.4,0.6","2:nogo_b","",""
"null","","html-keyboard-response","461","775937","0.0-6.0-1.80","","<img src=""img/grey-n.png"">","null","trial","null","","0.4,0.6","2:nogo_b","0",""
"null","","html-keyboard-response","462","776953","0.0-6.0-2.80","","<div style=""font-size:60px;"">+</div>","null","","","","","","",""
"null","","image-keyboard-response","463","778463","0.0-6.0-0.81","","img/pink.png","null","trial","32","false","0.6,0.4","1:go_a","",""
"null","","html-keyboard-response","464","779464","0.0-6.0-1.81","","<img src=""img/pink-n.png"">","null","trial","32","","0.6,0.4","1:go_a","0",""
"null","","html-keyboard-response","465","780480","0.0-6.0-2.81","","<div style=""font-size:60px;"">+</div>","null","","","","","","",""
"603.6100000001024","","image-keyboard-response","466","781084","0.0-6.0-0.82","","img/blue.png","32","trial","32","true","0.6,0.4","3:go_c","",""
"null","","html-keyboard-response","467","782100","0.0-6.0-1.82","","<img src=""img/blue-r.png"" border=""10"">","null","trial","32","","0.6,0.4","3:go_c","1",""
"null","","html-keyboard-response","468","783104","0.0-6.0-2.82","","<div style=""font-size:60px;"">+</div>","null","","","","","","",""
"1243.7650000010617","","image-keyboard-response","469","784349","0.0-6.0-0.83","","img/green.png","32","trial","null","false","0.4,0.6","4:nogo_d","",""
"null","","html-keyboard-response","470","785355","0.0-6.0-1.83","","<img src=""img/green-n.png"" border=""10"">","null","trial","null","","0.4,0.6","4:nogo_d","0",""
"null","","html-keyboard-response","471","786366","0.0-6.0-2.83","","<div style=""font-size:60px;"">+</div>","null","","","","","","",""
"null","","image-keyboard-response","472","787874","0.0-6.0-0.84","","img/green.png","null","trial","null","true","0.4,0.6","4:nogo_d","",""
"null","","html-keyboard-response","473","788883","0.0-6.0-1.84","","<img src=""img/green-r.png"">","null","trial","null","","0.4,0.6","4:nogo_d","1",""
"null","","html-keyboard-response","474","789890","0.0-6.0-2.84","","<div style=""font-size:60px;"">+</div>","null","","","","","","",""
"496.51500000071246","","image-keyboard-response","475","790387","0.0-6.0-0.85","","img/blue.png","32","trial","32","true","0.6,0.4","3:go_c","",""
"null","","html-keyboard-response","476","791391","0.0-6.0-1.85","","<img src=""img/blue-n.png"" border=""10"">","null","trial","32","","0.6,0.4","3:go_c","0",""
"null","","html-keyboard-response","477","792404","0.0-6.0-2.85","","<div style=""font-size:60px;"">+</div>","null","","","","","","",""
"560.7900000014342","","image-keyboard-response","478","792966","0.0-6.0-0.86","","img/pink.png","32","trial","32","true","0.6,0.4","1:go_a","",""
"null","","html-keyboard-response","479","793977","0.0-6.0-1.86","","<img src=""img/pink-n.png"" border=""10"">","null","trial","32","","0.6,0.4","1:go_a","0",""
"null","","html-keyboard-response","480","794983","0.0-6.0-2.86","","<div style=""font-size:60px;"">+</div>","null","","","","","","",""
"747.4099999999162","","image-keyboard-response","481","795731","0.0-6.0-0.87","","img/grey.png","32","trial","null","false","0.4,0.6","2:nogo_b","",""
"null","","html-keyboard-response","482","796738","0.0-6.0-1.87","","<img src=""img/grey-n.png"" border=""10"">","null","trial","null","","0.4,0.6","2:nogo_b","0",""
"null","","html-keyboard-response","483","797747","0.0-6.0-2.87","","<div style=""font-size:60px;"">+</div>","null","","","","","","",""
"null","","image-keyboard-response","484","799261","0.0-6.0-0.88","","img/pink.png","null","trial","32","false","0.6,0.4","1:go_a","",""
"null","","html-keyboard-response","485","800267","0.0-6.0-1.88","","<img src=""img/pink-n.png"">","null","trial","32","","0.6,0.4","1:go_a","0",""
"null","","html-keyboard-response","486","801267","0.0-6.0-2.88","","<div style=""font-size:60px;"">+</div>","null","","","","","","",""
"961.9149999999208","","image-keyboard-response","487","802230","0.0-6.0-0.89","","img/green.png","32","trial","null","false","0.4,0.6","4:nogo_d","",""
"null","","html-keyboard-response","488","803233","0.0-6.0-1.89","","<img src=""img/green-r.png"" border=""10"">","null","trial","null","","0.4,0.6","4:nogo_d","1",""
"null","","html-keyboard-response","489","804244","0.0-6.0-2.89","","<div style=""font-size:60px;"">+</div>","null","","","","","","",""
"503.7700000011828","","image-keyboard-response","490","804749","0.0-6.0-0.90","","img/grey.png","32","trial","null","false","0.4,0.6","2:nogo_b","",""
"null","","html-keyboard-response","491","805751","0.0-6.0-1.90","","<img src=""img/grey-n.png"" border=""10"">","null","trial","null","","0.4,0.6","2:nogo_b","0",""
"null","","html-keyboard-response","492","806767","0.0-6.0-2.90","","<div style=""font-size:60px;"">+</div>","null","","","","","","",""
"458.85499999893364","","image-keyboard-response","493","807227","0.0-6.0-0.91","","img/blue.png","32","trial","32","true","0.6,0.4","3:go_c","",""
"null","","html-keyboard-response","494","808244","0.0-6.0-1.91","","<img src=""img/blue-n.png"" border=""10"">","null","trial","32","","0.6,0.4","3:go_c","0",""
"null","","html-keyboard-response","495","809256","0.0-6.0-2.91","","<div style=""font-size:60px;"">+</div>","null","","","","","","",""
"1007.9999999997672","","image-keyboard-response","496","810265","0.0-6.0-0.92","","img/green.png","32","trial","null","false","0.4,0.6","4:nogo_d","",""
"null","","html-keyboard-response","497","811269","0.0-6.0-1.92","","<img src=""img/green-r.png"" border=""10"">","null","trial","null","","0.4,0.6","4:nogo_d","1",""
"null","","html-keyboard-response","498","812277","0.0-6.0-2.92","","<div style=""font-size:60px;"">+</div>","null","","","","","","",""
"null","","image-keyboard-response","499","813783","0.0-6.0-0.93","","img/pink.png","null","trial","32","false","0.6,0.4","1:go_a","",""
"null","","html-keyboard-response","500","814797","0.0-6.0-1.93","","<img src=""img/pink-n.png"">","null","trial","32","","0.6,0.4","1:go_a","0",""
"null","","html-keyboard-response","501","815811","0.0-6.0-2.93","","<div style=""font-size:60px;"">+</div>","null","","","","","","",""
"648.5200000007171","","image-keyboard-response","502","816461","0.0-6.0-0.94","","img/grey.png","32","trial","null","false","0.4,0.6","2:nogo_b","",""
"null","","html-keyboard-response","503","817469","0.0-6.0-1.94","","<img src=""img/grey-n.png"" border=""10"">","null","trial","null","","0.4,0.6","2:nogo_b","0",""
"null","","html-keyboard-response","504","818481","0.0-6.0-2.94","","<div style=""font-size:60px;"">+</div>","null","","","","","","",""
"1230.7600000003586","","image-keyboard-response","505","819713","0.0-6.0-0.95","","img/blue.png","32","trial","32","true","0.6,0.4","3:go_c","",""
"null","","html-keyboard-response","506","820717","0.0-6.0-1.95","","<img src=""img/blue-n.png"" border=""10"">","null","trial","32","","0.6,0.4","3:go_c","0",""
"null","","html-keyboard-response","507","821732","0.0-6.0-2.95","","<div style=""font-size:60px;"">+</div>","null","","","","","","",""
"null","","image-keyboard-response","508","823233","0.0-6.0-0.96","","img/pink.png","null","trial","32","false","0.6,0.4","1:go_a","",""
"null","","html-keyboard-response","509","824242","0.0-6.0-1.96","","<img src=""img/pink-n.png"">","null","trial","32","","0.6,0.4","1:go_a","0",""
"null","","html-keyboard-response","510","825251","0.0-6.0-2.96","","<div style=""font-size:60px;"">+</div>","null","","","","","","",""
"null","","image-keyboard-response","511","826764","0.0-6.0-0.97","","img/grey.png","null","trial","null","true","0.4,0.6","2:nogo_b","",""
"null","","html-keyboard-response","512","827778","0.0-6.0-1.97","","<img src=""img/grey-n.png"">","null","trial","null","","0.4,0.6","2:nogo_b","0",""
"null","","html-keyboard-response","513","828779","0.0-6.0-2.97","","<div style=""font-size:60px;"">+</div>","null","","","","","","",""
"430.2950000001583","","image-keyboard-response","514","829210","0.0-6.0-0.98","","img/green.png","32","trial","null","false","0.4,0.6","4:nogo_d","",""
"null","","html-keyboard-response","515","830219","0.0-6.0-1.98","","<img src=""img/green-n.png"" border=""10"">","null","trial","null","","0.4,0.6","4:nogo_d","0",""
"null","","html-keyboard-response","516","831229","0.0-6.0-2.98","","<div style=""font-size:60px;"">+</div>","null","","","","","","",""
"608.1749999993481","","image-keyboard-response","517","831837","0.0-6.0-0.99","","img/blue.png","32","trial","32","true","0.6,0.4","3:go_c","",""
"null","","html-keyboard-response","518","832849","0.0-6.0-1.99","","<img src=""img/blue-r.png"" border=""10"">","null","trial","32","","0.6,0.4","3:go_c","1",""
"null","","html-keyboard-response","519","833859","0.0-6.0-2.99","","<div style=""font-size:60px;"">+</div>","null","","","","","","",""
"838.4399999995949","","image-keyboard-response","520","834697","0.0-6.0-0.100","","img/blue.png","32","trial","32","true","0.6,0.4","3:go_c","",""
"null","","html-keyboard-response","521","835713","0.0-6.0-1.100","","<img src=""img/blue-r.png"" border=""10"">","null","trial","32","","0.6,0.4","3:go_c","1",""
"null","","html-keyboard-response","522","836719","0.0-6.0-2.100","","<div style=""font-size:60px;"">+</div>","null","","","","","","",""
"921.164999999688","","image-keyboard-response","523","837640","0.0-6.0-0.101","","img/pink.png","32","trial","32","true","0.6,0.4","1:go_a","",""
"null","","html-keyboard-response","524","838650","0.0-6.0-1.101","","<img src=""img/pink-r.png"" border=""10"">","null","trial","32","","0.6,0.4","1:go_a","1",""
"null","","html-keyboard-response","525","839660","0.0-6.0-2.101","","<div style=""font-size:60px;"">+</div>","null","","","","","","",""
"null","","image-keyboard-response","526","841170","0.0-6.0-0.102","","img/green.png","null","trial","null","true","0.4,0.6","4:nogo_d","",""
"null","","html-keyboard-response","527","842180","0.0-6.0-1.102","","<img src=""img/green-r.png"">","null","trial","null","","0.4,0.6","4:nogo_d","1",""
"null","","html-keyboard-response","528","843188","0.0-6.0-2.102","","<div style=""font-size:60px;"">+</div>","null","","","","","","",""
"524.8899999987334","","image-keyboard-response","529","843714","0.0-6.0-0.103","","img/grey.png","32","trial","null","false","0.4,0.6","2:nogo_b","",""
"null","","html-keyboard-response","530","844728","0.0-6.0-1.103","","<img src=""img/grey-r.png"" border=""10"">","null","trial","null","","0.4,0.6","2:nogo_b","1",""
"null","","html-keyboard-response","531","845735","0.0-6.0-2.103","","<div style=""font-size:60px;"">+</div>","null","","","","","","",""
"null","","image-keyboard-response","532","847245","0.0-6.0-0.104","","img/grey.png","null","trial","null","true","0.4,0.6","2:nogo_b","",""
"null","","html-keyboard-response","533","848257","0.0-6.0-1.104","","<img src=""img/grey-r.png"">","null","trial","null","","0.4,0.6","2:nogo_b","1",""
"null","","html-keyboard-response","534","849273","0.0-6.0-2.104","","<div style=""font-size:60px;"">+</div>","null","","","","","","",""
"null","","image-keyboard-response","535","850777","0.0-6.0-0.105","","img/blue.png","null","trial","32","false","0.6,0.4","3:go_c","",""
"null","","html-keyboard-response","536","851785","0.0-6.0-1.105","","<img src=""img/blue-r.png"">","null","trial","32","","0.6,0.4","3:go_c","1",""
"null","","html-keyboard-response","537","852793","0.0-6.0-2.105","","<div style=""font-size:60px;"">+</div>","null","","","","","","",""
"752.5400000013178","","image-keyboard-response","538","853546","0.0-6.0-0.106","","img/pink.png","32","trial","32","true","0.6,0.4","1:go_a","",""
"null","","html-keyboard-response","539","854549","0.0-6.0-1.106","","<img src=""img/pink-r.png"" border=""10"">","null","trial","32","","0.6,0.4","1:go_a","1",""
"null","","html-keyboard-response","540","855564","0.0-6.0-2.106","","<div style=""font-size:60px;"">+</div>","null","","","","","","",""
"739.239999998943","","image-keyboard-response","541","856304","0.0-6.0-0.107","","img/green.png","32","trial","null","false","0.4,0.6","4:nogo_d","",""
"null","","html-keyboard-response","542","857311","0.0-6.0-1.107","","<img src=""img/green-n.png"" border=""10"">","null","trial","null","","0.4,0.6","4:nogo_d","0",""
"null","","html-keyboard-response","543","858319","0.0-6.0-2.107","","<div style=""font-size:60px;"">+</div>","null","","","","","","",""
"826.1899999998277","","image-keyboard-response","544","859146","0.0-6.0-0.108","","img/grey.png","32","trial","null","false","0.4,0.6","2:nogo_b","",""
"null","","html-keyboard-response","545","860151","0.0-6.0-1.108","","<img src=""img/grey-n.png"" border=""10"">","null","trial","null","","0.4,0.6","2:nogo_b","0",""
"null","","html-keyboard-response","546","861163","0.0-6.0-2.108","","<div style=""font-size:60px;"">+</div>","null","","","","","","",""
"null","","image-keyboard-response","547","862672","0.0-6.0-0.109","","img/blue.png","null","trial","32","false","0.6,0.4","3:go_c","",""
"null","","html-keyboard-response","548","863683","0.0-6.0-1.109","","<img src=""img/blue-n.png"">","null","trial","32","","0.6,0.4","3:go_c","0",""
"null","","html-keyboard-response","549","864692","0.0-6.0-2.109","","<div style=""font-size:60px;"">+</div>","null","","","","","","",""
"1003.1999999991385","","image-keyboard-response","550","865696","0.0-6.0-0.110","","img/green.png","32","trial","null","false","0.4,0.6","4:nogo_d","",""
"null","","html-keyboard-response","551","866702","0.0-6.0-1.110","","<img src=""img/green-n.png"" border=""10"">","null","trial","null","","0.4,0.6","4:nogo_d","0",""
"null","","html-keyboard-response","552","867715","0.0-6.0-2.110","","<div style=""font-size:60px;"">+</div>","null","","","","","","",""
"null","","image-keyboard-response","553","869221","0.0-6.0-0.111","","img/pink.png","null","trial","32","false","0.6,0.4","1:go_a","",""
"null","","html-keyboard-response","554","870232","0.0-6.0-1.111","","<img src=""img/pink-n.png"">","null","trial","32","","0.6,0.4","1:go_a","0",""
"null","","html-keyboard-response","555","871242","0.0-6.0-2.111","","<div style=""font-size:60px;"">+</div>","null","","","","","","",""
"436.47499999857973","","image-keyboard-response","556","871679","0.0-6.0-0.112","","img/blue.png","32","trial","32","true","0.6,0.4","3:go_c","",""
"null","","html-keyboard-response","557","872689","0.0-6.0-1.112","","<img src=""img/blue-n.png"" border=""10"">","null","trial","32","","0.6,0.4","3:go_c","0",""
"null","","html-keyboard-response","558","873704","0.0-6.0-2.112","","<div style=""font-size:60px;"">+</div>","null","","","","","","",""
"383.61000000080094","","image-keyboard-response","559","874088","0.0-6.0-0.113","","img/pink.png","32","trial","32","true","0.6,0.4","1:go_a","",""
"null","","html-keyboard-response","560","875102","0.0-6.0-1.113","","<img src=""img/pink-r.png"" border=""10"">","null","trial","32","","0.6,0.4","1:go_a","1",""
"null","","html-keyboard-response","561","876114","0.0-6.0-2.113","","<div style=""font-size:60px;"">+</div>","null","","","","","","",""
"null","","image-keyboard-response","562","877621","0.0-6.0-0.114","","img/green.png","null","trial","null","true","0.4,0.6","4:nogo_d","",""
"null","","html-keyboard-response","563","878632","0.0-6.0-1.114","","<img src=""img/green-n.png"">","null","trial","null","","0.4,0.6","4:nogo_d","0",""
"null","","html-keyboard-response","564","879642","0.0-6.0-2.114","","<div style=""font-size:60px;"">+</div>","null","","","","","","",""
"318.20499999949243","","image-keyboard-response","565","879961","0.0-6.0-0.115","","img/grey.png","32","trial","null","false","0.4,0.6","2:nogo_b","",""
"null","","html-keyboard-response","566","880971","0.0-6.0-1.115","","<img src=""img/grey-r.png"" border=""10"">","null","trial","null","","0.4,0.6","2:nogo_b","1",""
"null","","html-keyboard-response","567","881978","0.0-6.0-2.115","","<div style=""font-size:60px;"">+</div>","null","","","","","","",""
"588.3100000009872","","image-keyboard-response","568","882567","0.0-6.0-0.116","","img/grey.png","32","trial","null","false","0.4,0.6","2:nogo_b","",""
"null","","html-keyboard-response","569","883579","0.0-6.0-1.116","","<img src=""img/grey-n.png"" border=""10"">","null","trial","null","","0.4,0.6","2:nogo_b","0",""
"null","","html-keyboard-response","570","884591","0.0-6.0-2.116","","<div style=""font-size:60px;"">+</div>","null","","","","","","",""
"840.0249999994412","","image-keyboard-response","571","885432","0.0-6.0-0.117","","img/green.png","32","trial","null","false","0.4,0.6","4:nogo_d","",""
"null","","html-keyboard-response","572","886443","0.0-6.0-1.117","","<img src=""img/green-n.png"" border=""10"">","null","trial","null","","0.4,0.6","4:nogo_d","0",""
"null","","html-keyboard-response","573","887452","0.0-6.0-2.117","","<div style=""font-size:60px;"">+</div>","null","","","","","","",""
"null","","image-keyboard-response","574","888965","0.0-6.0-0.118","","img/blue.png","null","trial","32","false","0.6,0.4","3:go_c","",""
"null","","html-keyboard-response","575","889976","0.0-6.0-1.118","","<img src=""img/blue-n.png"">","null","trial","32","","0.6,0.4","3:go_c","0",""
"null","","html-keyboard-response","576","890985","0.0-6.0-2.118","","<div style=""font-size:60px;"">+</div>","null","","","","","","",""
"488.97500000020955","","image-keyboard-response","577","891475","0.0-6.0-0.119","","img/pink.png","32","trial","32","true","0.6,0.4","1:go_a","",""
"null","","html-keyboard-response","578","892479","0.0-6.0-1.119","","<img src=""img/pink-n.png"" border=""10"">","null","trial","32","","0.6,0.4","1:go_a","0",""
"null","","html-keyboard-response","579","893489","0.0-6.0-2.119","","<div style=""font-size:60px;"">+</div>","null","","","","","","",""
"3229.93500000122","","instructions","580","896719","0.0-7.0","[{""page_index"":0,""viewing_time"":3229.774999999907}]","","","","","","","","",""
"614.0549999999348","","image-keyboard-response","581","897335","0.0-8.0-0.0","","img/red.png","32","trial","32","true","1,0","3:go_c","",""
"null","","html-keyboard-response","582","898351","0.0-8.0-1.0","","<img src=""img/red-r.png"" border=""10"">","null","trial","32","","1,0","3:go_c","1",""
"null","","html-keyboard-response","583","899364","0.0-8.0-2.0","","<div style=""font-size:60px;"">+</div>","null","","","","","","",""
"null","","image-keyboard-response","584","900876","0.0-8.0-0.1","","img/orange.png","null","trial","null","true","0.2,0.8","2:nogo_b","",""
"null","","html-keyboard-response","585","901878","0.0-8.0-1.1","","<img src=""img/orange-r.png"">","null","trial","null","","0.2,0.8","2:nogo_b","1",""
"null","","html-keyboard-response","586","902887","0.0-8.0-2.1","","<div style=""font-size:60px;"">+</div>","null","","","","","","",""
"1059.9000000002561","","image-keyboard-response","587","903948","0.0-8.0-0.2","","img/green.png","32","trial","null","false","0,1","4:nogo_d","",""
"null","","html-keyboard-response","588","904951","0.0-8.0-1.2","","<img src=""img/green-n.png"" border=""10"">","null","trial","null","","0,1","4:nogo_d","0",""
"null","","html-keyboard-response","589","905952","0.0-8.0-2.2","","<div style=""font-size:60px;"">+</div>","null","","","","","","",""
"532.9200000014389","","image-keyboard-response","590","906486","0.0-8.0-0.3","","img/purple.png","32","trial","32","true","0.8,0.2","1:go_a","",""
"null","","html-keyboard-response","591","907494","0.0-8.0-1.3","","<img src=""img/purple-r.png"" border=""10"">","null","trial","32","","0.8,0.2","1:go_a","1",""
"null","","html-keyboard-response","592","908507","0.0-8.0-2.3","","<div style=""font-size:60px;"">+</div>","null","","","","","","",""
"531.0150000004796","","image-keyboard-response","593","909039","0.0-8.0-0.4","","img/red.png","32","trial","32","true","1,0","3:go_c","",""
"null","","html-keyboard-response","594","910047","0.0-8.0-1.4","","<img src=""img/red-r.png"" border=""10"">","null","trial","32","","1,0","3:go_c","1",""
"null","","html-keyboard-response","595","911064","0.0-8.0-2.4","","<div style=""font-size:60px;"">+</div>","null","","","","","","",""
"557.3199999998324","","image-keyboard-response","596","911623","0.0-8.0-0.5","","img/purple.png","32","trial","32","true","0.8,0.2","1:go_a","",""
"null","","html-keyboard-response","597","912639","0.0-8.0-1.5","","<img src=""img/purple-r.png"" border=""10"">","null","trial","32","","0.8,0.2","1:go_a","1",""
"null","","html-keyboard-response","598","913651","0.0-8.0-2.5","","<div style=""font-size:60px;"">+</div>","null","","","","","","",""
"null","","image-keyboard-response","599","915158","0.0-8.0-0.6","","img/orange.png","null","trial","null","true","0.2,0.8","2:nogo_b","",""
"null","","html-keyboard-response","600","916169","0.0-8.0-1.6","","<img src=""img/orange-r.png"">","null","trial","null","","0.2,0.8","2:nogo_b","1",""
"null","","html-keyboard-response","601","917174","0.0-8.0-2.6","","<div style=""font-size:60px;"">+</div>","null","","","","","","",""
"null","","image-keyboard-response","602","918689","0.0-8.0-0.7","","img/green.png","null","trial","null","true","0,1","4:nogo_d","",""
"null","","html-keyboard-response","603","919699","0.0-8.0-1.7","","<img src=""img/green-r.png"">","null","trial","null","","0,1","4:nogo_d","1",""
"null","","html-keyboard-response","604","920709","0.0-8.0-2.7","","<div style=""font-size:60px;"">+</div>","null","","","","","","",""
"872.3449999997392","","image-keyboard-response","605","921582","0.0-8.0-0.8","","img/purple.png","32","trial","32","true","0.8,0.2","1:go_a","",""
"null","","html-keyboard-response","606","922592","0.0-8.0-1.8","","<img src=""img/purple-n.png"" border=""10"">","null","trial","32","","0.8,0.2","1:go_a","0",""
"null","","html-keyboard-response","607","923593","0.0-8.0-2.8","","<div style=""font-size:60px;"">+</div>","null","","","","","","",""
"1004.1700000001583","","image-keyboard-response","608","924598","0.0-8.0-0.9","","img/orange.png","32","trial","null","false","0.2,0.8","2:nogo_b","",""
"null","","html-keyboard-response","609","925603","0.0-8.0-1.9","","<img src=""img/orange-n.png"" border=""10"">","null","trial","null","","0.2,0.8","2:nogo_b","0",""
"null","","html-keyboard-response","610","926604","0.0-8.0-2.9","","<div style=""font-size:60px;"">+</div>","null","","","","","","",""
"null","","image-keyboard-response","611","928119","0.0-8.0-0.10","","img/red.png","null","trial","32","false","1,0","3:go_c","",""
"null","","html-keyboard-response","612","929125","0.0-8.0-1.10","","<img src=""img/red-n.png"">","null","trial","32","","1,0","3:go_c","0",""
"null","","html-keyboard-response","613","930136","0.0-8.0-2.10","","<div style=""font-size:60px;"">+</div>","null","","","","","","",""
"1007.4199999999255","","image-keyboard-response","614","931144","0.0-8.0-0.11","","img/green.png","32","trial","null","false","0,1","4:nogo_d","",""
"null","","html-keyboard-response","615","932152","0.0-8.0-1.11","","<img src=""img/green-n.png"" border=""10"">","null","trial","null","","0,1","4:nogo_d","0",""
"null","","html-keyboard-response","616","933154","0.0-8.0-2.11","","<div style=""font-size:60px;"">+</div>","null","","","","","","",""
"null","","image-keyboard-response","617","934663","0.0-8.0-0.12","","img/orange.png","null","trial","null","true","0.2,0.8","2:nogo_b","",""
"null","","html-keyboard-response","618","935665","0.0-8.0-1.12","","<img src=""img/orange-r.png"">","null","trial","null","","0.2,0.8","2:nogo_b","1",""
"null","","html-keyboard-response","619","936671","0.0-8.0-2.12","","<div style=""font-size:60px;"">+</div>","null","","","","","","",""
"null","","image-keyboard-response","620","938180","0.0-8.0-0.13","","img/green.png","null","trial","null","true","0,1","4:nogo_d","",""
"null","","html-keyboard-response","621","939185","0.0-8.0-1.13","","<img src=""img/green-r.png"">","null","trial","null","","0,1","4:nogo_d","1",""
"null","","html-keyboard-response","622","940187","0.0-8.0-2.13","","<div style=""font-size:60px;"">+</div>","null","","","","","","",""
"402.45999999926426","","image-keyboard-response","623","940590","0.0-8.0-0.14","","img/red.png","32","trial","32","true","1,0","3:go_c","",""
"null","","html-keyboard-response","624","941601","0.0-8.0-1.14","","<img src=""img/red-r.png"" border=""10"">","null","trial","32","","1,0","3:go_c","1",""
"null","","html-keyboard-response","625","942605","0.0-8.0-2.14","","<div style=""font-size:60px;"">+</div>","null","","","","","","",""
"404.0050000003539","","image-keyboard-response","626","943010","0.0-8.0-0.15","","img/purple.png","32","trial","32","true","0.8,0.2","1:go_a","",""
"null","","html-keyboard-response","627","944020","0.0-8.0-1.15","","<img src=""img/purple-n.png"" border=""10"">","null","trial","32","","0.8,0.2","1:go_a","0",""
"null","","html-keyboard-response","628","945026","0.0-8.0-2.15","","<div style=""font-size:60px;"">+</div>","null","","","","","","",""
"null","","image-keyboard-response","629","946533","0.0-8.0-0.16","","img/purple.png","null","trial","32","false","0.8,0.2","1:go_a","",""
"null","","html-keyboard-response","630","947544","0.0-8.0-1.16","","<img src=""img/purple-n.png"">","null","trial","32","","0.8,0.2","1:go_a","0",""
"null","","html-keyboard-response","631","948555","0.0-8.0-2.16","","<div style=""font-size:60px;"">+</div>","null","","","","","","",""
"null","","image-keyboard-response","632","950061","0.0-8.0-0.17","","img/green.png","null","trial","null","true","0,1","4:nogo_d","",""
"null","","html-keyboard-response","633","951075","0.0-8.0-1.17","","<img src=""img/green-r.png"">","null","trial","null","","0,1","4:nogo_d","1",""
"null","","html-keyboard-response","634","952076","0.0-8.0-2.17","","<div style=""font-size:60px;"">+</div>","null","","","","","","",""
"525.5449999986449","","image-keyboard-response","635","952602","0.0-8.0-0.18","","img/red.png","32","trial","32","true","1,0","3:go_c","",""
"null","","html-keyboard-response","636","953607","0.0-8.0-1.18","","<img src=""img/red-r.png"" border=""10"">","null","trial","32","","1,0","3:go_c","1",""
"null","","html-keyboard-response","637","954619","0.0-8.0-2.18","","<div style=""font-size:60px;"">+</div>","null","","","","","","",""
"null","","image-keyboard-response","638","956128","0.0-8.0-0.19","","img/orange.png","null","trial","null","true","0.2,0.8","2:nogo_b","",""
"null","","html-keyboard-response","639","957139","0.0-8.0-1.19","","<img src=""img/orange-r.png"">","null","trial","null","","0.2,0.8","2:nogo_b","1",""
"null","","html-keyboard-response","640","958152","0.0-8.0-2.19","","<div style=""font-size:60px;"">+</div>","null","","","","","","",""
"482.14500000176486","","image-keyboard-response","641","958635","0.0-8.0-0.20","","img/red.png","32","trial","32","true","1,0","3:go_c","",""
"null","","html-keyboard-response","642","959649","0.0-8.0-1.20","","<img src=""img/red-r.png"" border=""10"">","null","trial","32","","1,0","3:go_c","1",""
"null","","html-keyboard-response","643","960658","0.0-8.0-2.20","","<div style=""font-size:60px;"">+</div>","null","","","","","","",""
"949.6699999999255","","image-keyboard-response","644","961608","0.0-8.0-0.21","","img/green.png","32","trial","null","false","0,1","4:nogo_d","",""
"null","","html-keyboard-response","645","962614","0.0-8.0-1.21","","<img src=""img/green-n.png"" border=""10"">","null","trial","null","","0,1","4:nogo_d","0",""
"null","","html-keyboard-response","646","963620","0.0-8.0-2.21","","<div style=""font-size:60px;"">+</div>","null","","","","","","",""
"526.0650000000605","","image-keyboard-response","647","964147","0.0-8.0-0.22","","img/purple.png","32","trial","32","true","0.8,0.2","1:go_a","",""
"null","","html-keyboard-response","648","965152","0.0-8.0-1.22","","<img src=""img/purple-r.png"" border=""10"">","null","trial","32","","0.8,0.2","1:go_a","1",""
"null","","html-keyboard-response","649","966155","0.0-8.0-2.22","","<div style=""font-size:60px;"">+</div>","null","","","","","","",""
"null","","image-keyboard-response","650","967660","0.0-8.0-0.23","","img/orange.png","null","trial","null","true","0.2,0.8","2:nogo_b","",""
"null","","html-keyboard-response","651","968673","0.0-8.0-1.23","","<img src=""img/orange-r.png"">","null","trial","null","","0.2,0.8","2:nogo_b","1",""
"null","","html-keyboard-response","652","969684","0.0-8.0-2.23","","<div style=""font-size:60px;"">+</div>","null","","","","","","",""
"894.589999999851","","image-keyboard-response","653","970579","0.0-8.0-0.24","","img/orange.png","32","trial","null","false","0.2,0.8","2:nogo_b","",""
"null","","html-keyboard-response","654","971586","0.0-8.0-1.24","","<img src=""img/orange-n.png"" border=""10"">","null","trial","null","","0.2,0.8","2:nogo_b","0",""
"null","","html-keyboard-response","655","972590","0.0-8.0-2.24","","<div style=""font-size:60px;"">+</div>","null","","","","","","",""
"577.1599999988684","","image-keyboard-response","656","973168","0.0-8.0-0.25","","img/purple.png","32","trial","32","true","0.8,0.2","1:go_a","",""
"null","","html-keyboard-response","657","974172","0.0-8.0-1.25","","<img src=""img/purple-r.png"" border=""10"">","null","trial","32","","0.8,0.2","1:go_a","1",""
"null","","html-keyboard-response","658","975183","0.0-8.0-2.25","","<div style=""font-size:60px;"">+</div>","null","","","","","","",""
"null","","image-keyboard-response","659","976700","0.0-8.0-0.26","","img/green.png","null","trial","null","true","0,1","4:nogo_d","",""
"null","","html-keyboard-response","660","977709","0.0-8.0-1.26","","<img src=""img/green-r.png"">","null","trial","null","","0,1","4:nogo_d","1",""
"null","","html-keyboard-response","661","978716","0.0-8.0-2.26","","<div style=""font-size:60px;"">+</div>","null","","","","","","",""
"535.875000001397","","image-keyboard-response","662","979253","0.0-8.0-0.27","","img/red.png","32","trial","32","true","1,0","3:go_c","",""
"null","","html-keyboard-response","663","980263","0.0-8.0-1.27","","<img src=""img/red-r.png"" border=""10"">","null","trial","32","","1,0","3:go_c","1",""
"null","","html-keyboard-response","664","981268","0.0-8.0-2.27","","<div style=""font-size:60px;"">+</div>","null","","","","","","",""
"887.9249999989988","","image-keyboard-response","665","982157","0.0-8.0-0.28","","img/red.png","32","trial","32","true","1,0","3:go_c","",""
"null","","html-keyboard-response","666","983169","0.0-8.0-1.28","","<img src=""img/red-r.png"" border=""10"">","null","trial","32","","1,0","3:go_c","1",""
"null","","html-keyboard-response","667","984171","0.0-8.0-2.28","","<div style=""font-size:60px;"">+</div>","null","","","","","","",""
"null","","image-keyboard-response","668","985680","0.0-8.0-0.29","","img/orange.png","null","trial","null","true","0.2,0.8","2:nogo_b","",""
"null","","html-keyboard-response","669","986688","0.0-8.0-1.29","","<img src=""img/orange-r.png"">","null","trial","null","","0.2,0.8","2:nogo_b","1",""
"null","","html-keyboard-response","670","987698","0.0-8.0-2.29","","<div style=""font-size:60px;"">+</div>","null","","","","","","",""
"547.650000000489","","image-keyboard-response","671","988246","0.0-8.0-0.30","","img/purple.png","32","trial","32","true","0.8,0.2","1:go_a","",""
"null","","html-keyboard-response","672","989250","0.0-8.0-1.30","","<img src=""img/purple-r.png"" border=""10"">","null","trial","32","","0.8,0.2","1:go_a","1",""
"null","","html-keyboard-response","673","990260","0.0-8.0-2.30","","<div style=""font-size:60px;"">+</div>","null","","","","","","",""
"null","","image-keyboard-response","674","991764","0.0-8.0-0.31","","img/green.png","null","trial","null","true","0,1","4:nogo_d","",""
"null","","html-keyboard-response","675","992778","0.0-8.0-1.31","","<img src=""img/green-r.png"">","null","trial","null","","0,1","4:nogo_d","1",""
"null","","html-keyboard-response","676","993779","0.0-8.0-2.31","","<div style=""font-size:60px;"">+</div>","null","","","","","","",""
"599.0849999998463","","image-keyboard-response","677","994379","0.0-8.0-0.32","","img/green.png","32","trial","null","false","0,1","4:nogo_d","",""
"null","","html-keyboard-response","678","995388","0.0-8.0-1.32","","<img src=""img/green-n.png"" border=""10"">","null","trial","null","","0,1","4:nogo_d","0",""
"null","","html-keyboard-response","679","996391","0.0-8.0-2.32","","<div style=""font-size:60px;"">+</div>","null","","","","","","",""
