"rt","url","trial_type","trial_index","time_elapsed","internal_node_id","view_history","stimulus","key_press","test_part","correct_response","correct","use_rew","which_stim","reward","responses"
"9588.980000000447","consent.html","external-html","0","9681","0.0-0.0","","","","","","","","","",""
"111914.19000038877","","instructions","1","121595","0.0-1.0","[{""page_index"":0,""viewing_time"":4481.385000050068},{""page_index"":1,""viewing_time"":24137.2350002639},{""page_index"":2,""viewing_time"":8469.064999837428},{""page_index"":3,""viewing_time"":31925.03000004217},{""page_index"":4,""viewing_time"":16045.994999818504},{""page_index"":5,""viewing_time"":9985.3900000453},{""page_index"":6,""viewing_time"":16869.500000029802}]","","","","","","","","",""
"698.8899996504188","","image-keyboard-response","2","122295","0.0-2.0-0.0","","img/test1.PNG","32","practice","32","true","","","",""
"null","","html-keyboard-response","3","123297","0.0-2.0-1.0","","<img src=""img/test1-reward.PNG"" border=""10px; grey"">","null","","","","","","",""
"null","","html-keyboard-response","4","124299","0.0-2.0-2.0","","<div style=""font-size:60px;"">+</div>","null","","","","","","",""
"null","","image-keyboard-response","5","125800","0.0-2.0-0.1","","img/test3.PNG","null","practice","null","true","","","",""
"null","","html-keyboard-response","6","126801","0.0-2.0-1.1","","<img src=""img/test3-reward.PNG"">","null","","","","","","",""
"null","","html-keyboard-response","7","127802","0.0-2.0-2.1","","<div style=""font-size:60px;"">+</div>","null","","","","","","",""
"null","","image-keyboard-response","8","129305","0.0-2.0-0.2","","img/test2.PNG","null","practice","null","true","","","",""
"null","","html-keyboard-response","9","130306","0.0-2.0-1.2","","<img src=""img/test2-reward.PNG"">","null","","","","","","",""
"null","","html-keyboard-response","10","131307","0.0-2.0-2.2","","<div style=""font-size:60px;"">+</div>","null","","","","","","",""
"491.51499988511205","","image-keyboard-response","11","131799","0.0-2.0-0.3","","img/test1.PNG","32","practice","32","true","","","",""
"null","","html-keyboard-response","12","132801","0.0-2.0-1.3","","<img src=""img/test1-reward.PNG"" border=""10px; grey"">","null","","","","","","",""
"null","","html-keyboard-response","13","133801","0.0-2.0-2.3","","<div style=""font-size:60px;"">+</div>","null","","","","","","",""
"null","","image-keyboard-response","14","135303","0.0-2.0-0.4","","img/test3.PNG","null","practice","null","true","","","",""
"null","","html-keyboard-response","15","136304","0.0-2.0-1.4","","<img src=""img/test3-reward.PNG"">","null","","","","","","",""
"null","","html-keyboard-response","16","137305","0.0-2.0-2.4","","<div style=""font-size:60px;"">+</div>","null","","","","","","",""
"null","","image-keyboard-response","17","138807","0.0-2.0-0.5","","img/test2.PNG","null","practice","null","true","","","",""
"null","","html-keyboard-response","18","139808","0.0-2.0-1.5","","<img src=""img/test2-reward.PNG"">","null","","","","","","",""
"null","","html-keyboard-response","19","140810","0.0-2.0-2.5","","<div style=""font-size:60px;"">+</div>","null","","","","","","",""
"null","","image-keyboard-response","20","142311","0.0-2.0-0.6","","img/test3.PNG","null","practice","null","true","","","",""
"null","","html-keyboard-response","21","143312","0.0-2.0-1.6","","<img src=""img/test3-reward.PNG"">","null","","","","","","",""
"null","","html-keyboard-response","22","144313","0.0-2.0-2.6","","<div style=""font-size:60px;"">+</div>","null","","","","","","",""
"477.74000000208616","","image-keyboard-response","23","144792","0.0-2.0-0.7","","img/test1.PNG","32","practice","32","true","","","",""
"null","","html-keyboard-response","24","145802","0.0-2.0-1.7","","<img src=""img/test1-reward.PNG"" border=""10px; grey"">","null","","","","","","",""
"null","","html-keyboard-response","25","146803","0.0-2.0-2.7","","<div style=""font-size:60px;"">+</div>","null","","","","","","",""
"null","","image-keyboard-response","26","148304","0.0-2.0-0.8","","img/test2.PNG","null","practice","null","true","","","",""
"null","","html-keyboard-response","27","149305","0.0-2.0-1.8","","<img src=""img/test2-reward.PNG"">","null","","","","","","",""
"null","","html-keyboard-response","28","150307","0.0-2.0-2.8","","<div style=""font-size:60px;"">+</div>","null","","","","","","",""
"null","","image-keyboard-response","29","151808","0.0-2.0-0.9","","img/test3.PNG","null","practice","null","true","","","",""
"null","","html-keyboard-response","30","152810","0.0-2.0-1.9","","<img src=""img/test3-reward.PNG"">","null","","","","","","",""
"null","","html-keyboard-response","31","153811","0.0-2.0-2.9","","<div style=""font-size:60px;"">+</div>","null","","","","","","",""
"null","","image-keyboard-response","32","155312","0.0-2.0-0.10","","img/test2.PNG","null","practice","null","true","","","",""
"null","","html-keyboard-response","33","156313","0.0-2.0-1.10","","<img src=""img/test2-reward.PNG"">","null","","","","","","",""
"null","","html-keyboard-response","34","157314","0.0-2.0-2.10","","<div style=""font-size:60px;"">+</div>","null","","","","","","",""
"717.4349999986589","","image-keyboard-response","35","158032","0.0-2.0-0.11","","img/test1.PNG","32","practice","32","true","","","",""
"null","","html-keyboard-response","36","159033","0.0-2.0-1.11","","<img src=""img/test1-reward.PNG"" border=""10px; grey"">","null","","","","","","",""
"null","","html-keyboard-response","37","160035","0.0-2.0-2.11","","<div style=""font-size:60px;"">+</div>","null","","","","","","",""
"3437.2649998404086","","instructions","38","163473","0.0-3.0","[{""page_index"":0,""viewing_time"":3437.134999781847}]","","","","","","","","",""
"885.2800000458956","","image-keyboard-response","39","164359","0.0-4.0-0.0","","img/green.png","32","trial","32","true","0.8,0.2","1:go_a","",""
"null","","html-keyboard-response","40","165361","0.0-4.0-1.0","","<img src=""img/green-r.png"" border=""10"">","null","trial","32","","0.8,0.2","1:go_a","1",""
"null","","html-keyboard-response","41","166362","0.0-4.0-2.0","","<div style=""font-size:60px;"">+</div>","null","","","","","","",""
"null","","image-keyboard-response","42","167864","0.0-4.0-0.1","","img/blue.png","null","trial","null","true","0.2,0.8","2:nogo_b","",""
"null","","html-keyboard-response","43","168865","0.0-4.0-1.1","","<img src=""img/blue-r.png"">","null","trial","null","","0.2,0.8","2:nogo_b","1",""
"null","","html-keyboard-response","44","169866","0.0-4.0-2.1","","<div style=""font-size:60px;"">+</div>","null","","","","","","",""
"556.7350001074374","","image-keyboard-response","45","170424","0.0-4.0-0.2","","img/blue.png","32","trial","null","false","0.2,0.8","2:nogo_b","",""
"null","","html-keyboard-response","46","171426","0.0-4.0-1.2","","<img src=""img/blue-n.png"" border=""10"">","null","trial","null","","0.2,0.8","2:nogo_b","0",""
"null","","html-keyboard-response","47","172427","0.0-4.0-2.2","","<div style=""font-size:60px;"">+</div>","null","","","","","","",""
"643.8599997200072","","image-keyboard-response","48","173072","0.0-4.0-0.3","","img/green.png","32","trial","32","true","0.8,0.2","1:go_a","",""
"null","","html-keyboard-response","49","174074","0.0-4.0-1.3","","<img src=""img/green-r.png"" border=""10"">","null","trial","32","","0.8,0.2","1:go_a","1",""
"null","","html-keyboard-response","50","175075","0.0-4.0-2.3","","<div style=""font-size:60px;"">+</div>","null","","","","","","",""
"891.3349998183548","","image-keyboard-response","51","175967","0.0-4.0-0.4","","img/blue.png","32","trial","null","false","0.2,0.8","2:nogo_b","",""
"null","","html-keyboard-response","52","176969","0.0-4.0-1.4","","<img src=""img/blue-n.png"" border=""10"">","null","trial","null","","0.2,0.8","2:nogo_b","0",""
"null","","html-keyboard-response","53","177976","0.0-4.0-2.4","","<div style=""font-size:60px;"">+</div>","null","","","","","","",""
"671.169999986887","","image-keyboard-response","54","178648","0.0-4.0-0.5","","img/green.png","32","trial","32","true","0.8,0.2","1:go_a","",""
"null","","html-keyboard-response","55","179649","0.0-4.0-1.5","","<img src=""img/green-r.png"" border=""10"">","null","trial","32","","0.8,0.2","1:go_a","1",""
"null","","html-keyboard-response","56","180663","0.0-4.0-2.5","","<div style=""font-size:60px;"">+</div>","null","","","","","","",""
"null","","image-keyboard-response","57","182166","0.0-4.0-0.6","","img/blue.png","null","trial","null","true","0.2,0.8","2:nogo_b","",""
"null","","html-keyboard-response","58","183171","0.0-4.0-1.6","","<img src=""img/blue-r.png"">","null","trial","null","","0.2,0.8","2:nogo_b","1",""
"null","","html-keyboard-response","59","184173","0.0-4.0-2.6","","<div style=""font-size:60px;"">+</div>","null","","","","","","",""
"529.7349998727441","","image-keyboard-response","60","184704","0.0-4.0-0.7","","img/green.png","32","trial","32","true","0.8,0.2","1:go_a","",""
"null","","html-keyboard-response","61","185706","0.0-4.0-1.7","","<img src=""img/green-r.png"" border=""10"">","null","trial","32","","0.8,0.2","1:go_a","1",""
"null","","html-keyboard-response","62","186708","0.0-4.0-2.7","","<div style=""font-size:60px;"">+</div>","null","","","","","","",""
"715.6249997206032","","image-keyboard-response","63","187424","0.0-4.0-0.8","","img/green.png","32","trial","32","true","0.8,0.2","1:go_a","",""
"null","","html-keyboard-response","64","188434","0.0-4.0-1.8","","<img src=""img/green-r.png"" border=""10"">","null","trial","32","","0.8,0.2","1:go_a","1",""
"null","","html-keyboard-response","65","189436","0.0-4.0-2.8","","<div style=""font-size:60px;"">+</div>","null","","","","","","",""
"578.914999961853","","image-keyboard-response","66","190016","0.0-4.0-0.9","","img/blue.png","32","trial","null","false","0.2,0.8","2:nogo_b","",""
"null","","html-keyboard-response","67","191017","0.0-4.0-1.9","","<img src=""img/blue-n.png"" border=""10"">","null","trial","null","","0.2,0.8","2:nogo_b","0",""
"null","","html-keyboard-response","68","192018","0.0-4.0-2.9","","<div style=""font-size:60px;"">+</div>","null","","","","","","",""
"860.2450001053512","","image-keyboard-response","69","192879","0.0-4.0-0.10","","img/blue.png","32","trial","null","false","0.2,0.8","2:nogo_b","",""
"null","","html-keyboard-response","70","193882","0.0-4.0-1.10","","<img src=""img/blue-n.png"" border=""10"">","null","trial","null","","0.2,0.8","2:nogo_b","0",""
"null","","html-keyboard-response","71","194885","0.0-4.0-2.10","","<div style=""font-size:60px;"">+</div>","null","","","","","","",""
"506.75000017508864","","image-keyboard-response","72","195392","0.0-4.0-0.11","","img/green.png","32","trial","32","true","0.8,0.2","1:go_a","",""
"null","","html-keyboard-response","73","196393","0.0-4.0-1.11","","<img src=""img/green-n.png"" border=""10"">","null","trial","32","","0.8,0.2","1:go_a","0",""
"null","","html-keyboard-response","74","197394","0.0-4.0-2.11","","<div style=""font-size:60px;"">+</div>","null","","","","","","",""
"620.240000076592","","image-keyboard-response","75","198015","0.0-4.0-0.12","","img/blue.png","32","trial","null","false","0.2,0.8","2:nogo_b","",""
"null","","html-keyboard-response","76","199017","0.0-4.0-1.12","","<img src=""img/blue-r.png"" border=""10"">","null","trial","null","","0.2,0.8","2:nogo_b","1",""
"null","","html-keyboard-response","77","200019","0.0-4.0-2.12","","<div style=""font-size:60px;"">+</div>","null","","","","","","",""
"null","","image-keyboard-response","78","201520","0.0-4.0-0.13","","img/green.png","null","trial","32","false","0.8,0.2","1:go_a","",""
"null","","html-keyboard-response","79","202521","0.0-4.0-1.13","","<img src=""img/green-n.png"">","null","trial","32","","0.8,0.2","1:go_a","0",""
"null","","html-keyboard-response","80","203522","0.0-4.0-2.13","","<div style=""font-size:60px;"">+</div>","null","","","","","","",""
"603.9599999785423","","image-keyboard-response","81","204127","0.0-4.0-0.14","","img/blue.png","32","trial","null","false","0.2,0.8","2:nogo_b","",""
"null","","html-keyboard-response","82","205129","0.0-4.0-1.14","","<img src=""img/blue-n.png"" border=""10"">","null","trial","null","","0.2,0.8","2:nogo_b","0",""
"null","","html-keyboard-response","83","206130","0.0-4.0-2.14","","<div style=""font-size:60px;"">+</div>","null","","","","","","",""
"null","","image-keyboard-response","84","207631","0.0-4.0-0.15","","img/green.png","null","trial","32","false","0.8,0.2","1:go_a","",""
"null","","html-keyboard-response","85","208633","0.0-4.0-1.15","","<img src=""img/green-n.png"">","null","trial","32","","0.8,0.2","1:go_a","0",""
"null","","html-keyboard-response","86","209634","0.0-4.0-2.15","","<div style=""font-size:60px;"">+</div>","null","","","","","","",""
"null","","image-keyboard-response","87","211136","0.0-4.0-0.16","","img/green.png","null","trial","32","false","0.8,0.2","1:go_a","",""
"null","","html-keyboard-response","88","212137","0.0-4.0-1.16","","<img src=""img/green-r.png"">","null","trial","32","","0.8,0.2","1:go_a","1",""
"null","","html-keyboard-response","89","213137","0.0-4.0-2.16","","<div style=""font-size:60px;"">+</div>","null","","","","","","",""
"558.105000294745","","image-keyboard-response","90","213696","0.0-4.0-0.17","","img/blue.png","32","trial","null","false","0.2,0.8","2:nogo_b","",""
"null","","html-keyboard-response","91","214698","0.0-4.0-1.17","","<img src=""img/blue-n.png"" border=""10"">","null","trial","null","","0.2,0.8","2:nogo_b","0",""
"null","","html-keyboard-response","92","215699","0.0-4.0-2.17","","<div style=""font-size:60px;"">+</div>","null","","","","","","",""
"571.944999974221","","image-keyboard-response","93","216272","0.0-4.0-0.18","","img/blue.png","32","trial","null","false","0.2,0.8","2:nogo_b","",""
"null","","html-keyboard-response","94","217273","0.0-4.0-1.18","","<img src=""img/blue-n.png"" border=""10"">","null","trial","null","","0.2,0.8","2:nogo_b","0",""
"null","","html-keyboard-response","95","218275","0.0-4.0-2.18","","<div style=""font-size:60px;"">+</div>","null","","","","","","",""
"483.43500029295683","","image-keyboard-response","96","218759","0.0-4.0-0.19","","img/green.png","32","trial","32","true","0.8,0.2","1:go_a","",""
"null","","html-keyboard-response","97","219761","0.0-4.0-1.19","","<img src=""img/green-r.png"" border=""10"">","null","trial","32","","0.8,0.2","1:go_a","1",""
"null","","html-keyboard-response","98","220763","0.0-4.0-2.19","","<div style=""font-size:60px;"">+</div>","null","","","","","","",""
"null","","image-keyboard-response","99","222264","0.0-4.0-0.20","","img/blue.png","null","trial","null","true","0.2,0.8","2:nogo_b","",""
"null","","html-keyboard-response","100","223266","0.0-4.0-1.20","","<img src=""img/blue-n.png"">","null","trial","null","","0.2,0.8","2:nogo_b","0",""
"null","","html-keyboard-response","101","224267","0.0-4.0-2.20","","<div style=""font-size:60px;"">+</div>","null","","","","","","",""
"395.71999991312623","","image-keyboard-response","102","224664","0.0-4.0-0.21","","img/green.png","32","trial","32","true","0.8,0.2","1:go_a","",""
"null","","html-keyboard-response","103","225665","0.0-4.0-1.21","","<img src=""img/green-r.png"" border=""10"">","null","trial","32","","0.8,0.2","1:go_a","1",""
"null","","html-keyboard-response","104","226666","0.0-4.0-2.21","","<div style=""font-size:60px;"">+</div>","null","","","","","","",""
"572.5600002333522","","image-keyboard-response","105","227239","0.0-4.0-0.22","","img/blue.png","32","trial","null","false","0.2,0.8","2:nogo_b","",""
"null","","html-keyboard-response","106","228241","0.0-4.0-1.22","","<img src=""img/blue-n.png"" border=""10"">","null","trial","null","","0.2,0.8","2:nogo_b","0",""
"null","","html-keyboard-response","107","229242","0.0-4.0-2.22","","<div style=""font-size:60px;"">+</div>","null","","","","","","",""
"444.8249996639788","","image-keyboard-response","108","229688","0.0-4.0-0.23","","img/green.png","32","trial","32","true","0.8,0.2","1:go_a","",""
"null","","html-keyboard-response","109","230690","0.0-4.0-1.23","","<img src=""img/green-n.png"" border=""10"">","null","trial","32","","0.8,0.2","1:go_a","0",""
"null","","html-keyboard-response","110","231691","0.0-4.0-2.23","","<div style=""font-size:60px;"">+</div>","null","","","","","","",""
"507.3249996639788","","image-keyboard-response","111","232199","0.0-4.0-0.24","","img/blue.png","32","trial","null","false","0.2,0.8","2:nogo_b","",""
"null","","html-keyboard-response","112","233200","0.0-4.0-1.24","","<img src=""img/blue-n.png"" border=""10"">","null","trial","null","","0.2,0.8","2:nogo_b","0",""
"null","","html-keyboard-response","113","234202","0.0-4.0-2.24","","<div style=""font-size:60px;"">+</div>","null","","","","","","",""
"null","","image-keyboard-response","114","235703","0.0-4.0-0.25","","img/green.png","null","trial","32","false","0.8,0.2","1:go_a","",""
"null","","html-keyboard-response","115","236704","0.0-4.0-1.25","","<img src=""img/green-n.png"">","null","trial","32","","0.8,0.2","1:go_a","0",""
"null","","html-keyboard-response","116","237706","0.0-4.0-2.25","","<div style=""font-size:60px;"">+</div>","null","","","","","","",""
"347.7799999527633","","image-keyboard-response","117","238055","0.0-4.0-0.26","","img/blue.png","32","trial","null","false","0.2,0.8","2:nogo_b","",""
"null","","html-keyboard-response","118","239056","0.0-4.0-1.26","","<img src=""img/blue-n.png"" border=""10"">","null","trial","null","","0.2,0.8","2:nogo_b","0",""
"null","","html-keyboard-response","119","240060","0.0-4.0-2.26","","<div style=""font-size:60px;"">+</div>","null","","","","","","",""
"null","","image-keyboard-response","120","241561","0.0-4.0-0.27","","img/green.png","null","trial","32","false","0.8,0.2","1:go_a","",""
"null","","html-keyboard-response","121","242563","0.0-4.0-1.27","","<img src=""img/green-n.png"">","null","trial","32","","0.8,0.2","1:go_a","0",""
"null","","html-keyboard-response","122","243564","0.0-4.0-2.27","","<div style=""font-size:60px;"">+</div>","null","","","","","","",""
"378.6550001241267","","image-keyboard-response","123","243943","0.0-4.0-0.28","","img/blue.png","32","trial","null","false","0.2,0.8","2:nogo_b","",""
"null","","html-keyboard-response","124","244945","0.0-4.0-1.28","","<img src=""img/blue-n.png"" border=""10"">","null","trial","null","","0.2,0.8","2:nogo_b","0",""
"null","","html-keyboard-response","125","245946","0.0-4.0-2.28","","<div style=""font-size:60px;"">+</div>","null","","","","","","",""
"null","","image-keyboard-response","126","247448","0.0-4.0-0.29","","img/green.png","null","trial","32","false","0.8,0.2","1:go_a","",""
"null","","html-keyboard-response","127","248449","0.0-4.0-1.29","","<img src=""img/green-n.png"">","null","trial","32","","0.8,0.2","1:go_a","0",""
"null","","html-keyboard-response","128","249450","0.0-4.0-2.29","","<div style=""font-size:60px;"">+</div>","null","","","","","","",""
"null","","image-keyboard-response","129","250951","0.0-4.0-0.30","","img/green.png","null","trial","32","false","0.8,0.2","1:go_a","",""
"null","","html-keyboard-response","130","251952","0.0-4.0-1.30","","<img src=""img/green-n.png"">","null","trial","32","","0.8,0.2","1:go_a","0",""
"null","","html-keyboard-response","131","252954","0.0-4.0-2.30","","<div style=""font-size:60px;"">+</div>","null","","","","","","",""
"null","","image-keyboard-response","132","254455","0.0-4.0-0.31","","img/blue.png","null","trial","null","true","0.2,0.8","2:nogo_b","",""
"null","","html-keyboard-response","133","255457","0.0-4.0-1.31","","<img src=""img/blue-n.png"">","null","trial","null","","0.2,0.8","2:nogo_b","0",""
"null","","html-keyboard-response","134","256458","0.0-4.0-2.31","","<div style=""font-size:60px;"">+</div>","null","","","","","","",""
"797.0699998550117","","image-keyboard-response","135","257256","0.0-4.0-0.32","","img/blue.png","32","trial","null","false","0.2,0.8","2:nogo_b","",""
"null","","html-keyboard-response","136","258257","0.0-4.0-1.32","","<img src=""img/blue-n.png"" border=""10"">","null","trial","null","","0.2,0.8","2:nogo_b","0",""
"null","","html-keyboard-response","137","259259","0.0-4.0-2.32","","<div style=""font-size:60px;"">+</div>","null","","","","","","",""
"null","","image-keyboard-response","138","260760","0.0-4.0-0.33","","img/green.png","null","trial","32","false","0.8,0.2","1:go_a","",""
"null","","html-keyboard-response","139","261762","0.0-4.0-1.33","","<img src=""img/green-n.png"">","null","trial","32","","0.8,0.2","1:go_a","0",""
"null","","html-keyboard-response","140","262762","0.0-4.0-2.33","","<div style=""font-size:60px;"">+</div>","null","","","","","","",""
"null","","image-keyboard-response","141","264264","0.0-4.0-0.34","","img/blue.png","null","trial","null","true","0.2,0.8","2:nogo_b","",""
"null","","html-keyboard-response","142","265266","0.0-4.0-1.34","","<img src=""img/blue-r.png"">","null","trial","null","","0.2,0.8","2:nogo_b","1",""
"null","","html-keyboard-response","143","266275","0.0-4.0-2.34","","<div style=""font-size:60px;"">+</div>","null","","","","","","",""
"null","","image-keyboard-response","144","267777","0.0-4.0-0.35","","img/green.png","null","trial","32","false","0.8,0.2","1:go_a","",""
"null","","html-keyboard-response","145","268779","0.0-4.0-1.35","","<img src=""img/green-r.png"">","null","trial","32","","0.8,0.2","1:go_a","1",""
"null","","html-keyboard-response","146","269780","0.0-4.0-2.35","","<div style=""font-size:60px;"">+</div>","null","","","","","","",""
"755.1699997857213","","image-keyboard-response","147","270536","0.0-4.0-0.36","","img/green.png","32","trial","32","true","0.8,0.2","1:go_a","",""
"null","","html-keyboard-response","148","271537","0.0-4.0-1.36","","<img src=""img/green-r.png"" border=""10"">","null","trial","32","","0.8,0.2","1:go_a","1",""
"null","","html-keyboard-response","149","272538","0.0-4.0-2.36","","<div style=""font-size:60px;"">+</div>","null","","","","","","",""
"444.69999987632036","","image-keyboard-response","150","272984","0.0-4.0-0.37","","img/blue.png","32","trial","null","false","0.2,0.8","2:nogo_b","",""
"null","","html-keyboard-response","151","273985","0.0-4.0-1.37","","<img src=""img/blue-n.png"" border=""10"">","null","trial","null","","0.2,0.8","2:nogo_b","0",""
"null","","html-keyboard-response","152","274986","0.0-4.0-2.37","","<div style=""font-size:60px;"">+</div>","null","","","","","","",""
"788.6899998411536","","image-keyboard-response","153","275776","0.0-4.0-0.38","","img/green.png","32","trial","32","true","0.8,0.2","1:go_a","",""
"null","","html-keyboard-response","154","276777","0.0-4.0-1.38","","<img src=""img/green-r.png"" border=""10"">","null","trial","32","","0.8,0.2","1:go_a","1",""
"null","","html-keyboard-response","155","277779","0.0-4.0-2.38","","<div style=""font-size:60px;"">+</div>","null","","","","","","",""
"null","","image-keyboard-response","156","279280","0.0-4.0-0.39","","img/blue.png","null","trial","null","true","0.2,0.8","2:nogo_b","",""
"null","","html-keyboard-response","157","280282","0.0-4.0-1.39","","<img src=""img/blue-r.png"">","null","trial","null","","0.2,0.8","2:nogo_b","1",""
"null","","html-keyboard-response","158","281283","0.0-4.0-2.39","","<div style=""font-size:60px;"">+</div>","null","","","","","","",""
"460.34500002861023","","image-keyboard-response","159","281744","0.0-4.0-0.40","","img/green.png","32","trial","32","true","0.8,0.2","1:go_a","",""
"null","","html-keyboard-response","160","282746","0.0-4.0-1.40","","<img src=""img/green-r.png"" border=""10"">","null","trial","32","","0.8,0.2","1:go_a","1",""
"null","","html-keyboard-response","161","283748","0.0-4.0-2.40","","<div style=""font-size:60px;"">+</div>","null","","","","","","",""
"null","","image-keyboard-response","162","285249","0.0-4.0-0.41","","img/blue.png","null","trial","null","true","0.2,0.8","2:nogo_b","",""
"null","","html-keyboard-response","163","286250","0.0-4.0-1.41","","<img src=""img/blue-r.png"">","null","trial","null","","0.2,0.8","2:nogo_b","1",""
"null","","html-keyboard-response","164","287251","0.0-4.0-2.41","","<div style=""font-size:60px;"">+</div>","null","","","","","","",""
"411.3950002938509","","image-keyboard-response","165","287663","0.0-4.0-0.42","","img/green.png","32","trial","32","true","0.8,0.2","1:go_a","",""
"null","","html-keyboard-response","166","288665","0.0-4.0-1.42","","<img src=""img/green-r.png"" border=""10"">","null","trial","32","","0.8,0.2","1:go_a","1",""
"null","","html-keyboard-response","167","289667","0.0-4.0-2.42","","<div style=""font-size:60px;"">+</div>","null","","","","","","",""
"467.59000001475215","","image-keyboard-response","168","290135","0.0-4.0-0.43","","img/blue.png","32","trial","null","false","0.2,0.8","2:nogo_b","",""
"null","","html-keyboard-response","169","291138","0.0-4.0-1.43","","<img src=""img/blue-n.png"" border=""10"">","null","trial","null","","0.2,0.8","2:nogo_b","0",""
"null","","html-keyboard-response","170","292140","0.0-4.0-2.43","","<div style=""font-size:60px;"">+</div>","null","","","","","","",""
"833.1900001503527","","image-keyboard-response","171","292975","0.0-4.0-0.44","","img/blue.png","32","trial","null","false","0.2,0.8","2:nogo_b","",""
"null","","html-keyboard-response","172","293976","0.0-4.0-1.44","","<img src=""img/blue-n.png"" border=""10"">","null","trial","null","","0.2,0.8","2:nogo_b","0",""
"null","","html-keyboard-response","173","294977","0.0-4.0-2.44","","<div style=""font-size:60px;"">+</div>","null","","","","","","",""
"357.06999991089106","","image-keyboard-response","174","295335","0.0-4.0-0.45","","img/green.png","32","trial","32","true","0.8,0.2","1:go_a","",""
"null","","html-keyboard-response","175","296336","0.0-4.0-1.45","","<img src=""img/green-n.png"" border=""10"">","null","trial","32","","0.8,0.2","1:go_a","0",""
"null","","html-keyboard-response","176","297337","0.0-4.0-2.45","","<div style=""font-size:60px;"">+</div>","null","","","","","","",""
"null","","image-keyboard-response","177","298839","0.0-4.0-0.46","","img/green.png","null","trial","32","false","0.8,0.2","1:go_a","",""
"null","","html-keyboard-response","178","299841","0.0-4.0-1.46","","<img src=""img/green-n.png"">","null","trial","32","","0.8,0.2","1:go_a","0",""
"null","","html-keyboard-response","179","300842","0.0-4.0-2.46","","<div style=""font-size:60px;"">+</div>","null","","","","","","",""
"419.9250000528991","","image-keyboard-response","180","301262","0.0-4.0-0.47","","img/blue.png","32","trial","null","false","0.2,0.8","2:nogo_b","",""
"null","","html-keyboard-response","181","302264","0.0-4.0-1.47","","<img src=""img/blue-r.png"" border=""10"">","null","trial","null","","0.2,0.8","2:nogo_b","1",""
"null","","html-keyboard-response","182","303265","0.0-4.0-2.47","","<div style=""font-size:60px;"">+</div>","null","","","","","","",""
"null","","image-keyboard-response","183","304767","0.0-4.0-0.48","","img/green.png","null","trial","32","false","0.8,0.2","1:go_a","",""
"null","","html-keyboard-response","184","305769","0.0-4.0-1.48","","<img src=""img/green-n.png"">","null","trial","32","","0.8,0.2","1:go_a","0",""
"null","","html-keyboard-response","185","306769","0.0-4.0-2.48","","<div style=""font-size:60px;"">+</div>","null","","","","","","",""
"445.42500004172325","","image-keyboard-response","186","307215","0.0-4.0-0.49","","img/blue.png","32","trial","null","false","0.2,0.8","2:nogo_b","",""
"null","","html-keyboard-response","187","308216","0.0-4.0-1.49","","<img src=""img/blue-r.png"" border=""10"">","null","trial","null","","0.2,0.8","2:nogo_b","1",""
"null","","html-keyboard-response","188","309217","0.0-4.0-2.49","","<div style=""font-size:60px;"">+</div>","null","","","","","","",""
"null","","image-keyboard-response","189","310719","0.0-4.0-0.50","","img/green.png","null","trial","32","false","0.8,0.2","1:go_a","",""
"null","","html-keyboard-response","190","311720","0.0-4.0-1.50","","<img src=""img/green-n.png"">","null","trial","32","","0.8,0.2","1:go_a","0",""
"null","","html-keyboard-response","191","312721","0.0-4.0-2.50","","<div style=""font-size:60px;"">+</div>","null","","","","","","",""
"277.5599998421967","","image-keyboard-response","192","312999","0.0-4.0-0.51","","img/blue.png","32","trial","null","false","0.2,0.8","2:nogo_b","",""
"null","","html-keyboard-response","193","314009","0.0-4.0-1.51","","<img src=""img/blue-n.png"" border=""10"">","null","trial","null","","0.2,0.8","2:nogo_b","0",""
"null","","html-keyboard-response","194","315010","0.0-4.0-2.51","","<div style=""font-size:60px;"">+</div>","null","","","","","","",""
"null","","image-keyboard-response","195","316512","0.0-4.0-0.52","","img/blue.png","null","trial","null","true","0.2,0.8","2:nogo_b","",""
"null","","html-keyboard-response","196","317514","0.0-4.0-1.52","","<img src=""img/blue-n.png"">","null","trial","null","","0.2,0.8","2:nogo_b","0",""
"null","","html-keyboard-response","197","318517","0.0-4.0-2.52","","<div style=""font-size:60px;"">+</div>","null","","","","","","",""
"546.2850001640618","","image-keyboard-response","198","319063","0.0-4.0-0.53","","img/green.png","32","trial","32","true","0.8,0.2","1:go_a","",""
"null","","html-keyboard-response","199","320065","0.0-4.0-1.53","","<img src=""img/green-r.png"" border=""10"">","null","trial","32","","0.8,0.2","1:go_a","1",""
"null","","html-keyboard-response","200","321067","0.0-4.0-2.53","","<div style=""font-size:60px;"">+</div>","null","","","","","","",""
"819.7750002145767","","image-keyboard-response","201","321887","0.0-4.0-0.54","","img/green.png","32","trial","32","true","0.8,0.2","1:go_a","",""
"null","","html-keyboard-response","202","322904","0.0-4.0-1.54","","<img src=""img/green-r.png"" border=""10"">","null","trial","32","","0.8,0.2","1:go_a","1",""
"null","","html-keyboard-response","203","323906","0.0-4.0-2.54","","<div style=""font-size:60px;"">+</div>","null","","","","","","",""
"null","","image-keyboard-response","204","325408","0.0-4.0-0.55","","img/blue.png","null","trial","null","true","0.2,0.8","2:nogo_b","",""
"null","","html-keyboard-response","205","326409","0.0-4.0-1.55","","<img src=""img/blue-r.png"">","null","trial","null","","0.2,0.8","2:nogo_b","1",""
"null","","html-keyboard-response","206","327411","0.0-4.0-2.55","","<div style=""font-size:60px;"">+</div>","null","","","","","","",""
"null","","image-keyboard-response","207","328913","0.0-4.0-0.56","","img/green.png","null","trial","32","false","0.8,0.2","1:go_a","",""
"null","","html-keyboard-response","208","329914","0.0-4.0-1.56","","<img src=""img/green-n.png"">","null","trial","32","","0.8,0.2","1:go_a","0",""
"null","","html-keyboard-response","209","330916","0.0-4.0-2.56","","<div style=""font-size:60px;"">+</div>","null","","","","","","",""
"585.8450001105666","","image-keyboard-response","210","331503","0.0-4.0-0.57","","img/blue.png","32","trial","null","false","0.2,0.8","2:nogo_b","",""
"null","","html-keyboard-response","211","332506","0.0-4.0-1.57","","<img src=""img/blue-n.png"" border=""10"">","null","trial","null","","0.2,0.8","2:nogo_b","0",""
"null","","html-keyboard-response","212","333507","0.0-4.0-2.57","","<div style=""font-size:60px;"">+</div>","null","","","","","","",""
"null","","image-keyboard-response","213","335008","0.0-4.0-0.58","","img/green.png","null","trial","32","false","0.8,0.2","1:go_a","",""
"null","","html-keyboard-response","214","336010","0.0-4.0-1.58","","<img src=""img/green-n.png"">","null","trial","32","","0.8,0.2","1:go_a","0",""
"null","","html-keyboard-response","215","337010","0.0-4.0-2.58","","<div style=""font-size:60px;"">+</div>","null","","","","","","",""
"580.0099996849895","","image-keyboard-response","216","337591","0.0-4.0-0.59","","img/blue.png","32","trial","null","false","0.2,0.8","2:nogo_b","",""
"null","","html-keyboard-response","217","338593","0.0-4.0-1.59","","<img src=""img/blue-n.png"" border=""10"">","null","trial","null","","0.2,0.8","2:nogo_b","0",""
"null","","html-keyboard-response","218","339595","0.0-4.0-2.59","","<div style=""font-size:60px;"">+</div>","null","","","","","","",""
"3548.554999753833","","instructions","219","343144","0.0-5.0","[{""page_index"":0,""viewing_time"":3548.4749996103346}]","","","","","","","","",""
"1407.134999986738","","image-keyboard-response","220","344552","0.0-6.0-0.0","","img/blue.png","32","trial","32","true","0.6,0.4","1:go_a","",""
"null","","html-keyboard-response","221","345553","0.0-6.0-1.0","","<img src=""img/blue-r.png"" border=""10"">","null","trial","32","","0.6,0.4","1:go_a","1",""
"null","","html-keyboard-response","222","346554","0.0-6.0-2.0","","<div style=""font-size:60px;"">+</div>","null","","","","","","",""
"1228.7649996578693","","image-keyboard-response","223","347784","0.0-6.0-0.1","","img/red.png","32","trial","32","true","0.6,0.4","3:go_c","",""
"null","","html-keyboard-response","224","348785","0.0-6.0-1.1","","<img src=""img/red-n.png"" border=""10"">","null","trial","32","","0.6,0.4","3:go_c","0",""
"null","","html-keyboard-response","225","349786","0.0-6.0-2.1","","<div style=""font-size:60px;"">+</div>","null","","","","","","",""
"1252.9450003057718","","image-keyboard-response","226","351040","0.0-6.0-0.2","","img/purple.png","32","trial","null","false","0.4,0.6","2:nogo_b","",""
"null","","html-keyboard-response","227","352041","0.0-6.0-1.2","","<img src=""img/purple-n.png"" border=""10"">","null","trial","null","","0.4,0.6","2:nogo_b","0",""
"null","","html-keyboard-response","228","353042","0.0-6.0-2.2","","<div style=""font-size:60px;"">+</div>","null","","","","","","",""
"1012.5049999915063","","image-keyboard-response","229","354055","0.0-6.0-0.3","","img/orange.png","32","trial","null","false","0.4,0.6","4:nogo_d","",""
"null","","html-keyboard-response","230","355056","0.0-6.0-1.3","","<img src=""img/orange-n.png"" border=""10"">","null","trial","null","","0.4,0.6","4:nogo_d","0",""
"null","","html-keyboard-response","231","356057","0.0-6.0-2.3","","<div style=""font-size:60px;"">+</div>","null","","","","","","",""
"null","","image-keyboard-response","232","357559","0.0-6.0-0.4","","img/orange.png","null","trial","null","true","0.4,0.6","4:nogo_d","",""
"null","","html-keyboard-response","233","358560","0.0-6.0-1.4","","<img src=""img/orange-n.png"">","null","trial","null","","0.4,0.6","4:nogo_d","0",""
"null","","html-keyboard-response","234","359563","0.0-6.0-2.4","","<div style=""font-size:60px;"">+</div>","null","","","","","","",""
"null","","image-keyboard-response","235","361065","0.0-6.0-0.5","","img/red.png","null","trial","32","false","0.6,0.4","3:go_c","",""
"null","","html-keyboard-response","236","362066","0.0-6.0-1.5","","<img src=""img/red-n.png"">","null","trial","32","","0.6,0.4","3:go_c","0",""
"null","","html-keyboard-response","237","363068","0.0-6.0-2.5","","<div style=""font-size:60px;"">+</div>","null","","","","","","",""
"null","","image-keyboard-response","238","364570","0.0-6.0-0.6","","img/purple.png","null","trial","null","true","0.4,0.6","2:nogo_b","",""
"null","","html-keyboard-response","239","365571","0.0-6.0-1.6","","<img src=""img/purple-r.png"">","null","trial","null","","0.4,0.6","2:nogo_b","1",""
"null","","html-keyboard-response","240","366572","0.0-6.0-2.6","","<div style=""font-size:60px;"">+</div>","null","","","","","","",""
"553.7800001911819","","image-keyboard-response","241","367127","0.0-6.0-0.7","","img/blue.png","32","trial","32","true","0.6,0.4","1:go_a","",""
"null","","html-keyboard-response","242","368129","0.0-6.0-1.7","","<img src=""img/blue-r.png"" border=""10"">","null","trial","32","","0.6,0.4","1:go_a","1",""
"null","","html-keyboard-response","243","369130","0.0-6.0-2.7","","<div style=""font-size:60px;"">+</div>","null","","","","","","",""
"732.4449997395277","","image-keyboard-response","244","369863","0.0-6.0-0.8","","img/purple.png","32","trial","null","false","0.4,0.6","2:nogo_b","",""
"null","","html-keyboard-response","245","370865","0.0-6.0-1.8","","<img src=""img/purple-n.png"" border=""10"">","null","trial","null","","0.4,0.6","2:nogo_b","0",""
"null","","html-keyboard-response","246","371866","0.0-6.0-2.8","","<div style=""font-size:60px;"">+</div>","null","","","","","","",""
"null","","image-keyboard-response","247","373368","0.0-6.0-0.9","","img/red.png","null","trial","32","false","0.6,0.4","3:go_c","",""
"null","","html-keyboard-response","248","374370","0.0-6.0-1.9","","<img src=""img/red-n.png"">","null","trial","32","","0.6,0.4","3:go_c","0",""
"null","","html-keyboard-response","249","375371","0.0-6.0-2.9","","<div style=""font-size:60px;"">+</div>","null","","","","","","",""
"796.074999962002","","image-keyboard-response","250","376168","0.0-6.0-0.10","","img/blue.png","32","trial","32","true","0.6,0.4","1:go_a","",""
"null","","html-keyboard-response","251","377169","0.0-6.0-1.10","","<img src=""img/blue-r.png"" border=""10"">","null","trial","32","","0.6,0.4","1:go_a","1",""
"null","","html-keyboard-response","252","378170","0.0-6.0-2.10","","<div style=""font-size:60px;"">+</div>","null","","","","","","",""
"null","","image-keyboard-response","253","379671","0.0-6.0-0.11","","img/orange.png","null","trial","null","true","0.4,0.6","4:nogo_d","",""
"null","","html-keyboard-response","254","380672","0.0-6.0-1.11","","<img src=""img/orange-r.png"">","null","trial","null","","0.4,0.6","4:nogo_d","1",""
"null","","html-keyboard-response","255","381674","0.0-6.0-2.11","","<div style=""font-size:60px;"">+</div>","null","","","","","","",""
"null","","image-keyboard-response","256","383175","0.0-6.0-0.12","","img/purple.png","null","trial","null","true","0.4,0.6","2:nogo_b","",""
"null","","html-keyboard-response","257","384177","0.0-6.0-1.12","","<img src=""img/purple-r.png"">","null","trial","null","","0.4,0.6","2:nogo_b","1",""
"null","","html-keyboard-response","258","385178","0.0-6.0-2.12","","<div style=""font-size:60px;"">+</div>","null","","","","","","",""
"null","","image-keyboard-response","259","386680","0.0-6.0-0.13","","img/orange.png","null","trial","null","true","0.4,0.6","4:nogo_d","",""
"null","","html-keyboard-response","260","387681","0.0-6.0-1.13","","<img src=""img/orange-r.png"">","null","trial","null","","0.4,0.6","4:nogo_d","1",""
"null","","html-keyboard-response","261","388683","0.0-6.0-2.13","","<div style=""font-size:60px;"">+</div>","null","","","","","","",""
"900.409999769181","","image-keyboard-response","262","389584","0.0-6.0-0.14","","img/blue.png","32","trial","32","true","0.6,0.4","1:go_a","",""
"null","","html-keyboard-response","263","390585","0.0-6.0-1.14","","<img src=""img/blue-r.png"" border=""10"">","null","trial","32","","0.6,0.4","1:go_a","1",""
"null","","html-keyboard-response","264","391586","0.0-6.0-2.14","","<div style=""font-size:60px;"">+</div>","null","","","","","","",""
"948.7350000999868","","image-keyboard-response","265","392536","0.0-6.0-0.15","","img/red.png","32","trial","32","true","0.6,0.4","3:go_c","",""
"null","","html-keyboard-response","266","393537","0.0-6.0-1.15","","<img src=""img/red-n.png"" border=""10"">","null","trial","32","","0.6,0.4","3:go_c","0",""
"null","","html-keyboard-response","267","394539","0.0-6.0-2.15","","<div style=""font-size:60px;"">+</div>","null","","","","","","",""
"null","","image-keyboard-response","268","396041","0.0-6.0-0.16","","img/red.png","null","trial","32","false","0.6,0.4","3:go_c","",""
"null","","html-keyboard-response","269","397043","0.0-6.0-1.16","","<img src=""img/red-n.png"">","null","trial","32","","0.6,0.4","3:go_c","0",""
"null","","html-keyboard-response","270","398043","0.0-6.0-2.16","","<div style=""font-size:60px;"">+</div>","null","","","","","","",""
"827.6149998418987","","image-keyboard-response","271","398872","0.0-6.0-0.17","","img/orange.png","32","trial","null","false","0.4,0.6","4:nogo_d","",""
"null","","html-keyboard-response","272","399873","0.0-6.0-1.17","","<img src=""img/orange-r.png"" border=""10"">","null","trial","null","","0.4,0.6","4:nogo_d","1",""
"null","","html-keyboard-response","273","400873","0.0-6.0-2.17","","<div style=""font-size:60px;"">+</div>","null","","","","","","",""
"701.6050000675023","","image-keyboard-response","274","401576","0.0-6.0-0.18","","img/purple.png","32","trial","null","false","0.4,0.6","2:nogo_b","",""
"null","","html-keyboard-response","275","402578","0.0-6.0-1.18","","<img src=""img/purple-r.png"" border=""10"">","null","trial","null","","0.4,0.6","2:nogo_b","1",""
"null","","html-keyboard-response","276","403579","0.0-6.0-2.18","","<div style=""font-size:60px;"">+</div>","null","","","","","","",""
"659.9100003950298","","image-keyboard-response","277","404240","0.0-6.0-0.19","","img/blue.png","32","trial","32","true","0.6,0.4","1:go_a","",""
"null","","html-keyboard-response","278","405242","0.0-6.0-1.19","","<img src=""img/blue-r.png"" border=""10"">","null","trial","32","","0.6,0.4","1:go_a","1",""
"null","","html-keyboard-response","279","406243","0.0-6.0-2.19","","<div style=""font-size:60px;"">+</div>","null","","","","","","",""
"908.2700000144541","","image-keyboard-response","280","407151","0.0-6.0-0.20","","img/purple.png","32","trial","null","false","0.4,0.6","2:nogo_b","",""
"null","","html-keyboard-response","281","408154","0.0-6.0-1.20","","<img src=""img/purple-n.png"" border=""10"">","null","trial","null","","0.4,0.6","2:nogo_b","0",""
"null","","html-keyboard-response","282","409156","0.0-6.0-2.20","","<div style=""font-size:60px;"">+</div>","null","","","","","","",""
"515.2549999766052","","image-keyboard-response","283","409672","0.0-6.0-0.21","","img/orange.png","32","trial","null","false","0.4,0.6","4:nogo_d","",""
"null","","html-keyboard-response","284","410673","0.0-6.0-1.21","","<img src=""img/orange-n.png"" border=""10"">","null","trial","null","","0.4,0.6","4:nogo_d","0",""
"null","","html-keyboard-response","285","411674","0.0-6.0-2.21","","<div style=""font-size:60px;"">+</div>","null","","","","","","",""
"741.1550004035234","","image-keyboard-response","286","412415","0.0-6.0-0.22","","img/blue.png","32","trial","32","true","0.6,0.4","1:go_a","",""
"null","","html-keyboard-response","287","413417","0.0-6.0-1.22","","<img src=""img/blue-r.png"" border=""10"">","null","trial","32","","0.6,0.4","1:go_a","1",""
"null","","html-keyboard-response","288","414418","0.0-6.0-2.22","","<div style=""font-size:60px;"">+</div>","null","","","","","","",""
"876.1899997480214","","image-keyboard-response","289","415295","0.0-6.0-0.23","","img/red.png","32","trial","32","true","0.6,0.4","3:go_c","",""
"null","","html-keyboard-response","290","416296","0.0-6.0-1.23","","<img src=""img/red-n.png"" border=""10"">","null","trial","32","","0.6,0.4","3:go_c","0",""
"null","","html-keyboard-response","291","417298","0.0-6.0-2.23","","<div style=""font-size:60px;"">+</div>","null","","","","","","",""
"null","","image-keyboard-response","292","418799","0.0-6.0-0.24","","img/purple.png","null","trial","null","true","0.4,0.6","2:nogo_b","",""
"null","","html-keyboard-response","293","419801","0.0-6.0-1.24","","<img src=""img/purple-r.png"">","null","trial","null","","0.4,0.6","2:nogo_b","1",""
"null","","html-keyboard-response","294","420802","0.0-6.0-2.24","","<div style=""font-size:60px;"">+</div>","null","","","","","","",""
"null","","image-keyboard-response","295","422304","0.0-6.0-0.25","","img/red.png","null","trial","32","false","0.6,0.4","3:go_c","",""
"null","","html-keyboard-response","296","423305","0.0-6.0-1.25","","<img src=""img/red-r.png"">","null","trial","32","","0.6,0.4","3:go_c","1",""
"null","","html-keyboard-response","297","424306","0.0-6.0-2.25","","<div style=""font-size:60px;"">+</div>","null","","","","","","",""
"653.3699999563396","","image-keyboard-response","298","424960","0.0-6.0-0.26","","img/blue.png","32","trial","32","true","0.6,0.4","1:go_a","",""
"null","","html-keyboard-response","299","425962","0.0-6.0-1.26","","<img src=""img/blue-n.png"" border=""10"">","null","trial","32","","0.6,0.4","1:go_a","0",""
"null","","html-keyboard-response","300","426962","0.0-6.0-2.26","","<div style=""font-size:60px;"">+</div>","null","","","","","","",""
"1028.4599997103214","","image-keyboard-response","301","427991","0.0-6.0-0.27","","img/orange.png","32","trial","null","false","0.4,0.6","4:nogo_d","",""
"null","","html-keyboard-response","302","428993","0.0-6.0-1.27","","<img src=""img/orange-r.png"" border=""10"">","null","trial","null","","0.4,0.6","4:nogo_d","1",""
"null","","html-keyboard-response","303","429997","0.0-6.0-2.27","","<div style=""font-size:60px;"">+</div>","null","","","","","","",""
"785.2799999527633","","image-keyboard-response","304","430783","0.0-6.0-0.28","","img/purple.png","32","trial","null","false","0.4,0.6","2:nogo_b","",""
"null","","html-keyboard-response","305","431786","0.0-6.0-1.28","","<img src=""img/purple-n.png"" border=""10"">","null","trial","null","","0.4,0.6","2:nogo_b","0",""
"null","","html-keyboard-response","306","432787","0.0-6.0-2.28","","<div style=""font-size:60px;"">+</div>","null","","","","","","",""
"484.03500020504","","image-keyboard-response","307","433271","0.0-6.0-0.29","","img/red.png","32","trial","32","true","0.6,0.4","3:go_c","",""
"null","","html-keyboard-response","308","434273","0.0-6.0-1.29","","<img src=""img/red-r.png"" border=""10"">","null","trial","32","","0.6,0.4","3:go_c","1",""
"null","","html-keyboard-response","309","435274","0.0-6.0-2.29","","<div style=""font-size:60px;"">+</div>","null","","","","","","",""
"null","","image-keyboard-response","310","436775","0.0-6.0-0.30","","img/blue.png","null","trial","32","false","0.6,0.4","1:go_a","",""
"null","","html-keyboard-response","311","437776","0.0-6.0-1.30","","<img src=""img/blue-n.png"">","null","trial","32","","0.6,0.4","1:go_a","0",""
"null","","html-keyboard-response","312","438777","0.0-6.0-2.30","","<div style=""font-size:60px;"">+</div>","null","","","","","","",""
"646.0750000551343","","image-keyboard-response","313","439424","0.0-6.0-0.31","","img/orange.png","32","trial","null","false","0.4,0.6","4:nogo_d","",""
"null","","html-keyboard-response","314","440426","0.0-6.0-1.31","","<img src=""img/orange-r.png"" border=""10"">","null","trial","null","","0.4,0.6","4:nogo_d","1",""
"null","","html-keyboard-response","315","441427","0.0-6.0-2.31","","<div style=""font-size:60px;"">+</div>","null","","","","","","",""
"null","","image-keyboard-response","316","442928","0.0-6.0-0.32","","img/blue.png","null","trial","32","false","0.6,0.4","1:go_a","",""
"null","","html-keyboard-response","317","443929","0.0-6.0-1.32","","<img src=""img/blue-n.png"">","null","trial","32","","0.6,0.4","1:go_a","0",""
"null","","html-keyboard-response","318","444930","0.0-6.0-2.32","","<div style=""font-size:60px;"">+</div>","null","","","","","","",""
"908.6899999529123","","image-keyboard-response","319","445839","0.0-6.0-0.33","","img/orange.png","32","trial","null","false","0.4,0.6","4:nogo_d","",""
"null","","html-keyboard-response","320","446841","0.0-6.0-1.33","","<img src=""img/orange-n.png"" border=""10"">","null","trial","null","","0.4,0.6","4:nogo_d","0",""
"null","","html-keyboard-response","321","447842","0.0-6.0-2.33","","<div style=""font-size:60px;"">+</div>","null","","","","","","",""
"572.4050002172589","","image-keyboard-response","322","448415","0.0-6.0-0.34","","img/red.png","32","trial","32","true","0.6,0.4","3:go_c","",""
"null","","html-keyboard-response","323","449416","0.0-6.0-1.34","","<img src=""img/red-r.png"" border=""10"">","null","trial","32","","0.6,0.4","3:go_c","1",""
"null","","html-keyboard-response","324","450417","0.0-6.0-2.34","","<div style=""font-size:60px;"">+</div>","null","","","","","","",""
"821.7550003901124","","image-keyboard-response","325","451240","0.0-6.0-0.35","","img/purple.png","32","trial","null","false","0.4,0.6","2:nogo_b","",""
"null","","html-keyboard-response","326","452242","0.0-6.0-1.35","","<img src=""img/purple-r.png"" border=""10"">","null","trial","null","","0.4,0.6","2:nogo_b","1",""
"null","","html-keyboard-response","327","453243","0.0-6.0-2.35","","<div style=""font-size:60px;"">+</div>","null","","","","","","",""
"835.8200001530349","","image-keyboard-response","328","454079","0.0-6.0-0.36","","img/red.png","32","trial","32","true","0.6,0.4","3:go_c","",""
"null","","html-keyboard-response","329","455082","0.0-6.0-1.36","","<img src=""img/red-r.png"" border=""10"">","null","trial","32","","0.6,0.4","3:go_c","1",""
"null","","html-keyboard-response","330","456083","0.0-6.0-2.36","","<div style=""font-size:60px;"">+</div>","null","","","","","","",""
"null","","image-keyboard-response","331","457585","0.0-6.0-0.37","","img/orange.png","null","trial","null","true","0.4,0.6","4:nogo_d","",""
"null","","html-keyboard-response","332","458586","0.0-6.0-1.37","","<img src=""img/orange-r.png"">","null","trial","null","","0.4,0.6","4:nogo_d","1",""
"null","","html-keyboard-response","333","459587","0.0-6.0-2.37","","<div style=""font-size:60px;"">+</div>","null","","","","","","",""
"null","","image-keyboard-response","334","461089","0.0-6.0-0.38","","img/blue.png","null","trial","32","false","0.6,0.4","1:go_a","",""
"null","","html-keyboard-response","335","462091","0.0-6.0-1.38","","<img src=""img/blue-r.png"">","null","trial","32","","0.6,0.4","1:go_a","1",""
"null","","html-keyboard-response","336","463093","0.0-6.0-2.38","","<div style=""font-size:60px;"">+</div>","null","","","","","","",""
"722.3350000567734","","image-keyboard-response","337","463816","0.0-6.0-0.39","","img/purple.png","32","trial","null","false","0.4,0.6","2:nogo_b","",""
"null","","html-keyboard-response","338","464817","0.0-6.0-1.39","","<img src=""img/purple-n.png"" border=""10"">","null","trial","null","","0.4,0.6","2:nogo_b","0",""
"null","","html-keyboard-response","339","465818","0.0-6.0-2.39","","<div style=""font-size:60px;"">+</div>","null","","","","","","",""
"null","","image-keyboard-response","340","467320","0.0-6.0-0.40","","img/purple.png","null","trial","null","true","0.4,0.6","2:nogo_b","",""
"null","","html-keyboard-response","341","468321","0.0-6.0-1.40","","<img src=""img/purple-r.png"">","null","trial","null","","0.4,0.6","2:nogo_b","1",""
"null","","html-keyboard-response","342","469324","0.0-6.0-2.40","","<div style=""font-size:60px;"">+</div>","null","","","","","","",""
"898.5399999655783","","image-keyboard-response","343","470223","0.0-6.0-0.41","","img/blue.png","32","trial","32","true","0.6,0.4","1:go_a","",""
"null","","html-keyboard-response","344","471226","0.0-6.0-1.41","","<img src=""img/blue-r.png"" border=""10"">","null","trial","32","","0.6,0.4","1:go_a","1",""
"null","","html-keyboard-response","345","472227","0.0-6.0-2.41","","<div style=""font-size:60px;"">+</div>","null","","","","","","",""
"666.7949999682605","","image-keyboard-response","346","472895","0.0-6.0-0.42","","img/red.png","32","trial","32","true","0.6,0.4","3:go_c","",""
"null","","html-keyboard-response","347","473896","0.0-6.0-1.42","","<img src=""img/red-r.png"" border=""10"">","null","trial","32","","0.6,0.4","3:go_c","1",""
"null","","html-keyboard-response","348","474897","0.0-6.0-2.42","","<div style=""font-size:60px;"">+</div>","null","","","","","","",""
"749.6199999004602","","image-keyboard-response","349","475647","0.0-6.0-0.43","","img/orange.png","32","trial","null","false","0.4,0.6","4:nogo_d","",""
"null","","html-keyboard-response","350","476649","0.0-6.0-1.43","","<img src=""img/orange-n.png"" border=""10"">","null","trial","null","","0.4,0.6","4:nogo_d","0",""
"null","","html-keyboard-response","351","477650","0.0-6.0-2.43","","<div style=""font-size:60px;"">+</div>","null","","","","","","",""
"764.2550002783537","","image-keyboard-response","352","478415","0.0-6.0-0.44","","img/orange.png","32","trial","null","false","0.4,0.6","4:nogo_d","",""
"null","","html-keyboard-response","353","479416","0.0-6.0-1.44","","<img src=""img/orange-r.png"" border=""10"">","null","trial","null","","0.4,0.6","4:nogo_d","1",""
"null","","html-keyboard-response","354","480417","0.0-6.0-2.44","","<div style=""font-size:60px;"">+</div>","null","","","","","","",""
"741.5550001896918","","image-keyboard-response","355","481159","0.0-6.0-0.45","","img/blue.png","32","trial","32","true","0.6,0.4","1:go_a","",""
"null","","html-keyboard-response","356","482161","0.0-6.0-1.45","","<img src=""img/blue-n.png"" border=""10"">","null","trial","32","","0.6,0.4","1:go_a","0",""
"null","","html-keyboard-response","357","483163","0.0-6.0-2.45","","<div style=""font-size:60px;"">+</div>","null","","","","","","",""
"500.3600004129112","","image-keyboard-response","358","483664","0.0-6.0-0.46","","img/red.png","32","trial","32","true","0.6,0.4","3:go_c","",""
"null","","html-keyboard-response","359","484665","0.0-6.0-1.46","","<img src=""img/red-r.png"" border=""10"">","null","trial","32","","0.6,0.4","3:go_c","1",""
"null","","html-keyboard-response","360","485667","0.0-6.0-2.46","","<div style=""font-size:60px;"">+</div>","null","","","","","","",""
"659.8799997009337","","image-keyboard-response","361","486327","0.0-6.0-0.47","","img/purple.png","32","trial","null","false","0.4,0.6","2:nogo_b","",""
"null","","html-keyboard-response","362","487329","0.0-6.0-1.47","","<img src=""img/purple-r.png"" border=""10"">","null","trial","null","","0.4,0.6","2:nogo_b","1",""
"null","","html-keyboard-response","363","488330","0.0-6.0-2.47","","<div style=""font-size:60px;"">+</div>","null","","","","","","",""
"892.8649998269975","","image-keyboard-response","364","489223","0.0-6.0-0.48","","img/red.png","32","trial","32","true","0.6,0.4","3:go_c","",""
"null","","html-keyboard-response","365","490225","0.0-6.0-1.48","","<img src=""img/red-n.png"" border=""10"">","null","trial","32","","0.6,0.4","3:go_c","0",""
"null","","html-keyboard-response","366","491226","0.0-6.0-2.48","","<div style=""font-size:60px;"">+</div>","null","","","","","","",""
"1028.9699998684227","","image-keyboard-response","367","492255","0.0-6.0-0.49","","img/blue.png","32","trial","32","true","0.6,0.4","1:go_a","",""
"null","","html-keyboard-response","368","493257","0.0-6.0-1.49","","<img src=""img/blue-r.png"" border=""10"">","null","trial","32","","0.6,0.4","1:go_a","1",""
"null","","html-keyboard-response","369","494259","0.0-6.0-2.49","","<div style=""font-size:60px;"">+</div>","null","","","","","","",""
"916.1700000986457","","image-keyboard-response","370","495176","0.0-6.0-0.50","","img/orange.png","32","trial","null","false","0.4,0.6","4:nogo_d","",""
"null","","html-keyboard-response","371","496177","0.0-6.0-1.50","","<img src=""img/orange-n.png"" border=""10"">","null","trial","null","","0.4,0.6","4:nogo_d","0",""
"null","","html-keyboard-response","372","497178","0.0-6.0-2.50","","<div style=""font-size:60px;"">+</div>","null","","","","","","",""
"764.3699999898672","","image-keyboard-response","373","497943","0.0-6.0-0.51","","img/purple.png","32","trial","null","false","0.4,0.6","2:nogo_b","",""
"null","","html-keyboard-response","374","498945","0.0-6.0-1.51","","<img src=""img/purple-n.png"" border=""10"">","null","trial","null","","0.4,0.6","2:nogo_b","0",""
"null","","html-keyboard-response","375","499947","0.0-6.0-2.51","","<div style=""font-size:60px;"">+</div>","null","","","","","","",""
"795.8349999971688","","image-keyboard-response","376","500743","0.0-6.0-0.52","","img/red.png","32","trial","32","true","0.6,0.4","3:go_c","",""
"null","","html-keyboard-response","377","501746","0.0-6.0-1.52","","<img src=""img/red-n.png"" border=""10"">","null","trial","32","","0.6,0.4","3:go_c","0",""
"null","","html-keyboard-response","378","502747","0.0-6.0-2.52","","<div style=""font-size:60px;"">+</div>","null","","","","","","",""
"547.4300002679229","","image-keyboard-response","379","503295","0.0-6.0-0.53","","img/blue.png","32","trial","32","true","0.6,0.4","1:go_a","",""
"null","","html-keyboard-response","380","504297","0.0-6.0-1.53","","<img src=""img/blue-n.png"" border=""10"">","null","trial","32","","0.6,0.4","1:go_a","0",""
"null","","html-keyboard-response","381","505298","0.0-6.0-2.53","","<div style=""font-size:60px;"">+</div>","null","","","","","","",""
"916.8450003489852","","image-keyboard-response","382","506216","0.0-6.0-0.54","","img/orange.png","32","trial","null","false","0.4,0.6","4:nogo_d","",""
"null","","html-keyboard-response","383","507217","0.0-6.0-1.54","","<img src=""img/orange-n.png"" border=""10"">","null","trial","null","","0.4,0.6","4:nogo_d","0",""
"null","","html-keyboard-response","384","508218","0.0-6.0-2.54","","<div style=""font-size:60px;"">+</div>","null","","","","","","",""
"null","","image-keyboard-response","385","509720","0.0-6.0-0.55","","img/purple.png","null","trial","null","true","0.4,0.6","2:nogo_b","",""
"null","","html-keyboard-response","386","510722","0.0-6.0-1.55","","<img src=""img/purple-r.png"">","null","trial","null","","0.4,0.6","2:nogo_b","1",""
"null","","html-keyboard-response","387","511724","0.0-6.0-2.55","","<div style=""font-size:60px;"">+</div>","null","","","","","","",""
"922.4149999208748","","image-keyboard-response","388","512647","0.0-6.0-0.56","","img/orange.png","32","trial","null","false","0.4,0.6","4:nogo_d","",""
"null","","html-keyboard-response","389","513649","0.0-6.0-1.56","","<img src=""img/orange-n.png"" border=""10"">","null","trial","null","","0.4,0.6","4:nogo_d","0",""
"null","","html-keyboard-response","390","514650","0.0-6.0-2.56","","<div style=""font-size:60px;"">+</div>","null","","","","","","",""
"628.3350000157952","","image-keyboard-response","391","515279","0.0-6.0-0.57","","img/blue.png","32","trial","32","true","0.6,0.4","1:go_a","",""
"null","","html-keyboard-response","392","516281","0.0-6.0-1.57","","<img src=""img/blue-n.png"" border=""10"">","null","trial","32","","0.6,0.4","1:go_a","0",""
"null","","html-keyboard-response","393","517283","0.0-6.0-2.57","","<div style=""font-size:60px;"">+</div>","null","","","","","","",""
"563.8499995693564","","image-keyboard-response","394","517848","0.0-6.0-0.58","","img/red.png","32","trial","32","true","0.6,0.4","3:go_c","",""
"null","","html-keyboard-response","395","518849","0.0-6.0-1.58","","<img src=""img/red-n.png"" border=""10"">","null","trial","32","","0.6,0.4","3:go_c","0",""
"null","","html-keyboard-response","396","519860","0.0-6.0-2.58","","<div style=""font-size:60px;"">+</div>","null","","","","","","",""
"538.7900001369417","","image-keyboard-response","397","520400","0.0-6.0-0.59","","img/purple.png","32","trial","null","false","0.4,0.6","2:nogo_b","",""
"null","","html-keyboard-response","398","521401","0.0-6.0-1.59","","<img src=""img/purple-n.png"" border=""10"">","null","trial","null","","0.4,0.6","2:nogo_b","0",""
"null","","html-keyboard-response","399","522402","0.0-6.0-2.59","","<div style=""font-size:60px;"">+</div>","null","","","","","","",""
"932.8699996694922","","image-keyboard-response","400","523336","0.0-6.0-0.60","","img/orange.png","32","trial","null","false","0.4,0.6","4:nogo_d","",""
"null","","html-keyboard-response","401","524338","0.0-6.0-1.60","","<img src=""img/orange-n.png"" border=""10"">","null","trial","null","","0.4,0.6","4:nogo_d","0",""
"null","","html-keyboard-response","402","525339","0.0-6.0-2.60","","<div style=""font-size:60px;"">+</div>","null","","","","","","",""
"835.1700003258884","","image-keyboard-response","403","526175","0.0-6.0-0.61","","img/blue.png","32","trial","32","true","0.6,0.4","1:go_a","",""
"null","","html-keyboard-response","404","527177","0.0-6.0-1.61","","<img src=""img/blue-r.png"" border=""10"">","null","trial","32","","0.6,0.4","1:go_a","1",""
"null","","html-keyboard-response","405","528179","0.0-6.0-2.61","","<div style=""font-size:60px;"">+</div>","null","","","","","","",""
"940.0700000114739","","image-keyboard-response","406","529119","0.0-6.0-0.62","","img/red.png","32","trial","32","true","0.6,0.4","3:go_c","",""
"null","","html-keyboard-response","407","530134","0.0-6.0-1.62","","<img src=""img/red-r.png"" border=""10"">","null","trial","32","","0.6,0.4","3:go_c","1",""
"null","","html-keyboard-response","408","531136","0.0-6.0-2.62","","<div style=""font-size:60px;"">+</div>","null","","","","","","",""
"574.7849997133017","","image-keyboard-response","409","531711","0.0-6.0-0.63","","img/purple.png","32","trial","null","false","0.4,0.6","2:nogo_b","",""
"null","","html-keyboard-response","410","532713","0.0-6.0-1.63","","<img src=""img/purple-r.png"" border=""10"">","null","trial","null","","0.4,0.6","2:nogo_b","1",""
"null","","html-keyboard-response","411","533715","0.0-6.0-2.63","","<div style=""font-size:60px;"">+</div>","null","","","","","","",""
"764.0900001861155","","image-keyboard-response","412","534479","0.0-6.0-0.64","","img/orange.png","32","trial","null","false","0.4,0.6","4:nogo_d","",""
"null","","html-keyboard-response","413","535480","0.0-6.0-1.64","","<img src=""img/orange-r.png"" border=""10"">","null","trial","null","","0.4,0.6","4:nogo_d","1",""
"null","","html-keyboard-response","414","536482","0.0-6.0-2.64","","<div style=""font-size:60px;"">+</div>","null","","","","","","",""
"828.644999768585","","image-keyboard-response","415","537311","0.0-6.0-0.65","","img/red.png","32","trial","32","true","0.6,0.4","3:go_c","",""
"null","","html-keyboard-response","416","538313","0.0-6.0-1.65","","<img src=""img/red-r.png"" border=""10"">","null","trial","32","","0.6,0.4","3:go_c","1",""
"null","","html-keyboard-response","417","539315","0.0-6.0-2.65","","<div style=""font-size:60px;"">+</div>","null","","","","","","",""
"748.3299998566508","","image-keyboard-response","418","540063","0.0-6.0-0.66","","img/purple.png","32","trial","null","false","0.4,0.6","2:nogo_b","",""
"null","","html-keyboard-response","419","541066","0.0-6.0-1.66","","<img src=""img/purple-r.png"" border=""10"">","null","trial","null","","0.4,0.6","2:nogo_b","1",""
"null","","html-keyboard-response","420","542067","0.0-6.0-2.66","","<div style=""font-size:60px;"">+</div>","null","","","","","","",""
"820.2249999158084","","image-keyboard-response","421","542887","0.0-6.0-0.67","","img/blue.png","32","trial","32","true","0.6,0.4","1:go_a","",""
"null","","html-keyboard-response","422","543889","0.0-6.0-1.67","","<img src=""img/blue-r.png"" border=""10"">","null","trial","32","","0.6,0.4","1:go_a","1",""
"null","","html-keyboard-response","423","544891","0.0-6.0-2.67","","<div style=""font-size:60px;"">+</div>","null","","","","","","",""
"483.5950001142919","","image-keyboard-response","424","545375","0.0-6.0-0.68","","img/orange.png","32","trial","null","false","0.4,0.6","4:nogo_d","",""
"null","","html-keyboard-response","425","546377","0.0-6.0-1.68","","<img src=""img/orange-n.png"" border=""10"">","null","trial","null","","0.4,0.6","4:nogo_d","0",""
"null","","html-keyboard-response","426","547378","0.0-6.0-2.68","","<div style=""font-size:60px;"">+</div>","null","","","","","","",""
"644.9199998751283","","image-keyboard-response","427","548024","0.0-6.0-0.69","","img/purple.png","32","trial","null","false","0.4,0.6","2:nogo_b","",""
"null","","html-keyboard-response","428","549026","0.0-6.0-1.69","","<img src=""img/purple-r.png"" border=""10"">","null","trial","null","","0.4,0.6","2:nogo_b","1",""
"null","","html-keyboard-response","429","550027","0.0-6.0-2.69","","<div style=""font-size:60px;"">+</div>","null","","","","","","",""
"788.1549997255206","","image-keyboard-response","430","550815","0.0-6.0-0.70","","img/blue.png","32","trial","32","true","0.6,0.4","1:go_a","",""
"null","","html-keyboard-response","431","551817","0.0-6.0-1.70","","<img src=""img/blue-n.png"" border=""10"">","null","trial","32","","0.6,0.4","1:go_a","0",""
"null","","html-keyboard-response","432","552819","0.0-6.0-2.70","","<div style=""font-size:60px;"">+</div>","null","","","","","","",""
"404.6050002798438","","image-keyboard-response","433","553224","0.0-6.0-0.71","","img/red.png","32","trial","32","true","0.6,0.4","3:go_c","",""
"null","","html-keyboard-response","434","554226","0.0-6.0-1.71","","<img src=""img/red-n.png"" border=""10"">","null","trial","32","","0.6,0.4","3:go_c","0",""
"null","","html-keyboard-response","435","555227","0.0-6.0-2.71","","<div style=""font-size:60px;"">+</div>","null","","","","","","",""
"771.3750000111759","","image-keyboard-response","436","555999","0.0-6.0-0.72","","img/purple.png","32","trial","null","false","0.4,0.6","2:nogo_b","",""
"null","","html-keyboard-response","437","557000","0.0-6.0-1.72","","<img src=""img/purple-n.png"" border=""10"">","null","trial","null","","0.4,0.6","2:nogo_b","0",""
"null","","html-keyboard-response","438","558001","0.0-6.0-2.72","","<div style=""font-size:60px;"">+</div>","null","","","","","","",""
"941.3700001314282","","image-keyboard-response","439","558943","0.0-6.0-0.73","","img/blue.png","32","trial","32","true","0.6,0.4","1:go_a","",""
"null","","html-keyboard-response","440","559946","0.0-6.0-1.73","","<img src=""img/blue-r.png"" border=""10"">","null","trial","32","","0.6,0.4","1:go_a","1",""
"null","","html-keyboard-response","441","560947","0.0-6.0-2.73","","<div style=""font-size:60px;"">+</div>","null","","","","","","",""
"787.7400000579655","","image-keyboard-response","442","561735","0.0-6.0-0.74","","img/orange.png","32","trial","null","false","0.4,0.6","4:nogo_d","",""
"null","","html-keyboard-response","443","562737","0.0-6.0-1.74","","<img src=""img/orange-n.png"" border=""10"">","null","trial","null","","0.4,0.6","4:nogo_d","0",""
"null","","html-keyboard-response","444","563738","0.0-6.0-2.74","","<div style=""font-size:60px;"">+</div>","null","","","","","","",""
"636.6200000047684","","image-keyboard-response","445","564375","0.0-6.0-0.75","","img/red.png","32","trial","32","true","0.6,0.4","3:go_c","",""
"null","","html-keyboard-response","446","565376","0.0-6.0-1.75","","<img src=""img/red-r.png"" border=""10"">","null","trial","32","","0.6,0.4","3:go_c","1",""
"null","","html-keyboard-response","447","566377","0.0-6.0-2.75","","<div style=""font-size:60px;"">+</div>","null","","","","","","",""
"1158.2449995912611","","image-keyboard-response","448","567536","0.0-6.0-0.76","","img/orange.png","32","trial","null","false","0.4,0.6","4:nogo_d","",""
"null","","html-keyboard-response","449","568537","0.0-6.0-1.76","","<img src=""img/orange-n.png"" border=""10"">","null","trial","null","","0.4,0.6","4:nogo_d","0",""
"null","","html-keyboard-response","450","569537","0.0-6.0-2.76","","<div style=""font-size:60px;"">+</div>","null","","","","","","",""
"540.6499998643994","","image-keyboard-response","451","570079","0.0-6.0-0.77","","img/purple.png","32","trial","null","false","0.4,0.6","2:nogo_b","",""
"null","","html-keyboard-response","452","571080","0.0-6.0-1.77","","<img src=""img/purple-n.png"" border=""10"">","null","trial","null","","0.4,0.6","2:nogo_b","0",""
"null","","html-keyboard-response","453","572081","0.0-6.0-2.77","","<div style=""font-size:60px;"">+</div>","null","","","","","","",""
"null","","image-keyboard-response","454","573583","0.0-6.0-0.78","","img/red.png","null","trial","32","false","0.6,0.4","3:go_c","",""
"null","","html-keyboard-response","455","574584","0.0-6.0-1.78","","<img src=""img/red-r.png"">","null","trial","32","","0.6,0.4","3:go_c","1",""
"null","","html-keyboard-response","456","575586","0.0-6.0-2.78","","<div style=""font-size:60px;"">+</div>","null","","","","","","",""
"716.6999997571111","","image-keyboard-response","457","576303","0.0-6.0-0.79","","img/blue.png","32","trial","32","true","0.6,0.4","1:go_a","",""
"null","","html-keyboard-response","458","577305","0.0-6.0-1.79","","<img src=""img/blue-r.png"" border=""10"">","null","trial","32","","0.6,0.4","1:go_a","1",""
"null","","html-keyboard-response","459","578306","0.0-6.0-2.79","","<div style=""font-size:60px;"">+</div>","null","","","","","","",""
"860.5700000189245","","image-keyboard-response","460","579168","0.0-6.0-0.80","","img/orange.png","32","trial","null","false","0.4,0.6","4:nogo_d","",""
"null","","html-keyboard-response","461","580169","0.0-6.0-1.80","","<img src=""img/orange-r.png"" border=""10"">","null","trial","null","","0.4,0.6","4:nogo_d","1",""
"null","","html-keyboard-response","462","581171","0.0-6.0-2.80","","<div style=""font-size:60px;"">+</div>","null","","","","","","",""
"683.2699999213219","","image-keyboard-response","463","581854","0.0-6.0-0.81","","img/red.png","32","trial","32","true","0.6,0.4","3:go_c","",""
"null","","html-keyboard-response","464","582856","0.0-6.0-1.81","","<img src=""img/red-r.png"" border=""10"">","null","trial","32","","0.6,0.4","3:go_c","1",""
"null","","html-keyboard-response","465","583858","0.0-6.0-2.81","","<div style=""font-size:60px;"">+</div>","null","","","","","","",""
"716.0649998113513","","image-keyboard-response","466","584575","0.0-6.0-0.82","","img/purple.png","32","trial","null","false","0.4,0.6","2:nogo_b","",""
"null","","html-keyboard-response","467","585577","0.0-6.0-1.82","","<img src=""img/purple-n.png"" border=""10"">","null","trial","null","","0.4,0.6","2:nogo_b","0",""
"null","","html-keyboard-response","468","586578","0.0-6.0-2.82","","<div style=""font-size:60px;"">+</div>","null","","","","","","",""
"884.9200000986457","","image-keyboard-response","469","587463","0.0-6.0-0.83","","img/blue.png","32","trial","32","true","0.6,0.4","1:go_a","",""
"null","","html-keyboard-response","470","588465","0.0-6.0-1.83","","<img src=""img/blue-n.png"" border=""10"">","null","trial","32","","0.6,0.4","1:go_a","0",""
"null","","html-keyboard-response","471","589466","0.0-6.0-2.83","","<div style=""font-size:60px;"">+</div>","null","","","","","","",""
"844.3899997510016","","image-keyboard-response","472","590312","0.0-6.0-0.84","","img/orange.png","32","trial","null","false","0.4,0.6","4:nogo_d","",""
"null","","html-keyboard-response","473","591313","0.0-6.0-1.84","","<img src=""img/orange-r.png"" border=""10"">","null","trial","null","","0.4,0.6","4:nogo_d","1",""
"null","","html-keyboard-response","474","592315","0.0-6.0-2.84","","<div style=""font-size:60px;"">+</div>","null","","","","","","",""
"515.6399998813868","","image-keyboard-response","475","592831","0.0-6.0-0.85","","img/red.png","32","trial","32","true","0.6,0.4","3:go_c","",""
"null","","html-keyboard-response","476","593832","0.0-6.0-1.85","","<img src=""img/red-n.png"" border=""10"">","null","trial","32","","0.6,0.4","3:go_c","0",""
"null","","html-keyboard-response","477","594833","0.0-6.0-2.85","","<div style=""font-size:60px;"">+</div>","null","","","","","","",""
"null","","image-keyboard-response","478","596334","0.0-6.0-0.86","","img/blue.png","null","trial","32","false","0.6,0.4","1:go_a","",""
"null","","html-keyboard-response","479","597336","0.0-6.0-1.86","","<img src=""img/blue-r.png"">","null","trial","32","","0.6,0.4","1:go_a","1",""
"null","","html-keyboard-response","480","598337","0.0-6.0-2.86","","<div style=""font-size:60px;"">+</div>","null","","","","","","",""
"909.0700000524521","","image-keyboard-response","481","599247","0.0-6.0-0.87","","img/purple.png","32","trial","null","false","0.4,0.6","2:nogo_b","",""
"null","","html-keyboard-response","482","600249","0.0-6.0-1.87","","<img src=""img/purple-n.png"" border=""10"">","null","trial","null","","0.4,0.6","2:nogo_b","0",""
"null","","html-keyboard-response","483","601250","0.0-6.0-2.87","","<div style=""font-size:60px;"">+</div>","null","","","","","","",""
"653.3000003546476","","image-keyboard-response","484","601903","0.0-6.0-0.88","","img/purple.png","32","trial","null","false","0.4,0.6","2:nogo_b","",""
"null","","html-keyboard-response","485","602905","0.0-6.0-1.88","","<img src=""img/purple-n.png"" border=""10"">","null","trial","null","","0.4,0.6","2:nogo_b","0",""
"null","","html-keyboard-response","486","603906","0.0-6.0-2.88","","<div style=""font-size:60px;"">+</div>","null","","","","","","",""
"724.945000372827","","image-keyboard-response","487","604632","0.0-6.0-0.89","","img/orange.png","32","trial","null","false","0.4,0.6","4:nogo_d","",""
"null","","html-keyboard-response","488","605633","0.0-6.0-1.89","","<img src=""img/orange-r.png"" border=""10"">","null","trial","null","","0.4,0.6","4:nogo_d","1",""
"null","","html-keyboard-response","489","606634","0.0-6.0-2.89","","<div style=""font-size:60px;"">+</div>","null","","","","","","",""
"676.305000204593","","image-keyboard-response","490","607311","0.0-6.0-0.90","","img/blue.png","32","trial","32","true","0.6,0.4","1:go_a","",""
"null","","html-keyboard-response","491","608313","0.0-6.0-1.90","","<img src=""img/blue-r.png"" border=""10"">","null","trial","32","","0.6,0.4","1:go_a","1",""
"null","","html-keyboard-response","492","609325","0.0-6.0-2.90","","<div style=""font-size:60px;"">+</div>","null","","","","","","",""
"null","","image-keyboard-response","493","610826","0.0-6.0-0.91","","img/red.png","null","trial","32","false","0.6,0.4","3:go_c","",""
"null","","html-keyboard-response","494","611828","0.0-6.0-1.91","","<img src=""img/red-r.png"">","null","trial","32","","0.6,0.4","3:go_c","1",""
"null","","html-keyboard-response","495","612829","0.0-6.0-2.91","","<div style=""font-size:60px;"">+</div>","null","","","","","","",""
"785.415000282228","","image-keyboard-response","496","613615","0.0-6.0-0.92","","img/orange.png","32","trial","null","false","0.4,0.6","4:nogo_d","",""
"null","","html-keyboard-response","497","614616","0.0-6.0-1.92","","<img src=""img/orange-n.png"" border=""10"">","null","trial","null","","0.4,0.6","4:nogo_d","0",""
"null","","html-keyboard-response","498","615617","0.0-6.0-2.92","","<div style=""font-size:60px;"">+</div>","null","","","","","","",""
"397.9000002145767","","image-keyboard-response","499","616016","0.0-6.0-0.93","","img/purple.png","32","trial","null","false","0.4,0.6","2:nogo_b","",""
"null","","html-keyboard-response","500","617018","0.0-6.0-1.93","","<img src=""img/purple-n.png"" border=""10"">","null","trial","null","","0.4,0.6","2:nogo_b","0",""
"null","","html-keyboard-response","501","618019","0.0-6.0-2.93","","<div style=""font-size:60px;"">+</div>","null","","","","","","",""
"771.7999997548759","","image-keyboard-response","502","618791","0.0-6.0-0.94","","img/red.png","32","trial","32","true","0.6,0.4","3:go_c","",""
"null","","html-keyboard-response","503","619793","0.0-6.0-1.94","","<img src=""img/red-r.png"" border=""10"">","null","trial","32","","0.6,0.4","3:go_c","1",""
"null","","html-keyboard-response","504","620795","0.0-6.0-2.94","","<div style=""font-size:60px;"">+</div>","null","","","","","","",""
"963.6150002479553","","image-keyboard-response","505","621759","0.0-6.0-0.95","","img/blue.png","32","trial","32","true","0.6,0.4","1:go_a","",""
"null","","html-keyboard-response","506","622761","0.0-6.0-1.95","","<img src=""img/blue-n.png"" border=""10"">","null","trial","32","","0.6,0.4","1:go_a","0",""
"null","","html-keyboard-response","507","623772","0.0-6.0-2.95","","<div style=""font-size:60px;"">+</div>","null","","","","","","",""
"586.9550001807511","","image-keyboard-response","508","624360","0.0-6.0-0.96","","img/purple.png","32","trial","null","false","0.4,0.6","2:nogo_b","",""
"null","","html-keyboard-response","509","625361","0.0-6.0-1.96","","<img src=""img/purple-n.png"" border=""10"">","null","trial","null","","0.4,0.6","2:nogo_b","0",""
"null","","html-keyboard-response","510","626362","0.0-6.0-2.96","","<div style=""font-size:60px;"">+</div>","null","","","","","","",""
"676.9399996846914","","image-keyboard-response","511","627040","0.0-6.0-0.97","","img/red.png","32","trial","32","true","0.6,0.4","3:go_c","",""
"null","","html-keyboard-response","512","628041","0.0-6.0-1.97","","<img src=""img/red-r.png"" border=""10"">","null","trial","32","","0.6,0.4","3:go_c","1",""
"null","","html-keyboard-response","513","629042","0.0-6.0-2.97","","<div style=""font-size:60px;"">+</div>","null","","","","","","",""
"null","","image-keyboard-response","514","630543","0.0-6.0-0.98","","img/blue.png","null","trial","32","false","0.6,0.4","1:go_a","",""
"null","","html-keyboard-response","515","631546","0.0-6.0-1.98","","<img src=""img/blue-r.png"">","null","trial","32","","0.6,0.4","1:go_a","1",""
"null","","html-keyboard-response","516","632547","0.0-6.0-2.98","","<div style=""font-size:60px;"">+</div>","null","","","","","","",""
"731.6099996678531","","image-keyboard-response","517","633279","0.0-6.0-0.99","","img/orange.png","32","trial","null","false","0.4,0.6","4:nogo_d","",""
"null","","html-keyboard-response","518","634280","0.0-6.0-1.99","","<img src=""img/orange-n.png"" border=""10"">","null","trial","null","","0.4,0.6","4:nogo_d","0",""
"null","","html-keyboard-response","519","635282","0.0-6.0-2.99","","<div style=""font-size:60px;"">+</div>","null","","","","","","",""
"null","","image-keyboard-response","520","636784","0.0-6.0-0.100","","img/purple.png","null","trial","null","true","0.4,0.6","2:nogo_b","",""
"null","","html-keyboard-response","521","637787","0.0-6.0-1.100","","<img src=""img/purple-r.png"">","null","trial","null","","0.4,0.6","2:nogo_b","1",""
"null","","html-keyboard-response","522","638787","0.0-6.0-2.100","","<div style=""font-size:60px;"">+</div>","null","","","","","","",""
"803.6600002087653","","image-keyboard-response","523","639592","0.0-6.0-0.101","","img/red.png","32","trial","32","true","0.6,0.4","3:go_c","",""
"null","","html-keyboard-response","524","640594","0.0-6.0-1.101","","<img src=""img/red-r.png"" border=""10"">","null","trial","32","","0.6,0.4","3:go_c","1",""
"null","","html-keyboard-response","525","641596","0.0-6.0-2.101","","<div style=""font-size:60px;"">+</div>","null","","","","","","",""
"874.9049999751151","","image-keyboard-response","526","642471","0.0-6.0-0.102","","img/orange.png","32","trial","null","false","0.4,0.6","4:nogo_d","",""
"null","","html-keyboard-response","527","643472","0.0-6.0-1.102","","<img src=""img/orange-r.png"" border=""10"">","null","trial","null","","0.4,0.6","4:nogo_d","1",""
"null","","html-keyboard-response","528","644473","0.0-6.0-2.102","","<div style=""font-size:60px;"">+</div>","null","","","","","","",""
"765.5199998989701","","image-keyboard-response","529","645239","0.0-6.0-0.103","","img/blue.png","32","trial","32","true","0.6,0.4","1:go_a","",""
"null","","html-keyboard-response","530","646241","0.0-6.0-1.103","","<img src=""img/blue-r.png"" border=""10"">","null","trial","32","","0.6,0.4","1:go_a","1",""
"null","","html-keyboard-response","531","647243","0.0-6.0-2.103","","<div style=""font-size:60px;"">+</div>","null","","","","","","",""
"659.429999999702","","image-keyboard-response","532","647903","0.0-6.0-0.104","","img/blue.png","32","trial","32","true","0.6,0.4","1:go_a","",""
"null","","html-keyboard-response","533","648905","0.0-6.0-1.104","","<img src=""img/blue-r.png"" border=""10"">","null","trial","32","","0.6,0.4","1:go_a","1",""
"null","","html-keyboard-response","534","649906","0.0-6.0-2.104","","<div style=""font-size:60px;"">+</div>","null","","","","","","",""
"261.204999871552","","image-keyboard-response","535","650168","0.0-6.0-0.105","","img/purple.png","32","trial","null","false","0.4,0.6","2:nogo_b","",""
"null","","html-keyboard-response","536","651169","0.0-6.0-1.105","","<img src=""img/purple-n.png"" border=""10"">","null","trial","null","","0.4,0.6","2:nogo_b","0",""
"null","","html-keyboard-response","537","652171","0.0-6.0-2.105","","<div style=""font-size:60px;"">+</div>","null","","","","","","",""
"499.47999976575375","","image-keyboard-response","538","652671","0.0-6.0-0.106","","img/orange.png","32","trial","null","false","0.4,0.6","4:nogo_d","",""
"null","","html-keyboard-response","539","653672","0.0-6.0-1.106","","<img src=""img/orange-r.png"" border=""10"">","null","trial","null","","0.4,0.6","4:nogo_d","1",""
"null","","html-keyboard-response","540","654673","0.0-6.0-2.106","","<div style=""font-size:60px;"">+</div>","null","","","","","","",""
"780.8650000952184","","image-keyboard-response","541","655455","0.0-6.0-0.107","","img/red.png","32","trial","32","true","0.6,0.4","3:go_c","",""
"null","","html-keyboard-response","542","656456","0.0-6.0-1.107","","<img src=""img/red-r.png"" border=""10"">","null","trial","32","","0.6,0.4","3:go_c","1",""
"null","","html-keyboard-response","543","657457","0.0-6.0-2.107","","<div style=""font-size:60px;"">+</div>","null","","","","","","",""
"853.6600000225008","","image-keyboard-response","544","658311","0.0-6.0-0.108","","img/orange.png","32","trial","null","false","0.4,0.6","4:nogo_d","",""
"null","","html-keyboard-response","545","659313","0.0-6.0-1.108","","<img src=""img/orange-n.png"" border=""10"">","null","trial","null","","0.4,0.6","4:nogo_d","0",""
"null","","html-keyboard-response","546","660314","0.0-6.0-2.108","","<div style=""font-size:60px;"">+</div>","null","","","","","","",""
"652.8549999929965","","image-keyboard-response","547","660967","0.0-6.0-0.109","","img/blue.png","32","trial","32","true","0.6,0.4","1:go_a","",""
"null","","html-keyboard-response","548","661969","0.0-6.0-1.109","","<img src=""img/blue-n.png"" border=""10"">","null","trial","32","","0.6,0.4","1:go_a","0",""
"null","","html-keyboard-response","549","662970","0.0-6.0-2.109","","<div style=""font-size:60px;"">+</div>","null","","","","","","",""
"764.6750002168119","","image-keyboard-response","550","663735","0.0-6.0-0.110","","img/purple.png","32","trial","null","false","0.4,0.6","2:nogo_b","",""
"null","","html-keyboard-response","551","664736","0.0-6.0-1.110","","<img src=""img/purple-n.png"" border=""10"">","null","trial","null","","0.4,0.6","2:nogo_b","0",""
"null","","html-keyboard-response","552","665738","0.0-6.0-2.110","","<div style=""font-size:60px;"">+</div>","null","","","","","","",""
"1013.260000385344","","image-keyboard-response","553","666751","0.0-6.0-0.111","","img/red.png","32","trial","32","true","0.6,0.4","3:go_c","",""
"null","","html-keyboard-response","554","667753","0.0-6.0-1.111","","<img src=""img/red-r.png"" border=""10"">","null","trial","32","","0.6,0.4","3:go_c","1",""
"null","","html-keyboard-response","555","668755","0.0-6.0-2.111","","<div style=""font-size:60px;"">+</div>","null","","","","","","",""
"null","","image-keyboard-response","556","670256","0.0-6.0-0.112","","img/orange.png","null","trial","null","true","0.4,0.6","4:nogo_d","",""
"null","","html-keyboard-response","557","671259","0.0-6.0-1.112","","<img src=""img/orange-n.png"">","null","trial","null","","0.4,0.6","4:nogo_d","0",""
"null","","html-keyboard-response","558","672260","0.0-6.0-2.112","","<div style=""font-size:60px;"">+</div>","null","","","","","","",""
"657.9050002619624","","image-keyboard-response","559","672919","0.0-6.0-0.113","","img/purple.png","32","trial","null","false","0.4,0.6","2:nogo_b","",""
"null","","html-keyboard-response","560","673920","0.0-6.0-1.113","","<img src=""img/purple-n.png"" border=""10"">","null","trial","null","","0.4,0.6","2:nogo_b","0",""
"null","","html-keyboard-response","561","674922","0.0-6.0-2.113","","<div style=""font-size:60px;"">+</div>","null","","","","","","",""
"700.650000013411","","image-keyboard-response","562","675623","0.0-6.0-0.114","","img/blue.png","32","trial","32","true","0.6,0.4","1:go_a","",""
"null","","html-keyboard-response","563","676624","0.0-6.0-1.114","","<img src=""img/blue-r.png"" border=""10"">","null","trial","32","","0.6,0.4","1:go_a","1",""
"null","","html-keyboard-response","564","677627","0.0-6.0-2.114","","<div style=""font-size:60px;"">+</div>","null","","","","","","",""
"739.9800000712276","","image-keyboard-response","565","678367","0.0-6.0-0.115","","img/red.png","32","trial","32","true","0.6,0.4","3:go_c","",""
"null","","html-keyboard-response","566","679369","0.0-6.0-1.115","","<img src=""img/red-n.png"" border=""10"">","null","trial","32","","0.6,0.4","3:go_c","0",""
"null","","html-keyboard-response","567","680371","0.0-6.0-2.115","","<div style=""font-size:60px;"">+</div>","null","","","","","","",""
"667.9150001145899","","image-keyboard-response","568","681039","0.0-6.0-0.116","","img/blue.png","32","trial","32","true","0.6,0.4","1:go_a","",""
"null","","html-keyboard-response","569","682041","0.0-6.0-1.116","","<img src=""img/blue-n.png"" border=""10"">","null","trial","32","","0.6,0.4","1:go_a","0",""
"null","","html-keyboard-response","570","683043","0.0-6.0-2.116","","<div style=""font-size:60px;"">+</div>","null","","","","","","",""
"795.7249996252358","","image-keyboard-response","571","683839","0.0-6.0-0.117","","img/purple.png","32","trial","null","false","0.4,0.6","2:nogo_b","",""
"null","","html-keyboard-response","572","684840","0.0-6.0-1.117","","<img src=""img/purple-r.png"" border=""10"">","null","trial","null","","0.4,0.6","2:nogo_b","1",""
"null","","html-keyboard-response","573","685843","0.0-6.0-2.117","","<div style=""font-size:60px;"">+</div>","null","","","","","","",""
"547.4800001829863","","image-keyboard-response","574","686391","0.0-6.0-0.118","","img/orange.png","32","trial","null","false","0.4,0.6","4:nogo_d","",""
"null","","html-keyboard-response","575","687396","0.0-6.0-1.118","","<img src=""img/orange-r.png"" border=""10"">","null","trial","null","","0.4,0.6","4:nogo_d","1",""
"null","","html-keyboard-response","576","688397","0.0-6.0-2.118","","<div style=""font-size:60px;"">+</div>","null","","","","","","",""
"857.514999806881","","image-keyboard-response","577","689256","0.0-6.0-0.119","","img/red.png","32","trial","32","true","0.6,0.4","3:go_c","",""
"null","","html-keyboard-response","578","690257","0.0-6.0-1.119","","<img src=""img/red-n.png"" border=""10"">","null","trial","32","","0.6,0.4","3:go_c","0",""
"null","","html-keyboard-response","579","691259","0.0-6.0-2.119","","<div style=""font-size:60px;"">+</div>","null","","","","","","",""
"2305.515000130981","","instructions","580","693564","0.0-7.0","[{""page_index"":0,""viewing_time"":2305.4100000299513}]","","","","","","","","",""
"1090.4249995946884","","image-keyboard-response","581","694656","0.0-8.0-0.0","","img/green.png","32","trial","32","true","0.8,0.2","1:go_a","",""
"null","","html-keyboard-response","582","695657","0.0-8.0-1.0","","<img src=""img/green-r.png"" border=""10"">","null","trial","32","","0.8,0.2","1:go_a","1",""
"null","","html-keyboard-response","583","696658","0.0-8.0-2.0","","<div style=""font-size:60px;"">+</div>","null","","","","","","",""
"868.7100000679493","","image-keyboard-response","584","697527","0.0-8.0-0.1","","img/grey.png","32","trial","32","true","1,0","3:go_c","",""
"null","","html-keyboard-response","585","698530","0.0-8.0-1.1","","<img src=""img/grey-r.png"" border=""10"">","null","trial","32","","1,0","3:go_c","1",""
"null","","html-keyboard-response","586","699539","0.0-8.0-2.1","","<div style=""font-size:60px;"">+</div>","null","","","","","","",""
"754.3999999761581","","image-keyboard-response","587","700294","0.0-8.0-0.2","","img/red.png","32","trial","null","false","0.2,0.8","2:nogo_b","",""
"null","","html-keyboard-response","588","701295","0.0-8.0-1.2","","<img src=""img/red-r.png"" border=""10"">","null","trial","null","","0.2,0.8","2:nogo_b","1",""
"null","","html-keyboard-response","589","702296","0.0-8.0-2.2","","<div style=""font-size:60px;"">+</div>","null","","","","","","",""
"822.565000038594","","image-keyboard-response","590","703119","0.0-8.0-0.3","","img/purple.png","32","trial","null","false","0,1","4:nogo_d","",""
"null","","html-keyboard-response","591","704122","0.0-8.0-1.3","","<img src=""img/purple-n.png"" border=""10"">","null","trial","null","","0,1","4:nogo_d","0",""
"null","","html-keyboard-response","592","705123","0.0-8.0-2.3","","<div style=""font-size:60px;"">+</div>","null","","","","","","",""
"836.600000038743","","image-keyboard-response","593","705960","0.0-8.0-0.4","","img/grey.png","32","trial","32","true","1,0","3:go_c","",""
"null","","html-keyboard-response","594","706961","0.0-8.0-1.4","","<img src=""img/grey-r.png"" border=""10"">","null","trial","32","","1,0","3:go_c","1",""
"null","","html-keyboard-response","595","707963","0.0-8.0-2.4","","<div style=""font-size:60px;"">+</div>","null","","","","","","",""
"859.7550000995398","","image-keyboard-response","596","708823","0.0-8.0-0.5","","img/purple.png","32","trial","null","false","0,1","4:nogo_d","",""
"null","","html-keyboard-response","597","709826","0.0-8.0-1.5","","<img src=""img/purple-n.png"" border=""10"">","null","trial","null","","0,1","4:nogo_d","0",""
"null","","html-keyboard-response","598","710827","0.0-8.0-2.5","","<div style=""font-size:60px;"">+</div>","null","","","","","","",""
"619.4100002758205","","image-keyboard-response","599","711447","0.0-8.0-0.6","","img/green.png","32","trial","32","true","0.8,0.2","1:go_a","",""
"null","","html-keyboard-response","600","712448","0.0-8.0-1.6","","<img src=""img/green-n.png"" border=""10"">","null","trial","32","","0.8,0.2","1:go_a","0",""
"null","","html-keyboard-response","601","713450","0.0-8.0-2.6","","<div style=""font-size:60px;"">+</div>","null","","","","","","",""
"772.7600000798702","","image-keyboard-response","602","714223","0.0-8.0-0.7","","img/red.png","32","trial","null","false","0.2,0.8","2:nogo_b","",""
"null","","html-keyboard-response","603","715226","0.0-8.0-1.7","","<img src=""img/red-n.png"" border=""10"">","null","trial","null","","0.2,0.8","2:nogo_b","0",""
"null","","html-keyboard-response","604","716227","0.0-8.0-2.7","","<div style=""font-size:60px;"">+</div>","null","","","","","","",""
"907.2649995796382","","image-keyboard-response","605","717135","0.0-8.0-0.8","","img/red.png","32","trial","null","false","0.2,0.8","2:nogo_b","",""
"null","","html-keyboard-response","606","718148","0.0-8.0-1.8","","<img src=""img/red-n.png"" border=""10"">","null","trial","null","","0.2,0.8","2:nogo_b","0",""
"null","","html-keyboard-response","607","719148","0.0-8.0-2.8","","<div style=""font-size:60px;"">+</div>","null","","","","","","",""
"null","","image-keyboard-response","608","720649","0.0-8.0-0.9","","img/purple.png","null","trial","null","true","0,1","4:nogo_d","",""
"null","","html-keyboard-response","609","721651","0.0-8.0-1.9","","<img src=""img/purple-r.png"">","null","trial","null","","0,1","4:nogo_d","1",""
"null","","html-keyboard-response","610","722652","0.0-8.0-2.9","","<div style=""font-size:60px;"">+</div>","null","","","","","","",""
"746.5900001116097","","image-keyboard-response","611","723399","0.0-8.0-0.10","","img/green.png","32","trial","32","true","0.8,0.2","1:go_a","",""
"null","","html-keyboard-response","612","724401","0.0-8.0-1.10","","<img src=""img/green-r.png"" border=""10"">","null","trial","32","","0.8,0.2","1:go_a","1",""
"null","","html-keyboard-response","613","725402","0.0-8.0-2.10","","<div style=""font-size:60px;"">+</div>","null","","","","","","",""
"691.5350002236664","","image-keyboard-response","614","726095","0.0-8.0-0.11","","img/grey.png","32","trial","32","true","1,0","3:go_c","",""
"null","","html-keyboard-response","615","727097","0.0-8.0-1.11","","<img src=""img/grey-r.png"" border=""10"">","null","trial","32","","1,0","3:go_c","1",""
"null","","html-keyboard-response","616","728098","0.0-8.0-2.11","","<div style=""font-size:60px;"">+</div>","null","","","","","","",""
"828.0250001698732","","image-keyboard-response","617","728927","0.0-8.0-0.12","","img/red.png","32","trial","null","false","0.2,0.8","2:nogo_b","",""
"null","","html-keyboard-response","618","729928","0.0-8.0-1.12","","<img src=""img/red-r.png"" border=""10"">","null","trial","null","","0.2,0.8","2:nogo_b","1",""
"null","","html-keyboard-response","619","730929","0.0-8.0-2.12","","<div style=""font-size:60px;"">+</div>","null","","","","","","",""
"837.5249998643994","","image-keyboard-response","620","731767","0.0-8.0-0.13","","img/green.png","32","trial","32","true","0.8,0.2","1:go_a","",""
"null","","html-keyboard-response","621","732768","0.0-8.0-1.13","","<img src=""img/green-r.png"" border=""10"">","null","trial","32","","0.8,0.2","1:go_a","1",""
"null","","html-keyboard-response","622","733784","0.0-8.0-2.13","","<div style=""font-size:60px;"">+</div>","null","","","","","","",""
"null","","image-keyboard-response","623","735286","0.0-8.0-0.14","","img/purple.png","null","trial","null","true","0,1","4:nogo_d","",""
"null","","html-keyboard-response","624","736288","0.0-8.0-1.14","","<img src=""img/purple-r.png"">","null","trial","null","","0,1","4:nogo_d","1",""
"null","","html-keyboard-response","625","737289","0.0-8.0-2.14","","<div style=""font-size:60px;"">+</div>","null","","","","","","",""
"589.0399999916553","","image-keyboard-response","626","737879","0.0-8.0-0.15","","img/grey.png","32","trial","32","true","1,0","3:go_c","",""
"null","","html-keyboard-response","627","738880","0.0-8.0-1.15","","<img src=""img/grey-r.png"" border=""10"">","null","trial","32","","1,0","3:go_c","1",""
"null","","html-keyboard-response","628","739881","0.0-8.0-2.15","","<div style=""font-size:60px;"">+</div>","null","","","","","","",""
"null","","image-keyboard-response","629","741382","0.0-8.0-0.16","","img/red.png","null","trial","null","true","0.2,0.8","2:nogo_b","",""
"null","","html-keyboard-response","630","742384","0.0-8.0-1.16","","<img src=""img/red-r.png"">","null","trial","null","","0.2,0.8","2:nogo_b","1",""
"null","","html-keyboard-response","631","743385","0.0-8.0-2.16","","<div style=""font-size:60px;"">+</div>","null","","","","","","",""
"669.5750001817942","","image-keyboard-response","632","744055","0.0-8.0-0.17","","img/grey.png","32","trial","32","true","1,0","3:go_c","",""
"null","","html-keyboard-response","633","745057","0.0-8.0-1.17","","<img src=""img/grey-r.png"" border=""10"">","null","trial","32","","1,0","3:go_c","1",""
"null","","html-keyboard-response","634","746059","0.0-8.0-2.17","","<div style=""font-size:60px;"">+</div>","null","","","","","","",""
"747.0949999988079","","image-keyboard-response","635","746807","0.0-8.0-0.18","","img/purple.png","32","trial","null","false","0,1","4:nogo_d","",""
"null","","html-keyboard-response","636","747808","0.0-8.0-1.18","","<img src=""img/purple-n.png"" border=""10"">","null","trial","null","","0,1","4:nogo_d","0",""
"null","","html-keyboard-response","637","748809","0.0-8.0-2.18","","<div style=""font-size:60px;"">+</div>","null","","","","","","",""
"685.5500000528991","","image-keyboard-response","638","749495","0.0-8.0-0.19","","img/green.png","32","trial","32","true","0.8,0.2","1:go_a","",""
"null","","html-keyboard-response","639","750496","0.0-8.0-1.19","","<img src=""img/green-r.png"" border=""10"">","null","trial","32","","0.8,0.2","1:go_a","1",""
"null","","html-keyboard-response","640","751498","0.0-8.0-2.19","","<div style=""font-size:60px;"">+</div>","null","","","","","","",""
"708.3800002001226","","image-keyboard-response","641","752207","0.0-8.0-0.20","","img/green.png","32","trial","32","true","0.8,0.2","1:go_a","",""
"null","","html-keyboard-response","642","753209","0.0-8.0-1.20","","<img src=""img/green-r.png"" border=""10"">","null","trial","32","","0.8,0.2","1:go_a","1",""
"null","","html-keyboard-response","643","754210","0.0-8.0-2.20","","<div style=""font-size:60px;"">+</div>","null","","","","","","",""
"717.170000076294","","image-keyboard-response","644","754927","0.0-8.0-0.21","","img/grey.png","32","trial","32","true","1,0","3:go_c","",""
"null","","html-keyboard-response","645","755929","0.0-8.0-1.21","","<img src=""img/grey-r.png"" border=""10"">","null","trial","32","","1,0","3:go_c","1",""
"null","","html-keyboard-response","646","756943","0.0-8.0-2.21","","<div style=""font-size:60px;"">+</div>","null","","","","","","",""
"743.7950000166893","","image-keyboard-response","647","757687","0.0-8.0-0.22","","img/red.png","32","trial","null","false","0.2,0.8","2:nogo_b","",""
"null","","html-keyboard-response","648","758689","0.0-8.0-1.22","","<img src=""img/red-r.png"" border=""10"">","null","trial","null","","0.2,0.8","2:nogo_b","1",""
"null","","html-keyboard-response","649","759690","0.0-8.0-2.22","","<div style=""font-size:60px;"">+</div>","null","","","","","","",""
"null","","image-keyboard-response","650","761192","0.0-8.0-0.23","","img/purple.png","null","trial","null","true","0,1","4:nogo_d","",""
"null","","html-keyboard-response","651","762193","0.0-8.0-1.23","","<img src=""img/purple-r.png"">","null","trial","null","","0,1","4:nogo_d","1",""
"null","","html-keyboard-response","652","763195","0.0-8.0-2.23","","<div style=""font-size:60px;"">+</div>","null","","","","","","",""
"851.6000001691282","","image-keyboard-response","653","764047","0.0-8.0-0.24","","img/purple.png","32","trial","null","false","0,1","4:nogo_d","",""
"null","","html-keyboard-response","654","765050","0.0-8.0-1.24","","<img src=""img/purple-n.png"" border=""10"">","null","trial","null","","0,1","4:nogo_d","0",""
"null","","html-keyboard-response","655","766051","0.0-8.0-2.24","","<div style=""font-size:60px;"">+</div>","null","","","","","","",""
"859.2799999751151","","image-keyboard-response","656","766911","0.0-8.0-0.25","","img/green.png","32","trial","32","true","0.8,0.2","1:go_a","",""
"null","","html-keyboard-response","657","767913","0.0-8.0-1.25","","<img src=""img/green-r.png"" border=""10"">","null","trial","32","","0.8,0.2","1:go_a","1",""
"null","","html-keyboard-response","658","768914","0.0-8.0-2.25","","<div style=""font-size:60px;"">+</div>","null","","","","","","",""
"739.6500003524125","","image-keyboard-response","659","769654","0.0-8.0-0.26","","img/red.png","32","trial","null","false","0.2,0.8","2:nogo_b","",""
"null","","html-keyboard-response","660","770656","0.0-8.0-1.26","","<img src=""img/red-n.png"" border=""10"">","null","trial","null","","0.2,0.8","2:nogo_b","0",""
"null","","html-keyboard-response","661","771657","0.0-8.0-2.26","","<div style=""font-size:60px;"">+</div>","null","","","","","","",""
"725.8450002409518","","image-keyboard-response","662","772384","0.0-8.0-0.27","","img/grey.png","32","trial","32","true","1,0","3:go_c","",""
"null","","html-keyboard-response","663","773386","0.0-8.0-1.27","","<img src=""img/grey-r.png"" border=""10"">","null","trial","32","","1,0","3:go_c","1",""
"null","","html-keyboard-response","664","774387","0.0-8.0-2.27","","<div style=""font-size:60px;"">+</div>","null","","","","","","",""
"820.0000002980232","","image-keyboard-response","665","775207","0.0-8.0-0.28","","img/grey.png","32","trial","32","true","1,0","3:go_c","",""
"null","","html-keyboard-response","666","776209","0.0-8.0-1.28","","<img src=""img/grey-r.png"" border=""10"">","null","trial","32","","1,0","3:go_c","1",""
"null","","html-keyboard-response","667","777211","0.0-8.0-2.28","","<div style=""font-size:60px;"">+</div>","null","","","","","","",""
"null","","image-keyboard-response","668","778712","0.0-8.0-0.29","","img/red.png","null","trial","null","true","0.2,0.8","2:nogo_b","",""
"null","","html-keyboard-response","669","779714","0.0-8.0-1.29","","<img src=""img/red-r.png"">","null","trial","null","","0.2,0.8","2:nogo_b","1",""
"null","","html-keyboard-response","670","780715","0.0-8.0-2.29","","<div style=""font-size:60px;"">+</div>","null","","","","","","",""
"771.0299999453127","","image-keyboard-response","671","781487","0.0-8.0-0.30","","img/purple.png","32","trial","null","false","0,1","4:nogo_d","",""
"null","","html-keyboard-response","672","782488","0.0-8.0-1.30","","<img src=""img/purple-n.png"" border=""10"">","null","trial","null","","0,1","4:nogo_d","0",""
"null","","html-keyboard-response","673","783490","0.0-8.0-2.30","","<div style=""font-size:60px;"">+</div>","null","","","","","","",""
