"rt","url","trial_type","trial_index","time_elapsed","internal_node_id","view_history","stimulus","key_press","test_part","correct_response","correct","use_rew","which_stim","reward","responses"
"29785.83500001696","consent.html","external-html","0","29863","0.0-0.0","","","","","","","","","",""
"96275.0750000123","","instructions","1","126139","0.0-1.0","[{""page_index"":0,""viewing_time"":5325.030000007246},{""page_index"":1,""viewing_time"":20884.39500000095},{""page_index"":2,""viewing_time"":5913.510000013048},{""page_index"":3,""viewing_time"":19680.49499997869},{""page_index"":4,""viewing_time"":29189.535000012256},{""page_index"":5,""viewing_time"":5582.229999999981},{""page_index"":6,""viewing_time"":9699.265000002924}]","","","","","","","","",""
"null","","image-keyboard-response","2","127642","0.0-2.0-0.0","","img/test3.PNG","null","practice","null","true","","","",""
"null","","html-keyboard-response","3","128644","0.0-2.0-1.0","","<img src=""img/test3-reward.PNG"">","null","","","","","","",""
"null","","html-keyboard-response","4","129645","0.0-2.0-2.0","","<div style=""font-size:60px;"">+</div>","null","","","","","","",""
"null","","image-keyboard-response","5","131147","0.0-2.0-0.1","","img/test2.PNG","null","practice","null","true","","","",""
"null","","html-keyboard-response","6","132148","0.0-2.0-1.1","","<img src=""img/test2-reward.PNG"">","null","","","","","","",""
"null","","html-keyboard-response","7","133149","0.0-2.0-2.1","","<div style=""font-size:60px;"">+</div>","null","","","","","","",""
"399.3149999878369","","image-keyboard-response","8","133549","0.0-2.0-0.2","","img/test1.PNG","32","practice","32","true","","","",""
"null","","html-keyboard-response","9","134550","0.0-2.0-1.2","","<img src=""img/test1-reward.PNG"" border=""10px; grey"">","null","","","","","","",""
"null","","html-keyboard-response","10","135552","0.0-2.0-2.2","","<div style=""font-size:60px;"">+</div>","null","","","","","","",""
"null","","image-keyboard-response","11","137054","0.0-2.0-0.3","","img/test2.PNG","null","practice","null","true","","","",""
"null","","html-keyboard-response","12","138055","0.0-2.0-1.3","","<img src=""img/test2-reward.PNG"">","null","","","","","","",""
"null","","html-keyboard-response","13","139056","0.0-2.0-2.3","","<div style=""font-size:60px;"">+</div>","null","","","","","","",""
"null","","image-keyboard-response","14","140558","0.0-2.0-0.4","","img/test3.PNG","null","practice","null","true","","","",""
"null","","html-keyboard-response","15","141559","0.0-2.0-1.4","","<img src=""img/test3-reward.PNG"">","null","","","","","","",""
"null","","html-keyboard-response","16","142560","0.0-2.0-2.4","","<div style=""font-size:60px;"">+</div>","null","","","","","","",""
"412.3599999875296","","image-keyboard-response","17","142973","0.0-2.0-0.5","","img/test1.PNG","32","practice","32","true","","","",""
"null","","html-keyboard-response","18","143974","0.0-2.0-1.5","","<img src=""img/test1-reward.PNG"" border=""10px; grey"">","null","","","","","","",""
"null","","html-keyboard-response","19","144976","0.0-2.0-2.5","","<div style=""font-size:60px;"">+</div>","null","","","","","","",""
"null","","image-keyboard-response","20","146478","0.0-2.0-0.6","","img/test2.PNG","null","practice","null","true","","","",""
"null","","html-keyboard-response","21","147479","0.0-2.0-1.6","","<img src=""img/test2-reward.PNG"">","null","","","","","","",""
"null","","html-keyboard-response","22","148481","0.0-2.0-2.6","","<div style=""font-size:60px;"">+</div>","null","","","","","","",""
"null","","image-keyboard-response","23","149982","0.0-2.0-0.7","","img/test3.PNG","null","practice","null","true","","","",""
"null","","html-keyboard-response","24","150983","0.0-2.0-1.7","","<img src=""img/test3-reward.PNG"">","null","","","","","","",""
"null","","html-keyboard-response","25","151984","0.0-2.0-2.7","","<div style=""font-size:60px;"">+</div>","null","","","","","","",""
"427.97000001883134","","image-keyboard-response","26","152413","0.0-2.0-0.8","","img/test1.PNG","32","practice","32","true","","","",""
"null","","html-keyboard-response","27","153414","0.0-2.0-1.8","","<img src=""img/test1-reward.PNG"" border=""10px; grey"">","null","","","","","","",""
"null","","html-keyboard-response","28","154417","0.0-2.0-2.8","","<div style=""font-size:60px;"">+</div>","null","","","","","","",""
"579.4050000258721","","image-keyboard-response","29","154997","0.0-2.0-0.9","","img/test1.PNG","32","practice","32","true","","","",""
"null","","html-keyboard-response","30","155998","0.0-2.0-1.9","","<img src=""img/test1-reward.PNG"" border=""10px; grey"">","null","","","","","","",""
"null","","html-keyboard-response","31","156999","0.0-2.0-2.9","","<div style=""font-size:60px;"">+</div>","null","","","","","","",""
"null","","image-keyboard-response","32","158501","0.0-2.0-0.10","","img/test3.PNG","null","practice","null","true","","","",""
"null","","html-keyboard-response","33","159502","0.0-2.0-1.10","","<img src=""img/test3-reward.PNG"">","null","","","","","","",""
"null","","html-keyboard-response","34","160502","0.0-2.0-2.10","","<div style=""font-size:60px;"">+</div>","null","","","","","","",""
"null","","image-keyboard-response","35","162003","0.0-2.0-0.11","","img/test2.PNG","null","practice","null","true","","","",""
"null","","html-keyboard-response","36","163004","0.0-2.0-1.11","","<img src=""img/test2-reward.PNG"">","null","","","","","","",""
"null","","html-keyboard-response","37","164006","0.0-2.0-2.11","","<div style=""font-size:60px;"">+</div>","null","","","","","","",""
"3006.435000017518","","instructions","38","167012","0.0-3.0","[{""page_index"":0,""viewing_time"":3006.2850000103936}]","","","","","","","","",""
"null","","image-keyboard-response","39","168514","0.0-4.0-0.0","","img/yellow.png","null","trial","32","false","0.8,0.2","1:go_a","",""
"null","","html-keyboard-response","40","169517","0.0-4.0-1.0","","<img src=""img/yellow-n.png"">","null","trial","32","","0.8,0.2","1:go_a","0",""
"null","","html-keyboard-response","41","170518","0.0-4.0-2.0","","<div style=""font-size:60px;"">+</div>","null","","","","","","",""
"781.9949999975506","","image-keyboard-response","42","171301","0.0-4.0-0.1","","img/red.png","32","trial","null","false","0.2,0.8","2:nogo_b","",""
"null","","html-keyboard-response","43","172302","0.0-4.0-1.1","","<img src=""img/red-n.png"" border=""10"">","null","trial","null","","0.2,0.8","2:nogo_b","0",""
"null","","html-keyboard-response","44","173304","0.0-4.0-2.1","","<div style=""font-size:60px;"">+</div>","null","","","","","","",""
"null","","image-keyboard-response","45","174818","0.0-4.0-0.2","","img/red.png","null","trial","null","true","0.2,0.8","2:nogo_b","",""
"null","","html-keyboard-response","46","175819","0.0-4.0-1.2","","<img src=""img/red-n.png"">","null","trial","null","","0.2,0.8","2:nogo_b","0",""
"null","","html-keyboard-response","47","176820","0.0-4.0-2.2","","<div style=""font-size:60px;"">+</div>","null","","","","","","",""
"null","","image-keyboard-response","48","178322","0.0-4.0-0.3","","img/yellow.png","null","trial","32","false","0.8,0.2","1:go_a","",""
"null","","html-keyboard-response","49","179325","0.0-4.0-1.3","","<img src=""img/yellow-n.png"">","null","trial","32","","0.8,0.2","1:go_a","0",""
"null","","html-keyboard-response","50","180327","0.0-4.0-2.3","","<div style=""font-size:60px;"">+</div>","null","","","","","","",""
"null","","image-keyboard-response","51","181829","0.0-4.0-0.4","","img/red.png","null","trial","null","true","0.2,0.8","2:nogo_b","",""
"null","","html-keyboard-response","52","182830","0.0-4.0-1.4","","<img src=""img/red-r.png"">","null","trial","null","","0.2,0.8","2:nogo_b","1",""
"null","","html-keyboard-response","53","183832","0.0-4.0-2.4","","<div style=""font-size:60px;"">+</div>","null","","","","","","",""
"null","","image-keyboard-response","54","185332","0.0-4.0-0.5","","img/yellow.png","null","trial","32","false","0.8,0.2","1:go_a","",""
"null","","html-keyboard-response","55","186335","0.0-4.0-1.5","","<img src=""img/yellow-n.png"">","null","trial","32","","0.8,0.2","1:go_a","0",""
"null","","html-keyboard-response","56","187349","0.0-4.0-2.5","","<div style=""font-size:60px;"">+</div>","null","","","","","","",""
"null","","image-keyboard-response","57","188850","0.0-4.0-0.6","","img/yellow.png","null","trial","32","false","0.8,0.2","1:go_a","",""
"null","","html-keyboard-response","58","189851","0.0-4.0-1.6","","<img src=""img/yellow-n.png"">","null","trial","32","","0.8,0.2","1:go_a","0",""
"null","","html-keyboard-response","59","190852","0.0-4.0-2.6","","<div style=""font-size:60px;"">+</div>","null","","","","","","",""
"496.43999998806976","","image-keyboard-response","60","191349","0.0-4.0-0.7","","img/red.png","32","trial","null","false","0.2,0.8","2:nogo_b","",""
"null","","html-keyboard-response","61","192351","0.0-4.0-1.7","","<img src=""img/red-n.png"" border=""10"">","null","trial","null","","0.2,0.8","2:nogo_b","0",""
"null","","html-keyboard-response","62","193353","0.0-4.0-2.7","","<div style=""font-size:60px;"">+</div>","null","","","","","","",""
"412.1500000183005","","image-keyboard-response","63","193765","0.0-4.0-0.8","","img/red.png","32","trial","null","false","0.2,0.8","2:nogo_b","",""
"null","","html-keyboard-response","64","194767","0.0-4.0-1.8","","<img src=""img/red-n.png"" border=""10"">","null","trial","null","","0.2,0.8","2:nogo_b","0",""
"null","","html-keyboard-response","65","195769","0.0-4.0-2.8","","<div style=""font-size:60px;"">+</div>","null","","","","","","",""
"564.4700000120793","","image-keyboard-response","66","196334","0.0-4.0-0.9","","img/yellow.png","32","trial","32","true","0.8,0.2","1:go_a","",""
"null","","html-keyboard-response","67","197336","0.0-4.0-1.9","","<img src=""img/yellow-n.png"" border=""10"">","null","trial","32","","0.8,0.2","1:go_a","0",""
"null","","html-keyboard-response","68","198337","0.0-4.0-2.9","","<div style=""font-size:60px;"">+</div>","null","","","","","","",""
"699.5900000038091","","image-keyboard-response","69","199037","0.0-4.0-0.10","","img/red.png","32","trial","null","false","0.2,0.8","2:nogo_b","",""
"null","","html-keyboard-response","70","200040","0.0-4.0-1.10","","<img src=""img/red-r.png"" border=""10"">","null","trial","null","","0.2,0.8","2:nogo_b","1",""
"null","","html-keyboard-response","71","201041","0.0-4.0-2.10","","<div style=""font-size:60px;"">+</div>","null","","","","","","",""
"643.9600000157952","","image-keyboard-response","72","201686","0.0-4.0-0.11","","img/yellow.png","32","trial","32","true","0.8,0.2","1:go_a","",""
"null","","html-keyboard-response","73","202688","0.0-4.0-1.11","","<img src=""img/yellow-r.png"" border=""10"">","null","trial","32","","0.8,0.2","1:go_a","1",""
"null","","html-keyboard-response","74","203689","0.0-4.0-2.11","","<div style=""font-size:60px;"">+</div>","null","","","","","","",""
"643.819999997504","","image-keyboard-response","75","204333","0.0-4.0-0.12","","img/yellow.png","32","trial","32","true","0.8,0.2","1:go_a","",""
"null","","html-keyboard-response","76","205335","0.0-4.0-1.12","","<img src=""img/yellow-n.png"" border=""10"">","null","trial","32","","0.8,0.2","1:go_a","0",""
"null","","html-keyboard-response","77","206336","0.0-4.0-2.12","","<div style=""font-size:60px;"">+</div>","null","","","","","","",""
"null","","image-keyboard-response","78","207838","0.0-4.0-0.13","","img/red.png","null","trial","null","true","0.2,0.8","2:nogo_b","",""
"null","","html-keyboard-response","79","208840","0.0-4.0-1.13","","<img src=""img/red-r.png"">","null","trial","null","","0.2,0.8","2:nogo_b","1",""
"null","","html-keyboard-response","80","209840","0.0-4.0-2.13","","<div style=""font-size:60px;"">+</div>","null","","","","","","",""
"964.4850000040606","","image-keyboard-response","81","210805","0.0-4.0-0.14","","img/yellow.png","32","trial","32","true","0.8,0.2","1:go_a","",""
"null","","html-keyboard-response","82","211807","0.0-4.0-1.14","","<img src=""img/yellow-n.png"" border=""10"">","null","trial","32","","0.8,0.2","1:go_a","0",""
"null","","html-keyboard-response","83","212808","0.0-4.0-2.14","","<div style=""font-size:60px;"">+</div>","null","","","","","","",""
"348.5499999951571","","image-keyboard-response","84","213157","0.0-4.0-0.15","","img/red.png","32","trial","null","false","0.2,0.8","2:nogo_b","",""
"null","","html-keyboard-response","85","214159","0.0-4.0-1.15","","<img src=""img/red-n.png"" border=""10"">","null","trial","null","","0.2,0.8","2:nogo_b","0",""
"null","","html-keyboard-response","86","215160","0.0-4.0-2.15","","<div style=""font-size:60px;"">+</div>","null","","","","","","",""
"852.7299999841489","","image-keyboard-response","87","216014","0.0-4.0-0.16","","img/yellow.png","32","trial","32","true","0.8,0.2","1:go_a","",""
"null","","html-keyboard-response","88","217016","0.0-4.0-1.16","","<img src=""img/yellow-r.png"" border=""10"">","null","trial","32","","0.8,0.2","1:go_a","1",""
"null","","html-keyboard-response","89","218017","0.0-4.0-2.16","","<div style=""font-size:60px;"">+</div>","null","","","","","","",""
"891.9500000192784","","image-keyboard-response","90","218910","0.0-4.0-0.17","","img/red.png","32","trial","null","false","0.2,0.8","2:nogo_b","",""
"null","","html-keyboard-response","91","219911","0.0-4.0-1.17","","<img src=""img/red-n.png"" border=""10"">","null","trial","null","","0.2,0.8","2:nogo_b","0",""
"null","","html-keyboard-response","92","220912","0.0-4.0-2.17","","<div style=""font-size:60px;"">+</div>","null","","","","","","",""
"861.2800000119023","","image-keyboard-response","93","221773","0.0-4.0-0.18","","img/red.png","32","trial","null","false","0.2,0.8","2:nogo_b","",""
"null","","html-keyboard-response","94","222775","0.0-4.0-1.18","","<img src=""img/red-n.png"" border=""10"">","null","trial","null","","0.2,0.8","2:nogo_b","0",""
"null","","html-keyboard-response","95","223776","0.0-4.0-2.18","","<div style=""font-size:60px;"">+</div>","null","","","","","","",""
"null","","image-keyboard-response","96","225278","0.0-4.0-0.19","","img/yellow.png","null","trial","32","false","0.8,0.2","1:go_a","",""
"null","","html-keyboard-response","97","226280","0.0-4.0-1.19","","<img src=""img/yellow-n.png"">","null","trial","32","","0.8,0.2","1:go_a","0",""
"null","","html-keyboard-response","98","227283","0.0-4.0-2.19","","<div style=""font-size:60px;"">+</div>","null","","","","","","",""
"713.5199999902397","","image-keyboard-response","99","227998","0.0-4.0-0.20","","img/red.png","32","trial","null","false","0.2,0.8","2:nogo_b","",""
"null","","html-keyboard-response","100","228999","0.0-4.0-1.20","","<img src=""img/red-r.png"" border=""10"">","null","trial","null","","0.2,0.8","2:nogo_b","1",""
"null","","html-keyboard-response","101","230001","0.0-4.0-2.20","","<div style=""font-size:60px;"">+</div>","null","","","","","","",""
"1003.950000012992","","image-keyboard-response","102","231005","0.0-4.0-0.21","","img/yellow.png","32","trial","32","true","0.8,0.2","1:go_a","",""
"null","","html-keyboard-response","103","232006","0.0-4.0-1.21","","<img src=""img/yellow-r.png"" border=""10"">","null","trial","32","","0.8,0.2","1:go_a","1",""
"null","","html-keyboard-response","104","233008","0.0-4.0-2.21","","<div style=""font-size:60px;"">+</div>","null","","","","","","",""
"917.2350000008009","","image-keyboard-response","105","233925","0.0-4.0-0.22","","img/yellow.png","32","trial","32","true","0.8,0.2","1:go_a","",""
"null","","html-keyboard-response","106","234927","0.0-4.0-1.22","","<img src=""img/yellow-r.png"" border=""10"">","null","trial","32","","0.8,0.2","1:go_a","1",""
"null","","html-keyboard-response","107","235928","0.0-4.0-2.22","","<div style=""font-size:60px;"">+</div>","null","","","","","","",""
"812.5249999866355","","image-keyboard-response","108","236741","0.0-4.0-0.23","","img/red.png","32","trial","null","false","0.2,0.8","2:nogo_b","",""
"null","","html-keyboard-response","109","237743","0.0-4.0-1.23","","<img src=""img/red-n.png"" border=""10"">","null","trial","null","","0.2,0.8","2:nogo_b","0",""
"null","","html-keyboard-response","110","238743","0.0-4.0-2.23","","<div style=""font-size:60px;"">+</div>","null","","","","","","",""
"949.7250000131316","","image-keyboard-response","111","239694","0.0-4.0-0.24","","img/red.png","32","trial","null","false","0.2,0.8","2:nogo_b","",""
"null","","html-keyboard-response","112","240695","0.0-4.0-1.24","","<img src=""img/red-n.png"" border=""10"">","null","trial","null","","0.2,0.8","2:nogo_b","0",""
"null","","html-keyboard-response","113","241697","0.0-4.0-2.24","","<div style=""font-size:60px;"">+</div>","null","","","","","","",""
"null","","image-keyboard-response","114","243199","0.0-4.0-0.25","","img/yellow.png","null","trial","32","false","0.8,0.2","1:go_a","",""
"null","","html-keyboard-response","115","244201","0.0-4.0-1.25","","<img src=""img/yellow-n.png"">","null","trial","32","","0.8,0.2","1:go_a","0",""
"null","","html-keyboard-response","116","245203","0.0-4.0-2.25","","<div style=""font-size:60px;"">+</div>","null","","","","","","",""
"418.0050000140909","","image-keyboard-response","117","245622","0.0-4.0-0.26","","img/red.png","32","trial","null","false","0.2,0.8","2:nogo_b","",""
"null","","html-keyboard-response","118","246623","0.0-4.0-1.26","","<img src=""img/red-n.png"" border=""10"">","null","trial","null","","0.2,0.8","2:nogo_b","0",""
"null","","html-keyboard-response","119","247625","0.0-4.0-2.26","","<div style=""font-size:60px;"">+</div>","null","","","","","","",""
"null","","image-keyboard-response","120","249127","0.0-4.0-0.27","","img/yellow.png","null","trial","32","false","0.8,0.2","1:go_a","",""
"null","","html-keyboard-response","121","250129","0.0-4.0-1.27","","<img src=""img/yellow-n.png"">","null","trial","32","","0.8,0.2","1:go_a","0",""
"null","","html-keyboard-response","122","251130","0.0-4.0-2.27","","<div style=""font-size:60px;"">+</div>","null","","","","","","",""
"890.8550000051036","","image-keyboard-response","123","252021","0.0-4.0-0.28","","img/yellow.png","32","trial","32","true","0.8,0.2","1:go_a","",""
"null","","html-keyboard-response","124","253023","0.0-4.0-1.28","","<img src=""img/yellow-r.png"" border=""10"">","null","trial","32","","0.8,0.2","1:go_a","1",""
"null","","html-keyboard-response","125","254025","0.0-4.0-2.28","","<div style=""font-size:60px;"">+</div>","null","","","","","","",""
"780.2300000039395","","image-keyboard-response","126","254806","0.0-4.0-0.29","","img/red.png","32","trial","null","false","0.2,0.8","2:nogo_b","",""
"null","","html-keyboard-response","127","255807","0.0-4.0-1.29","","<img src=""img/red-n.png"" border=""10"">","null","trial","null","","0.2,0.8","2:nogo_b","0",""
"null","","html-keyboard-response","128","256808","0.0-4.0-2.29","","<div style=""font-size:60px;"">+</div>","null","","","","","","",""
"892.439999995986","","image-keyboard-response","129","257701","0.0-4.0-0.30","","img/red.png","32","trial","null","false","0.2,0.8","2:nogo_b","",""
"null","","html-keyboard-response","130","258703","0.0-4.0-1.30","","<img src=""img/red-r.png"" border=""10"">","null","trial","null","","0.2,0.8","2:nogo_b","1",""
"null","","html-keyboard-response","131","259704","0.0-4.0-2.30","","<div style=""font-size:60px;"">+</div>","null","","","","","","",""
"772.9349999863189","","image-keyboard-response","132","260477","0.0-4.0-0.31","","img/yellow.png","32","trial","32","true","0.8,0.2","1:go_a","",""
"null","","html-keyboard-response","133","261479","0.0-4.0-1.31","","<img src=""img/yellow-r.png"" border=""10"">","null","trial","32","","0.8,0.2","1:go_a","1",""
"null","","html-keyboard-response","134","262481","0.0-4.0-2.31","","<div style=""font-size:60px;"">+</div>","null","","","","","","",""
"null","","image-keyboard-response","135","263982","0.0-4.0-0.32","","img/yellow.png","null","trial","32","false","0.8,0.2","1:go_a","",""
"null","","html-keyboard-response","136","264984","0.0-4.0-1.32","","<img src=""img/yellow-n.png"">","null","trial","32","","0.8,0.2","1:go_a","0",""
"null","","html-keyboard-response","137","265985","0.0-4.0-2.32","","<div style=""font-size:60px;"">+</div>","null","","","","","","",""
"899.5049999793991","","image-keyboard-response","138","266885","0.0-4.0-0.33","","img/red.png","32","trial","null","false","0.2,0.8","2:nogo_b","",""
"null","","html-keyboard-response","139","267898","0.0-4.0-1.33","","<img src=""img/red-n.png"" border=""10"">","null","trial","null","","0.2,0.8","2:nogo_b","0",""
"null","","html-keyboard-response","140","268898","0.0-4.0-2.33","","<div style=""font-size:60px;"">+</div>","null","","","","","","",""
"1082.8599999949802","","image-keyboard-response","141","269982","0.0-4.0-0.34","","img/yellow.png","32","trial","32","true","0.8,0.2","1:go_a","",""
"null","","html-keyboard-response","142","270984","0.0-4.0-1.34","","<img src=""img/yellow-r.png"" border=""10"">","null","trial","32","","0.8,0.2","1:go_a","1",""
"null","","html-keyboard-response","143","271984","0.0-4.0-2.34","","<div style=""font-size:60px;"">+</div>","null","","","","","","",""
"804.4100000115577","","image-keyboard-response","144","272789","0.0-4.0-0.35","","img/red.png","32","trial","null","false","0.2,0.8","2:nogo_b","",""
"null","","html-keyboard-response","145","273791","0.0-4.0-1.35","","<img src=""img/red-n.png"" border=""10"">","null","trial","null","","0.2,0.8","2:nogo_b","0",""
"null","","html-keyboard-response","146","274793","0.0-4.0-2.35","","<div style=""font-size:60px;"">+</div>","null","","","","","","",""
"null","","image-keyboard-response","147","276294","0.0-4.0-0.36","","img/yellow.png","null","trial","32","false","0.8,0.2","1:go_a","",""
"null","","html-keyboard-response","148","277296","0.0-4.0-1.36","","<img src=""img/yellow-n.png"">","null","trial","32","","0.8,0.2","1:go_a","0",""
"null","","html-keyboard-response","149","278297","0.0-4.0-2.36","","<div style=""font-size:60px;"">+</div>","null","","","","","","",""
"804.0949999995064","","image-keyboard-response","150","279102","0.0-4.0-0.37","","img/red.png","32","trial","null","false","0.2,0.8","2:nogo_b","",""
"null","","html-keyboard-response","151","280103","0.0-4.0-1.37","","<img src=""img/red-n.png"" border=""10"">","null","trial","null","","0.2,0.8","2:nogo_b","0",""
"null","","html-keyboard-response","152","281104","0.0-4.0-2.37","","<div style=""font-size:60px;"">+</div>","null","","","","","","",""
"909.060000005411","","image-keyboard-response","153","282014","0.0-4.0-0.38","","img/yellow.png","32","trial","32","true","0.8,0.2","1:go_a","",""
"null","","html-keyboard-response","154","283016","0.0-4.0-1.38","","<img src=""img/yellow-r.png"" border=""10"">","null","trial","32","","0.8,0.2","1:go_a","1",""
"null","","html-keyboard-response","155","284018","0.0-4.0-2.38","","<div style=""font-size:60px;"">+</div>","null","","","","","","",""
"null","","image-keyboard-response","156","285519","0.0-4.0-0.39","","img/red.png","null","trial","null","true","0.2,0.8","2:nogo_b","",""
"null","","html-keyboard-response","157","286521","0.0-4.0-1.39","","<img src=""img/red-n.png"">","null","trial","null","","0.2,0.8","2:nogo_b","0",""
"null","","html-keyboard-response","158","287522","0.0-4.0-2.39","","<div style=""font-size:60px;"">+</div>","null","","","","","","",""
"875.1850000116974","","image-keyboard-response","159","288398","0.0-4.0-0.40","","img/red.png","32","trial","null","false","0.2,0.8","2:nogo_b","",""
"null","","html-keyboard-response","160","289398","0.0-4.0-1.40","","<img src=""img/red-n.png"" border=""10"">","null","trial","null","","0.2,0.8","2:nogo_b","0",""
"null","","html-keyboard-response","161","290399","0.0-4.0-2.40","","<div style=""font-size:60px;"">+</div>","null","","","","","","",""
"null","","image-keyboard-response","162","291901","0.0-4.0-0.41","","img/yellow.png","null","trial","32","false","0.8,0.2","1:go_a","",""
"null","","html-keyboard-response","163","292902","0.0-4.0-1.41","","<img src=""img/yellow-n.png"">","null","trial","32","","0.8,0.2","1:go_a","0",""
"null","","html-keyboard-response","164","293904","0.0-4.0-2.41","","<div style=""font-size:60px;"">+</div>","null","","","","","","",""
"917.2700000053737","","image-keyboard-response","165","294822","0.0-4.0-0.42","","img/yellow.png","32","trial","32","true","0.8,0.2","1:go_a","",""
"null","","html-keyboard-response","166","295824","0.0-4.0-1.42","","<img src=""img/yellow-n.png"" border=""10"">","null","trial","32","","0.8,0.2","1:go_a","0",""
"null","","html-keyboard-response","167","296825","0.0-4.0-2.42","","<div style=""font-size:60px;"">+</div>","null","","","","","","",""
"899.4149999925867","","image-keyboard-response","168","297725","0.0-4.0-0.43","","img/red.png","32","trial","null","false","0.2,0.8","2:nogo_b","",""
"null","","html-keyboard-response","169","298727","0.0-4.0-1.43","","<img src=""img/red-r.png"" border=""10"">","null","trial","null","","0.2,0.8","2:nogo_b","1",""
"null","","html-keyboard-response","170","299729","0.0-4.0-2.43","","<div style=""font-size:60px;"">+</div>","null","","","","","","",""
"1092.2049999935552","","image-keyboard-response","171","300821","0.0-4.0-0.44","","img/yellow.png","32","trial","32","true","0.8,0.2","1:go_a","",""
"null","","html-keyboard-response","172","301823","0.0-4.0-1.44","","<img src=""img/yellow-n.png"" border=""10"">","null","trial","32","","0.8,0.2","1:go_a","0",""
"null","","html-keyboard-response","173","302824","0.0-4.0-2.44","","<div style=""font-size:60px;"">+</div>","null","","","","","","",""
"null","","image-keyboard-response","174","304326","0.0-4.0-0.45","","img/red.png","null","trial","null","true","0.2,0.8","2:nogo_b","",""
"null","","html-keyboard-response","175","305328","0.0-4.0-1.45","","<img src=""img/red-r.png"">","null","trial","null","","0.2,0.8","2:nogo_b","1",""
"null","","html-keyboard-response","176","306330","0.0-4.0-2.45","","<div style=""font-size:60px;"">+</div>","null","","","","","","",""
"931.4000000013039","","image-keyboard-response","177","307261","0.0-4.0-0.46","","img/red.png","32","trial","null","false","0.2,0.8","2:nogo_b","",""
"null","","html-keyboard-response","178","308263","0.0-4.0-1.46","","<img src=""img/red-n.png"" border=""10"">","null","trial","null","","0.2,0.8","2:nogo_b","0",""
"null","","html-keyboard-response","179","309265","0.0-4.0-2.46","","<div style=""font-size:60px;"">+</div>","null","","","","","","",""
"931.7200000223238","","image-keyboard-response","180","310197","0.0-4.0-0.47","","img/yellow.png","32","trial","32","true","0.8,0.2","1:go_a","",""
"null","","html-keyboard-response","181","311199","0.0-4.0-1.47","","<img src=""img/yellow-r.png"" border=""10"">","null","trial","32","","0.8,0.2","1:go_a","1",""
"null","","html-keyboard-response","182","312200","0.0-4.0-2.47","","<div style=""font-size:60px;"">+</div>","null","","","","","","",""
"852.1500000206288","","image-keyboard-response","183","313053","0.0-4.0-0.48","","img/red.png","32","trial","null","false","0.2,0.8","2:nogo_b","",""
"null","","html-keyboard-response","184","314055","0.0-4.0-1.48","","<img src=""img/red-n.png"" border=""10"">","null","trial","null","","0.2,0.8","2:nogo_b","0",""
"null","","html-keyboard-response","185","315057","0.0-4.0-2.48","","<div style=""font-size:60px;"">+</div>","null","","","","","","",""
"null","","image-keyboard-response","186","316558","0.0-4.0-0.49","","img/yellow.png","null","trial","32","false","0.8,0.2","1:go_a","",""
"null","","html-keyboard-response","187","317559","0.0-4.0-1.49","","<img src=""img/yellow-n.png"">","null","trial","32","","0.8,0.2","1:go_a","0",""
"null","","html-keyboard-response","188","318560","0.0-4.0-2.49","","<div style=""font-size:60px;"">+</div>","null","","","","","","",""
"null","","image-keyboard-response","189","320061","0.0-4.0-0.50","","img/yellow.png","null","trial","32","false","0.8,0.2","1:go_a","",""
"null","","html-keyboard-response","190","321063","0.0-4.0-1.50","","<img src=""img/yellow-n.png"">","null","trial","32","","0.8,0.2","1:go_a","0",""
"null","","html-keyboard-response","191","322064","0.0-4.0-2.50","","<div style=""font-size:60px;"">+</div>","null","","","","","","",""
"492.3899999994319","","image-keyboard-response","192","322557","0.0-4.0-0.51","","img/red.png","32","trial","null","false","0.2,0.8","2:nogo_b","",""
"null","","html-keyboard-response","193","323558","0.0-4.0-1.51","","<img src=""img/red-n.png"" border=""10"">","null","trial","null","","0.2,0.8","2:nogo_b","0",""
"null","","html-keyboard-response","194","324559","0.0-4.0-2.51","","<div style=""font-size:60px;"">+</div>","null","","","","","","",""
"997.3549999995157","","image-keyboard-response","195","325557","0.0-4.0-0.52","","img/red.png","32","trial","null","false","0.2,0.8","2:nogo_b","",""
"null","","html-keyboard-response","196","326559","0.0-4.0-1.52","","<img src=""img/red-n.png"" border=""10"">","null","trial","null","","0.2,0.8","2:nogo_b","0",""
"null","","html-keyboard-response","197","327561","0.0-4.0-2.52","","<div style=""font-size:60px;"">+</div>","null","","","","","","",""
"955.7350000250153","","image-keyboard-response","198","328517","0.0-4.0-0.53","","img/yellow.png","32","trial","32","true","0.8,0.2","1:go_a","",""
"null","","html-keyboard-response","199","329519","0.0-4.0-1.53","","<img src=""img/yellow-r.png"" border=""10"">","null","trial","32","","0.8,0.2","1:go_a","1",""
"null","","html-keyboard-response","200","330522","0.0-4.0-2.53","","<div style=""font-size:60px;"">+</div>","null","","","","","","",""
"null","","image-keyboard-response","201","332024","0.0-4.0-0.54","","img/yellow.png","null","trial","32","false","0.8,0.2","1:go_a","",""
"null","","html-keyboard-response","202","333026","0.0-4.0-1.54","","<img src=""img/yellow-n.png"">","null","trial","32","","0.8,0.2","1:go_a","0",""
"null","","html-keyboard-response","203","334027","0.0-4.0-2.54","","<div style=""font-size:60px;"">+</div>","null","","","","","","",""
"817.1999999904074","","image-keyboard-response","204","334845","0.0-4.0-0.55","","img/red.png","32","trial","null","false","0.2,0.8","2:nogo_b","",""
"null","","html-keyboard-response","205","335847","0.0-4.0-1.55","","<img src=""img/red-n.png"" border=""10"">","null","trial","null","","0.2,0.8","2:nogo_b","0",""
"null","","html-keyboard-response","206","336848","0.0-4.0-2.55","","<div style=""font-size:60px;"">+</div>","null","","","","","","",""
"null","","image-keyboard-response","207","338349","0.0-4.0-0.56","","img/red.png","null","trial","null","true","0.2,0.8","2:nogo_b","",""
"null","","html-keyboard-response","208","339350","0.0-4.0-1.56","","<img src=""img/red-r.png"">","null","trial","null","","0.2,0.8","2:nogo_b","1",""
"null","","html-keyboard-response","209","340352","0.0-4.0-2.56","","<div style=""font-size:60px;"">+</div>","null","","","","","","",""
"892.6599999831524","","image-keyboard-response","210","341245","0.0-4.0-0.57","","img/yellow.png","32","trial","32","true","0.8,0.2","1:go_a","",""
"null","","html-keyboard-response","211","342247","0.0-4.0-1.57","","<img src=""img/yellow-r.png"" border=""10"">","null","trial","32","","0.8,0.2","1:go_a","1",""
"null","","html-keyboard-response","212","343248","0.0-4.0-2.57","","<div style=""font-size:60px;"">+</div>","null","","","","","","",""
"null","","image-keyboard-response","213","344751","0.0-4.0-0.58","","img/red.png","null","trial","null","true","0.2,0.8","2:nogo_b","",""
"null","","html-keyboard-response","214","345753","0.0-4.0-1.58","","<img src=""img/red-r.png"">","null","trial","null","","0.2,0.8","2:nogo_b","1",""
"null","","html-keyboard-response","215","346755","0.0-4.0-2.58","","<div style=""font-size:60px;"">+</div>","null","","","","","","",""
"1322.264999995241","","image-keyboard-response","216","348077","0.0-4.0-0.59","","img/yellow.png","32","trial","32","true","0.8,0.2","1:go_a","",""
"null","","html-keyboard-response","217","349079","0.0-4.0-1.59","","<img src=""img/yellow-r.png"" border=""10"">","null","trial","32","","0.8,0.2","1:go_a","1",""
"null","","html-keyboard-response","218","350080","0.0-4.0-2.59","","<div style=""font-size:60px;"">+</div>","null","","","","","","",""
"3199.974999995902","","instructions","219","353280","0.0-5.0","[{""page_index"":0,""viewing_time"":3199.8900000180583}]","","","","","","","","",""
"1316.0149999894202","","image-keyboard-response","220","354597","0.0-6.0-0.0","","img/grey.png","32","trial","32","true","0.8,0.2","1:go_a","",""
"null","","html-keyboard-response","221","355599","0.0-6.0-1.0","","<img src=""img/grey-r.png"" border=""10"">","null","trial","32","","0.8,0.2","1:go_a","1",""
"null","","html-keyboard-response","222","356600","0.0-6.0-2.0","","<div style=""font-size:60px;"">+</div>","null","","","","","","",""
"948.0599999951664","","image-keyboard-response","223","357549","0.0-6.0-0.1","","img/pink.png","32","trial","null","false","0,1","4:nogo_d","",""
"null","","html-keyboard-response","224","358551","0.0-6.0-1.1","","<img src=""img/pink-n.png"" border=""10"">","null","trial","null","","0,1","4:nogo_d","0",""
"null","","html-keyboard-response","225","359553","0.0-6.0-2.1","","<div style=""font-size:60px;"">+</div>","null","","","","","","",""
"923.5099999932572","","image-keyboard-response","226","360477","0.0-6.0-0.2","","img/green.png","32","trial","null","false","0.2,0.8","2:nogo_b","",""
"null","","html-keyboard-response","227","361479","0.0-6.0-1.2","","<img src=""img/green-r.png"" border=""10"">","null","trial","null","","0.2,0.8","2:nogo_b","1",""
"null","","html-keyboard-response","228","362480","0.0-6.0-2.2","","<div style=""font-size:60px;"">+</div>","null","","","","","","",""
"1060.7399999862537","","image-keyboard-response","229","363541","0.0-6.0-0.3","","img/purple.png","32","trial","32","true","1,0","3:go_c","",""
"null","","html-keyboard-response","230","364543","0.0-6.0-1.3","","<img src=""img/purple-r.png"" border=""10"">","null","trial","32","","1,0","3:go_c","1",""
"null","","html-keyboard-response","231","365545","0.0-6.0-2.3","","<div style=""font-size:60px;"">+</div>","null","","","","","","",""
"null","","image-keyboard-response","232","367046","0.0-6.0-0.4","","img/purple.png","null","trial","32","false","1,0","3:go_c","",""
"null","","html-keyboard-response","233","368050","0.0-6.0-1.4","","<img src=""img/purple-n.png"">","null","trial","32","","1,0","3:go_c","0",""
"null","","html-keyboard-response","234","369051","0.0-6.0-2.4","","<div style=""font-size:60px;"">+</div>","null","","","","","","",""
"null","","image-keyboard-response","235","370553","0.0-6.0-0.5","","img/grey.png","null","trial","32","false","0.8,0.2","1:go_a","",""
"null","","html-keyboard-response","236","371554","0.0-6.0-1.5","","<img src=""img/grey-n.png"">","null","trial","32","","0.8,0.2","1:go_a","0",""
"null","","html-keyboard-response","237","372555","0.0-6.0-2.5","","<div style=""font-size:60px;"">+</div>","null","","","","","","",""
"833.4349999786355","","image-keyboard-response","238","373389","0.0-6.0-0.6","","img/green.png","32","trial","null","false","0.2,0.8","2:nogo_b","",""
"null","","html-keyboard-response","239","374391","0.0-6.0-1.6","","<img src=""img/green-n.png"" border=""10"">","null","trial","null","","0.2,0.8","2:nogo_b","0",""
"null","","html-keyboard-response","240","375392","0.0-6.0-2.6","","<div style=""font-size:60px;"">+</div>","null","","","","","","",""
"null","","image-keyboard-response","241","376893","0.0-6.0-0.7","","img/pink.png","null","trial","null","true","0,1","4:nogo_d","",""
"null","","html-keyboard-response","242","377895","0.0-6.0-1.7","","<img src=""img/pink-r.png"">","null","trial","null","","0,1","4:nogo_d","1",""
"null","","html-keyboard-response","243","378897","0.0-6.0-2.7","","<div style=""font-size:60px;"">+</div>","null","","","","","","",""
"788.1000000052154","","image-keyboard-response","244","379685","0.0-6.0-0.8","","img/purple.png","32","trial","32","true","1,0","3:go_c","",""
"null","","html-keyboard-response","245","380699","0.0-6.0-1.8","","<img src=""img/purple-r.png"" border=""10"">","null","trial","32","","1,0","3:go_c","1",""
"null","","html-keyboard-response","246","381701","0.0-6.0-2.8","","<div style=""font-size:60px;"">+</div>","null","","","","","","",""
"943.9100000017788","","image-keyboard-response","247","382646","0.0-6.0-0.9","","img/pink.png","32","trial","null","false","0,1","4:nogo_d","",""
"null","","html-keyboard-response","248","383647","0.0-6.0-1.9","","<img src=""img/pink-n.png"" border=""10"">","null","trial","null","","0,1","4:nogo_d","0",""
"null","","html-keyboard-response","249","384649","0.0-6.0-2.9","","<div style=""font-size:60px;"">+</div>","null","","","","","","",""
"868.2200000039302","","image-keyboard-response","250","385518","0.0-6.0-0.10","","img/green.png","32","trial","null","false","0.2,0.8","2:nogo_b","",""
"null","","html-keyboard-response","251","386520","0.0-6.0-1.10","","<img src=""img/green-n.png"" border=""10"">","null","trial","null","","0.2,0.8","2:nogo_b","0",""
"null","","html-keyboard-response","252","387521","0.0-6.0-2.10","","<div style=""font-size:60px;"">+</div>","null","","","","","","",""
"1444.0499999909662","","image-keyboard-response","253","388966","0.0-6.0-0.11","","img/grey.png","32","trial","32","true","0.8,0.2","1:go_a","",""
"null","","html-keyboard-response","254","389967","0.0-6.0-1.11","","<img src=""img/grey-r.png"" border=""10"">","null","trial","32","","0.8,0.2","1:go_a","1",""
"null","","html-keyboard-response","255","390968","0.0-6.0-2.11","","<div style=""font-size:60px;"">+</div>","null","","","","","","",""
"null","","image-keyboard-response","256","392470","0.0-6.0-0.12","","img/grey.png","null","trial","32","false","0.8,0.2","1:go_a","",""
"null","","html-keyboard-response","257","393471","0.0-6.0-1.12","","<img src=""img/grey-r.png"">","null","trial","32","","0.8,0.2","1:go_a","1",""
"null","","html-keyboard-response","258","394473","0.0-6.0-2.12","","<div style=""font-size:60px;"">+</div>","null","","","","","","",""
"900.1949999947101","","image-keyboard-response","259","395374","0.0-6.0-0.13","","img/purple.png","32","trial","32","true","1,0","3:go_c","",""
"null","","html-keyboard-response","260","396375","0.0-6.0-1.13","","<img src=""img/purple-r.png"" border=""10"">","null","trial","32","","1,0","3:go_c","1",""
"null","","html-keyboard-response","261","397377","0.0-6.0-2.13","","<div style=""font-size:60px;"">+</div>","null","","","","","","",""
"null","","image-keyboard-response","262","398879","0.0-6.0-0.14","","img/pink.png","null","trial","null","true","0,1","4:nogo_d","",""
"null","","html-keyboard-response","263","399880","0.0-6.0-1.14","","<img src=""img/pink-r.png"">","null","trial","null","","0,1","4:nogo_d","1",""
"null","","html-keyboard-response","264","400881","0.0-6.0-2.14","","<div style=""font-size:60px;"">+</div>","null","","","","","","",""
"null","","image-keyboard-response","265","402384","0.0-6.0-0.15","","img/green.png","null","trial","null","true","0.2,0.8","2:nogo_b","",""
"null","","html-keyboard-response","266","403385","0.0-6.0-1.15","","<img src=""img/green-r.png"">","null","trial","null","","0.2,0.8","2:nogo_b","1",""
"null","","html-keyboard-response","267","404387","0.0-6.0-2.15","","<div style=""font-size:60px;"">+</div>","null","","","","","","",""
"1098.360000003595","","image-keyboard-response","268","405486","0.0-6.0-0.16","","img/grey.png","32","trial","32","true","0.8,0.2","1:go_a","",""
"null","","html-keyboard-response","269","406487","0.0-6.0-1.16","","<img src=""img/grey-n.png"" border=""10"">","null","trial","32","","0.8,0.2","1:go_a","0",""
"null","","html-keyboard-response","270","407488","0.0-6.0-2.16","","<div style=""font-size:60px;"">+</div>","null","","","","","","",""
"860.9049999795388","","image-keyboard-response","271","408349","0.0-6.0-0.17","","img/purple.png","32","trial","32","true","1,0","3:go_c","",""
"null","","html-keyboard-response","272","409351","0.0-6.0-1.17","","<img src=""img/purple-r.png"" border=""10"">","null","trial","32","","1,0","3:go_c","1",""
"null","","html-keyboard-response","273","410352","0.0-6.0-2.17","","<div style=""font-size:60px;"">+</div>","null","","","","","","",""
"null","","image-keyboard-response","274","411853","0.0-6.0-0.18","","img/green.png","null","trial","null","true","0.2,0.8","2:nogo_b","",""
"null","","html-keyboard-response","275","412854","0.0-6.0-1.18","","<img src=""img/green-n.png"">","null","trial","null","","0.2,0.8","2:nogo_b","0",""
"null","","html-keyboard-response","276","413855","0.0-6.0-2.18","","<div style=""font-size:60px;"">+</div>","null","","","","","","",""
"637.8700000059325","","image-keyboard-response","277","414493","0.0-6.0-0.19","","img/pink.png","32","trial","null","false","0,1","4:nogo_d","",""
"null","","html-keyboard-response","278","415495","0.0-6.0-1.19","","<img src=""img/pink-n.png"" border=""10"">","null","trial","null","","0,1","4:nogo_d","0",""
"null","","html-keyboard-response","279","416510","0.0-6.0-2.19","","<div style=""font-size:60px;"">+</div>","null","","","","","","",""
"1046.699999977136","","image-keyboard-response","280","417558","0.0-6.0-0.20","","img/purple.png","32","trial","32","true","1,0","3:go_c","",""
"null","","html-keyboard-response","281","418560","0.0-6.0-1.20","","<img src=""img/purple-r.png"" border=""10"">","null","trial","32","","1,0","3:go_c","1",""
"null","","html-keyboard-response","282","419561","0.0-6.0-2.20","","<div style=""font-size:60px;"">+</div>","null","","","","","","",""
"1067.7399999985937","","image-keyboard-response","283","420630","0.0-6.0-0.21","","img/green.png","32","trial","null","false","0.2,0.8","2:nogo_b","",""
"null","","html-keyboard-response","284","421631","0.0-6.0-1.21","","<img src=""img/green-n.png"" border=""10"">","null","trial","null","","0.2,0.8","2:nogo_b","0",""
"null","","html-keyboard-response","285","422632","0.0-6.0-2.21","","<div style=""font-size:60px;"">+</div>","null","","","","","","",""
"852.8099999821279","","image-keyboard-response","286","423486","0.0-6.0-0.22","","img/grey.png","32","trial","32","true","0.8,0.2","1:go_a","",""
"null","","html-keyboard-response","287","424487","0.0-6.0-1.22","","<img src=""img/grey-r.png"" border=""10"">","null","trial","32","","0.8,0.2","1:go_a","1",""
"null","","html-keyboard-response","288","425490","0.0-6.0-2.22","","<div style=""font-size:60px;"">+</div>","null","","","","","","",""
"947.8400000080001","","image-keyboard-response","289","426438","0.0-6.0-0.23","","img/pink.png","32","trial","null","false","0,1","4:nogo_d","",""
"null","","html-keyboard-response","290","427439","0.0-6.0-1.23","","<img src=""img/pink-n.png"" border=""10"">","null","trial","null","","0,1","4:nogo_d","0",""
"null","","html-keyboard-response","291","428440","0.0-6.0-2.23","","<div style=""font-size:60px;"">+</div>","null","","","","","","",""
"1172.9449999984354","","image-keyboard-response","292","429614","0.0-6.0-0.24","","img/pink.png","32","trial","null","false","0,1","4:nogo_d","",""
"null","","html-keyboard-response","293","430615","0.0-6.0-1.24","","<img src=""img/pink-n.png"" border=""10"">","null","trial","null","","0,1","4:nogo_d","0",""
"null","","html-keyboard-response","294","431617","0.0-6.0-2.24","","<div style=""font-size:60px;"">+</div>","null","","","","","","",""
"null","","image-keyboard-response","295","433119","0.0-6.0-0.25","","img/green.png","null","trial","null","true","0.2,0.8","2:nogo_b","",""
"null","","html-keyboard-response","296","434120","0.0-6.0-1.25","","<img src=""img/green-r.png"">","null","trial","null","","0.2,0.8","2:nogo_b","1",""
"null","","html-keyboard-response","297","435121","0.0-6.0-2.25","","<div style=""font-size:60px;"">+</div>","null","","","","","","",""
"708.0249999999069","","image-keyboard-response","298","435830","0.0-6.0-0.26","","img/purple.png","32","trial","32","true","1,0","3:go_c","",""
"null","","html-keyboard-response","299","436832","0.0-6.0-1.26","","<img src=""img/purple-r.png"" border=""10"">","null","trial","32","","1,0","3:go_c","1",""
"null","","html-keyboard-response","300","437833","0.0-6.0-2.26","","<div style=""font-size:60px;"">+</div>","null","","","","","","",""
"675.9299999976065","","image-keyboard-response","301","438509","0.0-6.0-0.27","","img/grey.png","32","trial","32","true","0.8,0.2","1:go_a","",""
"null","","html-keyboard-response","302","439511","0.0-6.0-1.27","","<img src=""img/grey-r.png"" border=""10"">","null","trial","32","","0.8,0.2","1:go_a","1",""
"null","","html-keyboard-response","303","440515","0.0-6.0-2.27","","<div style=""font-size:60px;"">+</div>","null","","","","","","",""
"1066.3449999992736","","image-keyboard-response","304","441582","0.0-6.0-0.28","","img/purple.png","32","trial","32","true","1,0","3:go_c","",""
"null","","html-keyboard-response","305","442583","0.0-6.0-1.28","","<img src=""img/purple-r.png"" border=""10"">","null","trial","32","","1,0","3:go_c","1",""
"null","","html-keyboard-response","306","443584","0.0-6.0-2.28","","<div style=""font-size:60px;"">+</div>","null","","","","","","",""
"996.8100000114646","","image-keyboard-response","307","444582","0.0-6.0-0.29","","img/pink.png","32","trial","null","false","0,1","4:nogo_d","",""
"null","","html-keyboard-response","308","445583","0.0-6.0-1.29","","<img src=""img/pink-n.png"" border=""10"">","null","trial","null","","0,1","4:nogo_d","0",""
"null","","html-keyboard-response","309","446584","0.0-6.0-2.29","","<div style=""font-size:60px;"">+</div>","null","","","","","","",""
"1020.7349999982398","","image-keyboard-response","310","447606","0.0-6.0-0.30","","img/grey.png","32","trial","32","true","0.8,0.2","1:go_a","",""
"null","","html-keyboard-response","311","448607","0.0-6.0-1.30","","<img src=""img/grey-n.png"" border=""10"">","null","trial","32","","0.8,0.2","1:go_a","0",""
"null","","html-keyboard-response","312","449608","0.0-6.0-2.30","","<div style=""font-size:60px;"">+</div>","null","","","","","","",""
"null","","image-keyboard-response","313","451109","0.0-6.0-0.31","","img/green.png","null","trial","null","true","0.2,0.8","2:nogo_b","",""
"null","","html-keyboard-response","314","452110","0.0-6.0-1.31","","<img src=""img/green-r.png"">","null","trial","null","","0.2,0.8","2:nogo_b","1",""
"null","","html-keyboard-response","315","453111","0.0-6.0-2.31","","<div style=""font-size:60px;"">+</div>","null","","","","","","",""
"846.1700000043493","","image-keyboard-response","316","453958","0.0-6.0-0.32","","img/grey.png","32","trial","32","true","0.8,0.2","1:go_a","",""
"null","","html-keyboard-response","317","454960","0.0-6.0-1.32","","<img src=""img/grey-r.png"" border=""10"">","null","trial","32","","0.8,0.2","1:go_a","1",""
"null","","html-keyboard-response","318","455961","0.0-6.0-2.32","","<div style=""font-size:60px;"">+</div>","null","","","","","","",""
"724.259999988135","","image-keyboard-response","319","456686","0.0-6.0-0.33","","img/purple.png","32","trial","32","true","1,0","3:go_c","",""
"null","","html-keyboard-response","320","457688","0.0-6.0-1.33","","<img src=""img/purple-r.png"" border=""10"">","null","trial","32","","1,0","3:go_c","1",""
"null","","html-keyboard-response","321","458689","0.0-6.0-2.33","","<div style=""font-size:60px;"">+</div>","null","","","","","","",""
"900.3500000108033","","image-keyboard-response","322","459590","0.0-6.0-0.34","","img/pink.png","32","trial","null","false","0,1","4:nogo_d","",""
"null","","html-keyboard-response","323","460591","0.0-6.0-1.34","","<img src=""img/pink-n.png"" border=""10"">","null","trial","null","","0,1","4:nogo_d","0",""
"null","","html-keyboard-response","324","461592","0.0-6.0-2.34","","<div style=""font-size:60px;"">+</div>","null","","","","","","",""
"null","","image-keyboard-response","325","463093","0.0-6.0-0.35","","img/green.png","null","trial","null","true","0.2,0.8","2:nogo_b","",""
"null","","html-keyboard-response","326","464095","0.0-6.0-1.35","","<img src=""img/green-r.png"">","null","trial","null","","0.2,0.8","2:nogo_b","1",""
"null","","html-keyboard-response","327","465096","0.0-6.0-2.35","","<div style=""font-size:60px;"">+</div>","null","","","","","","",""
"null","","image-keyboard-response","328","466597","0.0-6.0-0.36","","img/green.png","null","trial","null","true","0.2,0.8","2:nogo_b","",""
"null","","html-keyboard-response","329","467598","0.0-6.0-1.36","","<img src=""img/green-r.png"">","null","trial","null","","0.2,0.8","2:nogo_b","1",""
"null","","html-keyboard-response","330","468608","0.0-6.0-2.36","","<div style=""font-size:60px;"">+</div>","null","","","","","","",""
"949.5400000014342","","image-keyboard-response","331","469558","0.0-6.0-0.37","","img/purple.png","32","trial","32","true","1,0","3:go_c","",""
"null","","html-keyboard-response","332","470568","0.0-6.0-1.37","","<img src=""img/purple-r.png"" border=""10"">","null","trial","32","","1,0","3:go_c","1",""
"null","","html-keyboard-response","333","471570","0.0-6.0-2.37","","<div style=""font-size:60px;"">+</div>","null","","","","","","",""
"763.4299999917857","","image-keyboard-response","334","472334","0.0-6.0-0.38","","img/grey.png","32","trial","32","true","0.8,0.2","1:go_a","",""
"null","","html-keyboard-response","335","473336","0.0-6.0-1.38","","<img src=""img/grey-n.png"" border=""10"">","null","trial","32","","0.8,0.2","1:go_a","0",""
"null","","html-keyboard-response","336","474337","0.0-6.0-2.38","","<div style=""font-size:60px;"">+</div>","null","","","","","","",""
"812.4550000065938","","image-keyboard-response","337","475150","0.0-6.0-0.39","","img/pink.png","32","trial","null","false","0,1","4:nogo_d","",""
"null","","html-keyboard-response","338","476151","0.0-6.0-1.39","","<img src=""img/pink-n.png"" border=""10"">","null","trial","null","","0,1","4:nogo_d","0",""
"null","","html-keyboard-response","339","477153","0.0-6.0-2.39","","<div style=""font-size:60px;"">+</div>","null","","","","","","",""
"844.6600000024773","","image-keyboard-response","340","477998","0.0-6.0-0.40","","img/pink.png","32","trial","null","false","0,1","4:nogo_d","",""
"null","","html-keyboard-response","341","479000","0.0-6.0-1.40","","<img src=""img/pink-n.png"" border=""10"">","null","trial","null","","0,1","4:nogo_d","0",""
"null","","html-keyboard-response","342","480001","0.0-6.0-2.40","","<div style=""font-size:60px;"">+</div>","null","","","","","","",""
"1092.0849999820348","","image-keyboard-response","343","481094","0.0-6.0-0.41","","img/purple.png","32","trial","32","true","1,0","3:go_c","",""
"null","","html-keyboard-response","344","482096","0.0-6.0-1.41","","<img src=""img/purple-r.png"" border=""10"">","null","trial","32","","1,0","3:go_c","1",""
"null","","html-keyboard-response","345","483097","0.0-6.0-2.41","","<div style=""font-size:60px;"">+</div>","null","","","","","","",""
"939.8599999840371","","image-keyboard-response","346","484038","0.0-6.0-0.42","","img/grey.png","32","trial","32","true","0.8,0.2","1:go_a","",""
"null","","html-keyboard-response","347","485040","0.0-6.0-1.42","","<img src=""img/grey-r.png"" border=""10"">","null","trial","32","","0.8,0.2","1:go_a","1",""
"null","","html-keyboard-response","348","486041","0.0-6.0-2.42","","<div style=""font-size:60px;"">+</div>","null","","","","","","",""
"875.9100000024773","","image-keyboard-response","349","486918","0.0-6.0-0.43","","img/green.png","32","trial","null","false","0.2,0.8","2:nogo_b","",""
"null","","html-keyboard-response","350","487923","0.0-6.0-1.43","","<img src=""img/green-n.png"" border=""10"">","null","trial","null","","0.2,0.8","2:nogo_b","0",""
"null","","html-keyboard-response","351","488938","0.0-6.0-2.43","","<div style=""font-size:60px;"">+</div>","null","","","","","","",""
"1026.8550000037067","","image-keyboard-response","352","489966","0.0-6.0-0.44","","img/purple.png","32","trial","32","true","1,0","3:go_c","",""
"null","","html-keyboard-response","353","490967","0.0-6.0-1.44","","<img src=""img/purple-r.png"" border=""10"">","null","trial","32","","1,0","3:go_c","1",""
"null","","html-keyboard-response","354","491967","0.0-6.0-2.44","","<div style=""font-size:60px;"">+</div>","null","","","","","","",""
"806.0399999958463","","image-keyboard-response","355","492774","0.0-6.0-0.45","","img/pink.png","32","trial","null","false","0,1","4:nogo_d","",""
"null","","html-keyboard-response","356","493775","0.0-6.0-1.45","","<img src=""img/pink-n.png"" border=""10"">","null","trial","null","","0,1","4:nogo_d","0",""
"null","","html-keyboard-response","357","494777","0.0-6.0-2.45","","<div style=""font-size:60px;"">+</div>","null","","","","","","",""
"1236.4850000012666","","image-keyboard-response","358","496014","0.0-6.0-0.46","","img/green.png","32","trial","null","false","0.2,0.8","2:nogo_b","",""
"null","","html-keyboard-response","359","497016","0.0-6.0-1.46","","<img src=""img/green-r.png"" border=""10"">","null","trial","null","","0.2,0.8","2:nogo_b","1",""
"null","","html-keyboard-response","360","498017","0.0-6.0-2.46","","<div style=""font-size:60px;"">+</div>","null","","","","","","",""
"859.9099999992177","","image-keyboard-response","361","498878","0.0-6.0-0.47","","img/grey.png","32","trial","32","true","0.8,0.2","1:go_a","",""
"null","","html-keyboard-response","362","499884","0.0-6.0-1.47","","<img src=""img/grey-n.png"" border=""10"">","null","trial","32","","0.8,0.2","1:go_a","0",""
"null","","html-keyboard-response","363","500884","0.0-6.0-2.47","","<div style=""font-size:60px;"">+</div>","null","","","","","","",""
"null","","image-keyboard-response","364","502387","0.0-6.0-0.48","","img/grey.png","null","trial","32","false","0.8,0.2","1:go_a","",""
"null","","html-keyboard-response","365","503389","0.0-6.0-1.48","","<img src=""img/grey-n.png"">","null","trial","32","","0.8,0.2","1:go_a","0",""
"null","","html-keyboard-response","366","504390","0.0-6.0-2.48","","<div style=""font-size:60px;"">+</div>","null","","","","","","",""
"735.1100000087172","","image-keyboard-response","367","505126","0.0-6.0-0.49","","img/purple.png","32","trial","32","true","1,0","3:go_c","",""
"null","","html-keyboard-response","368","506127","0.0-6.0-1.49","","<img src=""img/purple-r.png"" border=""10"">","null","trial","32","","1,0","3:go_c","1",""
"null","","html-keyboard-response","369","507128","0.0-6.0-2.49","","<div style=""font-size:60px;"">+</div>","null","","","","","","",""
"892.3099999956321","","image-keyboard-response","370","508021","0.0-6.0-0.50","","img/green.png","32","trial","null","false","0.2,0.8","2:nogo_b","",""
"null","","html-keyboard-response","371","509023","0.0-6.0-1.50","","<img src=""img/green-n.png"" border=""10"">","null","trial","null","","0.2,0.8","2:nogo_b","0",""
"null","","html-keyboard-response","372","510023","0.0-6.0-2.50","","<div style=""font-size:60px;"">+</div>","null","","","","","","",""
"717.5899999856483","","image-keyboard-response","373","510742","0.0-6.0-0.51","","img/pink.png","32","trial","null","false","0,1","4:nogo_d","",""
"null","","html-keyboard-response","374","511743","0.0-6.0-1.51","","<img src=""img/pink-n.png"" border=""10"">","null","trial","null","","0,1","4:nogo_d","0",""
"null","","html-keyboard-response","375","512744","0.0-6.0-2.51","","<div style=""font-size:60px;"">+</div>","null","","","","","","",""
"845.2699999907054","","image-keyboard-response","376","513589","0.0-6.0-0.52","","img/grey.png","32","trial","32","true","0.8,0.2","1:go_a","",""
"null","","html-keyboard-response","377","514591","0.0-6.0-1.52","","<img src=""img/grey-r.png"" border=""10"">","null","trial","32","","0.8,0.2","1:go_a","1",""
"null","","html-keyboard-response","378","515592","0.0-6.0-2.52","","<div style=""font-size:60px;"">+</div>","null","","","","","","",""
"1044.9749999970663","","image-keyboard-response","379","516638","0.0-6.0-0.53","","img/green.png","32","trial","null","false","0.2,0.8","2:nogo_b","",""
"null","","html-keyboard-response","380","517639","0.0-6.0-1.53","","<img src=""img/green-n.png"" border=""10"">","null","trial","null","","0.2,0.8","2:nogo_b","0",""
"null","","html-keyboard-response","381","518640","0.0-6.0-2.53","","<div style=""font-size:60px;"">+</div>","null","","","","","","",""
"869.2299999820534","","image-keyboard-response","382","519510","0.0-6.0-0.54","","img/purple.png","32","trial","32","true","1,0","3:go_c","",""
"null","","html-keyboard-response","383","520512","0.0-6.0-1.54","","<img src=""img/purple-r.png"" border=""10"">","null","trial","32","","1,0","3:go_c","1",""
"null","","html-keyboard-response","384","521513","0.0-6.0-2.54","","<div style=""font-size:60px;"">+</div>","null","","","","","","",""
"852.5400000216905","","image-keyboard-response","385","522366","0.0-6.0-0.55","","img/pink.png","32","trial","null","false","0,1","4:nogo_d","",""
"null","","html-keyboard-response","386","523368","0.0-6.0-1.55","","<img src=""img/pink-n.png"" border=""10"">","null","trial","null","","0,1","4:nogo_d","0",""
"null","","html-keyboard-response","387","524369","0.0-6.0-2.55","","<div style=""font-size:60px;"">+</div>","null","","","","","","",""
"null","","image-keyboard-response","388","525871","0.0-6.0-0.56","","img/pink.png","null","trial","null","true","0,1","4:nogo_d","",""
"null","","html-keyboard-response","389","526873","0.0-6.0-1.56","","<img src=""img/pink-r.png"">","null","trial","null","","0,1","4:nogo_d","1",""
"null","","html-keyboard-response","390","527874","0.0-6.0-2.56","","<div style=""font-size:60px;"">+</div>","null","","","","","","",""
"null","","image-keyboard-response","391","529377","0.0-6.0-0.57","","img/green.png","null","trial","null","true","0.2,0.8","2:nogo_b","",""
"null","","html-keyboard-response","392","530378","0.0-6.0-1.57","","<img src=""img/green-r.png"">","null","trial","null","","0.2,0.8","2:nogo_b","1",""
"null","","html-keyboard-response","393","531379","0.0-6.0-2.57","","<div style=""font-size:60px;"">+</div>","null","","","","","","",""
"1042.3300000256859","","image-keyboard-response","394","532422","0.0-6.0-0.58","","img/grey.png","32","trial","32","true","0.8,0.2","1:go_a","",""
"null","","html-keyboard-response","395","533424","0.0-6.0-1.58","","<img src=""img/grey-n.png"" border=""10"">","null","trial","32","","0.8,0.2","1:go_a","0",""
"null","","html-keyboard-response","396","534425","0.0-6.0-2.58","","<div style=""font-size:60px;"">+</div>","null","","","","","","",""
"923.8049999985378","","image-keyboard-response","397","535350","0.0-6.0-0.59","","img/purple.png","32","trial","32","true","1,0","3:go_c","",""
"null","","html-keyboard-response","398","536351","0.0-6.0-1.59","","<img src=""img/purple-r.png"" border=""10"">","null","trial","32","","1,0","3:go_c","1",""
"null","","html-keyboard-response","399","537352","0.0-6.0-2.59","","<div style=""font-size:60px;"">+</div>","null","","","","","","",""
"null","","image-keyboard-response","400","538854","0.0-6.0-0.60","","img/green.png","null","trial","null","true","0.2,0.8","2:nogo_b","",""
"null","","html-keyboard-response","401","539867","0.0-6.0-1.60","","<img src=""img/green-n.png"">","null","trial","null","","0.2,0.8","2:nogo_b","0",""
"null","","html-keyboard-response","402","540869","0.0-6.0-2.60","","<div style=""font-size:60px;"">+</div>","null","","","","","","",""
"864.304999995511","","image-keyboard-response","403","541734","0.0-6.0-0.61","","img/grey.png","32","trial","32","true","0.8,0.2","1:go_a","",""
"null","","html-keyboard-response","404","542735","0.0-6.0-1.61","","<img src=""img/grey-r.png"" border=""10"">","null","trial","32","","0.8,0.2","1:go_a","1",""
"null","","html-keyboard-response","405","543736","0.0-6.0-2.61","","<div style=""font-size:60px;"">+</div>","null","","","","","","",""
"956.865000014659","","image-keyboard-response","406","544694","0.0-6.0-0.62","","img/pink.png","32","trial","null","false","0,1","4:nogo_d","",""
"null","","html-keyboard-response","407","545695","0.0-6.0-1.62","","<img src=""img/pink-n.png"" border=""10"">","null","trial","null","","0,1","4:nogo_d","0",""
"null","","html-keyboard-response","408","546697","0.0-6.0-2.62","","<div style=""font-size:60px;"">+</div>","null","","","","","","",""
"988.4250000177417","","image-keyboard-response","409","547686","0.0-6.0-0.63","","img/purple.png","32","trial","32","true","1,0","3:go_c","",""
"null","","html-keyboard-response","410","548688","0.0-6.0-1.63","","<img src=""img/purple-r.png"" border=""10"">","null","trial","32","","1,0","3:go_c","1",""
"null","","html-keyboard-response","411","549689","0.0-6.0-2.63","","<div style=""font-size:60px;"">+</div>","null","","","","","","",""
"748.7499999988358","","image-keyboard-response","412","550438","0.0-6.0-0.64","","img/green.png","32","trial","null","false","0.2,0.8","2:nogo_b","",""
"null","","html-keyboard-response","413","551440","0.0-6.0-1.64","","<img src=""img/green-n.png"" border=""10"">","null","trial","null","","0.2,0.8","2:nogo_b","0",""
"null","","html-keyboard-response","414","552441","0.0-6.0-2.64","","<div style=""font-size:60px;"">+</div>","null","","","","","","",""
"756.2000000034459","","image-keyboard-response","415","553198","0.0-6.0-0.65","","img/grey.png","32","trial","32","true","0.8,0.2","1:go_a","",""
"null","","html-keyboard-response","416","554200","0.0-6.0-1.65","","<img src=""img/grey-r.png"" border=""10"">","null","trial","32","","0.8,0.2","1:go_a","1",""
"null","","html-keyboard-response","417","555201","0.0-6.0-2.65","","<div style=""font-size:60px;"">+</div>","null","","","","","","",""
"860.2699999755714","","image-keyboard-response","418","556062","0.0-6.0-0.66","","img/pink.png","32","trial","null","false","0,1","4:nogo_d","",""
"null","","html-keyboard-response","419","557064","0.0-6.0-1.66","","<img src=""img/pink-n.png"" border=""10"">","null","trial","null","","0,1","4:nogo_d","0",""
"null","","html-keyboard-response","420","558065","0.0-6.0-2.66","","<div style=""font-size:60px;"">+</div>","null","","","","","","",""
"932.0600000210106","","image-keyboard-response","421","558998","0.0-6.0-0.67","","img/purple.png","32","trial","32","true","1,0","3:go_c","",""
"null","","html-keyboard-response","422","559999","0.0-6.0-1.67","","<img src=""img/purple-r.png"" border=""10"">","null","trial","32","","1,0","3:go_c","1",""
"null","","html-keyboard-response","423","561001","0.0-6.0-2.67","","<div style=""font-size:60px;"">+</div>","null","","","","","","",""
"null","","image-keyboard-response","424","562502","0.0-6.0-0.68","","img/purple.png","null","trial","32","false","1,0","3:go_c","",""
"null","","html-keyboard-response","425","563504","0.0-6.0-1.68","","<img src=""img/purple-n.png"">","null","trial","32","","1,0","3:go_c","0",""
"null","","html-keyboard-response","426","564506","0.0-6.0-2.68","","<div style=""font-size:60px;"">+</div>","null","","","","","","",""
"955.2549999789335","","image-keyboard-response","427","565461","0.0-6.0-0.69","","img/green.png","32","trial","null","false","0.2,0.8","2:nogo_b","",""
"null","","html-keyboard-response","428","566463","0.0-6.0-1.69","","<img src=""img/green-n.png"" border=""10"">","null","trial","null","","0.2,0.8","2:nogo_b","0",""
"null","","html-keyboard-response","429","567465","0.0-6.0-2.69","","<div style=""font-size:60px;"">+</div>","null","","","","","","",""
"1452.5600000051782","","image-keyboard-response","430","568918","0.0-6.0-0.70","","img/grey.png","32","trial","32","true","0.8,0.2","1:go_a","",""
"null","","html-keyboard-response","431","569919","0.0-6.0-1.70","","<img src=""img/grey-r.png"" border=""10"">","null","trial","32","","0.8,0.2","1:go_a","1",""
"null","","html-keyboard-response","432","570921","0.0-6.0-2.70","","<div style=""font-size:60px;"">+</div>","null","","","","","","",""
"1308.3150000020396","","image-keyboard-response","433","572230","0.0-6.0-0.71","","img/pink.png","32","trial","null","false","0,1","4:nogo_d","",""
"null","","html-keyboard-response","434","573231","0.0-6.0-1.71","","<img src=""img/pink-n.png"" border=""10"">","null","trial","null","","0,1","4:nogo_d","0",""
"null","","html-keyboard-response","435","574233","0.0-6.0-2.71","","<div style=""font-size:60px;"">+</div>","null","","","","","","",""
"null","","image-keyboard-response","436","575734","0.0-6.0-0.72","","img/green.png","null","trial","null","true","0.2,0.8","2:nogo_b","",""
"null","","html-keyboard-response","437","576736","0.0-6.0-1.72","","<img src=""img/green-r.png"">","null","trial","null","","0.2,0.8","2:nogo_b","1",""
"null","","html-keyboard-response","438","577737","0.0-6.0-2.72","","<div style=""font-size:60px;"">+</div>","null","","","","","","",""
"604.4850000180304","","image-keyboard-response","439","578342","0.0-6.0-0.73","","img/grey.png","32","trial","32","true","0.8,0.2","1:go_a","",""
"null","","html-keyboard-response","440","579344","0.0-6.0-1.73","","<img src=""img/grey-r.png"" border=""10"">","null","trial","32","","0.8,0.2","1:go_a","1",""
"null","","html-keyboard-response","441","580345","0.0-6.0-2.73","","<div style=""font-size:60px;"">+</div>","null","","","","","","",""
"620.4650000145193","","image-keyboard-response","442","580966","0.0-6.0-0.74","","img/pink.png","32","trial","null","false","0,1","4:nogo_d","",""
"null","","html-keyboard-response","443","581967","0.0-6.0-1.74","","<img src=""img/pink-n.png"" border=""10"">","null","trial","null","","0,1","4:nogo_d","0",""
"null","","html-keyboard-response","444","582968","0.0-6.0-2.74","","<div style=""font-size:60px;"">+</div>","null","","","","","","",""
"916.5649999922607","","image-keyboard-response","445","583886","0.0-6.0-0.75","","img/purple.png","32","trial","32","true","1,0","3:go_c","",""
"null","","html-keyboard-response","446","584887","0.0-6.0-1.75","","<img src=""img/purple-r.png"" border=""10"">","null","trial","32","","1,0","3:go_c","1",""
"null","","html-keyboard-response","447","585889","0.0-6.0-2.75","","<div style=""font-size:60px;"">+</div>","null","","","","","","",""
"964.5949999976438","","image-keyboard-response","448","586854","0.0-6.0-0.76","","img/grey.png","32","trial","32","true","0.8,0.2","1:go_a","",""
"null","","html-keyboard-response","449","587855","0.0-6.0-1.76","","<img src=""img/grey-n.png"" border=""10"">","null","trial","32","","0.8,0.2","1:go_a","0",""
"null","","html-keyboard-response","450","588857","0.0-6.0-2.76","","<div style=""font-size:60px;"">+</div>","null","","","","","","",""
"1100.4749999847263","","image-keyboard-response","451","589958","0.0-6.0-0.77","","img/green.png","32","trial","null","false","0.2,0.8","2:nogo_b","",""
"null","","html-keyboard-response","452","590960","0.0-6.0-1.77","","<img src=""img/green-n.png"" border=""10"">","null","trial","null","","0.2,0.8","2:nogo_b","0",""
"null","","html-keyboard-response","453","591961","0.0-6.0-2.77","","<div style=""font-size:60px;"">+</div>","null","","","","","","",""
"1116.955000004964","","image-keyboard-response","454","593078","0.0-6.0-0.78","","img/pink.png","32","trial","null","false","0,1","4:nogo_d","",""
"null","","html-keyboard-response","455","594079","0.0-6.0-1.78","","<img src=""img/pink-n.png"" border=""10"">","null","trial","null","","0,1","4:nogo_d","0",""
"null","","html-keyboard-response","456","595080","0.0-6.0-2.78","","<div style=""font-size:60px;"">+</div>","null","","","","","","",""
"1020.8850000053644","","image-keyboard-response","457","596101","0.0-6.0-0.79","","img/purple.png","32","trial","32","true","1,0","3:go_c","",""
"null","","html-keyboard-response","458","597106","0.0-6.0-1.79","","<img src=""img/purple-r.png"" border=""10"">","null","trial","32","","1,0","3:go_c","1",""
"null","","html-keyboard-response","459","598107","0.0-6.0-2.79","","<div style=""font-size:60px;"">+</div>","null","","","","","","",""
"null","","image-keyboard-response","460","599609","0.0-6.0-0.80","","img/green.png","null","trial","null","true","0.2,0.8","2:nogo_b","",""
"null","","html-keyboard-response","461","600611","0.0-6.0-1.80","","<img src=""img/green-r.png"">","null","trial","null","","0.2,0.8","2:nogo_b","1",""
"null","","html-keyboard-response","462","601612","0.0-6.0-2.80","","<div style=""font-size:60px;"">+</div>","null","","","","","","",""
"985.114999988582","","image-keyboard-response","463","602598","0.0-6.0-0.81","","img/purple.png","32","trial","32","true","1,0","3:go_c","",""
"null","","html-keyboard-response","464","603600","0.0-6.0-1.81","","<img src=""img/purple-r.png"" border=""10"">","null","trial","32","","1,0","3:go_c","1",""
"null","","html-keyboard-response","465","604602","0.0-6.0-2.81","","<div style=""font-size:60px;"">+</div>","null","","","","","","",""
"475.75499999220483","","image-keyboard-response","466","605078","0.0-6.0-0.82","","img/pink.png","32","trial","null","false","0,1","4:nogo_d","",""
"null","","html-keyboard-response","467","606079","0.0-6.0-1.82","","<img src=""img/pink-n.png"" border=""10"">","null","trial","null","","0,1","4:nogo_d","0",""
"null","","html-keyboard-response","468","607081","0.0-6.0-2.82","","<div style=""font-size:60px;"">+</div>","null","","","","","","",""
"724.6849999937695","","image-keyboard-response","469","607806","0.0-6.0-0.83","","img/grey.png","32","trial","32","true","0.8,0.2","1:go_a","",""
"null","","html-keyboard-response","470","608807","0.0-6.0-1.83","","<img src=""img/grey-r.png"" border=""10"">","null","trial","32","","0.8,0.2","1:go_a","1",""
"null","","html-keyboard-response","471","609808","0.0-6.0-2.83","","<div style=""font-size:60px;"">+</div>","null","","","","","","",""
"1124.5300000009593","","image-keyboard-response","472","610933","0.0-6.0-0.84","","img/grey.png","32","trial","32","true","0.8,0.2","1:go_a","",""
"null","","html-keyboard-response","473","611934","0.0-6.0-1.84","","<img src=""img/grey-r.png"" border=""10"">","null","trial","32","","0.8,0.2","1:go_a","1",""
"null","","html-keyboard-response","474","612936","0.0-6.0-2.84","","<div style=""font-size:60px;"">+</div>","null","","","","","","",""
"1045.3900000138674","","image-keyboard-response","475","613982","0.0-6.0-0.85","","img/pink.png","32","trial","null","false","0,1","4:nogo_d","",""
"null","","html-keyboard-response","476","614984","0.0-6.0-1.85","","<img src=""img/pink-n.png"" border=""10"">","null","trial","null","","0,1","4:nogo_d","0",""
"null","","html-keyboard-response","477","615984","0.0-6.0-2.85","","<div style=""font-size:60px;"">+</div>","null","","","","","","",""
"1269.0699999802746","","image-keyboard-response","478","617254","0.0-6.0-0.86","","img/green.png","32","trial","null","false","0.2,0.8","2:nogo_b","",""
"null","","html-keyboard-response","479","618255","0.0-6.0-1.86","","<img src=""img/green-r.png"" border=""10"">","null","trial","null","","0.2,0.8","2:nogo_b","1",""
"null","","html-keyboard-response","480","619256","0.0-6.0-2.86","","<div style=""font-size:60px;"">+</div>","null","","","","","","",""
"940.7199999841396","","image-keyboard-response","481","620198","0.0-6.0-0.87","","img/purple.png","32","trial","32","true","1,0","3:go_c","",""
"null","","html-keyboard-response","482","621200","0.0-6.0-1.87","","<img src=""img/purple-r.png"" border=""10"">","null","trial","32","","1,0","3:go_c","1",""
"null","","html-keyboard-response","483","622201","0.0-6.0-2.87","","<div style=""font-size:60px;"">+</div>","null","","","","","","",""
"null","","image-keyboard-response","484","623702","0.0-6.0-0.88","","img/green.png","null","trial","null","true","0.2,0.8","2:nogo_b","",""
"null","","html-keyboard-response","485","624704","0.0-6.0-1.88","","<img src=""img/green-r.png"">","null","trial","null","","0.2,0.8","2:nogo_b","1",""
"null","","html-keyboard-response","486","625707","0.0-6.0-2.88","","<div style=""font-size:60px;"">+</div>","null","","","","","","",""
"1170.1500000199303","","image-keyboard-response","487","626878","0.0-6.0-0.89","","img/pink.png","32","trial","null","false","0,1","4:nogo_d","",""
"null","","html-keyboard-response","488","627879","0.0-6.0-1.89","","<img src=""img/pink-n.png"" border=""10"">","null","trial","null","","0,1","4:nogo_d","0",""
"null","","html-keyboard-response","489","628880","0.0-6.0-2.89","","<div style=""font-size:60px;"">+</div>","null","","","","","","",""
"933.164999994915","","image-keyboard-response","490","629814","0.0-6.0-0.90","","img/grey.png","32","trial","32","true","0.8,0.2","1:go_a","",""
"null","","html-keyboard-response","491","630816","0.0-6.0-1.90","","<img src=""img/grey-r.png"" border=""10"">","null","trial","32","","0.8,0.2","1:go_a","1",""
"null","","html-keyboard-response","492","631817","0.0-6.0-2.90","","<div style=""font-size:60px;"">+</div>","null","","","","","","",""
"1028.294999996433","","image-keyboard-response","493","632846","0.0-6.0-0.91","","img/purple.png","32","trial","32","true","1,0","3:go_c","",""
"null","","html-keyboard-response","494","633848","0.0-6.0-1.91","","<img src=""img/purple-r.png"" border=""10"">","null","trial","32","","1,0","3:go_c","1",""
"null","","html-keyboard-response","495","634850","0.0-6.0-2.91","","<div style=""font-size:60px;"">+</div>","null","","","","","","",""
"null","","image-keyboard-response","496","636351","0.0-6.0-0.92","","img/purple.png","null","trial","32","false","1,0","3:go_c","",""
"null","","html-keyboard-response","497","637353","0.0-6.0-1.92","","<img src=""img/purple-n.png"">","null","trial","32","","1,0","3:go_c","0",""
"null","","html-keyboard-response","498","638354","0.0-6.0-2.92","","<div style=""font-size:60px;"">+</div>","null","","","","","","",""
"1226.6649999946821","","image-keyboard-response","499","639582","0.0-6.0-0.93","","img/green.png","32","trial","null","false","0.2,0.8","2:nogo_b","",""
"null","","html-keyboard-response","500","640583","0.0-6.0-1.93","","<img src=""img/green-n.png"" border=""10"">","null","trial","null","","0.2,0.8","2:nogo_b","0",""
"null","","html-keyboard-response","501","641584","0.0-6.0-2.93","","<div style=""font-size:60px;"">+</div>","null","","","","","","",""
"1109.584999998333","","image-keyboard-response","502","642694","0.0-6.0-0.94","","img/pink.png","32","trial","null","false","0,1","4:nogo_d","",""
"null","","html-keyboard-response","503","643696","0.0-6.0-1.94","","<img src=""img/pink-n.png"" border=""10"">","null","trial","null","","0,1","4:nogo_d","0",""
"null","","html-keyboard-response","504","644697","0.0-6.0-2.94","","<div style=""font-size:60px;"">+</div>","null","","","","","","",""
"1075.8650000207126","","image-keyboard-response","505","645774","0.0-6.0-0.95","","img/grey.png","32","trial","32","true","0.8,0.2","1:go_a","",""
"null","","html-keyboard-response","506","646775","0.0-6.0-1.95","","<img src=""img/grey-r.png"" border=""10"">","null","trial","32","","0.8,0.2","1:go_a","1",""
"null","","html-keyboard-response","507","647777","0.0-6.0-2.95","","<div style=""font-size:60px;"">+</div>","null","","","","","","",""
"null","","image-keyboard-response","508","649278","0.0-6.0-0.96","","img/green.png","null","trial","null","true","0.2,0.8","2:nogo_b","",""
"null","","html-keyboard-response","509","650280","0.0-6.0-1.96","","<img src=""img/green-r.png"">","null","trial","null","","0.2,0.8","2:nogo_b","1",""
"null","","html-keyboard-response","510","651281","0.0-6.0-2.96","","<div style=""font-size:60px;"">+</div>","null","","","","","","",""
"948.340000002645","","image-keyboard-response","511","652230","0.0-6.0-0.97","","img/purple.png","32","trial","32","true","1,0","3:go_c","",""
"null","","html-keyboard-response","512","653231","0.0-6.0-1.97","","<img src=""img/purple-r.png"" border=""10"">","null","trial","32","","1,0","3:go_c","1",""
"null","","html-keyboard-response","513","654233","0.0-6.0-2.97","","<div style=""font-size:60px;"">+</div>","null","","","","","","",""
"1132.0949999790173","","image-keyboard-response","514","655366","0.0-6.0-0.98","","img/pink.png","32","trial","null","false","0,1","4:nogo_d","",""
"null","","html-keyboard-response","515","656368","0.0-6.0-1.98","","<img src=""img/pink-n.png"" border=""10"">","null","trial","null","","0,1","4:nogo_d","0",""
"null","","html-keyboard-response","516","657369","0.0-6.0-2.98","","<div style=""font-size:60px;"">+</div>","null","","","","","","",""
"1043.9600000099745","","image-keyboard-response","517","658414","0.0-6.0-0.99","","img/grey.png","32","trial","32","true","0.8,0.2","1:go_a","",""
"null","","html-keyboard-response","518","659415","0.0-6.0-1.99","","<img src=""img/grey-n.png"" border=""10"">","null","trial","32","","0.8,0.2","1:go_a","0",""
"null","","html-keyboard-response","519","660417","0.0-6.0-2.99","","<div style=""font-size:60px;"">+</div>","null","","","","","","",""
"1052.335000014864","","image-keyboard-response","520","661470","0.0-6.0-0.100","","img/purple.png","32","trial","32","true","1,0","3:go_c","",""
"null","","html-keyboard-response","521","662471","0.0-6.0-1.100","","<img src=""img/purple-r.png"" border=""10"">","null","trial","32","","1,0","3:go_c","1",""
"null","","html-keyboard-response","522","663472","0.0-6.0-2.100","","<div style=""font-size:60px;"">+</div>","null","","","","","","",""
"1132.8499999945052","","image-keyboard-response","523","664606","0.0-6.0-0.101","","img/grey.png","32","trial","32","true","0.8,0.2","1:go_a","",""
"null","","html-keyboard-response","524","665608","0.0-6.0-1.101","","<img src=""img/grey-r.png"" border=""10"">","null","trial","32","","0.8,0.2","1:go_a","1",""
"null","","html-keyboard-response","525","666613","0.0-6.0-2.101","","<div style=""font-size:60px;"">+</div>","null","","","","","","",""
"null","","image-keyboard-response","526","668115","0.0-6.0-0.102","","img/green.png","null","trial","null","true","0.2,0.8","2:nogo_b","",""
"null","","html-keyboard-response","527","669116","0.0-6.0-1.102","","<img src=""img/green-r.png"">","null","trial","null","","0.2,0.8","2:nogo_b","1",""
"null","","html-keyboard-response","528","670117","0.0-6.0-2.102","","<div style=""font-size:60px;"">+</div>","null","","","","","","",""
"1256.085000000894","","image-keyboard-response","529","671374","0.0-6.0-0.103","","img/pink.png","32","trial","null","false","0,1","4:nogo_d","",""
"null","","html-keyboard-response","530","672376","0.0-6.0-1.103","","<img src=""img/pink-n.png"" border=""10"">","null","trial","null","","0,1","4:nogo_d","0",""
"null","","html-keyboard-response","531","673377","0.0-6.0-2.103","","<div style=""font-size:60px;"">+</div>","null","","","","","","",""
"931.9199999736156","","image-keyboard-response","532","674310","0.0-6.0-0.104","","img/purple.png","32","trial","32","true","1,0","3:go_c","",""
"null","","html-keyboard-response","533","675312","0.0-6.0-1.104","","<img src=""img/purple-r.png"" border=""10"">","null","trial","32","","1,0","3:go_c","1",""
"null","","html-keyboard-response","534","676313","0.0-6.0-2.104","","<div style=""font-size:60px;"">+</div>","null","","","","","","",""
"1051.6550000174902","","image-keyboard-response","535","677365","0.0-6.0-0.105","","img/grey.png","32","trial","32","true","0.8,0.2","1:go_a","",""
"null","","html-keyboard-response","536","678366","0.0-6.0-1.105","","<img src=""img/grey-n.png"" border=""10"">","null","trial","32","","0.8,0.2","1:go_a","0",""
"null","","html-keyboard-response","537","679368","0.0-6.0-2.105","","<div style=""font-size:60px;"">+</div>","null","","","","","","",""
"973.2450000010431","","image-keyboard-response","538","680342","0.0-6.0-0.106","","img/green.png","32","trial","null","false","0.2,0.8","2:nogo_b","",""
"null","","html-keyboard-response","539","681344","0.0-6.0-1.106","","<img src=""img/green-n.png"" border=""10"">","null","trial","null","","0.2,0.8","2:nogo_b","0",""
"null","","html-keyboard-response","540","682345","0.0-6.0-2.106","","<div style=""font-size:60px;"">+</div>","null","","","","","","",""
"1092.6050000125542","","image-keyboard-response","541","683438","0.0-6.0-0.107","","img/pink.png","32","trial","null","false","0,1","4:nogo_d","",""
"null","","html-keyboard-response","542","684440","0.0-6.0-1.107","","<img src=""img/pink-n.png"" border=""10"">","null","trial","null","","0,1","4:nogo_d","0",""
"null","","html-keyboard-response","543","685442","0.0-6.0-2.107","","<div style=""font-size:60px;"">+</div>","null","","","","","","",""
"907.839999999851","","image-keyboard-response","544","686350","0.0-6.0-0.108","","img/green.png","32","trial","null","false","0.2,0.8","2:nogo_b","",""
"null","","html-keyboard-response","545","687352","0.0-6.0-1.108","","<img src=""img/green-r.png"" border=""10"">","null","trial","null","","0.2,0.8","2:nogo_b","1",""
"null","","html-keyboard-response","546","688354","0.0-6.0-2.108","","<div style=""font-size:60px;"">+</div>","null","","","","","","",""
"1019.9900000006892","","image-keyboard-response","547","689374","0.0-6.0-0.109","","img/pink.png","32","trial","null","false","0,1","4:nogo_d","",""
"null","","html-keyboard-response","548","690375","0.0-6.0-1.109","","<img src=""img/pink-n.png"" border=""10"">","null","trial","null","","0,1","4:nogo_d","0",""
"null","","html-keyboard-response","549","691377","0.0-6.0-2.109","","<div style=""font-size:60px;"">+</div>","null","","","","","","",""
"956.7650000099093","","image-keyboard-response","550","692334","0.0-6.0-0.110","","img/purple.png","32","trial","32","true","1,0","3:go_c","",""
"null","","html-keyboard-response","551","693336","0.0-6.0-1.110","","<img src=""img/purple-r.png"" border=""10"">","null","trial","32","","1,0","3:go_c","1",""
"null","","html-keyboard-response","552","694337","0.0-6.0-2.110","","<div style=""font-size:60px;"">+</div>","null","","","","","","",""
"756.7250000138301","","image-keyboard-response","553","695094","0.0-6.0-0.111","","img/grey.png","32","trial","32","true","0.8,0.2","1:go_a","",""
"null","","html-keyboard-response","554","696097","0.0-6.0-1.111","","<img src=""img/grey-r.png"" border=""10"">","null","trial","32","","0.8,0.2","1:go_a","1",""
"null","","html-keyboard-response","555","697098","0.0-6.0-2.111","","<div style=""font-size:60px;"">+</div>","null","","","","","","",""
"1139.5949999860022","","image-keyboard-response","556","698238","0.0-6.0-0.112","","img/pink.png","32","trial","null","false","0,1","4:nogo_d","",""
"null","","html-keyboard-response","557","699239","0.0-6.0-1.112","","<img src=""img/pink-n.png"" border=""10"">","null","trial","null","","0,1","4:nogo_d","0",""
"null","","html-keyboard-response","558","700241","0.0-6.0-2.112","","<div style=""font-size:60px;"">+</div>","null","","","","","","",""
"null","","image-keyboard-response","559","701742","0.0-6.0-0.113","","img/green.png","null","trial","null","true","0.2,0.8","2:nogo_b","",""
"null","","html-keyboard-response","560","702744","0.0-6.0-1.113","","<img src=""img/green-n.png"">","null","trial","null","","0.2,0.8","2:nogo_b","0",""
"null","","html-keyboard-response","561","703745","0.0-6.0-2.113","","<div style=""font-size:60px;"">+</div>","null","","","","","","",""
"1004.5549999922514","","image-keyboard-response","562","704750","0.0-6.0-0.114","","img/grey.png","32","trial","32","true","0.8,0.2","1:go_a","",""
"null","","html-keyboard-response","563","705751","0.0-6.0-1.114","","<img src=""img/grey-r.png"" border=""10"">","null","trial","32","","0.8,0.2","1:go_a","1",""
"null","","html-keyboard-response","564","706752","0.0-6.0-2.114","","<div style=""font-size:60px;"">+</div>","null","","","","","","",""
"1061.0199999937322","","image-keyboard-response","565","707814","0.0-6.0-0.115","","img/purple.png","32","trial","32","true","1,0","3:go_c","",""
"null","","html-keyboard-response","566","708815","0.0-6.0-1.115","","<img src=""img/purple-r.png"" border=""10"">","null","trial","32","","1,0","3:go_c","1",""
"null","","html-keyboard-response","567","709817","0.0-6.0-2.115","","<div style=""font-size:60px;"">+</div>","null","","","","","","",""
"940.6449999951292","","image-keyboard-response","568","710758","0.0-6.0-0.116","","img/pink.png","32","trial","null","false","0,1","4:nogo_d","",""
"null","","html-keyboard-response","569","711760","0.0-6.0-1.116","","<img src=""img/pink-n.png"" border=""10"">","null","trial","null","","0,1","4:nogo_d","0",""
"null","","html-keyboard-response","570","712762","0.0-6.0-2.116","","<div style=""font-size:60px;"">+</div>","null","","","","","","",""
"1043.4299999906216","","image-keyboard-response","571","713806","0.0-6.0-0.117","","img/grey.png","32","trial","32","true","0.8,0.2","1:go_a","",""
"null","","html-keyboard-response","572","714809","0.0-6.0-1.117","","<img src=""img/grey-r.png"" border=""10"">","null","trial","32","","0.8,0.2","1:go_a","1",""
"null","","html-keyboard-response","573","715810","0.0-6.0-2.117","","<div style=""font-size:60px;"">+</div>","null","","","","","","",""
"null","","image-keyboard-response","574","717312","0.0-6.0-0.118","","img/green.png","null","trial","null","true","0.2,0.8","2:nogo_b","",""
"null","","html-keyboard-response","575","718314","0.0-6.0-1.118","","<img src=""img/green-r.png"">","null","trial","null","","0.2,0.8","2:nogo_b","1",""
"null","","html-keyboard-response","576","719315","0.0-6.0-2.118","","<div style=""font-size:60px;"">+</div>","null","","","","","","",""
"890.5550000199582","","image-keyboard-response","577","720206","0.0-6.0-0.119","","img/purple.png","32","trial","32","true","1,0","3:go_c","",""
"null","","html-keyboard-response","578","721209","0.0-6.0-1.119","","<img src=""img/purple-r.png"" border=""10"">","null","trial","32","","1,0","3:go_c","1",""
"null","","html-keyboard-response","579","722210","0.0-6.0-2.119","","<div style=""font-size:60px;"">+</div>","null","","","","","","",""
"2480.3700000047684","","instructions","580","724690","0.0-7.0","[{""page_index"":0,""viewing_time"":2480.2849999978207}]","","","","","","","","",""
"714.7399999957997","","image-keyboard-response","581","725406","0.0-8.0-0.0","","img/pink.png","32","trial","32","true","0.8,0.2","1:go_a","",""
"null","","html-keyboard-response","582","726408","0.0-8.0-1.0","","<img src=""img/pink-r.png"" border=""10"">","null","trial","32","","0.8,0.2","1:go_a","1",""
"null","","html-keyboard-response","583","727409","0.0-8.0-2.0","","<div style=""font-size:60px;"">+</div>","null","","","","","","",""
"948.1749999977183","","image-keyboard-response","584","728358","0.0-8.0-0.1","","img/orange.png","32","trial","null","false","0.2,0.8","2:nogo_b","",""
"null","","html-keyboard-response","585","729360","0.0-8.0-1.1","","<img src=""img/orange-r.png"" border=""10"">","null","trial","null","","0.2,0.8","2:nogo_b","1",""
"null","","html-keyboard-response","586","730361","0.0-8.0-2.1","","<div style=""font-size:60px;"">+</div>","null","","","","","","",""
"1004.4999999809079","","image-keyboard-response","587","731366","0.0-8.0-0.2","","img/yellow.png","32","trial","32","true","0.6,0.4","3:go_c","",""
"null","","html-keyboard-response","588","732367","0.0-8.0-1.2","","<img src=""img/yellow-n.png"" border=""10"">","null","trial","32","","0.6,0.4","3:go_c","0",""
"null","","html-keyboard-response","589","733368","0.0-8.0-2.2","","<div style=""font-size:60px;"">+</div>","null","","","","","","",""
"861.269999993965","","image-keyboard-response","590","734230","0.0-8.0-0.3","","img/blue.png","32","trial","null","false","0.4,0.6","4:nogo_d","",""
"null","","html-keyboard-response","591","735232","0.0-8.0-1.3","","<img src=""img/blue-n.png"" border=""10"">","null","trial","null","","0.4,0.6","4:nogo_d","0",""
"null","","html-keyboard-response","592","736233","0.0-8.0-2.3","","<div style=""font-size:60px;"">+</div>","null","","","","","","",""
"null","","image-keyboard-response","593","737734","0.0-8.0-0.4","","img/pink.png","null","trial","32","false","0.8,0.2","1:go_a","",""
"null","","html-keyboard-response","594","738737","0.0-8.0-1.4","","<img src=""img/pink-n.png"">","null","trial","32","","0.8,0.2","1:go_a","0",""
"null","","html-keyboard-response","595","739737","0.0-8.0-2.4","","<div style=""font-size:60px;"">+</div>","null","","","","","","",""
"916.1899999890011","","image-keyboard-response","596","740654","0.0-8.0-0.5","","img/blue.png","32","trial","null","false","0.4,0.6","4:nogo_d","",""
"null","","html-keyboard-response","597","741657","0.0-8.0-1.5","","<img src=""img/blue-r.png"" border=""10"">","null","trial","null","","0.4,0.6","4:nogo_d","1",""
"null","","html-keyboard-response","598","742658","0.0-8.0-2.5","","<div style=""font-size:60px;"">+</div>","null","","","","","","",""
"null","","image-keyboard-response","599","744160","0.0-8.0-0.6","","img/orange.png","null","trial","null","true","0.2,0.8","2:nogo_b","",""
"null","","html-keyboard-response","600","745162","0.0-8.0-1.6","","<img src=""img/orange-r.png"">","null","trial","null","","0.2,0.8","2:nogo_b","1",""
"null","","html-keyboard-response","601","746164","0.0-8.0-2.6","","<div style=""font-size:60px;"">+</div>","null","","","","","","",""
"882.1200000238605","","image-keyboard-response","602","747046","0.0-8.0-0.7","","img/yellow.png","32","trial","32","true","0.6,0.4","3:go_c","",""
"null","","html-keyboard-response","603","748049","0.0-8.0-1.7","","<img src=""img/yellow-n.png"" border=""10"">","null","trial","32","","0.6,0.4","3:go_c","0",""
"null","","html-keyboard-response","604","749050","0.0-8.0-2.7","","<div style=""font-size:60px;"">+</div>","null","","","","","","",""
"1067.3799999931362","","image-keyboard-response","605","750118","0.0-8.0-0.8","","img/blue.png","32","trial","null","false","0.4,0.6","4:nogo_d","",""
"null","","html-keyboard-response","606","751120","0.0-8.0-1.8","","<img src=""img/blue-n.png"" border=""10"">","null","trial","null","","0.4,0.6","4:nogo_d","0",""
"null","","html-keyboard-response","607","752121","0.0-8.0-2.8","","<div style=""font-size:60px;"">+</div>","null","","","","","","",""
"932.3499999882188","","image-keyboard-response","608","753054","0.0-8.0-0.9","","img/pink.png","32","trial","32","true","0.8,0.2","1:go_a","",""
"null","","html-keyboard-response","609","754056","0.0-8.0-1.9","","<img src=""img/pink-r.png"" border=""10"">","null","trial","32","","0.8,0.2","1:go_a","1",""
"null","","html-keyboard-response","610","755057","0.0-8.0-2.9","","<div style=""font-size:60px;"">+</div>","null","","","","","","",""
"1116.6849999863189","","image-keyboard-response","611","756174","0.0-8.0-0.10","","img/orange.png","32","trial","null","false","0.2,0.8","2:nogo_b","",""
"null","","html-keyboard-response","612","757177","0.0-8.0-1.10","","<img src=""img/orange-r.png"" border=""10"">","null","trial","null","","0.2,0.8","2:nogo_b","1",""
"null","","html-keyboard-response","613","758178","0.0-8.0-2.10","","<div style=""font-size:60px;"">+</div>","null","","","","","","",""
"null","","image-keyboard-response","614","759680","0.0-8.0-0.11","","img/yellow.png","null","trial","32","false","0.6,0.4","3:go_c","",""
"null","","html-keyboard-response","615","760681","0.0-8.0-1.11","","<img src=""img/yellow-r.png"">","null","trial","32","","0.6,0.4","3:go_c","1",""
"null","","html-keyboard-response","616","761683","0.0-8.0-2.11","","<div style=""font-size:60px;"">+</div>","null","","","","","","",""
"1090.4850000224542","","image-keyboard-response","617","762774","0.0-8.0-0.12","","img/blue.png","32","trial","null","false","0.4,0.6","4:nogo_d","",""
"null","","html-keyboard-response","618","763782","0.0-8.0-1.12","","<img src=""img/blue-n.png"" border=""10"">","null","trial","null","","0.4,0.6","4:nogo_d","0",""
"null","","html-keyboard-response","619","764783","0.0-8.0-2.12","","<div style=""font-size:60px;"">+</div>","null","","","","","","",""
"null","","image-keyboard-response","620","766288","0.0-8.0-0.13","","img/yellow.png","null","trial","32","false","0.6,0.4","3:go_c","",""
"null","","html-keyboard-response","621","767290","0.0-8.0-1.13","","<img src=""img/yellow-n.png"">","null","trial","32","","0.6,0.4","3:go_c","0",""
"null","","html-keyboard-response","622","768291","0.0-8.0-2.13","","<div style=""font-size:60px;"">+</div>","null","","","","","","",""
"1034.8249999806285","","image-keyboard-response","623","769326","0.0-8.0-0.14","","img/orange.png","32","trial","null","false","0.2,0.8","2:nogo_b","",""
"null","","html-keyboard-response","624","770327","0.0-8.0-1.14","","<img src=""img/orange-n.png"" border=""10"">","null","trial","null","","0.2,0.8","2:nogo_b","0",""
"null","","html-keyboard-response","625","771329","0.0-8.0-2.14","","<div style=""font-size:60px;"">+</div>","null","","","","","","",""
"1020.1400000078138","","image-keyboard-response","626","772350","0.0-8.0-0.15","","img/pink.png","32","trial","32","true","0.8,0.2","1:go_a","",""
"null","","html-keyboard-response","627","773352","0.0-8.0-1.15","","<img src=""img/pink-r.png"" border=""10"">","null","trial","32","","0.8,0.2","1:go_a","1",""
"null","","html-keyboard-response","628","774365","0.0-8.0-2.15","","<div style=""font-size:60px;"">+</div>","null","","","","","","",""
"1104.4850000180304","","image-keyboard-response","629","775470","0.0-8.0-0.16","","img/pink.png","32","trial","32","true","0.8,0.2","1:go_a","",""
"null","","html-keyboard-response","630","776472","0.0-8.0-1.16","","<img src=""img/pink-r.png"" border=""10"">","null","trial","32","","0.8,0.2","1:go_a","1",""
"null","","html-keyboard-response","631","777473","0.0-8.0-2.16","","<div style=""font-size:60px;"">+</div>","null","","","","","","",""
"972.8100000065751","","image-keyboard-response","632","778446","0.0-8.0-0.17","","img/orange.png","32","trial","null","false","0.2,0.8","2:nogo_b","",""
"null","","html-keyboard-response","633","779448","0.0-8.0-1.17","","<img src=""img/orange-n.png"" border=""10"">","null","trial","null","","0.2,0.8","2:nogo_b","0",""
"null","","html-keyboard-response","634","780449","0.0-8.0-2.17","","<div style=""font-size:60px;"">+</div>","null","","","","","","",""
"1260.74499997776","","image-keyboard-response","635","781710","0.0-8.0-0.18","","img/yellow.png","32","trial","32","true","0.6,0.4","3:go_c","",""
"null","","html-keyboard-response","636","782711","0.0-8.0-1.18","","<img src=""img/yellow-r.png"" border=""10"">","null","trial","32","","0.6,0.4","3:go_c","1",""
"null","","html-keyboard-response","637","783720","0.0-8.0-2.18","","<div style=""font-size:60px;"">+</div>","null","","","","","","",""
"1061.5399999951478","","image-keyboard-response","638","784782","0.0-8.0-0.19","","img/blue.png","32","trial","null","false","0.4,0.6","4:nogo_d","",""
"null","","html-keyboard-response","639","785784","0.0-8.0-1.19","","<img src=""img/blue-n.png"" border=""10"">","null","trial","null","","0.4,0.6","4:nogo_d","0",""
"null","","html-keyboard-response","640","786785","0.0-8.0-2.19","","<div style=""font-size:60px;"">+</div>","null","","","","","","",""
"null","","image-keyboard-response","641","788287","0.0-8.0-0.20","","img/yellow.png","null","trial","32","false","0.6,0.4","3:go_c","",""
"null","","html-keyboard-response","642","789288","0.0-8.0-1.20","","<img src=""img/yellow-n.png"">","null","trial","32","","0.6,0.4","3:go_c","0",""
"null","","html-keyboard-response","643","790289","0.0-8.0-2.20","","<div style=""font-size:60px;"">+</div>","null","","","","","","",""
"1028.5499999881722","","image-keyboard-response","644","791318","0.0-8.0-0.21","","img/pink.png","32","trial","32","true","0.8,0.2","1:go_a","",""
"null","","html-keyboard-response","645","792320","0.0-8.0-1.21","","<img src=""img/pink-r.png"" border=""10"">","null","trial","32","","0.8,0.2","1:go_a","1",""
"null","","html-keyboard-response","646","793320","0.0-8.0-2.21","","<div style=""font-size:60px;"">+</div>","null","","","","","","",""
"null","","image-keyboard-response","647","794821","0.0-8.0-0.22","","img/orange.png","null","trial","null","true","0.2,0.8","2:nogo_b","",""
"null","","html-keyboard-response","648","795823","0.0-8.0-1.22","","<img src=""img/orange-r.png"">","null","trial","null","","0.2,0.8","2:nogo_b","1",""
"null","","html-keyboard-response","649","796825","0.0-8.0-2.22","","<div style=""font-size:60px;"">+</div>","null","","","","","","",""
"1011.7850000096951","","image-keyboard-response","650","797837","0.0-8.0-0.23","","img/blue.png","32","trial","null","false","0.4,0.6","4:nogo_d","",""
"null","","html-keyboard-response","651","798840","0.0-8.0-1.23","","<img src=""img/blue-n.png"" border=""10"">","null","trial","null","","0.4,0.6","4:nogo_d","0",""
"null","","html-keyboard-response","652","799841","0.0-8.0-2.23","","<div style=""font-size:60px;"">+</div>","null","","","","","","",""
"1188.5349999938626","","image-keyboard-response","653","801030","0.0-8.0-0.24","","img/blue.png","32","trial","null","false","0.4,0.6","4:nogo_d","",""
"null","","html-keyboard-response","654","802032","0.0-8.0-1.24","","<img src=""img/blue-n.png"" border=""10"">","null","trial","null","","0.4,0.6","4:nogo_d","0",""
"null","","html-keyboard-response","655","803033","0.0-8.0-2.24","","<div style=""font-size:60px;"">+</div>","null","","","","","","",""
"1163.9849999919534","","image-keyboard-response","656","804198","0.0-8.0-0.25","","img/yellow.png","32","trial","32","true","0.6,0.4","3:go_c","",""
"null","","html-keyboard-response","657","805200","0.0-8.0-1.25","","<img src=""img/yellow-r.png"" border=""10"">","null","trial","32","","0.6,0.4","3:go_c","1",""
"null","","html-keyboard-response","658","806201","0.0-8.0-2.25","","<div style=""font-size:60px;"">+</div>","null","","","","","","",""
"995.7099999883212","","image-keyboard-response","659","807198","0.0-8.0-0.26","","img/pink.png","32","trial","32","true","0.8,0.2","1:go_a","",""
"null","","html-keyboard-response","660","808199","0.0-8.0-1.26","","<img src=""img/pink-r.png"" border=""10"">","null","trial","32","","0.8,0.2","1:go_a","1",""
"null","","html-keyboard-response","661","809201","0.0-8.0-2.26","","<div style=""font-size:60px;"">+</div>","null","","","","","","",""
"1044.3100000265986","","image-keyboard-response","662","810246","0.0-8.0-0.27","","img/orange.png","32","trial","null","false","0.2,0.8","2:nogo_b","",""
"null","","html-keyboard-response","663","811247","0.0-8.0-1.27","","<img src=""img/orange-n.png"" border=""10"">","null","trial","null","","0.2,0.8","2:nogo_b","0",""
"null","","html-keyboard-response","664","812249","0.0-8.0-2.27","","<div style=""font-size:60px;"">+</div>","null","","","","","","",""
"1148.2449999894015","","image-keyboard-response","665","813397","0.0-8.0-0.28","","img/pink.png","32","trial","32","true","0.8,0.2","1:go_a","",""
"null","","html-keyboard-response","666","814398","0.0-8.0-1.28","","<img src=""img/pink-r.png"" border=""10"">","null","trial","32","","0.8,0.2","1:go_a","1",""
"null","","html-keyboard-response","667","815400","0.0-8.0-2.28","","<div style=""font-size:60px;"">+</div>","null","","","","","","",""
"1213.0049999977928","","image-keyboard-response","668","816614","0.0-8.0-0.29","","img/yellow.png","32","trial","32","true","0.6,0.4","3:go_c","",""
"null","","html-keyboard-response","669","817627","0.0-8.0-1.29","","<img src=""img/yellow-n.png"" border=""10"">","null","trial","32","","0.6,0.4","3:go_c","0",""
"null","","html-keyboard-response","670","818628","0.0-8.0-2.29","","<div style=""font-size:60px;"">+</div>","null","","","","","","",""
"null","","image-keyboard-response","671","820130","0.0-8.0-0.30","","img/orange.png","null","trial","null","true","0.2,0.8","2:nogo_b","",""
"null","","html-keyboard-response","672","821131","0.0-8.0-1.30","","<img src=""img/orange-r.png"">","null","trial","null","","0.2,0.8","2:nogo_b","1",""
"null","","html-keyboard-response","673","822133","0.0-8.0-2.30","","<div style=""font-size:60px;"">+</div>","null","","","","","","",""
"1000.0399999844376","","image-keyboard-response","674","823134","0.0-8.0-0.31","","img/blue.png","32","trial","null","false","0.4,0.6","4:nogo_d","",""
"null","","html-keyboard-response","675","824134","0.0-8.0-1.31","","<img src=""img/blue-n.png"" border=""10"">","null","trial","null","","0.4,0.6","4:nogo_d","0",""
