"rt","url","trial_type","trial_index","time_elapsed","internal_node_id","view_history","stimulus","key_press","test_part","correct_response","correct","use_rew","which_stim","reward","responses"
"2341660.0900000194","consent.html","external-html","0","2341744","0.0-0.0","","","","","","","","","",""
"134539.39499997068","","instructions","1","2476285","0.0-1.0","[{""page_index"":0,""viewing_time"":6762.719999998808},{""page_index"":1,""viewing_time"":31151.574999967124},{""page_index"":2,""viewing_time"":9827.9249999905},{""page_index"":3,""viewing_time"":33875.34000002779},{""page_index"":4,""viewing_time"":20159.93000002345},{""page_index"":5,""viewing_time"":9892.824999988079},{""page_index"":6,""viewing_time"":22867.99499997869}]","","","","","","","","",""
"null","","image-keyboard-response","2","2477802","0.0-2.0-0.0","","img/test3.PNG","null","practice","null","true","","","",""
"null","","html-keyboard-response","3","2478808","0.0-2.0-1.0","","<img src=""img/test3-reward.PNG"">","null","","","","","","",""
"null","","html-keyboard-response","4","2479813","0.0-2.0-2.0","","<div style=""font-size:60px;"">+</div>","null","","","","","","",""
"null","","image-keyboard-response","5","2481330","0.0-2.0-0.1","","img/test2.PNG","null","practice","null","true","","","",""
"null","","html-keyboard-response","6","2482346","0.0-2.0-1.1","","<img src=""img/test2-reward.PNG"">","null","","","","","","",""
"null","","html-keyboard-response","7","2483351","0.0-2.0-2.1","","<div style=""font-size:60px;"">+</div>","null","","","","","","",""
"483.8950000121258","","image-keyboard-response","8","2483837","0.0-2.0-0.2","","img/test1.PNG","32","practice","32","true","","","",""
"null","","html-keyboard-response","9","2484840","0.0-2.0-1.2","","<img src=""img/test1-reward.PNG"" border=""10px; grey"">","null","","","","","","",""
"null","","html-keyboard-response","10","2485850","0.0-2.0-2.2","","<div style=""font-size:60px;"">+</div>","null","","","","","","",""
"491.13500001840293","","image-keyboard-response","11","2486343","0.0-2.0-0.3","","img/test1.PNG","32","practice","32","true","","","",""
"null","","html-keyboard-response","12","2487349","0.0-2.0-1.3","","<img src=""img/test1-reward.PNG"" border=""10px; grey"">","null","","","","","","",""
"null","","html-keyboard-response","13","2488350","0.0-2.0-2.3","","<div style=""font-size:60px;"">+</div>","null","","","","","","",""
"null","","image-keyboard-response","14","2489857","0.0-2.0-0.4","","img/test2.PNG","null","practice","null","true","","","",""
"null","","html-keyboard-response","15","2490861","0.0-2.0-1.4","","<img src=""img/test2-reward.PNG"">","null","","","","","","",""
"null","","html-keyboard-response","16","2491871","0.0-2.0-2.4","","<div style=""font-size:60px;"">+</div>","null","","","","","","",""
"null","","image-keyboard-response","17","2493388","0.0-2.0-0.5","","img/test3.PNG","null","practice","null","true","","","",""
"null","","html-keyboard-response","18","2494394","0.0-2.0-1.5","","<img src=""img/test3-reward.PNG"">","null","","","","","","",""
"null","","html-keyboard-response","19","2495398","0.0-2.0-2.5","","<div style=""font-size:60px;"">+</div>","null","","","","","","",""
"null","","image-keyboard-response","20","2496916","0.0-2.0-0.6","","img/test2.PNG","null","practice","null","true","","","",""
"null","","html-keyboard-response","21","2497919","0.0-2.0-1.6","","<img src=""img/test2-reward.PNG"">","null","","","","","","",""
"null","","html-keyboard-response","22","2498923","0.0-2.0-2.6","","<div style=""font-size:60px;"">+</div>","null","","","","","","",""
"null","","image-keyboard-response","23","2500431","0.0-2.0-0.7","","img/test3.PNG","null","practice","null","true","","","",""
"null","","html-keyboard-response","24","2501440","0.0-2.0-1.7","","<img src=""img/test3-reward.PNG"">","null","","","","","","",""
"null","","html-keyboard-response","25","2502446","0.0-2.0-2.7","","<div style=""font-size:60px;"">+</div>","null","","","","","","",""
"503.4999999916181","","image-keyboard-response","26","2502951","0.0-2.0-0.8","","img/test1.PNG","32","practice","32","true","","","",""
"null","","html-keyboard-response","27","2503960","0.0-2.0-1.8","","<img src=""img/test1-reward.PNG"" border=""10px; grey"">","null","","","","","","",""
"null","","html-keyboard-response","28","2504964","0.0-2.0-2.8","","<div style=""font-size:60px;"">+</div>","null","","","","","","",""
"881.4150000107475","","image-keyboard-response","29","2505847","0.0-2.0-0.9","","img/test1.PNG","32","practice","32","true","","","",""
"null","","html-keyboard-response","30","2506856","0.0-2.0-1.9","","<img src=""img/test1-reward.PNG"" border=""10px; grey"">","null","","","","","","",""
"null","","html-keyboard-response","31","2507867","0.0-2.0-2.9","","<div style=""font-size:60px;"">+</div>","null","","","","","","",""
"null","","image-keyboard-response","32","2509381","0.0-2.0-0.10","","img/test2.PNG","null","practice","null","true","","","",""
"null","","html-keyboard-response","33","2510392","0.0-2.0-1.10","","<img src=""img/test2-reward.PNG"">","null","","","","","","",""
"null","","html-keyboard-response","34","2511397","0.0-2.0-2.10","","<div style=""font-size:60px;"">+</div>","null","","","","","","",""
"null","","image-keyboard-response","35","2512911","0.0-2.0-0.11","","img/test3.PNG","null","practice","null","true","","","",""
"null","","html-keyboard-response","36","2513916","0.0-2.0-1.11","","<img src=""img/test3-reward.PNG"">","null","","","","","","",""
"null","","html-keyboard-response","37","2514919","0.0-2.0-2.11","","<div style=""font-size:60px;"">+</div>","null","","","","","","",""
"4128.61499999417","","instructions","38","2519049","0.0-3.0","[{""page_index"":0,""viewing_time"":4128.41499998467}]","","","","","","","","",""
"null","","image-keyboard-response","39","2520557","0.0-4.0-0.0","","img/green.png","null","trial","32","false","0.8,0.2","1:go_a","",""
"null","","html-keyboard-response","40","2521561","0.0-4.0-1.0","","<img src=""img/green-n.png"">","null","trial","32","","0.8,0.2","1:go_a","0",""
"null","","html-keyboard-response","41","2522567","0.0-4.0-2.0","","<div style=""font-size:60px;"">+</div>","null","","","","","","",""
"null","","image-keyboard-response","42","2524079","0.0-4.0-0.1","","img/orange.png","null","trial","null","true","0.2,0.8","2:nogo_b","",""
"null","","html-keyboard-response","43","2525083","0.0-4.0-1.1","","<img src=""img/orange-r.png"">","null","trial","null","","0.2,0.8","2:nogo_b","1",""
"null","","html-keyboard-response","44","2526087","0.0-4.0-2.1","","<div style=""font-size:60px;"">+</div>","null","","","","","","",""
"639.7550000110641","","image-keyboard-response","45","2526728","0.0-4.0-0.2","","img/green.png","32","trial","32","true","0.8,0.2","1:go_a","",""
"null","","html-keyboard-response","46","2527741","0.0-4.0-1.2","","<img src=""img/green-r.png"" border=""10"">","null","trial","32","","0.8,0.2","1:go_a","1",""
"null","","html-keyboard-response","47","2528747","0.0-4.0-2.2","","<div style=""font-size:60px;"">+</div>","null","","","","","","",""
"null","","image-keyboard-response","48","2530263","0.0-4.0-0.3","","img/orange.png","null","trial","null","true","0.2,0.8","2:nogo_b","",""
"null","","html-keyboard-response","49","2531279","0.0-4.0-1.3","","<img src=""img/orange-n.png"">","null","trial","null","","0.2,0.8","2:nogo_b","0",""
"null","","html-keyboard-response","50","2532295","0.0-4.0-2.3","","<div style=""font-size:60px;"">+</div>","null","","","","","","",""
"null","","image-keyboard-response","51","2533805","0.0-4.0-0.4","","img/orange.png","null","trial","null","true","0.2,0.8","2:nogo_b","",""
"null","","html-keyboard-response","52","2534810","0.0-4.0-1.4","","<img src=""img/orange-n.png"">","null","trial","null","","0.2,0.8","2:nogo_b","0",""
"null","","html-keyboard-response","53","2535818","0.0-4.0-2.4","","<div style=""font-size:60px;"">+</div>","null","","","","","","",""
"478.32500003278255","","image-keyboard-response","54","2536298","0.0-4.0-0.5","","img/green.png","32","trial","32","true","0.8,0.2","1:go_a","",""
"null","","html-keyboard-response","55","2537311","0.0-4.0-1.5","","<img src=""img/green-n.png"" border=""10"">","null","trial","32","","0.8,0.2","1:go_a","0",""
"null","","html-keyboard-response","56","2538327","0.0-4.0-2.5","","<div style=""font-size:60px;"">+</div>","null","","","","","","",""
"663.315000012517","","image-keyboard-response","57","2538992","0.0-4.0-0.6","","img/green.png","32","trial","32","true","0.8,0.2","1:go_a","",""
"null","","html-keyboard-response","58","2539995","0.0-4.0-1.6","","<img src=""img/green-r.png"" border=""10"">","null","trial","32","","0.8,0.2","1:go_a","1",""
"null","","html-keyboard-response","59","2541001","0.0-4.0-2.6","","<div style=""font-size:60px;"">+</div>","null","","","","","","",""
"null","","image-keyboard-response","60","2542516","0.0-4.0-0.7","","img/orange.png","null","trial","null","true","0.2,0.8","2:nogo_b","",""
"null","","html-keyboard-response","61","2543524","0.0-4.0-1.7","","<img src=""img/orange-r.png"">","null","trial","null","","0.2,0.8","2:nogo_b","1",""
"null","","html-keyboard-response","62","2544528","0.0-4.0-2.7","","<div style=""font-size:60px;"">+</div>","null","","","","","","",""
"686.1550000030547","","image-keyboard-response","63","2545216","0.0-4.0-0.8","","img/green.png","32","trial","32","true","0.8,0.2","1:go_a","",""
"null","","html-keyboard-response","64","2546227","0.0-4.0-1.8","","<img src=""img/green-r.png"" border=""10"">","null","trial","32","","0.8,0.2","1:go_a","1",""
"null","","html-keyboard-response","65","2547231","0.0-4.0-2.8","","<div style=""font-size:60px;"">+</div>","null","","","","","","",""
"null","","image-keyboard-response","66","2548747","0.0-4.0-0.9","","img/orange.png","null","trial","null","true","0.2,0.8","2:nogo_b","",""
"null","","html-keyboard-response","67","2549763","0.0-4.0-1.9","","<img src=""img/orange-r.png"">","null","trial","null","","0.2,0.8","2:nogo_b","1",""
"null","","html-keyboard-response","68","2550768","0.0-4.0-2.9","","<div style=""font-size:60px;"">+</div>","null","","","","","","",""
"582.9200000152923","","image-keyboard-response","69","2551353","0.0-4.0-0.10","","img/green.png","32","trial","32","true","0.8,0.2","1:go_a","",""
"null","","html-keyboard-response","70","2552373","0.0-4.0-1.10","","<img src=""img/green-n.png"" border=""10"">","null","trial","32","","0.8,0.2","1:go_a","0",""
"null","","html-keyboard-response","71","2553376","0.0-4.0-2.10","","<div style=""font-size:60px;"">+</div>","null","","","","","","",""
"464.0800000051968","","image-keyboard-response","72","2553841","0.0-4.0-0.11","","img/orange.png","32","trial","null","false","0.2,0.8","2:nogo_b","",""
"null","","html-keyboard-response","73","2554856","0.0-4.0-1.11","","<img src=""img/orange-n.png"" border=""10"">","null","trial","null","","0.2,0.8","2:nogo_b","0",""
"null","","html-keyboard-response","74","2555868","0.0-4.0-2.11","","<div style=""font-size:60px;"">+</div>","null","","","","","","",""
"531.4249999937601","","image-keyboard-response","75","2556402","0.0-4.0-0.12","","img/green.png","32","trial","32","true","0.8,0.2","1:go_a","",""
"null","","html-keyboard-response","76","2557416","0.0-4.0-1.12","","<img src=""img/green-r.png"" border=""10"">","null","trial","32","","0.8,0.2","1:go_a","1",""
"null","","html-keyboard-response","77","2558419","0.0-4.0-2.12","","<div style=""font-size:60px;"">+</div>","null","","","","","","",""
"426.33499996736646","","image-keyboard-response","78","2558847","0.0-4.0-0.13","","img/orange.png","32","trial","null","false","0.2,0.8","2:nogo_b","",""
"null","","html-keyboard-response","79","2559857","0.0-4.0-1.13","","<img src=""img/orange-n.png"" border=""10"">","null","trial","null","","0.2,0.8","2:nogo_b","0",""
"null","","html-keyboard-response","80","2560870","0.0-4.0-2.13","","<div style=""font-size:60px;"">+</div>","null","","","","","","",""
"null","","image-keyboard-response","81","2562381","0.0-4.0-0.14","","img/orange.png","null","trial","null","true","0.2,0.8","2:nogo_b","",""
"null","","html-keyboard-response","82","2563384","0.0-4.0-1.14","","<img src=""img/orange-n.png"">","null","trial","null","","0.2,0.8","2:nogo_b","0",""
"null","","html-keyboard-response","83","2564396","0.0-4.0-2.14","","<div style=""font-size:60px;"">+</div>","null","","","","","","",""
"441.6250000358559","","image-keyboard-response","84","2564838","0.0-4.0-0.15","","img/green.png","32","trial","32","true","0.8,0.2","1:go_a","",""
"null","","html-keyboard-response","85","2565851","0.0-4.0-1.15","","<img src=""img/green-r.png"" border=""10"">","null","trial","32","","0.8,0.2","1:go_a","1",""
"null","","html-keyboard-response","86","2566866","0.0-4.0-2.15","","<div style=""font-size:60px;"">+</div>","null","","","","","","",""
"713.4999999543652","","image-keyboard-response","87","2567581","0.0-4.0-0.16","","img/green.png","32","trial","32","true","0.8,0.2","1:go_a","",""
"null","","html-keyboard-response","88","2568593","0.0-4.0-1.16","","<img src=""img/green-n.png"" border=""10"">","null","trial","32","","0.8,0.2","1:go_a","0",""
"null","","html-keyboard-response","89","2569604","0.0-4.0-2.16","","<div style=""font-size:60px;"">+</div>","null","","","","","","",""
"null","","image-keyboard-response","90","2571117","0.0-4.0-0.17","","img/orange.png","null","trial","null","true","0.2,0.8","2:nogo_b","",""
"null","","html-keyboard-response","91","2572120","0.0-4.0-1.17","","<img src=""img/orange-r.png"">","null","trial","null","","0.2,0.8","2:nogo_b","1",""
"null","","html-keyboard-response","92","2573136","0.0-4.0-2.17","","<div style=""font-size:60px;"">+</div>","null","","","","","","",""
"657.2549999691546","","image-keyboard-response","93","2573795","0.0-4.0-0.18","","img/green.png","32","trial","32","true","0.8,0.2","1:go_a","",""
"null","","html-keyboard-response","94","2574801","0.0-4.0-1.18","","<img src=""img/green-r.png"" border=""10"">","null","trial","32","","0.8,0.2","1:go_a","1",""
"null","","html-keyboard-response","95","2575803","0.0-4.0-2.18","","<div style=""font-size:60px;"">+</div>","null","","","","","","",""
"809.6999999834225","","image-keyboard-response","96","2576613","0.0-4.0-0.19","","img/orange.png","32","trial","null","false","0.2,0.8","2:nogo_b","",""
"null","","html-keyboard-response","97","2577638","0.0-4.0-1.19","","<img src=""img/orange-r.png"" border=""10"">","null","trial","null","","0.2,0.8","2:nogo_b","1",""
"null","","html-keyboard-response","98","2578654","0.0-4.0-2.19","","<div style=""font-size:60px;"">+</div>","null","","","","","","",""
"null","","image-keyboard-response","99","2580167","0.0-4.0-0.20","","img/green.png","null","trial","32","false","0.8,0.2","1:go_a","",""
"null","","html-keyboard-response","100","2581183","0.0-4.0-1.20","","<img src=""img/green-n.png"">","null","trial","32","","0.8,0.2","1:go_a","0",""
"null","","html-keyboard-response","101","2582189","0.0-4.0-2.20","","<div style=""font-size:60px;"">+</div>","null","","","","","","",""
"null","","image-keyboard-response","102","2583700","0.0-4.0-0.21","","img/orange.png","null","trial","null","true","0.2,0.8","2:nogo_b","",""
"null","","html-keyboard-response","103","2584702","0.0-4.0-1.21","","<img src=""img/orange-r.png"">","null","trial","null","","0.2,0.8","2:nogo_b","1",""
"null","","html-keyboard-response","104","2585706","0.0-4.0-2.21","","<div style=""font-size:60px;"">+</div>","null","","","","","","",""
"592.4750000122003","","image-keyboard-response","105","2586300","0.0-4.0-0.22","","img/green.png","32","trial","32","true","0.8,0.2","1:go_a","",""
"null","","html-keyboard-response","106","2587310","0.0-4.0-1.22","","<img src=""img/green-r.png"" border=""10"">","null","trial","32","","0.8,0.2","1:go_a","1",""
"null","","html-keyboard-response","107","2588314","0.0-4.0-2.22","","<div style=""font-size:60px;"">+</div>","null","","","","","","",""
"394.94500000728294","","image-keyboard-response","108","2588710","0.0-4.0-0.23","","img/orange.png","32","trial","null","false","0.2,0.8","2:nogo_b","",""
"null","","html-keyboard-response","109","2589721","0.0-4.0-1.23","","<img src=""img/orange-n.png"" border=""10"">","null","trial","null","","0.2,0.8","2:nogo_b","0",""
"null","","html-keyboard-response","110","2590724","0.0-4.0-2.23","","<div style=""font-size:60px;"">+</div>","null","","","","","","",""
"709.2800000100397","","image-keyboard-response","111","2591435","0.0-4.0-0.24","","img/green.png","32","trial","32","true","0.8,0.2","1:go_a","",""
"null","","html-keyboard-response","112","2592437","0.0-4.0-1.24","","<img src=""img/green-r.png"" border=""10"">","null","trial","32","","0.8,0.2","1:go_a","1",""
"null","","html-keyboard-response","113","2593442","0.0-4.0-2.24","","<div style=""font-size:60px;"">+</div>","null","","","","","","",""
"462.44999999180436","","image-keyboard-response","114","2593906","0.0-4.0-0.25","","img/orange.png","32","trial","null","false","0.2,0.8","2:nogo_b","",""
"null","","html-keyboard-response","115","2594918","0.0-4.0-1.25","","<img src=""img/orange-n.png"" border=""10"">","null","trial","null","","0.2,0.8","2:nogo_b","0",""
"null","","html-keyboard-response","116","2595933","0.0-4.0-2.25","","<div style=""font-size:60px;"">+</div>","null","","","","","","",""
"346.40500001842156","","image-keyboard-response","117","2596281","0.0-4.0-0.26","","img/orange.png","32","trial","null","false","0.2,0.8","2:nogo_b","",""
"null","","html-keyboard-response","118","2597297","0.0-4.0-1.26","","<img src=""img/orange-n.png"" border=""10"">","null","trial","null","","0.2,0.8","2:nogo_b","0",""
"null","","html-keyboard-response","119","2598302","0.0-4.0-2.26","","<div style=""font-size:60px;"">+</div>","null","","","","","","",""
"null","","image-keyboard-response","120","2599814","0.0-4.0-0.27","","img/green.png","null","trial","32","false","0.8,0.2","1:go_a","",""
"null","","html-keyboard-response","121","2600818","0.0-4.0-1.27","","<img src=""img/green-r.png"">","null","trial","32","","0.8,0.2","1:go_a","1",""
"null","","html-keyboard-response","122","2601822","0.0-4.0-2.27","","<div style=""font-size:60px;"">+</div>","null","","","","","","",""
"530.5749999824911","","image-keyboard-response","123","2602354","0.0-4.0-0.28","","img/orange.png","32","trial","null","false","0.2,0.8","2:nogo_b","",""
"null","","html-keyboard-response","124","2603364","0.0-4.0-1.28","","<img src=""img/orange-n.png"" border=""10"">","null","trial","null","","0.2,0.8","2:nogo_b","0",""
"null","","html-keyboard-response","125","2604367","0.0-4.0-2.28","","<div style=""font-size:60px;"">+</div>","null","","","","","","",""
"null","","image-keyboard-response","126","2605871","0.0-4.0-0.29","","img/green.png","null","trial","32","false","0.8,0.2","1:go_a","",""
"null","","html-keyboard-response","127","2606887","0.0-4.0-1.29","","<img src=""img/green-r.png"">","null","trial","32","","0.8,0.2","1:go_a","1",""
"null","","html-keyboard-response","128","2607903","0.0-4.0-2.29","","<div style=""font-size:60px;"">+</div>","null","","","","","","",""
"475.8199999923818","","image-keyboard-response","129","2608380","0.0-4.0-0.30","","img/green.png","32","trial","32","true","0.8,0.2","1:go_a","",""
"null","","html-keyboard-response","130","2609386","0.0-4.0-1.30","","<img src=""img/green-n.png"" border=""10"">","null","trial","32","","0.8,0.2","1:go_a","0",""
"null","","html-keyboard-response","131","2610393","0.0-4.0-2.30","","<div style=""font-size:60px;"">+</div>","null","","","","","","",""
"338.4899999946356","","image-keyboard-response","132","2610733","0.0-4.0-0.31","","img/orange.png","32","trial","null","false","0.2,0.8","2:nogo_b","",""
"null","","html-keyboard-response","133","2611749","0.0-4.0-1.31","","<img src=""img/orange-n.png"" border=""10"">","null","trial","null","","0.2,0.8","2:nogo_b","0",""
"null","","html-keyboard-response","134","2612754","0.0-4.0-2.31","","<div style=""font-size:60px;"">+</div>","null","","","","","","",""
"null","","image-keyboard-response","135","2614265","0.0-4.0-0.32","","img/orange.png","null","trial","null","true","0.2,0.8","2:nogo_b","",""
"null","","html-keyboard-response","136","2615267","0.0-4.0-1.32","","<img src=""img/orange-n.png"">","null","trial","null","","0.2,0.8","2:nogo_b","0",""
"null","","html-keyboard-response","137","2616279","0.0-4.0-2.32","","<div style=""font-size:60px;"">+</div>","null","","","","","","",""
"411.3350000116043","","image-keyboard-response","138","2616692","0.0-4.0-0.33","","img/green.png","32","trial","32","true","0.8,0.2","1:go_a","",""
"null","","html-keyboard-response","139","2617696","0.0-4.0-1.33","","<img src=""img/green-r.png"" border=""10"">","null","trial","32","","0.8,0.2","1:go_a","1",""
"null","","html-keyboard-response","140","2618700","0.0-4.0-2.33","","<div style=""font-size:60px;"">+</div>","null","","","","","","",""
"625.7800000021234","","image-keyboard-response","141","2619328","0.0-4.0-0.34","","img/green.png","32","trial","32","true","0.8,0.2","1:go_a","",""
"null","","html-keyboard-response","142","2620340","0.0-4.0-1.34","","<img src=""img/green-r.png"" border=""10"">","null","trial","32","","0.8,0.2","1:go_a","1",""
"null","","html-keyboard-response","143","2621358","0.0-4.0-2.34","","<div style=""font-size:60px;"">+</div>","null","","","","","","",""
"461.174999945797","","image-keyboard-response","144","2621821","0.0-4.0-0.35","","img/orange.png","32","trial","null","false","0.2,0.8","2:nogo_b","",""
"null","","html-keyboard-response","145","2622830","0.0-4.0-1.35","","<img src=""img/orange-n.png"" border=""10"">","null","trial","null","","0.2,0.8","2:nogo_b","0",""
"null","","html-keyboard-response","146","2623838","0.0-4.0-2.35","","<div style=""font-size:60px;"">+</div>","null","","","","","","",""
"null","","image-keyboard-response","147","2625351","0.0-4.0-0.36","","img/orange.png","null","trial","null","true","0.2,0.8","2:nogo_b","",""
"null","","html-keyboard-response","148","2626355","0.0-4.0-1.36","","<img src=""img/orange-r.png"">","null","trial","null","","0.2,0.8","2:nogo_b","1",""
"null","","html-keyboard-response","149","2627360","0.0-4.0-2.36","","<div style=""font-size:60px;"">+</div>","null","","","","","","",""
"570.4849999747239","","image-keyboard-response","150","2627932","0.0-4.0-0.37","","img/green.png","32","trial","32","true","0.8,0.2","1:go_a","",""
"null","","html-keyboard-response","151","2628934","0.0-4.0-1.37","","<img src=""img/green-r.png"" border=""10"">","null","trial","32","","0.8,0.2","1:go_a","1",""
"null","","html-keyboard-response","152","2629950","0.0-4.0-2.37","","<div style=""font-size:60px;"">+</div>","null","","","","","","",""
"473.1749999918975","","image-keyboard-response","153","2630424","0.0-4.0-0.38","","img/green.png","32","trial","32","true","0.8,0.2","1:go_a","",""
"null","","html-keyboard-response","154","2631431","0.0-4.0-1.38","","<img src=""img/green-r.png"" border=""10"">","null","trial","32","","0.8,0.2","1:go_a","1",""
"null","","html-keyboard-response","155","2632450","0.0-4.0-2.38","","<div style=""font-size:60px;"">+</div>","null","","","","","","",""
"null","","image-keyboard-response","156","2633963","0.0-4.0-0.39","","img/orange.png","null","trial","null","true","0.2,0.8","2:nogo_b","",""
"null","","html-keyboard-response","157","2634967","0.0-4.0-1.39","","<img src=""img/orange-r.png"">","null","trial","null","","0.2,0.8","2:nogo_b","1",""
"null","","html-keyboard-response","158","2635970","0.0-4.0-2.39","","<div style=""font-size:60px;"">+</div>","null","","","","","","",""
"null","","image-keyboard-response","159","2637484","0.0-4.0-0.40","","img/orange.png","null","trial","null","true","0.2,0.8","2:nogo_b","",""
"null","","html-keyboard-response","160","2638489","0.0-4.0-1.40","","<img src=""img/orange-r.png"">","null","trial","null","","0.2,0.8","2:nogo_b","1",""
"null","","html-keyboard-response","161","2639497","0.0-4.0-2.40","","<div style=""font-size:60px;"">+</div>","null","","","","","","",""
"396.7549999943003","","image-keyboard-response","162","2639895","0.0-4.0-0.41","","img/green.png","32","trial","32","true","0.8,0.2","1:go_a","",""
"null","","html-keyboard-response","163","2640900","0.0-4.0-1.41","","<img src=""img/green-r.png"" border=""10"">","null","trial","32","","0.8,0.2","1:go_a","1",""
"null","","html-keyboard-response","164","2641905","0.0-4.0-2.41","","<div style=""font-size:60px;"">+</div>","null","","","","","","",""
"456.77500002784654","","image-keyboard-response","165","2642363","0.0-4.0-0.42","","img/green.png","32","trial","32","true","0.8,0.2","1:go_a","",""
"null","","html-keyboard-response","166","2643371","0.0-4.0-1.42","","<img src=""img/green-n.png"" border=""10"">","null","trial","32","","0.8,0.2","1:go_a","0",""
"null","","html-keyboard-response","167","2644375","0.0-4.0-2.42","","<div style=""font-size:60px;"">+</div>","null","","","","","","",""
"null","","image-keyboard-response","168","2645887","0.0-4.0-0.43","","img/orange.png","null","trial","null","true","0.2,0.8","2:nogo_b","",""
"null","","html-keyboard-response","169","2646902","0.0-4.0-1.43","","<img src=""img/orange-r.png"">","null","trial","null","","0.2,0.8","2:nogo_b","1",""
"null","","html-keyboard-response","170","2647918","0.0-4.0-2.43","","<div style=""font-size:60px;"">+</div>","null","","","","","","",""
"null","","image-keyboard-response","171","2649429","0.0-4.0-0.44","","img/orange.png","null","trial","null","true","0.2,0.8","2:nogo_b","",""
"null","","html-keyboard-response","172","2650446","0.0-4.0-1.44","","<img src=""img/orange-r.png"">","null","trial","null","","0.2,0.8","2:nogo_b","1",""
"null","","html-keyboard-response","173","2651451","0.0-4.0-2.44","","<div style=""font-size:60px;"">+</div>","null","","","","","","",""
"410.69500002777204","","image-keyboard-response","174","2651863","0.0-4.0-0.45","","img/green.png","32","trial","32","true","0.8,0.2","1:go_a","",""
"null","","html-keyboard-response","175","2652872","0.0-4.0-1.45","","<img src=""img/green-r.png"" border=""10"">","null","trial","32","","0.8,0.2","1:go_a","1",""
"null","","html-keyboard-response","176","2653873","0.0-4.0-2.45","","<div style=""font-size:60px;"">+</div>","null","","","","","","",""
"382.75499996962026","","image-keyboard-response","177","2654257","0.0-4.0-0.46","","img/green.png","32","trial","32","true","0.8,0.2","1:go_a","",""
"null","","html-keyboard-response","178","2655260","0.0-4.0-1.46","","<img src=""img/green-r.png"" border=""10"">","null","trial","32","","0.8,0.2","1:go_a","1",""
"null","","html-keyboard-response","179","2656277","0.0-4.0-2.46","","<div style=""font-size:60px;"">+</div>","null","","","","","","",""
"385.7399999978952","","image-keyboard-response","180","2656664","0.0-4.0-0.47","","img/orange.png","32","trial","null","false","0.2,0.8","2:nogo_b","",""
"null","","html-keyboard-response","181","2657668","0.0-4.0-1.47","","<img src=""img/orange-r.png"" border=""10"">","null","trial","null","","0.2,0.8","2:nogo_b","1",""
"null","","html-keyboard-response","182","2658673","0.0-4.0-2.47","","<div style=""font-size:60px;"">+</div>","null","","","","","","",""
"599.259999988135","","image-keyboard-response","183","2659274","0.0-4.0-0.48","","img/green.png","32","trial","32","true","0.8,0.2","1:go_a","",""
"null","","html-keyboard-response","184","2660282","0.0-4.0-1.48","","<img src=""img/green-r.png"" border=""10"">","null","trial","32","","0.8,0.2","1:go_a","1",""
"null","","html-keyboard-response","185","2661286","0.0-4.0-2.48","","<div style=""font-size:60px;"">+</div>","null","","","","","","",""
"null","","image-keyboard-response","186","2662802","0.0-4.0-0.49","","img/orange.png","null","trial","null","true","0.2,0.8","2:nogo_b","",""
"null","","html-keyboard-response","187","2663808","0.0-4.0-1.49","","<img src=""img/orange-r.png"">","null","trial","null","","0.2,0.8","2:nogo_b","1",""
"null","","html-keyboard-response","188","2664825","0.0-4.0-2.49","","<div style=""font-size:60px;"">+</div>","null","","","","","","",""
"null","","image-keyboard-response","189","2666341","0.0-4.0-0.50","","img/green.png","null","trial","32","false","0.8,0.2","1:go_a","",""
"null","","html-keyboard-response","190","2667343","0.0-4.0-1.50","","<img src=""img/green-n.png"">","null","trial","32","","0.8,0.2","1:go_a","0",""
"null","","html-keyboard-response","191","2668354","0.0-4.0-2.50","","<div style=""font-size:60px;"">+</div>","null","","","","","","",""
"null","","image-keyboard-response","192","2669867","0.0-4.0-0.51","","img/orange.png","null","trial","null","true","0.2,0.8","2:nogo_b","",""
"null","","html-keyboard-response","193","2670870","0.0-4.0-1.51","","<img src=""img/orange-r.png"">","null","trial","null","","0.2,0.8","2:nogo_b","1",""
"null","","html-keyboard-response","194","2671874","0.0-4.0-2.51","","<div style=""font-size:60px;"">+</div>","null","","","","","","",""
"440.1850000140257","","image-keyboard-response","195","2672316","0.0-4.0-0.52","","img/green.png","32","trial","32","true","0.8,0.2","1:go_a","",""
"null","","html-keyboard-response","196","2673324","0.0-4.0-1.52","","<img src=""img/green-r.png"" border=""10"">","null","trial","32","","0.8,0.2","1:go_a","1",""
"null","","html-keyboard-response","197","2674332","0.0-4.0-2.52","","<div style=""font-size:60px;"">+</div>","null","","","","","","",""
"728.2199999899603","","image-keyboard-response","198","2675061","0.0-4.0-0.53","","img/orange.png","32","trial","null","false","0.2,0.8","2:nogo_b","",""
"null","","html-keyboard-response","199","2676078","0.0-4.0-1.53","","<img src=""img/orange-n.png"" border=""10"">","null","trial","null","","0.2,0.8","2:nogo_b","0",""
"null","","html-keyboard-response","200","2677086","0.0-4.0-2.53","","<div style=""font-size:60px;"">+</div>","null","","","","","","",""
"null","","image-keyboard-response","201","2678600","0.0-4.0-0.54","","img/orange.png","null","trial","null","true","0.2,0.8","2:nogo_b","",""
"null","","html-keyboard-response","202","2679613","0.0-4.0-1.54","","<img src=""img/orange-r.png"">","null","trial","null","","0.2,0.8","2:nogo_b","1",""
"null","","html-keyboard-response","203","2680622","0.0-4.0-2.54","","<div style=""font-size:60px;"">+</div>","null","","","","","","",""
"569.3400000454858","","image-keyboard-response","204","2681192","0.0-4.0-0.55","","img/green.png","32","trial","32","true","0.8,0.2","1:go_a","",""
"null","","html-keyboard-response","205","2682202","0.0-4.0-1.55","","<img src=""img/green-n.png"" border=""10"">","null","trial","32","","0.8,0.2","1:go_a","0",""
"null","","html-keyboard-response","206","2683215","0.0-4.0-2.55","","<div style=""font-size:60px;"">+</div>","null","","","","","","",""
"null","","image-keyboard-response","207","2684727","0.0-4.0-0.56","","img/orange.png","null","trial","null","true","0.2,0.8","2:nogo_b","",""
"null","","html-keyboard-response","208","2685733","0.0-4.0-1.56","","<img src=""img/orange-r.png"">","null","trial","null","","0.2,0.8","2:nogo_b","1",""
"null","","html-keyboard-response","209","2686747","0.0-4.0-2.56","","<div style=""font-size:60px;"">+</div>","null","","","","","","",""
"449.8899999889545","","image-keyboard-response","210","2687198","0.0-4.0-0.57","","img/green.png","32","trial","32","true","0.8,0.2","1:go_a","",""
"null","","html-keyboard-response","211","2688214","0.0-4.0-1.57","","<img src=""img/green-n.png"" border=""10"">","null","trial","32","","0.8,0.2","1:go_a","0",""
"null","","html-keyboard-response","212","2689218","0.0-4.0-2.57","","<div style=""font-size:60px;"">+</div>","null","","","","","","",""
"886.0700000077486","","image-keyboard-response","213","2690105","0.0-4.0-0.58","","img/green.png","32","trial","32","true","0.8,0.2","1:go_a","",""
"null","","html-keyboard-response","214","2691123","0.0-4.0-1.58","","<img src=""img/green-r.png"" border=""10"">","null","trial","32","","0.8,0.2","1:go_a","1",""
"null","","html-keyboard-response","215","2692138","0.0-4.0-2.58","","<div style=""font-size:60px;"">+</div>","null","","","","","","",""
"575.1499999896623","","image-keyboard-response","216","2692714","0.0-4.0-0.59","","img/orange.png","32","trial","null","false","0.2,0.8","2:nogo_b","",""
"null","","html-keyboard-response","217","2693720","0.0-4.0-1.59","","<img src=""img/orange-n.png"" border=""10"">","null","trial","null","","0.2,0.8","2:nogo_b","0",""
"null","","html-keyboard-response","218","2694724","0.0-4.0-2.59","","<div style=""font-size:60px;"">+</div>","null","","","","","","",""
"3284.1650000191294","","instructions","219","2698009","0.0-5.0","[{""page_index"":0,""viewing_time"":3283.9849999872968}]","","","","","","","","",""
"814.8749999818392","","image-keyboard-response","220","2698825","0.0-6.0-0.0","","img/purple.png","32","trial","null","false","0.2,0.8","4:nogo_d","",""
"null","","html-keyboard-response","221","2699842","0.0-6.0-1.0","","<img src=""img/purple-n.png"" border=""10"">","null","trial","null","","0.2,0.8","4:nogo_d","0",""
"null","","html-keyboard-response","222","2700858","0.0-6.0-2.0","","<div style=""font-size:60px;"">+</div>","null","","","","","","",""
"369.1899999976158","","image-keyboard-response","223","2701228","0.0-6.0-0.1","","img/red.png","32","trial","32","true","0.8,0.2","3:go_c","",""
"null","","html-keyboard-response","224","2702244","0.0-6.0-1.1","","<img src=""img/red-r.png"" border=""10"">","null","trial","32","","0.8,0.2","3:go_c","1",""
"null","","html-keyboard-response","225","2703257","0.0-6.0-2.1","","<div style=""font-size:60px;"">+</div>","null","","","","","","",""
"1099.9600000213832","","image-keyboard-response","226","2704359","0.0-6.0-0.2","","img/pink.png","32","trial","null","false","0.2,0.8","2:nogo_b","",""
"null","","html-keyboard-response","227","2705375","0.0-6.0-1.2","","<img src=""img/pink-n.png"" border=""10"">","null","trial","null","","0.2,0.8","2:nogo_b","0",""
"null","","html-keyboard-response","228","2706397","0.0-6.0-2.2","","<div style=""font-size:60px;"">+</div>","null","","","","","","",""
"724.9200000078417","","image-keyboard-response","229","2707122","0.0-6.0-0.3","","img/blue.png","32","trial","32","true","0.8,0.2","1:go_a","",""
"null","","html-keyboard-response","230","2708128","0.0-6.0-1.3","","<img src=""img/blue-n.png"" border=""10"">","null","trial","32","","0.8,0.2","1:go_a","0",""
"null","","html-keyboard-response","231","2709142","0.0-6.0-2.3","","<div style=""font-size:60px;"">+</div>","null","","","","","","",""
"575.1900000032037","","image-keyboard-response","232","2709718","0.0-6.0-0.4","","img/purple.png","32","trial","null","false","0.2,0.8","4:nogo_d","",""
"null","","html-keyboard-response","233","2710732","0.0-6.0-1.4","","<img src=""img/purple-n.png"" border=""10"">","null","trial","null","","0.2,0.8","4:nogo_d","0",""
"null","","html-keyboard-response","234","2711747","0.0-6.0-2.4","","<div style=""font-size:60px;"">+</div>","null","","","","","","",""
"701.2700000195764","","image-keyboard-response","235","2712450","0.0-6.0-0.5","","img/red.png","32","trial","32","true","0.8,0.2","3:go_c","",""
"null","","html-keyboard-response","236","2713462","0.0-6.0-1.5","","<img src=""img/red-r.png"" border=""10"">","null","trial","32","","0.8,0.2","3:go_c","1",""
"null","","html-keyboard-response","237","2714477","0.0-6.0-2.5","","<div style=""font-size:60px;"">+</div>","null","","","","","","",""
"null","","image-keyboard-response","238","2715992","0.0-6.0-0.6","","img/pink.png","null","trial","null","true","0.2,0.8","2:nogo_b","",""
"null","","html-keyboard-response","239","2717010","0.0-6.0-1.6","","<img src=""img/pink-n.png"">","null","trial","null","","0.2,0.8","2:nogo_b","0",""
"null","","html-keyboard-response","240","2718011","0.0-6.0-2.6","","<div style=""font-size:60px;"">+</div>","null","","","","","","",""
"null","","image-keyboard-response","241","2719516","0.0-6.0-0.7","","img/blue.png","null","trial","32","false","0.8,0.2","1:go_a","",""
"null","","html-keyboard-response","242","2720531","0.0-6.0-1.7","","<img src=""img/blue-r.png"">","null","trial","32","","0.8,0.2","1:go_a","1",""
"null","","html-keyboard-response","243","2721545","0.0-6.0-2.7","","<div style=""font-size:60px;"">+</div>","null","","","","","","",""
"724.3999999482185","","image-keyboard-response","244","2722271","0.0-6.0-0.8","","img/purple.png","32","trial","null","false","0.2,0.8","4:nogo_d","",""
"null","","html-keyboard-response","245","2723286","0.0-6.0-1.8","","<img src=""img/purple-n.png"" border=""10"">","null","trial","null","","0.2,0.8","4:nogo_d","0",""
"null","","html-keyboard-response","246","2724293","0.0-6.0-2.8","","<div style=""font-size:60px;"">+</div>","null","","","","","","",""
"635.7800000114366","","image-keyboard-response","247","2724931","0.0-6.0-0.9","","img/blue.png","32","trial","32","true","0.8,0.2","1:go_a","",""
"null","","html-keyboard-response","248","2725935","0.0-6.0-1.9","","<img src=""img/blue-r.png"" border=""10"">","null","trial","32","","0.8,0.2","1:go_a","1",""
"null","","html-keyboard-response","249","2726937","0.0-6.0-2.9","","<div style=""font-size:60px;"">+</div>","null","","","","","","",""
"523.0349999619648","","image-keyboard-response","250","2727461","0.0-6.0-0.10","","img/pink.png","32","trial","null","false","0.2,0.8","2:nogo_b","",""
"null","","html-keyboard-response","251","2728472","0.0-6.0-1.10","","<img src=""img/pink-n.png"" border=""10"">","null","trial","null","","0.2,0.8","2:nogo_b","0",""
"null","","html-keyboard-response","252","2729485","0.0-6.0-2.10","","<div style=""font-size:60px;"">+</div>","null","","","","","","",""
"485.86000001523644","","image-keyboard-response","253","2729972","0.0-6.0-0.11","","img/red.png","32","trial","32","true","0.8,0.2","3:go_c","",""
"null","","html-keyboard-response","254","2730982","0.0-6.0-1.11","","<img src=""img/red-r.png"" border=""10"">","null","trial","32","","0.8,0.2","3:go_c","1",""
"null","","html-keyboard-response","255","2731989","0.0-6.0-2.11","","<div style=""font-size:60px;"">+</div>","null","","","","","","",""
"591.5449999738485","","image-keyboard-response","256","2732582","0.0-6.0-0.12","","img/red.png","32","trial","32","true","0.8,0.2","3:go_c","",""
"null","","html-keyboard-response","257","2733588","0.0-6.0-1.12","","<img src=""img/red-n.png"" border=""10"">","null","trial","32","","0.8,0.2","3:go_c","0",""
"null","","html-keyboard-response","258","2734603","0.0-6.0-2.12","","<div style=""font-size:60px;"">+</div>","null","","","","","","",""
"761.5900000091642","","image-keyboard-response","259","2735366","0.0-6.0-0.13","","img/pink.png","32","trial","null","false","0.2,0.8","2:nogo_b","",""
"null","","html-keyboard-response","260","2736373","0.0-6.0-1.13","","<img src=""img/pink-n.png"" border=""10"">","null","trial","null","","0.2,0.8","2:nogo_b","0",""
"null","","html-keyboard-response","261","2737376","0.0-6.0-2.13","","<div style=""font-size:60px;"">+</div>","null","","","","","","",""
"null","","image-keyboard-response","262","2738887","0.0-6.0-0.14","","img/blue.png","null","trial","32","false","0.8,0.2","1:go_a","",""
"null","","html-keyboard-response","263","2739905","0.0-6.0-1.14","","<img src=""img/blue-r.png"">","null","trial","32","","0.8,0.2","1:go_a","1",""
"null","","html-keyboard-response","264","2740917","0.0-6.0-2.14","","<div style=""font-size:60px;"">+</div>","null","","","","","","",""
"null","","image-keyboard-response","265","2742422","0.0-6.0-0.15","","img/purple.png","null","trial","null","true","0.2,0.8","4:nogo_d","",""
"null","","html-keyboard-response","266","2743440","0.0-6.0-1.15","","<img src=""img/purple-r.png"">","null","trial","null","","0.2,0.8","4:nogo_d","1",""
"null","","html-keyboard-response","267","2744456","0.0-6.0-2.15","","<div style=""font-size:60px;"">+</div>","null","","","","","","",""
"501.8699999782257","","image-keyboard-response","268","2744960","0.0-6.0-0.16","","img/pink.png","32","trial","null","false","0.2,0.8","2:nogo_b","",""
"null","","html-keyboard-response","269","2745965","0.0-6.0-1.16","","<img src=""img/pink-n.png"" border=""10"">","null","trial","null","","0.2,0.8","2:nogo_b","0",""
"null","","html-keyboard-response","270","2746967","0.0-6.0-2.16","","<div style=""font-size:60px;"">+</div>","null","","","","","","",""
"410.6700000120327","","image-keyboard-response","271","2747379","0.0-6.0-0.17","","img/red.png","32","trial","32","true","0.8,0.2","3:go_c","",""
"null","","html-keyboard-response","272","2748383","0.0-6.0-1.17","","<img src=""img/red-n.png"" border=""10"">","null","trial","32","","0.8,0.2","3:go_c","0",""
"null","","html-keyboard-response","273","2749399","0.0-6.0-2.17","","<div style=""font-size:60px;"">+</div>","null","","","","","","",""
"400.17499995883554","","image-keyboard-response","274","2749801","0.0-6.0-0.18","","img/blue.png","32","trial","32","true","0.8,0.2","1:go_a","",""
"null","","html-keyboard-response","275","2750809","0.0-6.0-1.18","","<img src=""img/blue-r.png"" border=""10"">","null","trial","32","","0.8,0.2","1:go_a","1",""
"null","","html-keyboard-response","276","2751811","0.0-6.0-2.18","","<div style=""font-size:60px;"">+</div>","null","","","","","","",""
"null","","image-keyboard-response","277","2753313","0.0-6.0-0.19","","img/purple.png","null","trial","null","true","0.2,0.8","4:nogo_d","",""
"null","","html-keyboard-response","278","2754329","0.0-6.0-1.19","","<img src=""img/purple-r.png"">","null","trial","null","","0.2,0.8","4:nogo_d","1",""
"null","","html-keyboard-response","279","2755343","0.0-6.0-2.19","","<div style=""font-size:60px;"">+</div>","null","","","","","","",""
"null","","image-keyboard-response","280","2756857","0.0-6.0-0.20","","img/purple.png","null","trial","null","true","0.2,0.8","4:nogo_d","",""
"null","","html-keyboard-response","281","2757874","0.0-6.0-1.20","","<img src=""img/purple-n.png"">","null","trial","null","","0.2,0.8","4:nogo_d","0",""
"null","","html-keyboard-response","282","2758877","0.0-6.0-2.20","","<div style=""font-size:60px;"">+</div>","null","","","","","","",""
"496.6300000087358","","image-keyboard-response","283","2759375","0.0-6.0-0.21","","img/pink.png","32","trial","null","false","0.2,0.8","2:nogo_b","",""
"null","","html-keyboard-response","284","2760381","0.0-6.0-1.21","","<img src=""img/pink-n.png"" border=""10"">","null","trial","null","","0.2,0.8","2:nogo_b","0",""
"null","","html-keyboard-response","285","2761383","0.0-6.0-2.21","","<div style=""font-size:60px;"">+</div>","null","","","","","","",""
"403.96500000497326","","image-keyboard-response","286","2761790","0.0-6.0-0.22","","img/blue.png","32","trial","32","true","0.8,0.2","1:go_a","",""
"null","","html-keyboard-response","287","2762804","0.0-6.0-1.22","","<img src=""img/blue-r.png"" border=""10"">","null","trial","32","","0.8,0.2","1:go_a","1",""
"null","","html-keyboard-response","288","2763808","0.0-6.0-2.22","","<div style=""font-size:60px;"">+</div>","null","","","","","","",""
"753.3350000157952","","image-keyboard-response","289","2764562","0.0-6.0-0.23","","img/red.png","32","trial","32","true","0.8,0.2","3:go_c","",""
"null","","html-keyboard-response","290","2765578","0.0-6.0-1.23","","<img src=""img/red-r.png"" border=""10"">","null","trial","32","","0.8,0.2","3:go_c","1",""
"null","","html-keyboard-response","291","2766594","0.0-6.0-2.23","","<div style=""font-size:60px;"">+</div>","null","","","","","","",""
"null","","image-keyboard-response","292","2768111","0.0-6.0-0.24","","img/blue.png","null","trial","32","false","0.8,0.2","1:go_a","",""
"null","","html-keyboard-response","293","2769127","0.0-6.0-1.24","","<img src=""img/blue-n.png"">","null","trial","32","","0.8,0.2","1:go_a","0",""
"null","","html-keyboard-response","294","2770139","0.0-6.0-2.24","","<div style=""font-size:60px;"">+</div>","null","","","","","","",""
"625.0299999956042","","image-keyboard-response","295","2770765","0.0-6.0-0.25","","img/red.png","32","trial","32","true","0.8,0.2","3:go_c","",""
"null","","html-keyboard-response","296","2771768","0.0-6.0-1.25","","<img src=""img/red-r.png"" border=""10"">","null","trial","32","","0.8,0.2","3:go_c","1",""
"null","","html-keyboard-response","297","2772783","0.0-6.0-2.25","","<div style=""font-size:60px;"">+</div>","null","","","","","","",""
"660.3449999820441","","image-keyboard-response","298","2773444","0.0-6.0-0.26","","img/purple.png","32","trial","null","false","0.2,0.8","4:nogo_d","",""
"null","","html-keyboard-response","299","2774460","0.0-6.0-1.26","","<img src=""img/purple-n.png"" border=""10"">","null","trial","null","","0.2,0.8","4:nogo_d","0",""
"null","","html-keyboard-response","300","2775463","0.0-6.0-2.26","","<div style=""font-size:60px;"">+</div>","null","","","","","","",""
"null","","image-keyboard-response","301","2776978","0.0-6.0-0.27","","img/pink.png","null","trial","null","true","0.2,0.8","2:nogo_b","",""
"null","","html-keyboard-response","302","2777981","0.0-6.0-1.27","","<img src=""img/pink-r.png"">","null","trial","null","","0.2,0.8","2:nogo_b","1",""
"null","","html-keyboard-response","303","2778998","0.0-6.0-2.27","","<div style=""font-size:60px;"">+</div>","null","","","","","","",""
"609.2749999952503","","image-keyboard-response","304","2779609","0.0-6.0-0.28","","img/red.png","32","trial","32","true","0.8,0.2","3:go_c","",""
"null","","html-keyboard-response","305","2780612","0.0-6.0-1.28","","<img src=""img/red-n.png"" border=""10"">","null","trial","32","","0.8,0.2","3:go_c","0",""
"null","","html-keyboard-response","306","2781624","0.0-6.0-2.28","","<div style=""font-size:60px;"">+</div>","null","","","","","","",""
"506.7900000140071","","image-keyboard-response","307","2782132","0.0-6.0-0.29","","img/purple.png","32","trial","null","false","0.2,0.8","4:nogo_d","",""
"null","","html-keyboard-response","308","2783145","0.0-6.0-1.29","","<img src=""img/purple-n.png"" border=""10"">","null","trial","null","","0.2,0.8","4:nogo_d","0",""
"null","","html-keyboard-response","309","2784159","0.0-6.0-2.29","","<div style=""font-size:60px;"">+</div>","null","","","","","","",""
"378.5500000230968","","image-keyboard-response","310","2784539","0.0-6.0-0.30","","img/blue.png","32","trial","32","true","0.8,0.2","1:go_a","",""
"null","","html-keyboard-response","311","2785554","0.0-6.0-1.30","","<img src=""img/blue-r.png"" border=""10"">","null","trial","32","","0.8,0.2","1:go_a","1",""
"null","","html-keyboard-response","312","2786569","0.0-6.0-2.30","","<div style=""font-size:60px;"">+</div>","null","","","","","","",""
"null","","image-keyboard-response","313","2788076","0.0-6.0-0.31","","img/pink.png","null","trial","null","true","0.2,0.8","2:nogo_b","",""
"null","","html-keyboard-response","314","2789092","0.0-6.0-1.31","","<img src=""img/pink-r.png"">","null","trial","null","","0.2,0.8","2:nogo_b","1",""
"null","","html-keyboard-response","315","2790093","0.0-6.0-2.31","","<div style=""font-size:60px;"">+</div>","null","","","","","","",""
"592.4949999898672","","image-keyboard-response","316","2790687","0.0-6.0-0.32","","img/purple.png","32","trial","null","false","0.2,0.8","4:nogo_d","",""
"null","","html-keyboard-response","317","2791702","0.0-6.0-1.32","","<img src=""img/purple-n.png"" border=""10"">","null","trial","null","","0.2,0.8","4:nogo_d","0",""
"null","","html-keyboard-response","318","2792713","0.0-6.0-2.32","","<div style=""font-size:60px;"">+</div>","null","","","","","","",""
"653.6550000309944","","image-keyboard-response","319","2793369","0.0-6.0-0.33","","img/pink.png","32","trial","null","false","0.2,0.8","2:nogo_b","",""
"null","","html-keyboard-response","320","2794371","0.0-6.0-1.33","","<img src=""img/pink-n.png"" border=""10"">","null","trial","null","","0.2,0.8","2:nogo_b","0",""
"null","","html-keyboard-response","321","2795385","0.0-6.0-2.33","","<div style=""font-size:60px;"">+</div>","null","","","","","","",""
"630.9049999690615","","image-keyboard-response","322","2796017","0.0-6.0-0.34","","img/blue.png","32","trial","32","true","0.8,0.2","1:go_a","",""
"null","","html-keyboard-response","323","2797028","0.0-6.0-1.34","","<img src=""img/blue-r.png"" border=""10"">","null","trial","32","","0.8,0.2","1:go_a","1",""
"null","","html-keyboard-response","324","2798044","0.0-6.0-2.34","","<div style=""font-size:60px;"">+</div>","null","","","","","","",""
"739.075000048615","","image-keyboard-response","325","2798785","0.0-6.0-0.35","","img/red.png","32","trial","32","true","0.8,0.2","3:go_c","",""
"null","","html-keyboard-response","326","2799795","0.0-6.0-1.35","","<img src=""img/red-r.png"" border=""10"">","null","trial","32","","0.8,0.2","3:go_c","1",""
"null","","html-keyboard-response","327","2800799","0.0-6.0-2.35","","<div style=""font-size:60px;"">+</div>","null","","","","","","",""
"null","","image-keyboard-response","328","2802311","0.0-6.0-0.36","","img/blue.png","null","trial","32","false","0.8,0.2","1:go_a","",""
"null","","html-keyboard-response","329","2803325","0.0-6.0-1.36","","<img src=""img/blue-n.png"">","null","trial","32","","0.8,0.2","1:go_a","0",""
"null","","html-keyboard-response","330","2804327","0.0-6.0-2.36","","<div style=""font-size:60px;"">+</div>","null","","","","","","",""
"636.9599999743514","","image-keyboard-response","331","2804965","0.0-6.0-0.37","","img/red.png","32","trial","32","true","0.8,0.2","3:go_c","",""
"null","","html-keyboard-response","332","2805983","0.0-6.0-1.37","","<img src=""img/red-r.png"" border=""10"">","null","trial","32","","0.8,0.2","3:go_c","1",""
"null","","html-keyboard-response","333","2806998","0.0-6.0-2.37","","<div style=""font-size:60px;"">+</div>","null","","","","","","",""
"null","","image-keyboard-response","334","2808510","0.0-6.0-0.38","","img/pink.png","null","trial","null","true","0.2,0.8","2:nogo_b","",""
"null","","html-keyboard-response","335","2809512","0.0-6.0-1.38","","<img src=""img/pink-r.png"">","null","trial","null","","0.2,0.8","2:nogo_b","1",""
"null","","html-keyboard-response","336","2810516","0.0-6.0-2.38","","<div style=""font-size:60px;"">+</div>","null","","","","","","",""
"null","","image-keyboard-response","337","2812030","0.0-6.0-0.39","","img/purple.png","null","trial","null","true","0.2,0.8","4:nogo_d","",""
"null","","html-keyboard-response","338","2813043","0.0-6.0-1.39","","<img src=""img/purple-r.png"">","null","trial","null","","0.2,0.8","4:nogo_d","1",""
"null","","html-keyboard-response","339","2814048","0.0-6.0-2.39","","<div style=""font-size:60px;"">+</div>","null","","","","","","",""
"662.5200000125915","","image-keyboard-response","340","2814712","0.0-6.0-0.40","","img/blue.png","32","trial","32","true","0.8,0.2","1:go_a","",""
"null","","html-keyboard-response","341","2815715","0.0-6.0-1.40","","<img src=""img/blue-n.png"" border=""10"">","null","trial","32","","0.8,0.2","1:go_a","0",""
"null","","html-keyboard-response","342","2816719","0.0-6.0-2.40","","<div style=""font-size:60px;"">+</div>","null","","","","","","",""
"461.70500002335757","","image-keyboard-response","343","2817182","0.0-6.0-0.41","","img/pink.png","32","trial","null","false","0.2,0.8","2:nogo_b","",""
"null","","html-keyboard-response","344","2818196","0.0-6.0-1.41","","<img src=""img/pink-n.png"" border=""10"">","null","trial","null","","0.2,0.8","2:nogo_b","0",""
"null","","html-keyboard-response","345","2819198","0.0-6.0-2.41","","<div style=""font-size:60px;"">+</div>","null","","","","","","",""
"499.29500004509464","","image-keyboard-response","346","2819699","0.0-6.0-0.42","","img/purple.png","32","trial","null","false","0.2,0.8","4:nogo_d","",""
"null","","html-keyboard-response","347","2820717","0.0-6.0-1.42","","<img src=""img/purple-n.png"" border=""10"">","null","trial","null","","0.2,0.8","4:nogo_d","0",""
"null","","html-keyboard-response","348","2821722","0.0-6.0-2.42","","<div style=""font-size:60px;"">+</div>","null","","","","","","",""
"409.9150000256486","","image-keyboard-response","349","2822133","0.0-6.0-0.43","","img/red.png","32","trial","32","true","0.8,0.2","3:go_c","",""
"null","","html-keyboard-response","350","2823147","0.0-6.0-1.43","","<img src=""img/red-r.png"" border=""10"">","null","trial","32","","0.8,0.2","3:go_c","1",""
"null","","html-keyboard-response","351","2824155","0.0-6.0-2.43","","<div style=""font-size:60px;"">+</div>","null","","","","","","",""
"784.6049999934621","","image-keyboard-response","352","2824941","0.0-6.0-0.44","","img/red.png","32","trial","32","true","0.8,0.2","3:go_c","",""
"null","","html-keyboard-response","353","2825947","0.0-6.0-1.44","","<img src=""img/red-r.png"" border=""10"">","null","trial","32","","0.8,0.2","3:go_c","1",""
"null","","html-keyboard-response","354","2826949","0.0-6.0-2.44","","<div style=""font-size:60px;"">+</div>","null","","","","","","",""
"null","","image-keyboard-response","355","2828453","0.0-6.0-0.45","","img/blue.png","null","trial","32","false","0.8,0.2","1:go_a","",""
"null","","html-keyboard-response","356","2829457","0.0-6.0-1.45","","<img src=""img/blue-n.png"">","null","trial","32","","0.8,0.2","1:go_a","0",""
"null","","html-keyboard-response","357","2830466","0.0-6.0-2.45","","<div style=""font-size:60px;"">+</div>","null","","","","","","",""
"null","","image-keyboard-response","358","2831978","0.0-6.0-0.46","","img/purple.png","null","trial","null","true","0.2,0.8","4:nogo_d","",""
"null","","html-keyboard-response","359","2832982","0.0-6.0-1.46","","<img src=""img/purple-r.png"">","null","trial","null","","0.2,0.8","4:nogo_d","1",""
"null","","html-keyboard-response","360","2833986","0.0-6.0-2.46","","<div style=""font-size:60px;"">+</div>","null","","","","","","",""
"400.6350000272505","","image-keyboard-response","361","2834388","0.0-6.0-0.47","","img/pink.png","32","trial","null","false","0.2,0.8","2:nogo_b","",""
"null","","html-keyboard-response","362","2835391","0.0-6.0-1.47","","<img src=""img/pink-n.png"" border=""10"">","null","trial","null","","0.2,0.8","2:nogo_b","0",""
"null","","html-keyboard-response","363","2836393","0.0-6.0-2.47","","<div style=""font-size:60px;"">+</div>","null","","","","","","",""
"1009.8199999774806","","image-keyboard-response","364","2837404","0.0-6.0-0.48","","img/blue.png","32","trial","32","true","0.8,0.2","1:go_a","",""
"null","","html-keyboard-response","365","2838411","0.0-6.0-1.48","","<img src=""img/blue-r.png"" border=""10"">","null","trial","32","","0.8,0.2","1:go_a","1",""
"null","","html-keyboard-response","366","2839418","0.0-6.0-2.48","","<div style=""font-size:60px;"">+</div>","null","","","","","","",""
"null","","image-keyboard-response","367","2840932","0.0-6.0-0.49","","img/purple.png","null","trial","null","true","0.2,0.8","4:nogo_d","",""
"null","","html-keyboard-response","368","2841936","0.0-6.0-1.49","","<img src=""img/purple-r.png"">","null","trial","null","","0.2,0.8","4:nogo_d","1",""
"null","","html-keyboard-response","369","2842942","0.0-6.0-2.49","","<div style=""font-size:60px;"">+</div>","null","","","","","","",""
"null","","image-keyboard-response","370","2844455","0.0-6.0-0.50","","img/pink.png","null","trial","null","true","0.2,0.8","2:nogo_b","",""
"null","","html-keyboard-response","371","2845469","0.0-6.0-1.50","","<img src=""img/pink-r.png"">","null","trial","null","","0.2,0.8","2:nogo_b","1",""
"null","","html-keyboard-response","372","2846473","0.0-6.0-2.50","","<div style=""font-size:60px;"">+</div>","null","","","","","","",""
"541.144999966491","","image-keyboard-response","373","2847015","0.0-6.0-0.51","","img/red.png","32","trial","32","true","0.8,0.2","3:go_c","",""
"null","","html-keyboard-response","374","2848034","0.0-6.0-1.51","","<img src=""img/red-r.png"" border=""10"">","null","trial","32","","0.8,0.2","3:go_c","1",""
"null","","html-keyboard-response","375","2849037","0.0-6.0-2.51","","<div style=""font-size:60px;"">+</div>","null","","","","","","",""
"595.3149999841116","","image-keyboard-response","376","2849634","0.0-6.0-0.52","","img/blue.png","32","trial","32","true","0.8,0.2","1:go_a","",""
"null","","html-keyboard-response","377","2850644","0.0-6.0-1.52","","<img src=""img/blue-r.png"" border=""10"">","null","trial","32","","0.8,0.2","1:go_a","1",""
"null","","html-keyboard-response","378","2851654","0.0-6.0-2.52","","<div style=""font-size:60px;"">+</div>","null","","","","","","",""
"605.0950000062585","","image-keyboard-response","379","2852261","0.0-6.0-0.53","","img/red.png","32","trial","32","true","0.8,0.2","3:go_c","",""
"null","","html-keyboard-response","380","2853265","0.0-6.0-1.53","","<img src=""img/red-r.png"" border=""10"">","null","trial","32","","0.8,0.2","3:go_c","1",""
"null","","html-keyboard-response","381","2854268","0.0-6.0-2.53","","<div style=""font-size:60px;"">+</div>","null","","","","","","",""
"null","","image-keyboard-response","382","2855781","0.0-6.0-0.54","","img/pink.png","null","trial","null","true","0.2,0.8","2:nogo_b","",""
"null","","html-keyboard-response","383","2856788","0.0-6.0-1.54","","<img src=""img/pink-r.png"">","null","trial","null","","0.2,0.8","2:nogo_b","1",""
"null","","html-keyboard-response","384","2857796","0.0-6.0-2.54","","<div style=""font-size:60px;"">+</div>","null","","","","","","",""
"432.3599999770522","","image-keyboard-response","385","2858229","0.0-6.0-0.55","","img/purple.png","32","trial","null","false","0.2,0.8","4:nogo_d","",""
"null","","html-keyboard-response","386","2859233","0.0-6.0-1.55","","<img src=""img/purple-n.png"" border=""10"">","null","trial","null","","0.2,0.8","4:nogo_d","0",""
"null","","html-keyboard-response","387","2860249","0.0-6.0-2.55","","<div style=""font-size:60px;"">+</div>","null","","","","","","",""
"487.70499997772276","","image-keyboard-response","388","2860738","0.0-6.0-0.56","","img/purple.png","32","trial","null","false","0.2,0.8","4:nogo_d","",""
"null","","html-keyboard-response","389","2861747","0.0-6.0-1.56","","<img src=""img/purple-r.png"" border=""10"">","null","trial","null","","0.2,0.8","4:nogo_d","1",""
"null","","html-keyboard-response","390","2862752","0.0-6.0-2.56","","<div style=""font-size:60px;"">+</div>","null","","","","","","",""
"null","","image-keyboard-response","391","2864256","0.0-6.0-0.57","","img/pink.png","null","trial","null","true","0.2,0.8","2:nogo_b","",""
"null","","html-keyboard-response","392","2865274","0.0-6.0-1.57","","<img src=""img/pink-r.png"">","null","trial","null","","0.2,0.8","2:nogo_b","1",""
"null","","html-keyboard-response","393","2866285","0.0-6.0-2.57","","<div style=""font-size:60px;"">+</div>","null","","","","","","",""
"490.47499999869615","","image-keyboard-response","394","2866777","0.0-6.0-0.58","","img/blue.png","32","trial","32","true","0.8,0.2","1:go_a","",""
"null","","html-keyboard-response","395","2867791","0.0-6.0-1.58","","<img src=""img/blue-n.png"" border=""10"">","null","trial","32","","0.8,0.2","1:go_a","0",""
"null","","html-keyboard-response","396","2868795","0.0-6.0-2.58","","<div style=""font-size:60px;"">+</div>","null","","","","","","",""
"385.5350000085309","","image-keyboard-response","397","2869182","0.0-6.0-0.59","","img/red.png","32","trial","32","true","0.8,0.2","3:go_c","",""
"null","","html-keyboard-response","398","2870186","0.0-6.0-1.59","","<img src=""img/red-r.png"" border=""10"">","null","trial","32","","0.8,0.2","3:go_c","1",""
"null","","html-keyboard-response","399","2871203","0.0-6.0-2.59","","<div style=""font-size:60px;"">+</div>","null","","","","","","",""
"null","","image-keyboard-response","400","2872708","0.0-6.0-0.60","","img/purple.png","null","trial","null","true","0.2,0.8","4:nogo_d","",""
"null","","html-keyboard-response","401","2873712","0.0-6.0-1.60","","<img src=""img/purple-r.png"">","null","trial","null","","0.2,0.8","4:nogo_d","1",""
"null","","html-keyboard-response","402","2874717","0.0-6.0-2.60","","<div style=""font-size:60px;"">+</div>","null","","","","","","",""
"496.5949999750592","","image-keyboard-response","403","2875215","0.0-6.0-0.61","","img/blue.png","32","trial","32","true","0.8,0.2","1:go_a","",""
"null","","html-keyboard-response","404","2876229","0.0-6.0-1.61","","<img src=""img/blue-n.png"" border=""10"">","null","trial","32","","0.8,0.2","1:go_a","0",""
"null","","html-keyboard-response","405","2877233","0.0-6.0-2.61","","<div style=""font-size:60px;"">+</div>","null","","","","","","",""
"412.75000001769513","","image-keyboard-response","406","2877647","0.0-6.0-0.62","","img/red.png","32","trial","32","true","0.8,0.2","3:go_c","",""
"null","","html-keyboard-response","407","2878653","0.0-6.0-1.62","","<img src=""img/red-n.png"" border=""10"">","null","trial","32","","0.8,0.2","3:go_c","0",""
"null","","html-keyboard-response","408","2879657","0.0-6.0-2.62","","<div style=""font-size:60px;"">+</div>","null","","","","","","",""
"760.9400000073947","","image-keyboard-response","409","2880419","0.0-6.0-0.63","","img/pink.png","32","trial","null","false","0.2,0.8","2:nogo_b","",""
"null","","html-keyboard-response","410","2881422","0.0-6.0-1.63","","<img src=""img/pink-n.png"" border=""10"">","null","trial","null","","0.2,0.8","2:nogo_b","0",""
"null","","html-keyboard-response","411","2882427","0.0-6.0-2.63","","<div style=""font-size:60px;"">+</div>","null","","","","","","",""
"384.5199999632314","","image-keyboard-response","412","2882813","0.0-6.0-0.64","","img/purple.png","32","trial","null","false","0.2,0.8","4:nogo_d","",""
"null","","html-keyboard-response","413","2883822","0.0-6.0-1.64","","<img src=""img/purple-n.png"" border=""10"">","null","trial","null","","0.2,0.8","4:nogo_d","0",""
"null","","html-keyboard-response","414","2884826","0.0-6.0-2.64","","<div style=""font-size:60px;"">+</div>","null","","","","","","",""
"null","","image-keyboard-response","415","2886338","0.0-6.0-0.65","","img/blue.png","null","trial","32","false","0.8,0.2","1:go_a","",""
"null","","html-keyboard-response","416","2887348","0.0-6.0-1.65","","<img src=""img/blue-r.png"">","null","trial","32","","0.8,0.2","1:go_a","1",""
"null","","html-keyboard-response","417","2888351","0.0-6.0-2.65","","<div style=""font-size:60px;"">+</div>","null","","","","","","",""
"null","","image-keyboard-response","418","2889865","0.0-6.0-0.66","","img/pink.png","null","trial","null","true","0.2,0.8","2:nogo_b","",""
"null","","html-keyboard-response","419","2890868","0.0-6.0-1.66","","<img src=""img/pink-r.png"">","null","trial","null","","0.2,0.8","2:nogo_b","1",""
"null","","html-keyboard-response","420","2891871","0.0-6.0-2.66","","<div style=""font-size:60px;"">+</div>","null","","","","","","",""
"424.41000003600493","","image-keyboard-response","421","2892297","0.0-6.0-0.67","","img/red.png","32","trial","32","true","0.8,0.2","3:go_c","",""
"null","","html-keyboard-response","422","2893307","0.0-6.0-1.67","","<img src=""img/red-r.png"" border=""10"">","null","trial","32","","0.8,0.2","3:go_c","1",""
"null","","html-keyboard-response","423","2894311","0.0-6.0-2.67","","<div style=""font-size:60px;"">+</div>","null","","","","","","",""
"731.1050000134856","","image-keyboard-response","424","2895043","0.0-6.0-0.68","","img/blue.png","32","trial","32","true","0.8,0.2","1:go_a","",""
"null","","html-keyboard-response","425","2896047","0.0-6.0-1.68","","<img src=""img/blue-r.png"" border=""10"">","null","trial","32","","0.8,0.2","1:go_a","1",""
"null","","html-keyboard-response","426","2897060","0.0-6.0-2.68","","<div style=""font-size:60px;"">+</div>","null","","","","","","",""
"699.8499999754131","","image-keyboard-response","427","2897761","0.0-6.0-0.69","","img/red.png","32","trial","32","true","0.8,0.2","3:go_c","",""
"null","","html-keyboard-response","428","2898764","0.0-6.0-1.69","","<img src=""img/red-r.png"" border=""10"">","null","trial","32","","0.8,0.2","3:go_c","1",""
"null","","html-keyboard-response","429","2899770","0.0-6.0-2.69","","<div style=""font-size:60px;"">+</div>","null","","","","","","",""
"null","","image-keyboard-response","430","2901283","0.0-6.0-0.70","","img/purple.png","null","trial","null","true","0.2,0.8","4:nogo_d","",""
"null","","html-keyboard-response","431","2902290","0.0-6.0-1.70","","<img src=""img/purple-r.png"">","null","trial","null","","0.2,0.8","4:nogo_d","1",""
"null","","html-keyboard-response","432","2903297","0.0-6.0-2.70","","<div style=""font-size:60px;"">+</div>","null","","","","","","",""
"null","","image-keyboard-response","433","2904811","0.0-6.0-0.71","","img/pink.png","null","trial","null","true","0.2,0.8","2:nogo_b","",""
"null","","html-keyboard-response","434","2905815","0.0-6.0-1.71","","<img src=""img/pink-r.png"">","null","trial","null","","0.2,0.8","2:nogo_b","1",""
"null","","html-keyboard-response","435","2906825","0.0-6.0-2.71","","<div style=""font-size:60px;"">+</div>","null","","","","","","",""
"563.7900000438094","","image-keyboard-response","436","2907391","0.0-6.0-0.72","","img/purple.png","32","trial","null","false","0.2,0.8","4:nogo_d","",""
"null","","html-keyboard-response","437","2908404","0.0-6.0-1.72","","<img src=""img/purple-n.png"" border=""10"">","null","trial","null","","0.2,0.8","4:nogo_d","0",""
"null","","html-keyboard-response","438","2909409","0.0-6.0-2.72","","<div style=""font-size:60px;"">+</div>","null","","","","","","",""
"null","","image-keyboard-response","439","2910911","0.0-6.0-0.73","","img/pink.png","null","trial","null","true","0.2,0.8","2:nogo_b","",""
"null","","html-keyboard-response","440","2911917","0.0-6.0-1.73","","<img src=""img/pink-r.png"">","null","trial","null","","0.2,0.8","2:nogo_b","1",""
"null","","html-keyboard-response","441","2912921","0.0-6.0-2.73","","<div style=""font-size:60px;"">+</div>","null","","","","","","",""
"647.5750000099652","","image-keyboard-response","442","2913570","0.0-6.0-0.74","","img/blue.png","32","trial","32","true","0.8,0.2","1:go_a","",""
"null","","html-keyboard-response","443","2914574","0.0-6.0-1.74","","<img src=""img/blue-r.png"" border=""10"">","null","trial","32","","0.8,0.2","1:go_a","1",""
"null","","html-keyboard-response","444","2915577","0.0-6.0-2.74","","<div style=""font-size:60px;"">+</div>","null","","","","","","",""
"511.850000009872","","image-keyboard-response","445","2916090","0.0-6.0-0.75","","img/red.png","32","trial","32","true","0.8,0.2","3:go_c","",""
"null","","html-keyboard-response","446","2917094","0.0-6.0-1.75","","<img src=""img/red-r.png"" border=""10"">","null","trial","32","","0.8,0.2","3:go_c","1",""
"null","","html-keyboard-response","447","2918097","0.0-6.0-2.75","","<div style=""font-size:60px;"">+</div>","null","","","","","","",""
"null","","image-keyboard-response","448","2919610","0.0-6.0-0.76","","img/pink.png","null","trial","null","true","0.2,0.8","2:nogo_b","",""
"null","","html-keyboard-response","449","2920619","0.0-6.0-1.76","","<img src=""img/pink-r.png"">","null","trial","null","","0.2,0.8","2:nogo_b","1",""
"null","","html-keyboard-response","450","2921624","0.0-6.0-2.76","","<div style=""font-size:60px;"">+</div>","null","","","","","","",""
"333.35000002989545","","image-keyboard-response","451","2921959","0.0-6.0-0.77","","img/purple.png","32","trial","null","false","0.2,0.8","4:nogo_d","",""
"null","","html-keyboard-response","452","2922969","0.0-6.0-1.77","","<img src=""img/purple-r.png"" border=""10"">","null","trial","null","","0.2,0.8","4:nogo_d","1",""
"null","","html-keyboard-response","453","2923972","0.0-6.0-2.77","","<div style=""font-size:60px;"">+</div>","null","","","","","","",""
"866.4149999967776","","image-keyboard-response","454","2924840","0.0-6.0-0.78","","img/blue.png","32","trial","32","true","0.8,0.2","1:go_a","",""
"null","","html-keyboard-response","455","2925843","0.0-6.0-1.78","","<img src=""img/blue-r.png"" border=""10"">","null","trial","32","","0.8,0.2","1:go_a","1",""
"null","","html-keyboard-response","456","2926857","0.0-6.0-2.78","","<div style=""font-size:60px;"">+</div>","null","","","","","","",""
"442.8399999742396","","image-keyboard-response","457","2927301","0.0-6.0-0.79","","img/red.png","32","trial","32","true","0.8,0.2","3:go_c","",""
"null","","html-keyboard-response","458","2928311","0.0-6.0-1.79","","<img src=""img/red-r.png"" border=""10"">","null","trial","32","","0.8,0.2","3:go_c","1",""
"null","","html-keyboard-response","459","2929325","0.0-6.0-2.79","","<div style=""font-size:60px;"">+</div>","null","","","","","","",""
"819.4050000165589","","image-keyboard-response","460","2930146","0.0-6.0-0.80","","img/red.png","32","trial","32","true","0.8,0.2","3:go_c","",""
"null","","html-keyboard-response","461","2931155","0.0-6.0-1.80","","<img src=""img/red-r.png"" border=""10"">","null","trial","32","","0.8,0.2","3:go_c","1",""
"null","","html-keyboard-response","462","2932171","0.0-6.0-2.80","","<div style=""font-size:60px;"">+</div>","null","","","","","","",""
"null","","image-keyboard-response","463","2933677","0.0-6.0-0.81","","img/purple.png","null","trial","null","true","0.2,0.8","4:nogo_d","",""
"null","","html-keyboard-response","464","2934682","0.0-6.0-1.81","","<img src=""img/purple-r.png"">","null","trial","null","","0.2,0.8","4:nogo_d","1",""
"null","","html-keyboard-response","465","2935685","0.0-6.0-2.81","","<div style=""font-size:60px;"">+</div>","null","","","","","","",""
"null","","image-keyboard-response","466","2937202","0.0-6.0-0.82","","img/pink.png","null","trial","null","true","0.2,0.8","2:nogo_b","",""
"null","","html-keyboard-response","467","2938217","0.0-6.0-1.82","","<img src=""img/pink-r.png"">","null","trial","null","","0.2,0.8","2:nogo_b","1",""
"null","","html-keyboard-response","468","2939232","0.0-6.0-2.82","","<div style=""font-size:60px;"">+</div>","null","","","","","","",""
"1228.3300000126474","","image-keyboard-response","469","2940462","0.0-6.0-0.83","","img/blue.png","32","trial","32","true","0.8,0.2","1:go_a","",""
"null","","html-keyboard-response","470","2941471","0.0-6.0-1.83","","<img src=""img/blue-r.png"" border=""10"">","null","trial","32","","0.8,0.2","1:go_a","1",""
"null","","html-keyboard-response","471","2942474","0.0-6.0-2.83","","<div style=""font-size:60px;"">+</div>","null","","","","","","",""
"494.67500002356246","","image-keyboard-response","472","2942970","0.0-6.0-0.84","","img/blue.png","32","trial","32","true","0.8,0.2","1:go_a","",""
"null","","html-keyboard-response","473","2943973","0.0-6.0-1.84","","<img src=""img/blue-r.png"" border=""10"">","null","trial","32","","0.8,0.2","1:go_a","1",""
"null","","html-keyboard-response","474","2944976","0.0-6.0-2.84","","<div style=""font-size:60px;"">+</div>","null","","","","","","",""
"null","","image-keyboard-response","475","2946488","0.0-6.0-0.85","","img/purple.png","null","trial","null","true","0.2,0.8","4:nogo_d","",""
"null","","html-keyboard-response","476","2947497","0.0-6.0-1.85","","<img src=""img/purple-r.png"">","null","trial","null","","0.2,0.8","4:nogo_d","1",""
"null","","html-keyboard-response","477","2948500","0.0-6.0-2.85","","<div style=""font-size:60px;"">+</div>","null","","","","","","",""
"976.5999999945052","","image-keyboard-response","478","2949478","0.0-6.0-0.86","","img/pink.png","32","trial","null","false","0.2,0.8","2:nogo_b","",""
"null","","html-keyboard-response","479","2950493","0.0-6.0-1.86","","<img src=""img/pink-r.png"" border=""10"">","null","trial","null","","0.2,0.8","2:nogo_b","1",""
"null","","html-keyboard-response","480","2951497","0.0-6.0-2.86","","<div style=""font-size:60px;"">+</div>","null","","","","","","",""
"584.3999999924563","","image-keyboard-response","481","2952082","0.0-6.0-0.87","","img/red.png","32","trial","32","true","0.8,0.2","3:go_c","",""
"null","","html-keyboard-response","482","2953088","0.0-6.0-1.87","","<img src=""img/red-r.png"" border=""10"">","null","trial","32","","0.8,0.2","3:go_c","1",""
"null","","html-keyboard-response","483","2954091","0.0-6.0-2.87","","<div style=""font-size:60px;"">+</div>","null","","","","","","",""
"486.3550000009127","","image-keyboard-response","484","2954578","0.0-6.0-0.88","","img/red.png","32","trial","32","true","0.8,0.2","3:go_c","",""
"null","","html-keyboard-response","485","2955592","0.0-6.0-1.88","","<img src=""img/red-r.png"" border=""10"">","null","trial","32","","0.8,0.2","3:go_c","1",""
"null","","html-keyboard-response","486","2956599","0.0-6.0-2.88","","<div style=""font-size:60px;"">+</div>","null","","","","","","",""
"476.01000004215166","","image-keyboard-response","487","2957076","0.0-6.0-0.89","","img/blue.png","32","trial","32","true","0.8,0.2","1:go_a","",""
"null","","html-keyboard-response","488","2958081","0.0-6.0-1.89","","<img src=""img/blue-r.png"" border=""10"">","null","trial","32","","0.8,0.2","1:go_a","1",""
"null","","html-keyboard-response","489","2959086","0.0-6.0-2.89","","<div style=""font-size:60px;"">+</div>","null","","","","","","",""
"614.7699999855831","","image-keyboard-response","490","2959702","0.0-6.0-0.90","","img/purple.png","32","trial","null","false","0.2,0.8","4:nogo_d","",""
"null","","html-keyboard-response","491","2960709","0.0-6.0-1.90","","<img src=""img/purple-n.png"" border=""10"">","null","trial","null","","0.2,0.8","4:nogo_d","0",""
"null","","html-keyboard-response","492","2961712","0.0-6.0-2.90","","<div style=""font-size:60px;"">+</div>","null","","","","","","",""
"null","","image-keyboard-response","493","2963226","0.0-6.0-0.91","","img/pink.png","null","trial","null","true","0.2,0.8","2:nogo_b","",""
"null","","html-keyboard-response","494","2964232","0.0-6.0-1.91","","<img src=""img/pink-r.png"">","null","trial","null","","0.2,0.8","2:nogo_b","1",""
"null","","html-keyboard-response","495","2965248","0.0-6.0-2.91","","<div style=""font-size:60px;"">+</div>","null","","","","","","",""
"345.6400000141002","","image-keyboard-response","496","2965595","0.0-6.0-0.92","","img/purple.png","32","trial","null","false","0.2,0.8","4:nogo_d","",""
"null","","html-keyboard-response","497","2966609","0.0-6.0-1.92","","<img src=""img/purple-r.png"" border=""10"">","null","trial","null","","0.2,0.8","4:nogo_d","1",""
"null","","html-keyboard-response","498","2967623","0.0-6.0-2.92","","<div style=""font-size:60px;"">+</div>","null","","","","","","",""
"621.7049999977462","","image-keyboard-response","499","2968246","0.0-6.0-0.93","","img/blue.png","32","trial","32","true","0.8,0.2","1:go_a","",""
"null","","html-keyboard-response","500","2969249","0.0-6.0-1.93","","<img src=""img/blue-r.png"" border=""10"">","null","trial","32","","0.8,0.2","1:go_a","1",""
"null","","html-keyboard-response","501","2970253","0.0-6.0-2.93","","<div style=""font-size:60px;"">+</div>","null","","","","","","",""
"568.5850000008941","","image-keyboard-response","502","2970823","0.0-6.0-0.94","","img/red.png","32","trial","32","true","0.8,0.2","3:go_c","",""
"null","","html-keyboard-response","503","2971836","0.0-6.0-1.94","","<img src=""img/red-r.png"" border=""10"">","null","trial","32","","0.8,0.2","3:go_c","1",""
"null","","html-keyboard-response","504","2972839","0.0-6.0-2.94","","<div style=""font-size:60px;"">+</div>","null","","","","","","",""
"null","","image-keyboard-response","505","2974354","0.0-6.0-0.95","","img/pink.png","null","trial","null","true","0.2,0.8","2:nogo_b","",""
"null","","html-keyboard-response","506","2975357","0.0-6.0-1.95","","<img src=""img/pink-n.png"">","null","trial","null","","0.2,0.8","2:nogo_b","0",""
"null","","html-keyboard-response","507","2976363","0.0-6.0-2.95","","<div style=""font-size:60px;"">+</div>","null","","","","","","",""
"513.8199999928474","","image-keyboard-response","508","2976878","0.0-6.0-0.96","","img/red.png","32","trial","32","true","0.8,0.2","3:go_c","",""
"null","","html-keyboard-response","509","2977888","0.0-6.0-1.96","","<img src=""img/red-r.png"" border=""10"">","null","trial","32","","0.8,0.2","3:go_c","1",""
"null","","html-keyboard-response","510","2978905","0.0-6.0-2.96","","<div style=""font-size:60px;"">+</div>","null","","","","","","",""
"615.1699999463744","","image-keyboard-response","511","2979521","0.0-6.0-0.97","","img/blue.png","32","trial","32","true","0.8,0.2","1:go_a","",""
"null","","html-keyboard-response","512","2980530","0.0-6.0-1.97","","<img src=""img/blue-r.png"" border=""10"">","null","trial","32","","0.8,0.2","1:go_a","1",""
"null","","html-keyboard-response","513","2981536","0.0-6.0-2.97","","<div style=""font-size:60px;"">+</div>","null","","","","","","",""
"null","","image-keyboard-response","514","2983051","0.0-6.0-0.98","","img/pink.png","null","trial","null","true","0.2,0.8","2:nogo_b","",""
"null","","html-keyboard-response","515","2984054","0.0-6.0-1.98","","<img src=""img/pink-r.png"">","null","trial","null","","0.2,0.8","2:nogo_b","1",""
"null","","html-keyboard-response","516","2985058","0.0-6.0-2.98","","<div style=""font-size:60px;"">+</div>","null","","","","","","",""
"441.3749999948777","","image-keyboard-response","517","2985501","0.0-6.0-0.99","","img/purple.png","32","trial","null","false","0.2,0.8","4:nogo_d","",""
"null","","html-keyboard-response","518","2986505","0.0-6.0-1.99","","<img src=""img/purple-n.png"" border=""10"">","null","trial","null","","0.2,0.8","4:nogo_d","0",""
"null","","html-keyboard-response","519","2987517","0.0-6.0-2.99","","<div style=""font-size:60px;"">+</div>","null","","","","","","",""
"424.67000003671274","","image-keyboard-response","520","2987943","0.0-6.0-0.100","","img/red.png","32","trial","32","true","0.8,0.2","3:go_c","",""
"null","","html-keyboard-response","521","2988953","0.0-6.0-1.100","","<img src=""img/red-r.png"" border=""10"">","null","trial","32","","0.8,0.2","3:go_c","1",""
"null","","html-keyboard-response","522","2989956","0.0-6.0-2.100","","<div style=""font-size:60px;"">+</div>","null","","","","","","",""
"813.1599999614991","","image-keyboard-response","523","2990771","0.0-6.0-0.101","","img/purple.png","32","trial","null","false","0.2,0.8","4:nogo_d","",""
"null","","html-keyboard-response","524","2991780","0.0-6.0-1.101","","<img src=""img/purple-r.png"" border=""10"">","null","trial","null","","0.2,0.8","4:nogo_d","1",""
"null","","html-keyboard-response","525","2992786","0.0-6.0-2.101","","<div style=""font-size:60px;"">+</div>","null","","","","","","",""
"null","","image-keyboard-response","526","2994300","0.0-6.0-0.102","","img/pink.png","null","trial","null","true","0.2,0.8","2:nogo_b","",""
"null","","html-keyboard-response","527","2995303","0.0-6.0-1.102","","<img src=""img/pink-r.png"">","null","trial","null","","0.2,0.8","2:nogo_b","1",""
"null","","html-keyboard-response","528","2996307","0.0-6.0-2.102","","<div style=""font-size:60px;"">+</div>","null","","","","","","",""
"412.09499997785315","","image-keyboard-response","529","2996720","0.0-6.0-0.103","","img/blue.png","32","trial","32","true","0.8,0.2","1:go_a","",""
"null","","html-keyboard-response","530","2997727","0.0-6.0-1.103","","<img src=""img/blue-n.png"" border=""10"">","null","trial","32","","0.8,0.2","1:go_a","0",""
"null","","html-keyboard-response","531","2998731","0.0-6.0-2.103","","<div style=""font-size:60px;"">+</div>","null","","","","","","",""
"694.5899999700487","","image-keyboard-response","532","2999427","0.0-6.0-0.104","","img/purple.png","32","trial","null","false","0.2,0.8","4:nogo_d","",""
"null","","html-keyboard-response","533","3000442","0.0-6.0-1.104","","<img src=""img/purple-n.png"" border=""10"">","null","trial","null","","0.2,0.8","4:nogo_d","0",""
"null","","html-keyboard-response","534","3001453","0.0-6.0-2.104","","<div style=""font-size:60px;"">+</div>","null","","","","","","",""
"495.32000004546717","","image-keyboard-response","535","3001949","0.0-6.0-0.105","","img/blue.png","32","trial","32","true","0.8,0.2","1:go_a","",""
"null","","html-keyboard-response","536","3002966","0.0-6.0-1.105","","<img src=""img/blue-r.png"" border=""10"">","null","trial","32","","0.8,0.2","1:go_a","1",""
"null","","html-keyboard-response","537","3003970","0.0-6.0-2.105","","<div style=""font-size:60px;"">+</div>","null","","","","","","",""
"467.44500001659617","","image-keyboard-response","538","3004439","0.0-6.0-0.106","","img/red.png","32","trial","32","true","0.8,0.2","3:go_c","",""
"null","","html-keyboard-response","539","3005452","0.0-6.0-1.106","","<img src=""img/red-r.png"" border=""10"">","null","trial","32","","0.8,0.2","3:go_c","1",""
"null","","html-keyboard-response","540","3006456","0.0-6.0-2.106","","<div style=""font-size:60px;"">+</div>","null","","","","","","",""
"790.9599999547936","","image-keyboard-response","541","3007248","0.0-6.0-0.107","","img/pink.png","32","trial","null","false","0.2,0.8","2:nogo_b","",""
"null","","html-keyboard-response","542","3008265","0.0-6.0-1.107","","<img src=""img/pink-n.png"" border=""10"">","null","trial","null","","0.2,0.8","2:nogo_b","0",""
"null","","html-keyboard-response","543","3009279","0.0-6.0-2.107","","<div style=""font-size:60px;"">+</div>","null","","","","","","",""
"352.1349999937229","","image-keyboard-response","544","3009633","0.0-6.0-0.108","","img/purple.png","32","trial","null","false","0.2,0.8","4:nogo_d","",""
"null","","html-keyboard-response","545","3010639","0.0-6.0-1.108","","<img src=""img/purple-n.png"" border=""10"">","null","trial","null","","0.2,0.8","4:nogo_d","0",""
"null","","html-keyboard-response","546","3011655","0.0-6.0-2.108","","<div style=""font-size:60px;"">+</div>","null","","","","","","",""
"null","","image-keyboard-response","547","3013162","0.0-6.0-0.109","","img/pink.png","null","trial","null","true","0.2,0.8","2:nogo_b","",""
"null","","html-keyboard-response","548","3014180","0.0-6.0-1.109","","<img src=""img/pink-r.png"">","null","trial","null","","0.2,0.8","2:nogo_b","1",""
"null","","html-keyboard-response","549","3015184","0.0-6.0-2.109","","<div style=""font-size:60px;"">+</div>","null","","","","","","",""
"456.8950000102632","","image-keyboard-response","550","3015643","0.0-6.0-0.110","","img/red.png","32","trial","32","true","0.8,0.2","3:go_c","",""
"null","","html-keyboard-response","551","3016651","0.0-6.0-1.110","","<img src=""img/red-r.png"" border=""10"">","null","trial","32","","0.8,0.2","3:go_c","1",""
"null","","html-keyboard-response","552","3017654","0.0-6.0-2.110","","<div style=""font-size:60px;"">+</div>","null","","","","","","",""
"540.6400000210851","","image-keyboard-response","553","3018196","0.0-6.0-0.111","","img/blue.png","32","trial","32","true","0.8,0.2","1:go_a","",""
"null","","html-keyboard-response","554","3019199","0.0-6.0-1.111","","<img src=""img/blue-r.png"" border=""10"">","null","trial","32","","0.8,0.2","1:go_a","1",""
"null","","html-keyboard-response","555","3020202","0.0-6.0-2.111","","<div style=""font-size:60px;"">+</div>","null","","","","","","",""
"764.8599999956787","","image-keyboard-response","556","3020968","0.0-6.0-0.112","","img/purple.png","32","trial","null","false","0.2,0.8","4:nogo_d","",""
"null","","html-keyboard-response","557","3021980","0.0-6.0-1.112","","<img src=""img/purple-n.png"" border=""10"">","null","trial","null","","0.2,0.8","4:nogo_d","0",""
"null","","html-keyboard-response","558","3022982","0.0-6.0-2.112","","<div style=""font-size:60px;"">+</div>","null","","","","","","",""
"546.0450000246055","","image-keyboard-response","559","3023530","0.0-6.0-0.113","","img/red.png","32","trial","32","true","0.8,0.2","3:go_c","",""
"null","","html-keyboard-response","560","3024534","0.0-6.0-1.113","","<img src=""img/red-r.png"" border=""10"">","null","trial","32","","0.8,0.2","3:go_c","1",""
"null","","html-keyboard-response","561","3025539","0.0-6.0-2.113","","<div style=""font-size:60px;"">+</div>","null","","","","","","",""
"932.2299999766983","","image-keyboard-response","562","3026473","0.0-6.0-0.114","","img/pink.png","32","trial","null","false","0.2,0.8","2:nogo_b","",""
"null","","html-keyboard-response","563","3027476","0.0-6.0-1.114","","<img src=""img/pink-n.png"" border=""10"">","null","trial","null","","0.2,0.8","2:nogo_b","0",""
"null","","html-keyboard-response","564","3028479","0.0-6.0-2.114","","<div style=""font-size:60px;"">+</div>","null","","","","","","",""
"397.1549999550916","","image-keyboard-response","565","3028879","0.0-6.0-0.115","","img/blue.png","32","trial","32","true","0.8,0.2","1:go_a","",""
"null","","html-keyboard-response","566","3029884","0.0-6.0-1.115","","<img src=""img/blue-r.png"" border=""10"">","null","trial","32","","0.8,0.2","1:go_a","1",""
"null","","html-keyboard-response","567","3030888","0.0-6.0-2.115","","<div style=""font-size:60px;"">+</div>","null","","","","","","",""
"null","","image-keyboard-response","568","3032402","0.0-6.0-0.116","","img/purple.png","null","trial","null","true","0.2,0.8","4:nogo_d","",""
"null","","html-keyboard-response","569","3033406","0.0-6.0-1.116","","<img src=""img/purple-r.png"">","null","trial","null","","0.2,0.8","4:nogo_d","1",""
"null","","html-keyboard-response","570","3034411","0.0-6.0-2.116","","<div style=""font-size:60px;"">+</div>","null","","","","","","",""
"null","","image-keyboard-response","571","3035921","0.0-6.0-0.117","","img/pink.png","null","trial","null","true","0.2,0.8","2:nogo_b","",""
"null","","html-keyboard-response","572","3036934","0.0-6.0-1.117","","<img src=""img/pink-n.png"">","null","trial","null","","0.2,0.8","2:nogo_b","0",""
"null","","html-keyboard-response","573","3037949","0.0-6.0-2.117","","<div style=""font-size:60px;"">+</div>","null","","","","","","",""
"468.79999997327104","","image-keyboard-response","574","3038421","0.0-6.0-0.118","","img/red.png","32","trial","32","true","0.8,0.2","3:go_c","",""
"null","","html-keyboard-response","575","3039436","0.0-6.0-1.118","","<img src=""img/red-r.png"" border=""10"">","null","trial","32","","0.8,0.2","3:go_c","1",""
"null","","html-keyboard-response","576","3040440","0.0-6.0-2.118","","<div style=""font-size:60px;"">+</div>","null","","","","","","",""
"483.2499999902211","","image-keyboard-response","577","3040925","0.0-6.0-0.119","","img/blue.png","32","trial","32","true","0.8,0.2","1:go_a","",""
"null","","html-keyboard-response","578","3041929","0.0-6.0-1.119","","<img src=""img/blue-r.png"" border=""10"">","null","trial","32","","0.8,0.2","1:go_a","1",""
"null","","html-keyboard-response","579","3042945","0.0-6.0-2.119","","<div style=""font-size:60px;"">+</div>","null","","","","","","",""
"5039.125000010245","","instructions","580","3047985","0.0-7.0","[{""page_index"":0,""viewing_time"":5038.950000016484}]","","","","","","","","",""
"944.019999995362","","image-keyboard-response","581","3048930","0.0-8.0-0.0","","img/yellow.png","32","trial","32","true","0.8,0.2","1:go_a","",""
"null","","html-keyboard-response","582","3049947","0.0-8.0-1.0","","<img src=""img/yellow-r.png"" border=""10"">","null","trial","32","","0.8,0.2","1:go_a","1",""
"null","","html-keyboard-response","583","3050955","0.0-8.0-2.0","","<div style=""font-size:60px;"">+</div>","null","","","","","","",""
"649.5649999706075","","image-keyboard-response","584","3051606","0.0-8.0-0.1","","img/pink.png","32","trial","32","true","0.6,0.4","3:go_c","",""
"null","","html-keyboard-response","585","3052623","0.0-8.0-1.1","","<img src=""img/pink-r.png"" border=""10"">","null","trial","32","","0.6,0.4","3:go_c","1",""
"null","","html-keyboard-response","586","3053628","0.0-8.0-2.1","","<div style=""font-size:60px;"">+</div>","null","","","","","","",""
"530.6900000432506","","image-keyboard-response","587","3054160","0.0-8.0-0.2","","img/green.png","32","trial","null","false","0.2,0.8","2:nogo_b","",""
"null","","html-keyboard-response","588","3055174","0.0-8.0-1.2","","<img src=""img/green-n.png"" border=""10"">","null","trial","null","","0.2,0.8","2:nogo_b","0",""
"null","","html-keyboard-response","589","3056178","0.0-8.0-2.2","","<div style=""font-size:60px;"">+</div>","null","","","","","","",""
"611.6449999972247","","image-keyboard-response","590","3056790","0.0-8.0-0.3","","img/red.png","32","trial","null","false","0.4,0.6","4:nogo_d","",""
"null","","html-keyboard-response","591","3057796","0.0-8.0-1.3","","<img src=""img/red-n.png"" border=""10"">","null","trial","null","","0.4,0.6","4:nogo_d","0",""
"null","","html-keyboard-response","592","3058806","0.0-8.0-2.3","","<div style=""font-size:60px;"">+</div>","null","","","","","","",""
"686.5700000198558","","image-keyboard-response","593","3059494","0.0-8.0-0.4","","img/pink.png","32","trial","32","true","0.6,0.4","3:go_c","",""
"null","","html-keyboard-response","594","3060505","0.0-8.0-1.4","","<img src=""img/pink-n.png"" border=""10"">","null","trial","32","","0.6,0.4","3:go_c","0",""
"null","","html-keyboard-response","595","3061511","0.0-8.0-2.4","","<div style=""font-size:60px;"">+</div>","null","","","","","","",""
"774.3250000057742","","image-keyboard-response","596","3062287","0.0-8.0-0.5","","img/green.png","32","trial","null","false","0.2,0.8","2:nogo_b","",""
"null","","html-keyboard-response","597","3063300","0.0-8.0-1.5","","<img src=""img/green-n.png"" border=""10"">","null","trial","null","","0.2,0.8","2:nogo_b","0",""
"null","","html-keyboard-response","598","3064310","0.0-8.0-2.5","","<div style=""font-size:60px;"">+</div>","null","","","","","","",""
"629.6100000035949","","image-keyboard-response","599","3064941","0.0-8.0-0.6","","img/red.png","32","trial","null","false","0.4,0.6","4:nogo_d","",""
"null","","html-keyboard-response","600","3065952","0.0-8.0-1.6","","<img src=""img/red-n.png"" border=""10"">","null","trial","null","","0.4,0.6","4:nogo_d","0",""
"null","","html-keyboard-response","601","3066968","0.0-8.0-2.6","","<div style=""font-size:60px;"">+</div>","null","","","","","","",""
"446.74000004306436","","image-keyboard-response","602","3067416","0.0-8.0-0.7","","img/yellow.png","32","trial","32","true","0.8,0.2","1:go_a","",""
"null","","html-keyboard-response","603","3068419","0.0-8.0-1.7","","<img src=""img/yellow-r.png"" border=""10"">","null","trial","32","","0.8,0.2","1:go_a","1",""
"null","","html-keyboard-response","604","3069424","0.0-8.0-2.7","","<div style=""font-size:60px;"">+</div>","null","","","","","","",""
"516.8399999965914","","image-keyboard-response","605","3069942","0.0-8.0-0.8","","img/pink.png","32","trial","32","true","0.6,0.4","3:go_c","",""
"null","","html-keyboard-response","606","3070953","0.0-8.0-1.8","","<img src=""img/pink-r.png"" border=""10"">","null","trial","32","","0.6,0.4","3:go_c","1",""
"null","","html-keyboard-response","607","3071955","0.0-8.0-2.8","","<div style=""font-size:60px;"">+</div>","null","","","","","","",""
"585.4500000132248","","image-keyboard-response","608","3072542","0.0-8.0-0.9","","img/yellow.png","32","trial","32","true","0.8,0.2","1:go_a","",""
"null","","html-keyboard-response","609","3073548","0.0-8.0-1.9","","<img src=""img/yellow-r.png"" border=""10"">","null","trial","32","","0.8,0.2","1:go_a","1",""
"null","","html-keyboard-response","610","3074558","0.0-8.0-2.9","","<div style=""font-size:60px;"">+</div>","null","","","","","","",""
"1086.9399999501184","","image-keyboard-response","611","3075646","0.0-8.0-0.10","","img/green.png","32","trial","null","false","0.2,0.8","2:nogo_b","",""
"null","","html-keyboard-response","612","3076659","0.0-8.0-1.10","","<img src=""img/green-n.png"" border=""10"">","null","trial","null","","0.2,0.8","2:nogo_b","0",""
"null","","html-keyboard-response","613","3077662","0.0-8.0-2.10","","<div style=""font-size:60px;"">+</div>","null","","","","","","",""
"null","","image-keyboard-response","614","3079170","0.0-8.0-0.11","","img/red.png","null","trial","null","true","0.4,0.6","4:nogo_d","",""
"null","","html-keyboard-response","615","3080187","0.0-8.0-1.11","","<img src=""img/red-r.png"">","null","trial","null","","0.4,0.6","4:nogo_d","1",""
"null","","html-keyboard-response","616","3081199","0.0-8.0-2.11","","<div style=""font-size:60px;"">+</div>","null","","","","","","",""
"724.0749999764375","","image-keyboard-response","617","3081925","0.0-8.0-0.12","","img/pink.png","32","trial","32","true","0.6,0.4","3:go_c","",""
"null","","html-keyboard-response","618","3082933","0.0-8.0-1.12","","<img src=""img/pink-r.png"" border=""10"">","null","trial","32","","0.6,0.4","3:go_c","1",""
"null","","html-keyboard-response","619","3083935","0.0-8.0-2.12","","<div style=""font-size:60px;"">+</div>","null","","","","","","",""
"null","","image-keyboard-response","620","3085442","0.0-8.0-0.13","","img/green.png","null","trial","null","true","0.2,0.8","2:nogo_b","",""
"null","","html-keyboard-response","621","3086453","0.0-8.0-1.13","","<img src=""img/green-r.png"">","null","trial","null","","0.2,0.8","2:nogo_b","1",""
"null","","html-keyboard-response","622","3087460","0.0-8.0-2.13","","<div style=""font-size:60px;"">+</div>","null","","","","","","",""
"469.3299999926239","","image-keyboard-response","623","3087930","0.0-8.0-0.14","","img/yellow.png","32","trial","32","true","0.8,0.2","1:go_a","",""
"null","","html-keyboard-response","624","3088943","0.0-8.0-1.14","","<img src=""img/yellow-r.png"" border=""10"">","null","trial","32","","0.8,0.2","1:go_a","1",""
"null","","html-keyboard-response","625","3089946","0.0-8.0-2.14","","<div style=""font-size:60px;"">+</div>","null","","","","","","",""
"850.3399999462999","","image-keyboard-response","626","3090797","0.0-8.0-0.15","","img/red.png","32","trial","null","false","0.4,0.6","4:nogo_d","",""
"null","","html-keyboard-response","627","3091814","0.0-8.0-1.15","","<img src=""img/red-n.png"" border=""10"">","null","trial","null","","0.4,0.6","4:nogo_d","0",""
"null","","html-keyboard-response","628","3092818","0.0-8.0-2.15","","<div style=""font-size:60px;"">+</div>","null","","","","","","",""
"473.6350000021048","","image-keyboard-response","629","3093293","0.0-8.0-0.16","","img/yellow.png","32","trial","32","true","0.8,0.2","1:go_a","",""
"null","","html-keyboard-response","630","3094300","0.0-8.0-1.16","","<img src=""img/yellow-r.png"" border=""10"">","null","trial","32","","0.8,0.2","1:go_a","1",""
"null","","html-keyboard-response","631","3095304","0.0-8.0-2.16","","<div style=""font-size:60px;"">+</div>","null","","","","","","",""
"575.1049999962561","","image-keyboard-response","632","3095881","0.0-8.0-0.17","","img/red.png","32","trial","null","false","0.4,0.6","4:nogo_d","",""
"null","","html-keyboard-response","633","3096896","0.0-8.0-1.17","","<img src=""img/red-n.png"" border=""10"">","null","trial","null","","0.4,0.6","4:nogo_d","0",""
"null","","html-keyboard-response","634","3097898","0.0-8.0-2.17","","<div style=""font-size:60px;"">+</div>","null","","","","","","",""
"672.4049999611452","","image-keyboard-response","635","3098572","0.0-8.0-0.18","","img/pink.png","32","trial","32","true","0.6,0.4","3:go_c","",""
"null","","html-keyboard-response","636","3099578","0.0-8.0-1.18","","<img src=""img/pink-n.png"" border=""10"">","null","trial","32","","0.6,0.4","3:go_c","0",""
"null","","html-keyboard-response","637","3100585","0.0-8.0-2.18","","<div style=""font-size:60px;"">+</div>","null","","","","","","",""
"null","","image-keyboard-response","638","3102100","0.0-8.0-0.19","","img/green.png","null","trial","null","true","0.2,0.8","2:nogo_b","",""
"null","","html-keyboard-response","639","3103103","0.0-8.0-1.19","","<img src=""img/green-r.png"">","null","trial","null","","0.2,0.8","2:nogo_b","1",""
"null","","html-keyboard-response","640","3104112","0.0-8.0-2.19","","<div style=""font-size:60px;"">+</div>","null","","","","","","",""
"555.129999993369","","image-keyboard-response","641","3104669","0.0-8.0-0.20","","img/pink.png","32","trial","32","true","0.6,0.4","3:go_c","",""
"null","","html-keyboard-response","642","3105673","0.0-8.0-1.20","","<img src=""img/pink-r.png"" border=""10"">","null","trial","32","","0.6,0.4","3:go_c","1",""
"null","","html-keyboard-response","643","3106677","0.0-8.0-2.20","","<div style=""font-size:60px;"">+</div>","null","","","","","","",""
"568.1650000042282","","image-keyboard-response","644","3107247","0.0-8.0-0.21","","img/red.png","32","trial","null","false","0.4,0.6","4:nogo_d","",""
"null","","html-keyboard-response","645","3108251","0.0-8.0-1.21","","<img src=""img/red-n.png"" border=""10"">","null","trial","null","","0.4,0.6","4:nogo_d","0",""
"null","","html-keyboard-response","646","3109255","0.0-8.0-2.21","","<div style=""font-size:60px;"">+</div>","null","","","","","","",""
"606.6450000507757","","image-keyboard-response","647","3109863","0.0-8.0-0.22","","img/yellow.png","32","trial","32","true","0.8,0.2","1:go_a","",""
"null","","html-keyboard-response","648","3110874","0.0-8.0-1.22","","<img src=""img/yellow-r.png"" border=""10"">","null","trial","32","","0.8,0.2","1:go_a","1",""
"null","","html-keyboard-response","649","3111888","0.0-8.0-2.22","","<div style=""font-size:60px;"">+</div>","null","","","","","","",""
"790.5850000097416","","image-keyboard-response","650","3112680","0.0-8.0-0.23","","img/green.png","32","trial","null","false","0.2,0.8","2:nogo_b","",""
"null","","html-keyboard-response","651","3113695","0.0-8.0-1.23","","<img src=""img/green-n.png"" border=""10"">","null","trial","null","","0.2,0.8","2:nogo_b","0",""
"null","","html-keyboard-response","652","3114701","0.0-8.0-2.23","","<div style=""font-size:60px;"">+</div>","null","","","","","","",""
"791.7199999792501","","image-keyboard-response","653","3115494","0.0-8.0-0.24","","img/red.png","32","trial","null","false","0.4,0.6","4:nogo_d","",""
"null","","html-keyboard-response","654","3116506","0.0-8.0-1.24","","<img src=""img/red-r.png"" border=""10"">","null","trial","null","","0.4,0.6","4:nogo_d","1",""
"null","","html-keyboard-response","655","3117509","0.0-8.0-2.24","","<div style=""font-size:60px;"">+</div>","null","","","","","","",""
"441.5150000131689","","image-keyboard-response","656","3117952","0.0-8.0-0.25","","img/green.png","32","trial","null","false","0.2,0.8","2:nogo_b","",""
"null","","html-keyboard-response","657","3118961","0.0-8.0-1.25","","<img src=""img/green-n.png"" border=""10"">","null","trial","null","","0.2,0.8","2:nogo_b","0",""
"null","","html-keyboard-response","658","3119967","0.0-8.0-2.25","","<div style=""font-size:60px;"">+</div>","null","","","","","","",""
"396.3099999818951","","image-keyboard-response","659","3120365","0.0-8.0-0.26","","img/yellow.png","32","trial","32","true","0.8,0.2","1:go_a","",""
"null","","html-keyboard-response","660","3121375","0.0-8.0-1.26","","<img src=""img/yellow-r.png"" border=""10"">","null","trial","32","","0.8,0.2","1:go_a","1",""
"null","","html-keyboard-response","661","3122381","0.0-8.0-2.26","","<div style=""font-size:60px;"">+</div>","null","","","","","","",""
"457.6149999629706","","image-keyboard-response","662","3122840","0.0-8.0-0.27","","img/pink.png","32","trial","32","true","0.6,0.4","3:go_c","",""
"null","","html-keyboard-response","663","3123848","0.0-8.0-1.27","","<img src=""img/pink-r.png"" border=""10"">","null","trial","32","","0.6,0.4","3:go_c","1",""
"null","","html-keyboard-response","664","3124852","0.0-8.0-2.27","","<div style=""font-size:60px;"">+</div>","null","","","","","","",""
"null","","image-keyboard-response","665","3126368","0.0-8.0-0.28","","img/pink.png","null","trial","32","false","0.6,0.4","3:go_c","",""
"null","","html-keyboard-response","666","3127383","0.0-8.0-1.28","","<img src=""img/pink-n.png"">","null","trial","32","","0.6,0.4","3:go_c","0",""
"null","","html-keyboard-response","667","3128387","0.0-8.0-2.28","","<div style=""font-size:60px;"">+</div>","null","","","","","","",""
"501.88499997602776","","image-keyboard-response","668","3128891","0.0-8.0-0.29","","img/yellow.png","32","trial","32","true","0.8,0.2","1:go_a","",""
"null","","html-keyboard-response","669","3129901","0.0-8.0-1.29","","<img src=""img/yellow-r.png"" border=""10"">","null","trial","32","","0.8,0.2","1:go_a","1",""
"null","","html-keyboard-response","670","3130905","0.0-8.0-2.29","","<div style=""font-size:60px;"">+</div>","null","","","","","","",""
