"rt","url","trial_type","trial_index","time_elapsed","internal_node_id","view_history","stimulus","key_press","test_part","correct_response","correct","use_rew","which_stim","reward","responses"
"10877570.19999981","consent.html","external-html","0","10876262","0.0-0.0","","","","","","","","","",""
"54065.5","","instructions","1","10930332","0.0-1.0","[{""page_index"":0,""viewing_time"":2214.899999856949},{""page_index"":1,""viewing_time"":11407.700000047684},{""page_index"":2,""viewing_time"":1911.7000000476837},{""page_index"":3,""viewing_time"":4509.900000095367},{""page_index"":4,""viewing_time"":7102.5},{""page_index"":5,""viewing_time"":8747.799999952316},{""page_index"":6,""viewing_time"":18170.099999904633}]","","","","","","","","",""
"null","","image-keyboard-response","2","10931834","0.0-2.0-0.0","","img/test2.PNG","null","practice","null","true","","","",""
"null","","html-keyboard-response","3","10932837","0.0-2.0-1.0","","<img src=""img/test2-reward.PNG"">","null","","","","","","",""
"null","","html-keyboard-response","4","10933838","0.0-2.0-2.0","","<div style=""font-size:60px;"">+</div>","null","","","","","","",""
"352.09999990463257","","image-keyboard-response","5","10934191","0.0-2.0-0.1","","img/test1.PNG","32","practice","32","true","","","",""
"null","","html-keyboard-response","6","10935192","0.0-2.0-1.1","","<img src=""img/test1-reward.PNG"" border=""10px; grey"">","null","","","","","","",""
"null","","html-keyboard-response","7","10936194","0.0-2.0-2.1","","<div style=""font-size:60px;"">+</div>","null","","","","","","",""
"null","","image-keyboard-response","8","10937696","0.0-2.0-0.2","","img/test3.PNG","null","practice","null","true","","","",""
"null","","html-keyboard-response","9","10938698","0.0-2.0-1.2","","<img src=""img/test3-reward.PNG"">","null","","","","","","",""
"null","","html-keyboard-response","10","10939699","0.0-2.0-2.2","","<div style=""font-size:60px;"">+</div>","null","","","","","","",""
"null","","image-keyboard-response","11","10941200","0.0-2.0-0.3","","img/test2.PNG","null","practice","null","true","","","",""
"null","","html-keyboard-response","12","10942203","0.0-2.0-1.3","","<img src=""img/test2-reward.PNG"">","null","","","","","","",""
"null","","html-keyboard-response","13","10943204","0.0-2.0-2.3","","<div style=""font-size:60px;"">+</div>","null","","","","","","",""
"411.89999985694885","","image-keyboard-response","14","10943617","0.0-2.0-0.4","","img/test1.PNG","32","practice","32","true","","","",""
"null","","html-keyboard-response","15","10944619","0.0-2.0-1.4","","<img src=""img/test1-reward.PNG"" border=""10px; grey"">","null","","","","","","",""
"null","","html-keyboard-response","16","10945621","0.0-2.0-2.4","","<div style=""font-size:60px;"">+</div>","null","","","","","","",""
"null","","image-keyboard-response","17","10947123","0.0-2.0-0.5","","img/test3.PNG","null","practice","null","true","","","",""
"null","","html-keyboard-response","18","10948124","0.0-2.0-1.5","","<img src=""img/test3-reward.PNG"">","null","","","","","","",""
"null","","html-keyboard-response","19","10949126","0.0-2.0-2.5","","<div style=""font-size:60px;"">+</div>","null","","","","","","",""
"null","","image-keyboard-response","20","10950628","0.0-2.0-0.6","","img/test3.PNG","null","practice","null","true","","","",""
"null","","html-keyboard-response","21","10951630","0.0-2.0-1.6","","<img src=""img/test3-reward.PNG"">","null","","","","","","",""
"null","","html-keyboard-response","22","10952631","0.0-2.0-2.6","","<div style=""font-size:60px;"">+</div>","null","","","","","","",""
"442.60000014305115","","image-keyboard-response","23","10953075","0.0-2.0-0.7","","img/test1.PNG","32","practice","32","true","","","",""
"null","","html-keyboard-response","24","10954078","0.0-2.0-1.7","","<img src=""img/test1-reward.PNG"" border=""10px; grey"">","null","","","","","","",""
"null","","html-keyboard-response","25","10955079","0.0-2.0-2.7","","<div style=""font-size:60px;"">+</div>","null","","","","","","",""
"null","","image-keyboard-response","26","10956582","0.0-2.0-0.8","","img/test2.PNG","null","practice","null","true","","","",""
"null","","html-keyboard-response","27","10957583","0.0-2.0-1.8","","<img src=""img/test2-reward.PNG"">","null","","","","","","",""
"null","","html-keyboard-response","28","10958585","0.0-2.0-2.8","","<div style=""font-size:60px;"">+</div>","null","","","","","","",""
"null","","image-keyboard-response","29","10960087","0.0-2.0-0.9","","img/test3.PNG","null","practice","null","true","","","",""
"null","","html-keyboard-response","30","10961088","0.0-2.0-1.9","","<img src=""img/test3-reward.PNG"">","null","","","","","","",""
"null","","html-keyboard-response","31","10962090","0.0-2.0-2.9","","<div style=""font-size:60px;"">+</div>","null","","","","","","",""
"565","","image-keyboard-response","32","10962656","0.0-2.0-0.10","","img/test1.PNG","32","practice","32","true","","","",""
"null","","html-keyboard-response","33","10963658","0.0-2.0-1.10","","<img src=""img/test1-reward.PNG"" border=""10px; grey"">","null","","","","","","",""
"null","","html-keyboard-response","34","10964660","0.0-2.0-2.10","","<div style=""font-size:60px;"">+</div>","null","","","","","","",""
"null","","image-keyboard-response","35","10966162","0.0-2.0-0.11","","img/test2.PNG","null","practice","null","true","","","",""
"null","","html-keyboard-response","36","10967164","0.0-2.0-1.11","","<img src=""img/test2-reward.PNG"">","null","","","","","","",""
"null","","html-keyboard-response","37","10968166","0.0-2.0-2.11","","<div style=""font-size:60px;"">+</div>","null","","","","","","",""
"3344.4000000953674","","instructions","38","10971511","0.0-3.0","[{""page_index"":0,""viewing_time"":3344.100000143051}]","","","","","","","","",""
"null","","image-keyboard-response","39","10973013","0.0-4.0-0.0","","img/yellow.png","null","trial","null","true","0.2,0.8","2:nogo_b","",""
"null","","html-keyboard-response","40","10974018","0.0-4.0-1.0","","<img src=""img/yellow-r.png"">","null","trial","null","","0.2,0.8","2:nogo_b","1",""
"null","","html-keyboard-response","41","10975021","0.0-4.0-2.0","","<div style=""font-size:60px;"">+</div>","null","","","","","","",""
"556.5","","image-keyboard-response","42","10975578","0.0-4.0-0.1","","img/blue.png","32","trial","32","true","0.8,0.2","1:go_a","",""
"null","","html-keyboard-response","43","10976580","0.0-4.0-1.1","","<img src=""img/blue-r.png"" border=""10"">","null","trial","32","","0.8,0.2","1:go_a","1",""
"null","","html-keyboard-response","44","10977582","0.0-4.0-2.1","","<div style=""font-size:60px;"">+</div>","null","","","","","","",""
"934.6000001430511","","image-keyboard-response","45","10978518","0.0-4.0-0.2","","img/yellow.png","32","trial","null","false","0.2,0.8","2:nogo_b","",""
"null","","html-keyboard-response","46","10979519","0.0-4.0-1.2","","<img src=""img/yellow-n.png"" border=""10"">","null","trial","null","","0.2,0.8","2:nogo_b","0",""
"null","","html-keyboard-response","47","10980521","0.0-4.0-2.2","","<div style=""font-size:60px;"">+</div>","null","","","","","","",""
"1148.8000001907349","","image-keyboard-response","48","10981670","0.0-4.0-0.3","","img/blue.png","32","trial","32","true","0.8,0.2","1:go_a","",""
"null","","html-keyboard-response","49","10982671","0.0-4.0-1.3","","<img src=""img/blue-r.png"" border=""10"">","null","trial","32","","0.8,0.2","1:go_a","1",""
"null","","html-keyboard-response","50","10983673","0.0-4.0-2.3","","<div style=""font-size:60px;"">+</div>","null","","","","","","",""
"null","","image-keyboard-response","51","10985175","0.0-4.0-0.4","","img/blue.png","null","trial","32","false","0.8,0.2","1:go_a","",""
"null","","html-keyboard-response","52","10986178","0.0-4.0-1.4","","<img src=""img/blue-n.png"">","null","trial","32","","0.8,0.2","1:go_a","0",""
"null","","html-keyboard-response","53","10987180","0.0-4.0-2.4","","<div style=""font-size:60px;"">+</div>","null","","","","","","",""
"387.90000009536743","","image-keyboard-response","54","10987569","0.0-4.0-0.5","","img/yellow.png","32","trial","null","false","0.2,0.8","2:nogo_b","",""
"null","","html-keyboard-response","55","10988573","0.0-4.0-1.5","","<img src=""img/yellow-r.png"" border=""10"">","null","trial","null","","0.2,0.8","2:nogo_b","1",""
"null","","html-keyboard-response","56","10989577","0.0-4.0-2.5","","<div style=""font-size:60px;"">+</div>","null","","","","","","",""
"690.5999999046326","","image-keyboard-response","57","10990269","0.0-4.0-0.6","","img/yellow.png","32","trial","null","false","0.2,0.8","2:nogo_b","",""
"null","","html-keyboard-response","58","10991271","0.0-4.0-1.6","","<img src=""img/yellow-n.png"" border=""10"">","null","trial","null","","0.2,0.8","2:nogo_b","0",""
"null","","html-keyboard-response","59","10992272","0.0-4.0-2.6","","<div style=""font-size:60px;"">+</div>","null","","","","","","",""
"745.2000000476837","","image-keyboard-response","60","10993019","0.0-4.0-0.7","","img/blue.png","32","trial","32","true","0.8,0.2","1:go_a","",""
"null","","html-keyboard-response","61","10994021","0.0-4.0-1.7","","<img src=""img/blue-r.png"" border=""10"">","null","trial","32","","0.8,0.2","1:go_a","1",""
"null","","html-keyboard-response","62","10995023","0.0-4.0-2.7","","<div style=""font-size:60px;"">+</div>","null","","","","","","",""
"879","","image-keyboard-response","63","10995902","0.0-4.0-0.8","","img/blue.png","32","trial","32","true","0.8,0.2","1:go_a","",""
"null","","html-keyboard-response","64","10996904","0.0-4.0-1.8","","<img src=""img/blue-r.png"" border=""10"">","null","trial","32","","0.8,0.2","1:go_a","1",""
"null","","html-keyboard-response","65","10997907","0.0-4.0-2.8","","<div style=""font-size:60px;"">+</div>","null","","","","","","",""
"814","","image-keyboard-response","66","10998722","0.0-4.0-0.9","","img/yellow.png","32","trial","null","false","0.2,0.8","2:nogo_b","",""
"null","","html-keyboard-response","67","10999724","0.0-4.0-1.9","","<img src=""img/yellow-n.png"" border=""10"">","null","trial","null","","0.2,0.8","2:nogo_b","0",""
"null","","html-keyboard-response","68","11000726","0.0-4.0-2.9","","<div style=""font-size:60px;"">+</div>","null","","","","","","",""
"null","","image-keyboard-response","69","11002229","0.0-4.0-0.10","","img/yellow.png","null","trial","null","true","0.2,0.8","2:nogo_b","",""
"null","","html-keyboard-response","70","11003235","0.0-4.0-1.10","","<img src=""img/yellow-r.png"">","null","trial","null","","0.2,0.8","2:nogo_b","1",""
"null","","html-keyboard-response","71","11004236","0.0-4.0-2.10","","<div style=""font-size:60px;"">+</div>","null","","","","","","",""
"478.89999985694885","","image-keyboard-response","72","11004716","0.0-4.0-0.11","","img/blue.png","32","trial","32","true","0.8,0.2","1:go_a","",""
"null","","html-keyboard-response","73","11005719","0.0-4.0-1.11","","<img src=""img/blue-r.png"" border=""10"">","null","trial","32","","0.8,0.2","1:go_a","1",""
"null","","html-keyboard-response","74","11006720","0.0-4.0-2.11","","<div style=""font-size:60px;"">+</div>","null","","","","","","",""
"699.8999998569489","","image-keyboard-response","75","11007421","0.0-4.0-0.12","","img/yellow.png","32","trial","null","false","0.2,0.8","2:nogo_b","",""
"null","","html-keyboard-response","76","11008423","0.0-4.0-1.12","","<img src=""img/yellow-n.png"" border=""10"">","null","trial","null","","0.2,0.8","2:nogo_b","0",""
"null","","html-keyboard-response","77","11009424","0.0-4.0-2.12","","<div style=""font-size:60px;"">+</div>","null","","","","","","",""
"592.4000000953674","","image-keyboard-response","78","11010020","0.0-4.0-0.13","","img/blue.png","32","trial","32","true","0.8,0.2","1:go_a","",""
"null","","html-keyboard-response","79","11011023","0.0-4.0-1.13","","<img src=""img/blue-r.png"" border=""10"">","null","trial","32","","0.8,0.2","1:go_a","1",""
"null","","html-keyboard-response","80","11012024","0.0-4.0-2.13","","<div style=""font-size:60px;"">+</div>","null","","","","","","",""
"587.7000000476837","","image-keyboard-response","81","11012613","0.0-4.0-0.14","","img/blue.png","32","trial","32","true","0.8,0.2","1:go_a","",""
"null","","html-keyboard-response","82","11013615","0.0-4.0-1.14","","<img src=""img/blue-r.png"" border=""10"">","null","trial","32","","0.8,0.2","1:go_a","1",""
"null","","html-keyboard-response","83","11014617","0.0-4.0-2.14","","<div style=""font-size:60px;"">+</div>","null","","","","","","",""
"null","","image-keyboard-response","84","11016120","0.0-4.0-0.15","","img/yellow.png","null","trial","null","true","0.2,0.8","2:nogo_b","",""
"null","","html-keyboard-response","85","11017122","0.0-4.0-1.15","","<img src=""img/yellow-n.png"">","null","trial","null","","0.2,0.8","2:nogo_b","0",""
"null","","html-keyboard-response","86","11018124","0.0-4.0-2.15","","<div style=""font-size:60px;"">+</div>","null","","","","","","",""
"null","","image-keyboard-response","87","11019626","0.0-4.0-0.16","","img/yellow.png","null","trial","null","true","0.2,0.8","2:nogo_b","",""
"null","","html-keyboard-response","88","11020628","0.0-4.0-1.16","","<img src=""img/yellow-r.png"">","null","trial","null","","0.2,0.8","2:nogo_b","1",""
"null","","html-keyboard-response","89","11021629","0.0-4.0-2.16","","<div style=""font-size:60px;"">+</div>","null","","","","","","",""
"522.8999998569489","","image-keyboard-response","90","11022153","0.0-4.0-0.17","","img/blue.png","32","trial","32","true","0.8,0.2","1:go_a","",""
"null","","html-keyboard-response","91","11023155","0.0-4.0-1.17","","<img src=""img/blue-r.png"" border=""10"">","null","trial","32","","0.8,0.2","1:go_a","1",""
"null","","html-keyboard-response","92","11024157","0.0-4.0-2.17","","<div style=""font-size:60px;"">+</div>","null","","","","","","",""
"null","","image-keyboard-response","93","11025659","0.0-4.0-0.18","","img/blue.png","null","trial","32","false","0.8,0.2","1:go_a","",""
"null","","html-keyboard-response","94","11026661","0.0-4.0-1.18","","<img src=""img/blue-n.png"">","null","trial","32","","0.8,0.2","1:go_a","0",""
"null","","html-keyboard-response","95","11027663","0.0-4.0-2.18","","<div style=""font-size:60px;"">+</div>","null","","","","","","",""
"593.9000000953674","","image-keyboard-response","96","11028257","0.0-4.0-0.19","","img/yellow.png","32","trial","null","false","0.2,0.8","2:nogo_b","",""
"null","","html-keyboard-response","97","11029259","0.0-4.0-1.19","","<img src=""img/yellow-r.png"" border=""10"">","null","trial","null","","0.2,0.8","2:nogo_b","1",""
"null","","html-keyboard-response","98","11030261","0.0-4.0-2.19","","<div style=""font-size:60px;"">+</div>","null","","","","","","",""
"722.8999998569489","","image-keyboard-response","99","11030986","0.0-4.0-0.20","","img/blue.png","32","trial","32","true","0.8,0.2","1:go_a","",""
"null","","html-keyboard-response","100","11031990","0.0-4.0-1.20","","<img src=""img/blue-r.png"" border=""10"">","null","trial","32","","0.8,0.2","1:go_a","1",""
"null","","html-keyboard-response","101","11032992","0.0-4.0-2.20","","<div style=""font-size:60px;"">+</div>","null","","","","","","",""
"null","","image-keyboard-response","102","11034493","0.0-4.0-0.21","","img/yellow.png","null","trial","null","true","0.2,0.8","2:nogo_b","",""
"null","","html-keyboard-response","103","11035496","0.0-4.0-1.21","","<img src=""img/yellow-n.png"">","null","trial","null","","0.2,0.8","2:nogo_b","0",""
"null","","html-keyboard-response","104","11036498","0.0-4.0-2.21","","<div style=""font-size:60px;"">+</div>","null","","","","","","",""
"345.90000009536743","","image-keyboard-response","105","11036845","0.0-4.0-0.22","","img/yellow.png","32","trial","null","false","0.2,0.8","2:nogo_b","",""
"null","","html-keyboard-response","106","11037847","0.0-4.0-1.22","","<img src=""img/yellow-n.png"" border=""10"">","null","trial","null","","0.2,0.8","2:nogo_b","0",""
"null","","html-keyboard-response","107","11038848","0.0-4.0-2.22","","<div style=""font-size:60px;"">+</div>","null","","","","","","",""
"597","","image-keyboard-response","108","11039446","0.0-4.0-0.23","","img/blue.png","32","trial","32","true","0.8,0.2","1:go_a","",""
"null","","html-keyboard-response","109","11040448","0.0-4.0-1.23","","<img src=""img/blue-r.png"" border=""10"">","null","trial","32","","0.8,0.2","1:go_a","1",""
"null","","html-keyboard-response","110","11041449","0.0-4.0-2.23","","<div style=""font-size:60px;"">+</div>","null","","","","","","",""
"391.39999985694885","","image-keyboard-response","111","11041841","0.0-4.0-0.24","","img/blue.png","32","trial","32","true","0.8,0.2","1:go_a","",""
"null","","html-keyboard-response","112","11042843","0.0-4.0-1.24","","<img src=""img/blue-r.png"" border=""10"">","null","trial","32","","0.8,0.2","1:go_a","1",""
"null","","html-keyboard-response","113","11043845","0.0-4.0-2.24","","<div style=""font-size:60px;"">+</div>","null","","","","","","",""
"421.5","","image-keyboard-response","114","11044268","0.0-4.0-0.25","","img/yellow.png","32","trial","null","false","0.2,0.8","2:nogo_b","",""
"null","","html-keyboard-response","115","11045272","0.0-4.0-1.25","","<img src=""img/yellow-n.png"" border=""10"">","null","trial","null","","0.2,0.8","2:nogo_b","0",""
"null","","html-keyboard-response","116","11046274","0.0-4.0-2.25","","<div style=""font-size:60px;"">+</div>","null","","","","","","",""
"553.7000000476837","","image-keyboard-response","117","11046829","0.0-4.0-0.26","","img/blue.png","32","trial","32","true","0.8,0.2","1:go_a","",""
"null","","html-keyboard-response","118","11047830","0.0-4.0-1.26","","<img src=""img/blue-r.png"" border=""10"">","null","trial","32","","0.8,0.2","1:go_a","1",""
"null","","html-keyboard-response","119","11048833","0.0-4.0-2.26","","<div style=""font-size:60px;"">+</div>","null","","","","","","",""
"null","","image-keyboard-response","120","11050334","0.0-4.0-0.27","","img/yellow.png","null","trial","null","true","0.2,0.8","2:nogo_b","",""
"null","","html-keyboard-response","121","11051337","0.0-4.0-1.27","","<img src=""img/yellow-n.png"">","null","trial","null","","0.2,0.8","2:nogo_b","0",""
"null","","html-keyboard-response","122","11052338","0.0-4.0-2.27","","<div style=""font-size:60px;"">+</div>","null","","","","","","",""
"879.7999999523163","","image-keyboard-response","123","11053219","0.0-4.0-0.28","","img/yellow.png","32","trial","null","false","0.2,0.8","2:nogo_b","",""
"null","","html-keyboard-response","124","11054222","0.0-4.0-1.28","","<img src=""img/yellow-n.png"" border=""10"">","null","trial","null","","0.2,0.8","2:nogo_b","0",""
"null","","html-keyboard-response","125","11055222","0.0-4.0-2.28","","<div style=""font-size:60px;"">+</div>","null","","","","","","",""
"612.5","","image-keyboard-response","126","11055836","0.0-4.0-0.29","","img/blue.png","32","trial","32","true","0.8,0.2","1:go_a","",""
"null","","html-keyboard-response","127","11056837","0.0-4.0-1.29","","<img src=""img/blue-r.png"" border=""10"">","null","trial","32","","0.8,0.2","1:go_a","1",""
"null","","html-keyboard-response","128","11057839","0.0-4.0-2.29","","<div style=""font-size:60px;"">+</div>","null","","","","","","",""
"null","","image-keyboard-response","129","11059341","0.0-4.0-0.30","","img/yellow.png","null","trial","null","true","0.2,0.8","2:nogo_b","",""
"null","","html-keyboard-response","130","11060345","0.0-4.0-1.30","","<img src=""img/yellow-r.png"">","null","trial","null","","0.2,0.8","2:nogo_b","1",""
"null","","html-keyboard-response","131","11061346","0.0-4.0-2.30","","<div style=""font-size:60px;"">+</div>","null","","","","","","",""
"779.5","","image-keyboard-response","132","11062127","0.0-4.0-0.31","","img/blue.png","32","trial","32","true","0.8,0.2","1:go_a","",""
"null","","html-keyboard-response","133","11063129","0.0-4.0-1.31","","<img src=""img/blue-n.png"" border=""10"">","null","trial","32","","0.8,0.2","1:go_a","0",""
"null","","html-keyboard-response","134","11064131","0.0-4.0-2.31","","<div style=""font-size:60px;"">+</div>","null","","","","","","",""
"1490","","image-keyboard-response","135","11065621","0.0-4.0-0.32","","img/blue.png","32","trial","32","true","0.8,0.2","1:go_a","",""
"null","","html-keyboard-response","136","11066624","0.0-4.0-1.32","","<img src=""img/blue-r.png"" border=""10"">","null","trial","32","","0.8,0.2","1:go_a","1",""
"null","","html-keyboard-response","137","11067626","0.0-4.0-2.32","","<div style=""font-size:60px;"">+</div>","null","","","","","","",""
"null","","image-keyboard-response","138","11069146","0.0-4.0-0.33","","img/yellow.png","null","trial","null","true","0.2,0.8","2:nogo_b","",""
"null","","html-keyboard-response","139","11070147","0.0-4.0-1.33","","<img src=""img/yellow-r.png"">","null","trial","null","","0.2,0.8","2:nogo_b","1",""
"null","","html-keyboard-response","140","11071149","0.0-4.0-2.33","","<div style=""font-size:60px;"">+</div>","null","","","","","","",""
"970.5","","image-keyboard-response","141","11072121","0.0-4.0-0.34","","img/blue.png","32","trial","32","true","0.8,0.2","1:go_a","",""
"null","","html-keyboard-response","142","11073125","0.0-4.0-1.34","","<img src=""img/blue-n.png"" border=""10"">","null","trial","32","","0.8,0.2","1:go_a","0",""
"null","","html-keyboard-response","143","11074127","0.0-4.0-2.34","","<div style=""font-size:60px;"">+</div>","null","","","","","","",""
"882.1000001430511","","image-keyboard-response","144","11075010","0.0-4.0-0.35","","img/yellow.png","32","trial","null","false","0.2,0.8","2:nogo_b","",""
"null","","html-keyboard-response","145","11076011","0.0-4.0-1.35","","<img src=""img/yellow-r.png"" border=""10"">","null","trial","null","","0.2,0.8","2:nogo_b","1",""
"null","","html-keyboard-response","146","11077013","0.0-4.0-2.35","","<div style=""font-size:60px;"">+</div>","null","","","","","","",""
"741.9000000953674","","image-keyboard-response","147","11077755","0.0-4.0-0.36","","img/blue.png","32","trial","32","true","0.8,0.2","1:go_a","",""
"null","","html-keyboard-response","148","11078757","0.0-4.0-1.36","","<img src=""img/blue-r.png"" border=""10"">","null","trial","32","","0.8,0.2","1:go_a","1",""
"null","","html-keyboard-response","149","11079759","0.0-4.0-2.36","","<div style=""font-size:60px;"">+</div>","null","","","","","","",""
"null","","image-keyboard-response","150","11081261","0.0-4.0-0.37","","img/yellow.png","null","trial","null","true","0.2,0.8","2:nogo_b","",""
"null","","html-keyboard-response","151","11082263","0.0-4.0-1.37","","<img src=""img/yellow-r.png"">","null","trial","null","","0.2,0.8","2:nogo_b","1",""
"null","","html-keyboard-response","152","11083265","0.0-4.0-2.37","","<div style=""font-size:60px;"">+</div>","null","","","","","","",""
"603.1999998092651","","image-keyboard-response","153","11083869","0.0-4.0-0.38","","img/yellow.png","32","trial","null","false","0.2,0.8","2:nogo_b","",""
"null","","html-keyboard-response","154","11084871","0.0-4.0-1.38","","<img src=""img/yellow-r.png"" border=""10"">","null","trial","null","","0.2,0.8","2:nogo_b","1",""
"null","","html-keyboard-response","155","11085875","0.0-4.0-2.38","","<div style=""font-size:60px;"">+</div>","null","","","","","","",""
"1276.2999999523163","","image-keyboard-response","156","11087152","0.0-4.0-0.39","","img/blue.png","32","trial","32","true","0.8,0.2","1:go_a","",""
"null","","html-keyboard-response","157","11088154","0.0-4.0-1.39","","<img src=""img/blue-r.png"" border=""10"">","null","trial","32","","0.8,0.2","1:go_a","1",""
"null","","html-keyboard-response","158","11089156","0.0-4.0-2.39","","<div style=""font-size:60px;"">+</div>","null","","","","","","",""
"1218.5","","image-keyboard-response","159","11090375","0.0-4.0-0.40","","img/blue.png","32","trial","32","true","0.8,0.2","1:go_a","",""
"null","","html-keyboard-response","160","11091378","0.0-4.0-1.40","","<img src=""img/blue-r.png"" border=""10"">","null","trial","32","","0.8,0.2","1:go_a","1",""
"null","","html-keyboard-response","161","11092380","0.0-4.0-2.40","","<div style=""font-size:60px;"">+</div>","null","","","","","","",""
"588.9000000953674","","image-keyboard-response","162","11092970","0.0-4.0-0.41","","img/yellow.png","32","trial","null","false","0.2,0.8","2:nogo_b","",""
"null","","html-keyboard-response","163","11093971","0.0-4.0-1.41","","<img src=""img/yellow-r.png"" border=""10"">","null","trial","null","","0.2,0.8","2:nogo_b","1",""
"null","","html-keyboard-response","164","11094973","0.0-4.0-2.41","","<div style=""font-size:60px;"">+</div>","null","","","","","","",""
"497","","image-keyboard-response","165","11095471","0.0-4.0-0.42","","img/yellow.png","32","trial","null","false","0.2,0.8","2:nogo_b","",""
"null","","html-keyboard-response","166","11096473","0.0-4.0-1.42","","<img src=""img/yellow-n.png"" border=""10"">","null","trial","null","","0.2,0.8","2:nogo_b","0",""
"null","","html-keyboard-response","167","11097474","0.0-4.0-2.42","","<div style=""font-size:60px;"">+</div>","null","","","","","","",""
"null","","image-keyboard-response","168","11098975","0.0-4.0-0.43","","img/blue.png","null","trial","32","false","0.8,0.2","1:go_a","",""
"null","","html-keyboard-response","169","11099979","0.0-4.0-1.43","","<img src=""img/blue-r.png"">","null","trial","32","","0.8,0.2","1:go_a","1",""
"null","","html-keyboard-response","170","11100981","0.0-4.0-2.43","","<div style=""font-size:60px;"">+</div>","null","","","","","","",""
"562.3999998569489","","image-keyboard-response","171","11101545","0.0-4.0-0.44","","img/blue.png","32","trial","32","true","0.8,0.2","1:go_a","",""
"null","","html-keyboard-response","172","11102548","0.0-4.0-1.44","","<img src=""img/blue-r.png"" border=""10"">","null","trial","32","","0.8,0.2","1:go_a","1",""
"null","","html-keyboard-response","173","11103549","0.0-4.0-2.44","","<div style=""font-size:60px;"">+</div>","null","","","","","","",""
"585.8999998569489","","image-keyboard-response","174","11104137","0.0-4.0-0.45","","img/yellow.png","32","trial","null","false","0.2,0.8","2:nogo_b","",""
"null","","html-keyboard-response","175","11105140","0.0-4.0-1.45","","<img src=""img/yellow-n.png"" border=""10"">","null","trial","null","","0.2,0.8","2:nogo_b","0",""
"null","","html-keyboard-response","176","11106141","0.0-4.0-2.45","","<div style=""font-size:60px;"">+</div>","null","","","","","","",""
"610.3999998569489","","image-keyboard-response","177","11106752","0.0-4.0-0.46","","img/blue.png","32","trial","32","true","0.8,0.2","1:go_a","",""
"null","","html-keyboard-response","178","11107755","0.0-4.0-1.46","","<img src=""img/blue-r.png"" border=""10"">","null","trial","32","","0.8,0.2","1:go_a","1",""
"null","","html-keyboard-response","179","11108757","0.0-4.0-2.46","","<div style=""font-size:60px;"">+</div>","null","","","","","","",""
"744.7999999523163","","image-keyboard-response","180","11109502","0.0-4.0-0.47","","img/yellow.png","32","trial","null","false","0.2,0.8","2:nogo_b","",""
"null","","html-keyboard-response","181","11110504","0.0-4.0-1.47","","<img src=""img/yellow-n.png"" border=""10"">","null","trial","null","","0.2,0.8","2:nogo_b","0",""
"null","","html-keyboard-response","182","11111513","0.0-4.0-2.47","","<div style=""font-size:60px;"">+</div>","null","","","","","","",""
"762.1000001430511","","image-keyboard-response","183","11112276","0.0-4.0-0.48","","img/yellow.png","32","trial","null","false","0.2,0.8","2:nogo_b","",""
"null","","html-keyboard-response","184","11113277","0.0-4.0-1.48","","<img src=""img/yellow-n.png"" border=""10"">","null","trial","null","","0.2,0.8","2:nogo_b","0",""
"null","","html-keyboard-response","185","11114279","0.0-4.0-2.48","","<div style=""font-size:60px;"">+</div>","null","","","","","","",""
"881","","image-keyboard-response","186","11115161","0.0-4.0-0.49","","img/blue.png","32","trial","32","true","0.8,0.2","1:go_a","",""
"null","","html-keyboard-response","187","11116163","0.0-4.0-1.49","","<img src=""img/blue-r.png"" border=""10"">","null","trial","32","","0.8,0.2","1:go_a","1",""
"null","","html-keyboard-response","188","11117165","0.0-4.0-2.49","","<div style=""font-size:60px;"">+</div>","null","","","","","","",""
"483.90000009536743","","image-keyboard-response","189","11117650","0.0-4.0-0.50","","img/blue.png","32","trial","32","true","0.8,0.2","1:go_a","",""
"null","","html-keyboard-response","190","11118653","0.0-4.0-1.50","","<img src=""img/blue-r.png"" border=""10"">","null","trial","32","","0.8,0.2","1:go_a","1",""
"null","","html-keyboard-response","191","11119655","0.0-4.0-2.50","","<div style=""font-size:60px;"">+</div>","null","","","","","","",""
"null","","image-keyboard-response","192","11121157","0.0-4.0-0.51","","img/yellow.png","null","trial","null","true","0.2,0.8","2:nogo_b","",""
"null","","html-keyboard-response","193","11122161","0.0-4.0-1.51","","<img src=""img/yellow-r.png"">","null","trial","null","","0.2,0.8","2:nogo_b","1",""
"null","","html-keyboard-response","194","11123162","0.0-4.0-2.51","","<div style=""font-size:60px;"">+</div>","null","","","","","","",""
"528.7000000476837","","image-keyboard-response","195","11123691","0.0-4.0-0.52","","img/yellow.png","32","trial","null","false","0.2,0.8","2:nogo_b","",""
"null","","html-keyboard-response","196","11124694","0.0-4.0-1.52","","<img src=""img/yellow-n.png"" border=""10"">","null","trial","null","","0.2,0.8","2:nogo_b","0",""
"null","","html-keyboard-response","197","11125695","0.0-4.0-2.52","","<div style=""font-size:60px;"">+</div>","null","","","","","","",""
"null","","image-keyboard-response","198","11127198","0.0-4.0-0.53","","img/blue.png","null","trial","32","false","0.8,0.2","1:go_a","",""
"null","","html-keyboard-response","199","11128200","0.0-4.0-1.53","","<img src=""img/blue-n.png"">","null","trial","32","","0.8,0.2","1:go_a","0",""
"null","","html-keyboard-response","200","11129201","0.0-4.0-2.53","","<div style=""font-size:60px;"">+</div>","null","","","","","","",""
"634.7999999523163","","image-keyboard-response","201","11129837","0.0-4.0-0.54","","img/blue.png","32","trial","32","true","0.8,0.2","1:go_a","",""
"null","","html-keyboard-response","202","11130840","0.0-4.0-1.54","","<img src=""img/blue-r.png"" border=""10"">","null","trial","32","","0.8,0.2","1:go_a","1",""
"null","","html-keyboard-response","203","11131843","0.0-4.0-2.54","","<div style=""font-size:60px;"">+</div>","null","","","","","","",""
"null","","image-keyboard-response","204","11133345","0.0-4.0-0.55","","img/yellow.png","null","trial","null","true","0.2,0.8","2:nogo_b","",""
"null","","html-keyboard-response","205","11134347","0.0-4.0-1.55","","<img src=""img/yellow-r.png"">","null","trial","null","","0.2,0.8","2:nogo_b","1",""
"null","","html-keyboard-response","206","11135350","0.0-4.0-2.55","","<div style=""font-size:60px;"">+</div>","null","","","","","","",""
"504.90000009536743","","image-keyboard-response","207","11135856","0.0-4.0-0.56","","img/blue.png","32","trial","32","true","0.8,0.2","1:go_a","",""
"null","","html-keyboard-response","208","11136858","0.0-4.0-1.56","","<img src=""img/blue-r.png"" border=""10"">","null","trial","32","","0.8,0.2","1:go_a","1",""
"null","","html-keyboard-response","209","11137860","0.0-4.0-2.56","","<div style=""font-size:60px;"">+</div>","null","","","","","","",""
"1452.6000001430511","","image-keyboard-response","210","11139314","0.0-4.0-0.57","","img/yellow.png","32","trial","null","false","0.2,0.8","2:nogo_b","",""
"null","","html-keyboard-response","211","11140315","0.0-4.0-1.57","","<img src=""img/yellow-n.png"" border=""10"">","null","trial","null","","0.2,0.8","2:nogo_b","0",""
"null","","html-keyboard-response","212","11141317","0.0-4.0-2.57","","<div style=""font-size:60px;"">+</div>","null","","","","","","",""
"614","","image-keyboard-response","213","11141932","0.0-4.0-0.58","","img/blue.png","32","trial","32","true","0.8,0.2","1:go_a","",""
"null","","html-keyboard-response","214","11142935","0.0-4.0-1.58","","<img src=""img/blue-r.png"" border=""10"">","null","trial","32","","0.8,0.2","1:go_a","1",""
"null","","html-keyboard-response","215","11143937","0.0-4.0-2.58","","<div style=""font-size:60px;"">+</div>","null","","","","","","",""
"null","","image-keyboard-response","216","11145438","0.0-4.0-0.59","","img/yellow.png","null","trial","null","true","0.2,0.8","2:nogo_b","",""
"null","","html-keyboard-response","217","11146441","0.0-4.0-1.59","","<img src=""img/yellow-r.png"">","null","trial","null","","0.2,0.8","2:nogo_b","1",""
"null","","html-keyboard-response","218","11147443","0.0-4.0-2.59","","<div style=""font-size:60px;"">+</div>","null","","","","","","",""
"4709.299999952316","","instructions","219","11152152","0.0-5.0","[{""page_index"":0,""viewing_time"":4709.100000143051}]","","","","","","","","",""
"null","","image-keyboard-response","220","11153657","0.0-6.0-0.0","","img/pink.png","null","trial","32","false","0.8,0.2","1:go_a","",""
"null","","html-keyboard-response","221","11154659","0.0-6.0-1.0","","<img src=""img/pink-n.png"">","null","trial","32","","0.8,0.2","1:go_a","0",""
"null","","html-keyboard-response","222","11155661","0.0-6.0-2.0","","<div style=""font-size:60px;"">+</div>","null","","","","","","",""
"566.7000000476837","","image-keyboard-response","223","11156228","0.0-6.0-0.1","","img/grey.png","32","trial","null","false","0,1","4:nogo_d","",""
"null","","html-keyboard-response","224","11157230","0.0-6.0-1.1","","<img src=""img/grey-n.png"" border=""10"">","null","trial","null","","0,1","4:nogo_d","0",""
"null","","html-keyboard-response","225","11158231","0.0-6.0-2.1","","<div style=""font-size:60px;"">+</div>","null","","","","","","",""
"639.9000000953674","","image-keyboard-response","226","11158872","0.0-6.0-0.2","","img/orange.png","32","trial","32","true","1,0","3:go_c","",""
"null","","html-keyboard-response","227","11159874","0.0-6.0-1.2","","<img src=""img/orange-r.png"" border=""10"">","null","trial","32","","1,0","3:go_c","1",""
"null","","html-keyboard-response","228","11160876","0.0-6.0-2.2","","<div style=""font-size:60px;"">+</div>","null","","","","","","",""
"1085.5","","image-keyboard-response","229","11161962","0.0-6.0-0.3","","img/red.png","32","trial","null","false","0.2,0.8","2:nogo_b","",""
"null","","html-keyboard-response","230","11162963","0.0-6.0-1.3","","<img src=""img/red-n.png"" border=""10"">","null","trial","null","","0.2,0.8","2:nogo_b","0",""
"null","","html-keyboard-response","231","11163965","0.0-6.0-2.3","","<div style=""font-size:60px;"">+</div>","null","","","","","","",""
"481.39999985694885","","image-keyboard-response","232","11164447","0.0-6.0-0.4","","img/red.png","32","trial","null","false","0.2,0.8","2:nogo_b","",""
"null","","html-keyboard-response","233","11165449","0.0-6.0-1.4","","<img src=""img/red-n.png"" border=""10"">","null","trial","null","","0.2,0.8","2:nogo_b","0",""
"null","","html-keyboard-response","234","11166451","0.0-6.0-2.4","","<div style=""font-size:60px;"">+</div>","null","","","","","","",""
"726.5999999046326","","image-keyboard-response","235","11167178","0.0-6.0-0.5","","img/orange.png","32","trial","32","true","1,0","3:go_c","",""
"null","","html-keyboard-response","236","11168180","0.0-6.0-1.5","","<img src=""img/orange-r.png"" border=""10"">","null","trial","32","","1,0","3:go_c","1",""
"null","","html-keyboard-response","237","11169181","0.0-6.0-2.5","","<div style=""font-size:60px;"">+</div>","null","","","","","","",""
"1144.7999999523163","","image-keyboard-response","238","11170328","0.0-6.0-0.6","","img/grey.png","32","trial","null","false","0,1","4:nogo_d","",""
"null","","html-keyboard-response","239","11171332","0.0-6.0-1.6","","<img src=""img/grey-n.png"" border=""10"">","null","trial","null","","0,1","4:nogo_d","0",""
"null","","html-keyboard-response","240","11172334","0.0-6.0-2.6","","<div style=""font-size:60px;"">+</div>","null","","","","","","",""
"1165.7000000476837","","image-keyboard-response","241","11173500","0.0-6.0-0.7","","img/pink.png","32","trial","32","true","0.8,0.2","1:go_a","",""
"null","","html-keyboard-response","242","11174503","0.0-6.0-1.7","","<img src=""img/pink-r.png"" border=""10"">","null","trial","32","","0.8,0.2","1:go_a","1",""
"null","","html-keyboard-response","243","11175504","0.0-6.0-2.7","","<div style=""font-size:60px;"">+</div>","null","","","","","","",""
"1320.7000000476837","","image-keyboard-response","244","11176826","0.0-6.0-0.8","","img/pink.png","32","trial","32","true","0.8,0.2","1:go_a","",""
"null","","html-keyboard-response","245","11177828","0.0-6.0-1.8","","<img src=""img/pink-r.png"" border=""10"">","null","trial","32","","0.8,0.2","1:go_a","1",""
"null","","html-keyboard-response","246","11178829","0.0-6.0-2.8","","<div style=""font-size:60px;"">+</div>","null","","","","","","",""
"null","","image-keyboard-response","247","11180331","0.0-6.0-0.9","","img/grey.png","null","trial","null","true","0,1","4:nogo_d","",""
"null","","html-keyboard-response","248","11181333","0.0-6.0-1.9","","<img src=""img/grey-r.png"">","null","trial","null","","0,1","4:nogo_d","1",""
"null","","html-keyboard-response","249","11182334","0.0-6.0-2.9","","<div style=""font-size:60px;"">+</div>","null","","","","","","",""
"377","","image-keyboard-response","250","11182711","0.0-6.0-0.10","","img/red.png","32","trial","null","false","0.2,0.8","2:nogo_b","",""
"null","","html-keyboard-response","251","11183713","0.0-6.0-1.10","","<img src=""img/red-n.png"" border=""10"">","null","trial","null","","0.2,0.8","2:nogo_b","0",""
"null","","html-keyboard-response","252","11184715","0.0-6.0-2.10","","<div style=""font-size:60px;"">+</div>","null","","","","","","",""
"837.5","","image-keyboard-response","253","11185553","0.0-6.0-0.11","","img/orange.png","32","trial","32","true","1,0","3:go_c","",""
"null","","html-keyboard-response","254","11186555","0.0-6.0-1.11","","<img src=""img/orange-r.png"" border=""10"">","null","trial","32","","1,0","3:go_c","1",""
"null","","html-keyboard-response","255","11187556","0.0-6.0-2.11","","<div style=""font-size:60px;"">+</div>","null","","","","","","",""
"null","","image-keyboard-response","256","11189058","0.0-6.0-0.12","","img/red.png","null","trial","null","true","0.2,0.8","2:nogo_b","",""
"null","","html-keyboard-response","257","11190060","0.0-6.0-1.12","","<img src=""img/red-r.png"">","null","trial","null","","0.2,0.8","2:nogo_b","1",""
"null","","html-keyboard-response","258","11191061","0.0-6.0-2.12","","<div style=""font-size:60px;"">+</div>","null","","","","","","",""
"466.2999999523163","","image-keyboard-response","259","11191528","0.0-6.0-0.13","","img/pink.png","32","trial","32","true","0.8,0.2","1:go_a","",""
"null","","html-keyboard-response","260","11192536","0.0-6.0-1.13","","<img src=""img/pink-r.png"" border=""10"">","null","trial","32","","0.8,0.2","1:go_a","1",""
"null","","html-keyboard-response","261","11193538","0.0-6.0-2.13","","<div style=""font-size:60px;"">+</div>","null","","","","","","",""
"558.5","","image-keyboard-response","262","11194097","0.0-6.0-0.14","","img/grey.png","32","trial","null","false","0,1","4:nogo_d","",""
"null","","html-keyboard-response","263","11195100","0.0-6.0-1.14","","<img src=""img/grey-n.png"" border=""10"">","null","trial","null","","0,1","4:nogo_d","0",""
"null","","html-keyboard-response","264","11196101","0.0-6.0-2.14","","<div style=""font-size:60px;"">+</div>","null","","","","","","",""
"566.5","","image-keyboard-response","265","11196668","0.0-6.0-0.15","","img/orange.png","32","trial","32","true","1,0","3:go_c","",""
"null","","html-keyboard-response","266","11197671","0.0-6.0-1.15","","<img src=""img/orange-r.png"" border=""10"">","null","trial","32","","1,0","3:go_c","1",""
"null","","html-keyboard-response","267","11198673","0.0-6.0-2.15","","<div style=""font-size:60px;"">+</div>","null","","","","","","",""
"585.1000001430511","","image-keyboard-response","268","11199259","0.0-6.0-0.16","","img/orange.png","32","trial","32","true","1,0","3:go_c","",""
"null","","html-keyboard-response","269","11200261","0.0-6.0-1.16","","<img src=""img/orange-r.png"" border=""10"">","null","trial","32","","1,0","3:go_c","1",""
"null","","html-keyboard-response","270","11201263","0.0-6.0-2.16","","<div style=""font-size:60px;"">+</div>","null","","","","","","",""
"null","","image-keyboard-response","271","11202765","0.0-6.0-0.17","","img/red.png","null","trial","null","true","0.2,0.8","2:nogo_b","",""
"null","","html-keyboard-response","272","11203767","0.0-6.0-1.17","","<img src=""img/red-r.png"">","null","trial","null","","0.2,0.8","2:nogo_b","1",""
"null","","html-keyboard-response","273","11204770","0.0-6.0-2.17","","<div style=""font-size:60px;"">+</div>","null","","","","","","",""
"480.5","","image-keyboard-response","274","11205252","0.0-6.0-0.18","","img/pink.png","32","trial","32","true","0.8,0.2","1:go_a","",""
"null","","html-keyboard-response","275","11206254","0.0-6.0-1.18","","<img src=""img/pink-r.png"" border=""10"">","null","trial","32","","0.8,0.2","1:go_a","1",""
"null","","html-keyboard-response","276","11207257","0.0-6.0-2.18","","<div style=""font-size:60px;"">+</div>","null","","","","","","",""
"398.2999999523163","","image-keyboard-response","277","11207656","0.0-6.0-0.19","","img/grey.png","32","trial","null","false","0,1","4:nogo_d","",""
"null","","html-keyboard-response","278","11208658","0.0-6.0-1.19","","<img src=""img/grey-n.png"" border=""10"">","null","trial","null","","0,1","4:nogo_d","0",""
"null","","html-keyboard-response","279","11209660","0.0-6.0-2.19","","<div style=""font-size:60px;"">+</div>","null","","","","","","",""
"447.90000009536743","","image-keyboard-response","280","11210109","0.0-6.0-0.20","","img/orange.png","32","trial","32","true","1,0","3:go_c","",""
"null","","html-keyboard-response","281","11211111","0.0-6.0-1.20","","<img src=""img/orange-r.png"" border=""10"">","null","trial","32","","1,0","3:go_c","1",""
"null","","html-keyboard-response","282","11212112","0.0-6.0-2.20","","<div style=""font-size:60px;"">+</div>","null","","","","","","",""
"716.5","","image-keyboard-response","283","11212830","0.0-6.0-0.21","","img/grey.png","32","trial","null","false","0,1","4:nogo_d","",""
"null","","html-keyboard-response","284","11213831","0.0-6.0-1.21","","<img src=""img/grey-n.png"" border=""10"">","null","trial","null","","0,1","4:nogo_d","0",""
"null","","html-keyboard-response","285","11214833","0.0-6.0-2.21","","<div style=""font-size:60px;"">+</div>","null","","","","","","",""
"506.5","","image-keyboard-response","286","11215341","0.0-6.0-0.22","","img/red.png","32","trial","null","false","0.2,0.8","2:nogo_b","",""
"null","","html-keyboard-response","287","11216342","0.0-6.0-1.22","","<img src=""img/red-n.png"" border=""10"">","null","trial","null","","0.2,0.8","2:nogo_b","0",""
"null","","html-keyboard-response","288","11217343","0.0-6.0-2.22","","<div style=""font-size:60px;"">+</div>","null","","","","","","",""
"463","","image-keyboard-response","289","11217807","0.0-6.0-0.23","","img/pink.png","32","trial","32","true","0.8,0.2","1:go_a","",""
"null","","html-keyboard-response","290","11218810","0.0-6.0-1.23","","<img src=""img/pink-r.png"" border=""10"">","null","trial","32","","0.8,0.2","1:go_a","1",""
"null","","html-keyboard-response","291","11219812","0.0-6.0-2.23","","<div style=""font-size:60px;"">+</div>","null","","","","","","",""
"null","","image-keyboard-response","292","11221314","0.0-6.0-0.24","","img/pink.png","null","trial","32","false","0.8,0.2","1:go_a","",""
"null","","html-keyboard-response","293","11222318","0.0-6.0-1.24","","<img src=""img/pink-n.png"">","null","trial","32","","0.8,0.2","1:go_a","0",""
"null","","html-keyboard-response","294","11223347","0.0-6.0-2.24","","<div style=""font-size:60px;"">+</div>","null","","","","","","",""
"440.89999985694885","","image-keyboard-response","295","11223789","0.0-6.0-0.25","","img/orange.png","32","trial","32","true","1,0","3:go_c","",""
"null","","html-keyboard-response","296","11224791","0.0-6.0-1.25","","<img src=""img/orange-r.png"" border=""10"">","null","trial","32","","1,0","3:go_c","1",""
"null","","html-keyboard-response","297","11225793","0.0-6.0-2.25","","<div style=""font-size:60px;"">+</div>","null","","","","","","",""
"null","","image-keyboard-response","298","11227296","0.0-6.0-0.26","","img/red.png","null","trial","null","true","0.2,0.8","2:nogo_b","",""
"null","","html-keyboard-response","299","11228299","0.0-6.0-1.26","","<img src=""img/red-n.png"">","null","trial","null","","0.2,0.8","2:nogo_b","0",""
"null","","html-keyboard-response","300","11229300","0.0-6.0-2.26","","<div style=""font-size:60px;"">+</div>","null","","","","","","",""
"510.90000009536743","","image-keyboard-response","301","11229812","0.0-6.0-0.27","","img/grey.png","32","trial","null","false","0,1","4:nogo_d","",""
"null","","html-keyboard-response","302","11230814","0.0-6.0-1.27","","<img src=""img/grey-n.png"" border=""10"">","null","trial","null","","0,1","4:nogo_d","0",""
"null","","html-keyboard-response","303","11231815","0.0-6.0-2.27","","<div style=""font-size:60px;"">+</div>","null","","","","","","",""
"679.5","","image-keyboard-response","304","11232495","0.0-6.0-0.28","","img/pink.png","32","trial","32","true","0.8,0.2","1:go_a","",""
"null","","html-keyboard-response","305","11233497","0.0-6.0-1.28","","<img src=""img/pink-r.png"" border=""10"">","null","trial","32","","0.8,0.2","1:go_a","1",""
"null","","html-keyboard-response","306","11234498","0.0-6.0-2.28","","<div style=""font-size:60px;"">+</div>","null","","","","","","",""
"null","","image-keyboard-response","307","11236000","0.0-6.0-0.29","","img/red.png","null","trial","null","true","0.2,0.8","2:nogo_b","",""
"null","","html-keyboard-response","308","11237002","0.0-6.0-1.29","","<img src=""img/red-r.png"">","null","trial","null","","0.2,0.8","2:nogo_b","1",""
"null","","html-keyboard-response","309","11238003","0.0-6.0-2.29","","<div style=""font-size:60px;"">+</div>","null","","","","","","",""
"666.3999998569489","","image-keyboard-response","310","11238671","0.0-6.0-0.30","","img/grey.png","32","trial","null","false","0,1","4:nogo_d","",""
"null","","html-keyboard-response","311","11239672","0.0-6.0-1.30","","<img src=""img/grey-n.png"" border=""10"">","null","trial","null","","0,1","4:nogo_d","0",""
"null","","html-keyboard-response","312","11240674","0.0-6.0-2.30","","<div style=""font-size:60px;"">+</div>","null","","","","","","",""
"721","","image-keyboard-response","313","11241395","0.0-6.0-0.31","","img/orange.png","32","trial","32","true","1,0","3:go_c","",""
"null","","html-keyboard-response","314","11242398","0.0-6.0-1.31","","<img src=""img/orange-r.png"" border=""10"">","null","trial","32","","1,0","3:go_c","1",""
"null","","html-keyboard-response","315","11243399","0.0-6.0-2.31","","<div style=""font-size:60px;"">+</div>","null","","","","","","",""
"null","","image-keyboard-response","316","11244899","0.0-6.0-0.32","","img/red.png","null","trial","null","true","0.2,0.8","2:nogo_b","",""
"null","","html-keyboard-response","317","11245902","0.0-6.0-1.32","","<img src=""img/red-n.png"">","null","trial","null","","0.2,0.8","2:nogo_b","0",""
"null","","html-keyboard-response","318","11246903","0.0-6.0-2.32","","<div style=""font-size:60px;"">+</div>","null","","","","","","",""
"608.6000001430511","","image-keyboard-response","319","11247513","0.0-6.0-0.33","","img/grey.png","32","trial","null","false","0,1","4:nogo_d","",""
"null","","html-keyboard-response","320","11248515","0.0-6.0-1.33","","<img src=""img/grey-n.png"" border=""10"">","null","trial","null","","0,1","4:nogo_d","0",""
"null","","html-keyboard-response","321","11249517","0.0-6.0-2.33","","<div style=""font-size:60px;"">+</div>","null","","","","","","",""
"833.2000000476837","","image-keyboard-response","322","11250351","0.0-6.0-0.34","","img/orange.png","32","trial","32","true","1,0","3:go_c","",""
"null","","html-keyboard-response","323","11251353","0.0-6.0-1.34","","<img src=""img/orange-r.png"" border=""10"">","null","trial","32","","1,0","3:go_c","1",""
"null","","html-keyboard-response","324","11252355","0.0-6.0-2.34","","<div style=""font-size:60px;"">+</div>","null","","","","","","",""
"null","","image-keyboard-response","325","11253858","0.0-6.0-0.35","","img/pink.png","null","trial","32","false","0.8,0.2","1:go_a","",""
"null","","html-keyboard-response","326","11254860","0.0-6.0-1.35","","<img src=""img/pink-n.png"">","null","trial","32","","0.8,0.2","1:go_a","0",""
"null","","html-keyboard-response","327","11255861","0.0-6.0-2.35","","<div style=""font-size:60px;"">+</div>","null","","","","","","",""
"955.2000000476837","","image-keyboard-response","328","11256817","0.0-6.0-0.36","","img/grey.png","32","trial","null","false","0,1","4:nogo_d","",""
"null","","html-keyboard-response","329","11257820","0.0-6.0-1.36","","<img src=""img/grey-n.png"" border=""10"">","null","trial","null","","0,1","4:nogo_d","0",""
"null","","html-keyboard-response","330","11258821","0.0-6.0-2.36","","<div style=""font-size:60px;"">+</div>","null","","","","","","",""
"null","","image-keyboard-response","331","11260323","0.0-6.0-0.37","","img/pink.png","null","trial","32","false","0.8,0.2","1:go_a","",""
"null","","html-keyboard-response","332","11261325","0.0-6.0-1.37","","<img src=""img/pink-n.png"">","null","trial","32","","0.8,0.2","1:go_a","0",""
"null","","html-keyboard-response","333","11262327","0.0-6.0-2.37","","<div style=""font-size:60px;"">+</div>","null","","","","","","",""
"631.8999998569489","","image-keyboard-response","334","11262960","0.0-6.0-0.38","","img/orange.png","32","trial","32","true","1,0","3:go_c","",""
"null","","html-keyboard-response","335","11263962","0.0-6.0-1.38","","<img src=""img/orange-r.png"" border=""10"">","null","trial","32","","1,0","3:go_c","1",""
"null","","html-keyboard-response","336","11264963","0.0-6.0-2.38","","<div style=""font-size:60px;"">+</div>","null","","","","","","",""
"null","","image-keyboard-response","337","11266464","0.0-6.0-0.39","","img/red.png","null","trial","null","true","0.2,0.8","2:nogo_b","",""
"null","","html-keyboard-response","338","11267466","0.0-6.0-1.39","","<img src=""img/red-r.png"">","null","trial","null","","0.2,0.8","2:nogo_b","1",""
"null","","html-keyboard-response","339","11268467","0.0-6.0-2.39","","<div style=""font-size:60px;"">+</div>","null","","","","","","",""
"null","","image-keyboard-response","340","11269970","0.0-6.0-0.40","","img/pink.png","null","trial","32","false","0.8,0.2","1:go_a","",""
"null","","html-keyboard-response","341","11270972","0.0-6.0-1.40","","<img src=""img/pink-n.png"">","null","trial","32","","0.8,0.2","1:go_a","0",""
"null","","html-keyboard-response","342","11271974","0.0-6.0-2.40","","<div style=""font-size:60px;"">+</div>","null","","","","","","",""
"null","","image-keyboard-response","343","11273475","0.0-6.0-0.41","","img/red.png","null","trial","null","true","0.2,0.8","2:nogo_b","",""
"null","","html-keyboard-response","344","11274478","0.0-6.0-1.41","","<img src=""img/red-n.png"">","null","trial","null","","0.2,0.8","2:nogo_b","0",""
"null","","html-keyboard-response","345","11275480","0.0-6.0-2.41","","<div style=""font-size:60px;"">+</div>","null","","","","","","",""
"772.4000000953674","","image-keyboard-response","346","11276253","0.0-6.0-0.42","","img/orange.png","32","trial","32","true","1,0","3:go_c","",""
"null","","html-keyboard-response","347","11277255","0.0-6.0-1.42","","<img src=""img/orange-r.png"" border=""10"">","null","trial","32","","1,0","3:go_c","1",""
"null","","html-keyboard-response","348","11278256","0.0-6.0-2.42","","<div style=""font-size:60px;"">+</div>","null","","","","","","",""
"null","","image-keyboard-response","349","11279758","0.0-6.0-0.43","","img/grey.png","null","trial","null","true","0,1","4:nogo_d","",""
"null","","html-keyboard-response","350","11280760","0.0-6.0-1.43","","<img src=""img/grey-r.png"">","null","trial","null","","0,1","4:nogo_d","1",""
"null","","html-keyboard-response","351","11281762","0.0-6.0-2.43","","<div style=""font-size:60px;"">+</div>","null","","","","","","",""
"null","","image-keyboard-response","352","11283263","0.0-6.0-0.44","","img/red.png","null","trial","null","true","0.2,0.8","2:nogo_b","",""
"null","","html-keyboard-response","353","11284266","0.0-6.0-1.44","","<img src=""img/red-r.png"">","null","trial","null","","0.2,0.8","2:nogo_b","1",""
"null","","html-keyboard-response","354","11285268","0.0-6.0-2.44","","<div style=""font-size:60px;"">+</div>","null","","","","","","",""
"null","","image-keyboard-response","355","11286772","0.0-6.0-0.45","","img/grey.png","null","trial","null","true","0,1","4:nogo_d","",""
"null","","html-keyboard-response","356","11287774","0.0-6.0-1.45","","<img src=""img/grey-r.png"">","null","trial","null","","0,1","4:nogo_d","1",""
"null","","html-keyboard-response","357","11288776","0.0-6.0-2.45","","<div style=""font-size:60px;"">+</div>","null","","","","","","",""
"447.39999985694885","","image-keyboard-response","358","11289224","0.0-6.0-0.46","","img/pink.png","32","trial","32","true","0.8,0.2","1:go_a","",""
"null","","html-keyboard-response","359","11290227","0.0-6.0-1.46","","<img src=""img/pink-r.png"" border=""10"">","null","trial","32","","0.8,0.2","1:go_a","1",""
"null","","html-keyboard-response","360","11291228","0.0-6.0-2.46","","<div style=""font-size:60px;"">+</div>","null","","","","","","",""
"520.2000000476837","","image-keyboard-response","361","11291749","0.0-6.0-0.47","","img/orange.png","32","trial","32","true","1,0","3:go_c","",""
"null","","html-keyboard-response","362","11292751","0.0-6.0-1.47","","<img src=""img/orange-r.png"" border=""10"">","null","trial","32","","1,0","3:go_c","1",""
"null","","html-keyboard-response","363","11293752","0.0-6.0-2.47","","<div style=""font-size:60px;"">+</div>","null","","","","","","",""
"null","","image-keyboard-response","364","11295253","0.0-6.0-0.48","","img/red.png","null","trial","null","true","0.2,0.8","2:nogo_b","",""
"null","","html-keyboard-response","365","11296255","0.0-6.0-1.48","","<img src=""img/red-r.png"">","null","trial","null","","0.2,0.8","2:nogo_b","1",""
"null","","html-keyboard-response","366","11297257","0.0-6.0-2.48","","<div style=""font-size:60px;"">+</div>","null","","","","","","",""
"664.3999998569489","","image-keyboard-response","367","11297922","0.0-6.0-0.49","","img/grey.png","32","trial","null","false","0,1","4:nogo_d","",""
"null","","html-keyboard-response","368","11298924","0.0-6.0-1.49","","<img src=""img/grey-n.png"" border=""10"">","null","trial","null","","0,1","4:nogo_d","0",""
"null","","html-keyboard-response","369","11299925","0.0-6.0-2.49","","<div style=""font-size:60px;"">+</div>","null","","","","","","",""
"482","","image-keyboard-response","370","11300408","0.0-6.0-0.50","","img/orange.png","32","trial","32","true","1,0","3:go_c","",""
"null","","html-keyboard-response","371","11301411","0.0-6.0-1.50","","<img src=""img/orange-r.png"" border=""10"">","null","trial","32","","1,0","3:go_c","1",""
"null","","html-keyboard-response","372","11302414","0.0-6.0-2.50","","<div style=""font-size:60px;"">+</div>","null","","","","","","",""
"680.1000001430511","","image-keyboard-response","373","11303095","0.0-6.0-0.51","","img/pink.png","32","trial","32","true","0.8,0.2","1:go_a","",""
"null","","html-keyboard-response","374","11304098","0.0-6.0-1.51","","<img src=""img/pink-r.png"" border=""10"">","null","trial","32","","0.8,0.2","1:go_a","1",""
"null","","html-keyboard-response","375","11305100","0.0-6.0-2.51","","<div style=""font-size:60px;"">+</div>","null","","","","","","",""
"892","","image-keyboard-response","376","11305993","0.0-6.0-0.52","","img/orange.png","32","trial","32","true","1,0","3:go_c","",""
"null","","html-keyboard-response","377","11306995","0.0-6.0-1.52","","<img src=""img/orange-r.png"" border=""10"">","null","trial","32","","1,0","3:go_c","1",""
"null","","html-keyboard-response","378","11307997","0.0-6.0-2.52","","<div style=""font-size:60px;"">+</div>","null","","","","","","",""
"517.5","","image-keyboard-response","379","11308515","0.0-6.0-0.53","","img/pink.png","32","trial","32","true","0.8,0.2","1:go_a","",""
"null","","html-keyboard-response","380","11309518","0.0-6.0-1.53","","<img src=""img/pink-r.png"" border=""10"">","null","trial","32","","0.8,0.2","1:go_a","1",""
"null","","html-keyboard-response","381","11310519","0.0-6.0-2.53","","<div style=""font-size:60px;"">+</div>","null","","","","","","",""
"null","","image-keyboard-response","382","11312021","0.0-6.0-0.54","","img/grey.png","null","trial","null","true","0,1","4:nogo_d","",""
"null","","html-keyboard-response","383","11313022","0.0-6.0-1.54","","<img src=""img/grey-r.png"">","null","trial","null","","0,1","4:nogo_d","1",""
"null","","html-keyboard-response","384","11314024","0.0-6.0-2.54","","<div style=""font-size:60px;"">+</div>","null","","","","","","",""
"777.9000000953674","","image-keyboard-response","385","11314803","0.0-6.0-0.55","","img/red.png","32","trial","null","false","0.2,0.8","2:nogo_b","",""
"null","","html-keyboard-response","386","11315805","0.0-6.0-1.55","","<img src=""img/red-n.png"" border=""10"">","null","trial","null","","0.2,0.8","2:nogo_b","0",""
"null","","html-keyboard-response","387","11316807","0.0-6.0-2.55","","<div style=""font-size:60px;"">+</div>","null","","","","","","",""
"575.3999998569489","","image-keyboard-response","388","11317383","0.0-6.0-0.56","","img/pink.png","32","trial","32","true","0.8,0.2","1:go_a","",""
"null","","html-keyboard-response","389","11318385","0.0-6.0-1.56","","<img src=""img/pink-r.png"" border=""10"">","null","trial","32","","0.8,0.2","1:go_a","1",""
"null","","html-keyboard-response","390","11319387","0.0-6.0-2.56","","<div style=""font-size:60px;"">+</div>","null","","","","","","",""
"null","","image-keyboard-response","391","11320888","0.0-6.0-0.57","","img/orange.png","null","trial","32","false","1,0","3:go_c","",""
"null","","html-keyboard-response","392","11321891","0.0-6.0-1.57","","<img src=""img/orange-n.png"">","null","trial","32","","1,0","3:go_c","0",""
"null","","html-keyboard-response","393","11322892","0.0-6.0-2.57","","<div style=""font-size:60px;"">+</div>","null","","","","","","",""
"606.6000001430511","","image-keyboard-response","394","11323500","0.0-6.0-0.58","","img/red.png","32","trial","null","false","0.2,0.8","2:nogo_b","",""
"null","","html-keyboard-response","395","11324502","0.0-6.0-1.58","","<img src=""img/red-n.png"" border=""10"">","null","trial","null","","0.2,0.8","2:nogo_b","0",""
"null","","html-keyboard-response","396","11325504","0.0-6.0-2.58","","<div style=""font-size:60px;"">+</div>","null","","","","","","",""
"556.3000001907349","","image-keyboard-response","397","11326061","0.0-6.0-0.59","","img/grey.png","32","trial","null","false","0,1","4:nogo_d","",""
"null","","html-keyboard-response","398","11327063","0.0-6.0-1.59","","<img src=""img/grey-n.png"" border=""10"">","null","trial","null","","0,1","4:nogo_d","0",""
"null","","html-keyboard-response","399","11328064","0.0-6.0-2.59","","<div style=""font-size:60px;"">+</div>","null","","","","","","",""
"491.19999980926514","","image-keyboard-response","400","11328557","0.0-6.0-0.60","","img/orange.png","32","trial","32","true","1,0","3:go_c","",""
"null","","html-keyboard-response","401","11329558","0.0-6.0-1.60","","<img src=""img/orange-r.png"" border=""10"">","null","trial","32","","1,0","3:go_c","1",""
"null","","html-keyboard-response","402","11330560","0.0-6.0-2.60","","<div style=""font-size:60px;"">+</div>","null","","","","","","",""
"null","","image-keyboard-response","403","11332063","0.0-6.0-0.61","","img/red.png","null","trial","null","true","0.2,0.8","2:nogo_b","",""
"null","","html-keyboard-response","404","11333066","0.0-6.0-1.61","","<img src=""img/red-r.png"">","null","trial","null","","0.2,0.8","2:nogo_b","1",""
"null","","html-keyboard-response","405","11334066","0.0-6.0-2.61","","<div style=""font-size:60px;"">+</div>","null","","","","","","",""
"1390.2999999523163","","image-keyboard-response","406","11335457","0.0-6.0-0.62","","img/grey.png","32","trial","null","false","0,1","4:nogo_d","",""
"null","","html-keyboard-response","407","11336459","0.0-6.0-1.62","","<img src=""img/grey-n.png"" border=""10"">","null","trial","null","","0,1","4:nogo_d","0",""
"null","","html-keyboard-response","408","11337461","0.0-6.0-2.62","","<div style=""font-size:60px;"">+</div>","null","","","","","","",""
"742.4000000953674","","image-keyboard-response","409","11338205","0.0-6.0-0.63","","img/pink.png","32","trial","32","true","0.8,0.2","1:go_a","",""
"null","","html-keyboard-response","410","11339206","0.0-6.0-1.63","","<img src=""img/pink-r.png"" border=""10"">","null","trial","32","","0.8,0.2","1:go_a","1",""
"null","","html-keyboard-response","411","11340209","0.0-6.0-2.63","","<div style=""font-size:60px;"">+</div>","null","","","","","","",""
"null","","image-keyboard-response","412","11341711","0.0-6.0-0.64","","img/red.png","null","trial","null","true","0.2,0.8","2:nogo_b","",""
"null","","html-keyboard-response","413","11342714","0.0-6.0-1.64","","<img src=""img/red-r.png"">","null","trial","null","","0.2,0.8","2:nogo_b","1",""
"null","","html-keyboard-response","414","11343716","0.0-6.0-2.64","","<div style=""font-size:60px;"">+</div>","null","","","","","","",""
"null","","image-keyboard-response","415","11345217","0.0-6.0-0.65","","img/pink.png","null","trial","32","false","0.8,0.2","1:go_a","",""
"null","","html-keyboard-response","416","11346220","0.0-6.0-1.65","","<img src=""img/pink-n.png"">","null","trial","32","","0.8,0.2","1:go_a","0",""
"null","","html-keyboard-response","417","11347222","0.0-6.0-2.65","","<div style=""font-size:60px;"">+</div>","null","","","","","","",""
"null","","image-keyboard-response","418","11348723","0.0-6.0-0.66","","img/grey.png","null","trial","null","true","0,1","4:nogo_d","",""
"null","","html-keyboard-response","419","11349725","0.0-6.0-1.66","","<img src=""img/grey-r.png"">","null","trial","null","","0,1","4:nogo_d","1",""
"null","","html-keyboard-response","420","11350725","0.0-6.0-2.66","","<div style=""font-size:60px;"">+</div>","null","","","","","","",""
"null","","image-keyboard-response","421","11352227","0.0-6.0-0.67","","img/orange.png","null","trial","32","false","1,0","3:go_c","",""
"null","","html-keyboard-response","422","11353229","0.0-6.0-1.67","","<img src=""img/orange-n.png"">","null","trial","32","","1,0","3:go_c","0",""
"null","","html-keyboard-response","423","11354230","0.0-6.0-2.67","","<div style=""font-size:60px;"">+</div>","null","","","","","","",""
"955.8000001907349","","image-keyboard-response","424","11355187","0.0-6.0-0.68","","img/orange.png","32","trial","32","true","1,0","3:go_c","",""
"null","","html-keyboard-response","425","11356188","0.0-6.0-1.68","","<img src=""img/orange-r.png"" border=""10"">","null","trial","32","","1,0","3:go_c","1",""
"null","","html-keyboard-response","426","11357189","0.0-6.0-2.68","","<div style=""font-size:60px;"">+</div>","null","","","","","","",""
"null","","image-keyboard-response","427","11358690","0.0-6.0-0.69","","img/pink.png","null","trial","32","false","0.8,0.2","1:go_a","",""
"null","","html-keyboard-response","428","11359692","0.0-6.0-1.69","","<img src=""img/pink-n.png"">","null","trial","32","","0.8,0.2","1:go_a","0",""
"null","","html-keyboard-response","429","11360694","0.0-6.0-2.69","","<div style=""font-size:60px;"">+</div>","null","","","","","","",""
"null","","image-keyboard-response","430","11362196","0.0-6.0-0.70","","img/grey.png","null","trial","null","true","0,1","4:nogo_d","",""
"null","","html-keyboard-response","431","11363199","0.0-6.0-1.70","","<img src=""img/grey-r.png"">","null","trial","null","","0,1","4:nogo_d","1",""
"null","","html-keyboard-response","432","11364201","0.0-6.0-2.70","","<div style=""font-size:60px;"">+</div>","null","","","","","","",""
"null","","image-keyboard-response","433","11365702","0.0-6.0-0.71","","img/red.png","null","trial","null","true","0.2,0.8","2:nogo_b","",""
"null","","html-keyboard-response","434","11366704","0.0-6.0-1.71","","<img src=""img/red-r.png"">","null","trial","null","","0.2,0.8","2:nogo_b","1",""
"null","","html-keyboard-response","435","11367706","0.0-6.0-2.71","","<div style=""font-size:60px;"">+</div>","null","","","","","","",""
"null","","image-keyboard-response","436","11369208","0.0-6.0-0.72","","img/grey.png","null","trial","null","true","0,1","4:nogo_d","",""
"null","","html-keyboard-response","437","11370210","0.0-6.0-1.72","","<img src=""img/grey-r.png"">","null","trial","null","","0,1","4:nogo_d","1",""
"null","","html-keyboard-response","438","11371212","0.0-6.0-2.72","","<div style=""font-size:60px;"">+</div>","null","","","","","","",""
"null","","image-keyboard-response","439","11372714","0.0-6.0-0.73","","img/red.png","null","trial","null","true","0.2,0.8","2:nogo_b","",""
"null","","html-keyboard-response","440","11373718","0.0-6.0-1.73","","<img src=""img/red-r.png"">","null","trial","null","","0.2,0.8","2:nogo_b","1",""
"null","","html-keyboard-response","441","11374720","0.0-6.0-2.73","","<div style=""font-size:60px;"">+</div>","null","","","","","","",""
"null","","image-keyboard-response","442","11376223","0.0-6.0-0.74","","img/pink.png","null","trial","32","false","0.8,0.2","1:go_a","",""
"null","","html-keyboard-response","443","11377225","0.0-6.0-1.74","","<img src=""img/pink-n.png"">","null","trial","32","","0.8,0.2","1:go_a","0",""
"null","","html-keyboard-response","444","11378226","0.0-6.0-2.74","","<div style=""font-size:60px;"">+</div>","null","","","","","","",""
"418.2000000476837","","image-keyboard-response","445","11378645","0.0-6.0-0.75","","img/orange.png","32","trial","32","true","1,0","3:go_c","",""
"null","","html-keyboard-response","446","11379648","0.0-6.0-1.75","","<img src=""img/orange-r.png"" border=""10"">","null","trial","32","","1,0","3:go_c","1",""
"null","","html-keyboard-response","447","11380649","0.0-6.0-2.75","","<div style=""font-size:60px;"">+</div>","null","","","","","","",""
"null","","image-keyboard-response","448","11382151","0.0-6.0-0.76","","img/pink.png","null","trial","32","false","0.8,0.2","1:go_a","",""
"null","","html-keyboard-response","449","11383152","0.0-6.0-1.76","","<img src=""img/pink-n.png"">","null","trial","32","","0.8,0.2","1:go_a","0",""
"null","","html-keyboard-response","450","11384154","0.0-6.0-2.76","","<div style=""font-size:60px;"">+</div>","null","","","","","","",""
"459.90000009536743","","image-keyboard-response","451","11384614","0.0-6.0-0.77","","img/red.png","32","trial","null","false","0.2,0.8","2:nogo_b","",""
"null","","html-keyboard-response","452","11385616","0.0-6.0-1.77","","<img src=""img/red-n.png"" border=""10"">","null","trial","null","","0.2,0.8","2:nogo_b","0",""
"null","","html-keyboard-response","453","11386617","0.0-6.0-2.77","","<div style=""font-size:60px;"">+</div>","null","","","","","","",""
"null","","image-keyboard-response","454","11388118","0.0-6.0-0.78","","img/grey.png","null","trial","null","true","0,1","4:nogo_d","",""
"null","","html-keyboard-response","455","11389120","0.0-6.0-1.78","","<img src=""img/grey-r.png"">","null","trial","null","","0,1","4:nogo_d","1",""
"null","","html-keyboard-response","456","11390122","0.0-6.0-2.78","","<div style=""font-size:60px;"">+</div>","null","","","","","","",""
"null","","image-keyboard-response","457","11391624","0.0-6.0-0.79","","img/orange.png","null","trial","32","false","1,0","3:go_c","",""
"null","","html-keyboard-response","458","11392627","0.0-6.0-1.79","","<img src=""img/orange-n.png"">","null","trial","32","","1,0","3:go_c","0",""
"null","","html-keyboard-response","459","11393629","0.0-6.0-2.79","","<div style=""font-size:60px;"">+</div>","null","","","","","","",""
"520.9000000953674","","image-keyboard-response","460","11394150","0.0-6.0-0.80","","img/orange.png","32","trial","32","true","1,0","3:go_c","",""
"null","","html-keyboard-response","461","11395153","0.0-6.0-1.80","","<img src=""img/orange-r.png"" border=""10"">","null","trial","32","","1,0","3:go_c","1",""
"null","","html-keyboard-response","462","11396154","0.0-6.0-2.80","","<div style=""font-size:60px;"">+</div>","null","","","","","","",""
"470.60000014305115","","image-keyboard-response","463","11396625","0.0-6.0-0.81","","img/pink.png","32","trial","32","true","0.8,0.2","1:go_a","",""
"null","","html-keyboard-response","464","11397627","0.0-6.0-1.81","","<img src=""img/pink-n.png"" border=""10"">","null","trial","32","","0.8,0.2","1:go_a","0",""
"null","","html-keyboard-response","465","11398629","0.0-6.0-2.81","","<div style=""font-size:60px;"">+</div>","null","","","","","","",""
"null","","image-keyboard-response","466","11400130","0.0-6.0-0.82","","img/grey.png","null","trial","null","true","0,1","4:nogo_d","",""
"null","","html-keyboard-response","467","11401133","0.0-6.0-1.82","","<img src=""img/grey-r.png"">","null","trial","null","","0,1","4:nogo_d","1",""
"null","","html-keyboard-response","468","11402134","0.0-6.0-2.82","","<div style=""font-size:60px;"">+</div>","null","","","","","","",""
"null","","image-keyboard-response","469","11403636","0.0-6.0-0.83","","img/red.png","null","trial","null","true","0.2,0.8","2:nogo_b","",""
"null","","html-keyboard-response","470","11404637","0.0-6.0-1.83","","<img src=""img/red-r.png"">","null","trial","null","","0.2,0.8","2:nogo_b","1",""
"null","","html-keyboard-response","471","11405639","0.0-6.0-2.83","","<div style=""font-size:60px;"">+</div>","null","","","","","","",""
"null","","image-keyboard-response","472","11407140","0.0-6.0-0.84","","img/grey.png","null","trial","null","true","0,1","4:nogo_d","",""
"null","","html-keyboard-response","473","11408142","0.0-6.0-1.84","","<img src=""img/grey-r.png"">","null","trial","null","","0,1","4:nogo_d","1",""
"null","","html-keyboard-response","474","11409143","0.0-6.0-2.84","","<div style=""font-size:60px;"">+</div>","null","","","","","","",""
"564.9000000953674","","image-keyboard-response","475","11409709","0.0-6.0-0.85","","img/orange.png","32","trial","32","true","1,0","3:go_c","",""
"null","","html-keyboard-response","476","11410711","0.0-6.0-1.85","","<img src=""img/orange-r.png"" border=""10"">","null","trial","32","","1,0","3:go_c","1",""
"null","","html-keyboard-response","477","11411712","0.0-6.0-2.85","","<div style=""font-size:60px;"">+</div>","null","","","","","","",""
"null","","image-keyboard-response","478","11413213","0.0-6.0-0.86","","img/red.png","null","trial","null","true","0.2,0.8","2:nogo_b","",""
"null","","html-keyboard-response","479","11414215","0.0-6.0-1.86","","<img src=""img/red-r.png"">","null","trial","null","","0.2,0.8","2:nogo_b","1",""
"null","","html-keyboard-response","480","11415231","0.0-6.0-2.86","","<div style=""font-size:60px;"">+</div>","null","","","","","","",""
"null","","image-keyboard-response","481","11416733","0.0-6.0-0.87","","img/pink.png","null","trial","32","false","0.8,0.2","1:go_a","",""
"null","","html-keyboard-response","482","11417735","0.0-6.0-1.87","","<img src=""img/pink-r.png"">","null","trial","32","","0.8,0.2","1:go_a","1",""
"null","","html-keyboard-response","483","11418736","0.0-6.0-2.87","","<div style=""font-size:60px;"">+</div>","null","","","","","","",""
"433.7000000476837","","image-keyboard-response","484","11419171","0.0-6.0-0.88","","img/pink.png","32","trial","32","true","0.8,0.2","1:go_a","",""
"null","","html-keyboard-response","485","11420173","0.0-6.0-1.88","","<img src=""img/pink-r.png"" border=""10"">","null","trial","32","","0.8,0.2","1:go_a","1",""
"null","","html-keyboard-response","486","11421174","0.0-6.0-2.88","","<div style=""font-size:60px;"">+</div>","null","","","","","","",""
"683.9000000953674","","image-keyboard-response","487","11421859","0.0-6.0-0.89","","img/red.png","32","trial","null","false","0.2,0.8","2:nogo_b","",""
"null","","html-keyboard-response","488","11422862","0.0-6.0-1.89","","<img src=""img/red-n.png"" border=""10"">","null","trial","null","","0.2,0.8","2:nogo_b","0",""
"null","","html-keyboard-response","489","11423863","0.0-6.0-2.89","","<div style=""font-size:60px;"">+</div>","null","","","","","","",""
"null","","image-keyboard-response","490","11425364","0.0-6.0-0.90","","img/grey.png","null","trial","null","true","0,1","4:nogo_d","",""
"null","","html-keyboard-response","491","11426367","0.0-6.0-1.90","","<img src=""img/grey-r.png"">","null","trial","null","","0,1","4:nogo_d","1",""
"null","","html-keyboard-response","492","11427369","0.0-6.0-2.90","","<div style=""font-size:60px;"">+</div>","null","","","","","","",""
"424.40000009536743","","image-keyboard-response","493","11427794","0.0-6.0-0.91","","img/orange.png","32","trial","32","true","1,0","3:go_c","",""
"null","","html-keyboard-response","494","11428796","0.0-6.0-1.91","","<img src=""img/orange-r.png"" border=""10"">","null","trial","32","","1,0","3:go_c","1",""
"null","","html-keyboard-response","495","11429798","0.0-6.0-2.91","","<div style=""font-size:60px;"">+</div>","null","","","","","","",""
"null","","image-keyboard-response","496","11431300","0.0-6.0-0.92","","img/grey.png","null","trial","null","true","0,1","4:nogo_d","",""
"null","","html-keyboard-response","497","11432303","0.0-6.0-1.92","","<img src=""img/grey-r.png"">","null","trial","null","","0,1","4:nogo_d","1",""
"null","","html-keyboard-response","498","11433305","0.0-6.0-2.92","","<div style=""font-size:60px;"">+</div>","null","","","","","","",""
"472.80000019073486","","image-keyboard-response","499","11433778","0.0-6.0-0.93","","img/pink.png","32","trial","32","true","0.8,0.2","1:go_a","",""
"null","","html-keyboard-response","500","11434780","0.0-6.0-1.93","","<img src=""img/pink-r.png"" border=""10"">","null","trial","32","","0.8,0.2","1:go_a","1",""
"null","","html-keyboard-response","501","11435782","0.0-6.0-2.93","","<div style=""font-size:60px;"">+</div>","null","","","","","","",""
"573.1999998092651","","image-keyboard-response","502","11436356","0.0-6.0-0.94","","img/red.png","32","trial","null","false","0.2,0.8","2:nogo_b","",""
"null","","html-keyboard-response","503","11437357","0.0-6.0-1.94","","<img src=""img/red-n.png"" border=""10"">","null","trial","null","","0.2,0.8","2:nogo_b","0",""
"null","","html-keyboard-response","504","11438358","0.0-6.0-2.94","","<div style=""font-size:60px;"">+</div>","null","","","","","","",""
"364.39999985694885","","image-keyboard-response","505","11438723","0.0-6.0-0.95","","img/orange.png","32","trial","32","true","1,0","3:go_c","",""
"null","","html-keyboard-response","506","11439725","0.0-6.0-1.95","","<img src=""img/orange-r.png"" border=""10"">","null","trial","32","","1,0","3:go_c","1",""
"null","","html-keyboard-response","507","11440727","0.0-6.0-2.95","","<div style=""font-size:60px;"">+</div>","null","","","","","","",""
"458","","image-keyboard-response","508","11441186","0.0-6.0-0.96","","img/pink.png","32","trial","32","true","0.8,0.2","1:go_a","",""
"null","","html-keyboard-response","509","11442189","0.0-6.0-1.96","","<img src=""img/pink-n.png"" border=""10"">","null","trial","32","","0.8,0.2","1:go_a","0",""
"null","","html-keyboard-response","510","11443191","0.0-6.0-2.96","","<div style=""font-size:60px;"">+</div>","null","","","","","","",""
"325.09999990463257","","image-keyboard-response","511","11443517","0.0-6.0-0.97","","img/red.png","32","trial","null","false","0.2,0.8","2:nogo_b","",""
"null","","html-keyboard-response","512","11444519","0.0-6.0-1.97","","<img src=""img/red-n.png"" border=""10"">","null","trial","null","","0.2,0.8","2:nogo_b","0",""
"null","","html-keyboard-response","513","11445521","0.0-6.0-2.97","","<div style=""font-size:60px;"">+</div>","null","","","","","","",""
"389.2000000476837","","image-keyboard-response","514","11445911","0.0-6.0-0.98","","img/orange.png","32","trial","32","true","1,0","3:go_c","",""
"null","","html-keyboard-response","515","11446913","0.0-6.0-1.98","","<img src=""img/orange-r.png"" border=""10"">","null","trial","32","","1,0","3:go_c","1",""
"null","","html-keyboard-response","516","11447914","0.0-6.0-2.98","","<div style=""font-size:60px;"">+</div>","null","","","","","","",""
"623.7000000476837","","image-keyboard-response","517","11448539","0.0-6.0-0.99","","img/grey.png","32","trial","null","false","0,1","4:nogo_d","",""
"null","","html-keyboard-response","518","11449541","0.0-6.0-1.99","","<img src=""img/grey-n.png"" border=""10"">","null","trial","null","","0,1","4:nogo_d","0",""
"null","","html-keyboard-response","519","11450544","0.0-6.0-2.99","","<div style=""font-size:60px;"">+</div>","null","","","","","","",""
"352.7999999523163","","image-keyboard-response","520","11450898","0.0-6.0-0.100","","img/orange.png","32","trial","32","true","1,0","3:go_c","",""
"null","","html-keyboard-response","521","11451899","0.0-6.0-1.100","","<img src=""img/orange-r.png"" border=""10"">","null","trial","32","","1,0","3:go_c","1",""
"null","","html-keyboard-response","522","11452901","0.0-6.0-2.100","","<div style=""font-size:60px;"">+</div>","null","","","","","","",""
"1104.7999999523163","","image-keyboard-response","523","11454006","0.0-6.0-0.101","","img/red.png","32","trial","null","false","0.2,0.8","2:nogo_b","",""
"null","","html-keyboard-response","524","11455008","0.0-6.0-1.101","","<img src=""img/red-n.png"" border=""10"">","null","trial","null","","0.2,0.8","2:nogo_b","0",""
"null","","html-keyboard-response","525","11456009","0.0-6.0-2.101","","<div style=""font-size:60px;"">+</div>","null","","","","","","",""
"625.8999998569489","","image-keyboard-response","526","11456636","0.0-6.0-0.102","","img/grey.png","32","trial","null","false","0,1","4:nogo_d","",""
"null","","html-keyboard-response","527","11457638","0.0-6.0-1.102","","<img src=""img/grey-n.png"" border=""10"">","null","trial","null","","0,1","4:nogo_d","0",""
"null","","html-keyboard-response","528","11458640","0.0-6.0-2.102","","<div style=""font-size:60px;"">+</div>","null","","","","","","",""
"419","","image-keyboard-response","529","11459060","0.0-6.0-0.103","","img/pink.png","32","trial","32","true","0.8,0.2","1:go_a","",""
"null","","html-keyboard-response","530","11460062","0.0-6.0-1.103","","<img src=""img/pink-r.png"" border=""10"">","null","trial","32","","0.8,0.2","1:go_a","1",""
"null","","html-keyboard-response","531","11461063","0.0-6.0-2.103","","<div style=""font-size:60px;"">+</div>","null","","","","","","",""
"445.5","","image-keyboard-response","532","11461509","0.0-6.0-0.104","","img/grey.png","32","trial","null","false","0,1","4:nogo_d","",""
"null","","html-keyboard-response","533","11462511","0.0-6.0-1.104","","<img src=""img/grey-n.png"" border=""10"">","null","trial","null","","0,1","4:nogo_d","0",""
"null","","html-keyboard-response","534","11463514","0.0-6.0-2.104","","<div style=""font-size:60px;"">+</div>","null","","","","","","",""
"609.7999999523163","","image-keyboard-response","535","11464125","0.0-6.0-0.105","","img/red.png","32","trial","null","false","0.2,0.8","2:nogo_b","",""
"null","","html-keyboard-response","536","11465127","0.0-6.0-1.105","","<img src=""img/red-n.png"" border=""10"">","null","trial","null","","0.2,0.8","2:nogo_b","0",""
"null","","html-keyboard-response","537","11466130","0.0-6.0-2.105","","<div style=""font-size:60px;"">+</div>","null","","","","","","",""
"615.7000000476837","","image-keyboard-response","538","11466746","0.0-6.0-0.106","","img/orange.png","32","trial","32","true","1,0","3:go_c","",""
"null","","html-keyboard-response","539","11467750","0.0-6.0-1.106","","<img src=""img/orange-r.png"" border=""10"">","null","trial","32","","1,0","3:go_c","1",""
"null","","html-keyboard-response","540","11468752","0.0-6.0-2.106","","<div style=""font-size:60px;"">+</div>","null","","","","","","",""
"516.7000000476837","","image-keyboard-response","541","11469270","0.0-6.0-0.107","","img/pink.png","32","trial","32","true","0.8,0.2","1:go_a","",""
"null","","html-keyboard-response","542","11470273","0.0-6.0-1.107","","<img src=""img/pink-r.png"" border=""10"">","null","trial","32","","0.8,0.2","1:go_a","1",""
"null","","html-keyboard-response","543","11471275","0.0-6.0-2.107","","<div style=""font-size:60px;"">+</div>","null","","","","","","",""
"524.2999999523163","","image-keyboard-response","544","11471800","0.0-6.0-0.108","","img/red.png","32","trial","null","false","0.2,0.8","2:nogo_b","",""
"null","","html-keyboard-response","545","11472802","0.0-6.0-1.108","","<img src=""img/red-n.png"" border=""10"">","null","trial","null","","0.2,0.8","2:nogo_b","0",""
"null","","html-keyboard-response","546","11473804","0.0-6.0-2.108","","<div style=""font-size:60px;"">+</div>","null","","","","","","",""
"580.1000001430511","","image-keyboard-response","547","11474385","0.0-6.0-0.109","","img/orange.png","32","trial","32","true","1,0","3:go_c","",""
"null","","html-keyboard-response","548","11475387","0.0-6.0-1.109","","<img src=""img/orange-r.png"" border=""10"">","null","trial","32","","1,0","3:go_c","1",""
"null","","html-keyboard-response","549","11476388","0.0-6.0-2.109","","<div style=""font-size:60px;"">+</div>","null","","","","","","",""
"654.5999999046326","","image-keyboard-response","550","11477043","0.0-6.0-0.110","","img/grey.png","32","trial","null","false","0,1","4:nogo_d","",""
"null","","html-keyboard-response","551","11478045","0.0-6.0-1.110","","<img src=""img/grey-n.png"" border=""10"">","null","trial","null","","0,1","4:nogo_d","0",""
"null","","html-keyboard-response","552","11479046","0.0-6.0-2.110","","<div style=""font-size:60px;"">+</div>","null","","","","","","",""
"473.59999990463257","","image-keyboard-response","553","11479521","0.0-6.0-0.111","","img/pink.png","32","trial","32","true","0.8,0.2","1:go_a","",""
"null","","html-keyboard-response","554","11480523","0.0-6.0-1.111","","<img src=""img/pink-r.png"" border=""10"">","null","trial","32","","0.8,0.2","1:go_a","1",""
"null","","html-keyboard-response","555","11481524","0.0-6.0-2.111","","<div style=""font-size:60px;"">+</div>","null","","","","","","",""
"612.0999999046326","","image-keyboard-response","556","11482137","0.0-6.0-0.112","","img/grey.png","32","trial","null","false","0,1","4:nogo_d","",""
"null","","html-keyboard-response","557","11483139","0.0-6.0-1.112","","<img src=""img/grey-n.png"" border=""10"">","null","trial","null","","0,1","4:nogo_d","0",""
"null","","html-keyboard-response","558","11484141","0.0-6.0-2.112","","<div style=""font-size:60px;"">+</div>","null","","","","","","",""
"487.59999990463257","","image-keyboard-response","559","11484629","0.0-6.0-0.113","","img/orange.png","32","trial","32","true","1,0","3:go_c","",""
"null","","html-keyboard-response","560","11485630","0.0-6.0-1.113","","<img src=""img/orange-r.png"" border=""10"">","null","trial","32","","1,0","3:go_c","1",""
"null","","html-keyboard-response","561","11486633","0.0-6.0-2.113","","<div style=""font-size:60px;"">+</div>","null","","","","","","",""
"958.1000001430511","","image-keyboard-response","562","11487593","0.0-6.0-0.114","","img/pink.png","32","trial","32","true","0.8,0.2","1:go_a","",""
"null","","html-keyboard-response","563","11488594","0.0-6.0-1.114","","<img src=""img/pink-r.png"" border=""10"">","null","trial","32","","0.8,0.2","1:go_a","1",""
"null","","html-keyboard-response","564","11489597","0.0-6.0-2.114","","<div style=""font-size:60px;"">+</div>","null","","","","","","",""
"null","","image-keyboard-response","565","11491099","0.0-6.0-0.115","","img/red.png","null","trial","null","true","0.2,0.8","2:nogo_b","",""
"null","","html-keyboard-response","566","11492101","0.0-6.0-1.115","","<img src=""img/red-r.png"">","null","trial","null","","0.2,0.8","2:nogo_b","1",""
"null","","html-keyboard-response","567","11493104","0.0-6.0-2.115","","<div style=""font-size:60px;"">+</div>","null","","","","","","",""
"492.2000000476837","","image-keyboard-response","568","11493598","0.0-6.0-0.116","","img/pink.png","32","trial","32","true","0.8,0.2","1:go_a","",""
"null","","html-keyboard-response","569","11494600","0.0-6.0-1.116","","<img src=""img/pink-r.png"" border=""10"">","null","trial","32","","0.8,0.2","1:go_a","1",""
"null","","html-keyboard-response","570","11495603","0.0-6.0-2.116","","<div style=""font-size:60px;"">+</div>","null","","","","","","",""
"612.5999999046326","","image-keyboard-response","571","11496216","0.0-6.0-0.117","","img/red.png","32","trial","null","false","0.2,0.8","2:nogo_b","",""
"null","","html-keyboard-response","572","11497219","0.0-6.0-1.117","","<img src=""img/red-n.png"" border=""10"">","null","trial","null","","0.2,0.8","2:nogo_b","0",""
"null","","html-keyboard-response","573","11498222","0.0-6.0-2.117","","<div style=""font-size:60px;"">+</div>","null","","","","","","",""
"null","","image-keyboard-response","574","11499723","0.0-6.0-0.118","","img/orange.png","null","trial","32","false","1,0","3:go_c","",""
"null","","html-keyboard-response","575","11500726","0.0-6.0-1.118","","<img src=""img/orange-n.png"">","null","trial","32","","1,0","3:go_c","0",""
"null","","html-keyboard-response","576","11501728","0.0-6.0-2.118","","<div style=""font-size:60px;"">+</div>","null","","","","","","",""
"369.90000009536743","","image-keyboard-response","577","11502100","0.0-6.0-0.119","","img/grey.png","32","trial","null","false","0,1","4:nogo_d","",""
"null","","html-keyboard-response","578","11503103","0.0-6.0-1.119","","<img src=""img/grey-n.png"" border=""10"">","null","trial","null","","0,1","4:nogo_d","0",""
"null","","html-keyboard-response","579","11504104","0.0-6.0-2.119","","<div style=""font-size:60px;"">+</div>","null","","","","","","",""
"963372.399999857","","instructions","580","12467476","0.0-7.0","[{""page_index"":0,""viewing_time"":963372.0999999046}]","","","","","","","","",""
"1174.6999998092651","","image-keyboard-response","581","12468652","0.0-8.0-0.0","","img/orange.png","32","trial","null","false","0.4,0.6","4:nogo_d","",""
"null","","html-keyboard-response","582","12469653","0.0-8.0-1.0","","<img src=""img/orange-n.png"" border=""10"">","null","trial","null","","0.4,0.6","4:nogo_d","0",""
"null","","html-keyboard-response","583","12470654","0.0-8.0-2.0","","<div style=""font-size:60px;"">+</div>","null","","","","","","",""
"536.8000001907349","","image-keyboard-response","584","12471191","0.0-8.0-0.1","","img/blue.png","32","trial","32","true","0.6,0.4","1:go_a","",""
"null","","html-keyboard-response","585","12472193","0.0-8.0-1.1","","<img src=""img/blue-r.png"" border=""10"">","null","trial","32","","0.6,0.4","1:go_a","1",""
"null","","html-keyboard-response","586","12473194","0.0-8.0-2.1","","<div style=""font-size:60px;"">+</div>","null","","","","","","",""
"473.2000000476837","","image-keyboard-response","587","12473668","0.0-8.0-0.2","","img/red.png","32","trial","null","false","0.4,0.6","2:nogo_b","",""
"null","","html-keyboard-response","588","12474671","0.0-8.0-1.2","","<img src=""img/red-n.png"" border=""10"">","null","trial","null","","0.4,0.6","2:nogo_b","0",""
"null","","html-keyboard-response","589","12475673","0.0-8.0-2.2","","<div style=""font-size:60px;"">+</div>","null","","","","","","",""
"600.7999999523163","","image-keyboard-response","590","12476274","0.0-8.0-0.3","","img/pink.png","32","trial","32","true","0.6,0.4","3:go_c","",""
"null","","html-keyboard-response","591","12477277","0.0-8.0-1.3","","<img src=""img/pink-r.png"" border=""10"">","null","trial","32","","0.6,0.4","3:go_c","1",""
"null","","html-keyboard-response","592","12478278","0.0-8.0-2.3","","<div style=""font-size:60px;"">+</div>","null","","","","","","",""
"371.7000000476837","","image-keyboard-response","593","12478650","0.0-8.0-0.4","","img/pink.png","32","trial","32","true","0.6,0.4","3:go_c","",""
"null","","html-keyboard-response","594","12479651","0.0-8.0-1.4","","<img src=""img/pink-r.png"" border=""10"">","null","trial","32","","0.6,0.4","3:go_c","1",""
"null","","html-keyboard-response","595","12480653","0.0-8.0-2.4","","<div style=""font-size:60px;"">+</div>","null","","","","","","",""
"577.5999999046326","","image-keyboard-response","596","12481232","0.0-8.0-0.5","","img/red.png","32","trial","null","false","0.4,0.6","2:nogo_b","",""
"null","","html-keyboard-response","597","12482234","0.0-8.0-1.5","","<img src=""img/red-r.png"" border=""10"">","null","trial","null","","0.4,0.6","2:nogo_b","1",""
"null","","html-keyboard-response","598","12483236","0.0-8.0-2.5","","<div style=""font-size:60px;"">+</div>","null","","","","","","",""
"610.5","","image-keyboard-response","599","12483848","0.0-8.0-0.6","","img/orange.png","32","trial","null","false","0.4,0.6","4:nogo_d","",""
"null","","html-keyboard-response","600","12484850","0.0-8.0-1.6","","<img src=""img/orange-n.png"" border=""10"">","null","trial","null","","0.4,0.6","4:nogo_d","0",""
"null","","html-keyboard-response","601","12485852","0.0-8.0-2.6","","<div style=""font-size:60px;"">+</div>","null","","","","","","",""
"774.2999999523163","","image-keyboard-response","602","12486627","0.0-8.0-0.7","","img/blue.png","32","trial","32","true","0.6,0.4","1:go_a","",""
"null","","html-keyboard-response","603","12487630","0.0-8.0-1.7","","<img src=""img/blue-r.png"" border=""10"">","null","trial","32","","0.6,0.4","1:go_a","1",""
"null","","html-keyboard-response","604","12488631","0.0-8.0-2.7","","<div style=""font-size:60px;"">+</div>","null","","","","","","",""
"null","","image-keyboard-response","605","12490134","0.0-8.0-0.8","","img/orange.png","null","trial","null","true","0.4,0.6","4:nogo_d","",""
"null","","html-keyboard-response","606","12491136","0.0-8.0-1.8","","<img src=""img/orange-r.png"">","null","trial","null","","0.4,0.6","4:nogo_d","1",""
"null","","html-keyboard-response","607","12492137","0.0-8.0-2.8","","<div style=""font-size:60px;"">+</div>","null","","","","","","",""
"849.5","","image-keyboard-response","608","12492987","0.0-8.0-0.9","","img/pink.png","32","trial","32","true","0.6,0.4","3:go_c","",""
"null","","html-keyboard-response","609","12493989","0.0-8.0-1.9","","<img src=""img/pink-n.png"" border=""10"">","null","trial","32","","0.6,0.4","3:go_c","0",""
"null","","html-keyboard-response","610","12494991","0.0-8.0-2.9","","<div style=""font-size:60px;"">+</div>","null","","","","","","",""
"null","","image-keyboard-response","611","12496493","0.0-8.0-0.10","","img/red.png","null","trial","null","true","0.4,0.6","2:nogo_b","",""
"null","","html-keyboard-response","612","12497494","0.0-8.0-1.10","","<img src=""img/red-r.png"">","null","trial","null","","0.4,0.6","2:nogo_b","1",""
"null","","html-keyboard-response","613","12498497","0.0-8.0-2.10","","<div style=""font-size:60px;"">+</div>","null","","","","","","",""
"620.0999999046326","","image-keyboard-response","614","12499118","0.0-8.0-0.11","","img/blue.png","32","trial","32","true","0.6,0.4","1:go_a","",""
"null","","html-keyboard-response","615","12500119","0.0-8.0-1.11","","<img src=""img/blue-r.png"" border=""10"">","null","trial","32","","0.6,0.4","1:go_a","1",""
"null","","html-keyboard-response","616","12501121","0.0-8.0-2.11","","<div style=""font-size:60px;"">+</div>","null","","","","","","",""
"500.09999990463257","","image-keyboard-response","617","12501621","0.0-8.0-0.12","","img/pink.png","32","trial","32","true","0.6,0.4","3:go_c","",""
"null","","html-keyboard-response","618","12502623","0.0-8.0-1.12","","<img src=""img/pink-r.png"" border=""10"">","null","trial","32","","0.6,0.4","3:go_c","1",""
"null","","html-keyboard-response","619","12503625","0.0-8.0-2.12","","<div style=""font-size:60px;"">+</div>","null","","","","","","",""
"495.89999985694885","","image-keyboard-response","620","12504122","0.0-8.0-0.13","","img/blue.png","32","trial","32","true","0.6,0.4","1:go_a","",""
"null","","html-keyboard-response","621","12505124","0.0-8.0-1.13","","<img src=""img/blue-r.png"" border=""10"">","null","trial","32","","0.6,0.4","1:go_a","1",""
"null","","html-keyboard-response","622","12506126","0.0-8.0-2.13","","<div style=""font-size:60px;"">+</div>","null","","","","","","",""
"583.5999999046326","","image-keyboard-response","623","12506710","0.0-8.0-0.14","","img/red.png","32","trial","null","false","0.4,0.6","2:nogo_b","",""
"null","","html-keyboard-response","624","12507712","0.0-8.0-1.14","","<img src=""img/red-r.png"" border=""10"">","null","trial","null","","0.4,0.6","2:nogo_b","1",""
"null","","html-keyboard-response","625","12508713","0.0-8.0-2.14","","<div style=""font-size:60px;"">+</div>","null","","","","","","",""
"407.7999999523163","","image-keyboard-response","626","12509122","0.0-8.0-0.15","","img/orange.png","32","trial","null","false","0.4,0.6","4:nogo_d","",""
"null","","html-keyboard-response","627","12510124","0.0-8.0-1.15","","<img src=""img/orange-r.png"" border=""10"">","null","trial","null","","0.4,0.6","4:nogo_d","1",""
"null","","html-keyboard-response","628","12511125","0.0-8.0-2.15","","<div style=""font-size:60px;"">+</div>","null","","","","","","",""
"445.2999999523163","","image-keyboard-response","629","12511572","0.0-8.0-0.16","","img/orange.png","32","trial","null","false","0.4,0.6","4:nogo_d","",""
"null","","html-keyboard-response","630","12512574","0.0-8.0-1.16","","<img src=""img/orange-n.png"" border=""10"">","null","trial","null","","0.4,0.6","4:nogo_d","0",""
"null","","html-keyboard-response","631","12513575","0.0-8.0-2.16","","<div style=""font-size:60px;"">+</div>","null","","","","","","",""
"1066.2999999523163","","image-keyboard-response","632","12514643","0.0-8.0-0.17","","img/pink.png","32","trial","32","true","0.6,0.4","3:go_c","",""
"null","","html-keyboard-response","633","12515645","0.0-8.0-1.17","","<img src=""img/pink-r.png"" border=""10"">","null","trial","32","","0.6,0.4","3:go_c","1",""
"null","","html-keyboard-response","634","12516646","0.0-8.0-2.17","","<div style=""font-size:60px;"">+</div>","null","","","","","","",""
"630.2000000476837","","image-keyboard-response","635","12517277","0.0-8.0-0.18","","img/red.png","32","trial","null","false","0.4,0.6","2:nogo_b","",""
"null","","html-keyboard-response","636","12518280","0.0-8.0-1.18","","<img src=""img/red-r.png"" border=""10"">","null","trial","null","","0.4,0.6","2:nogo_b","1",""
"null","","html-keyboard-response","637","12519282","0.0-8.0-2.18","","<div style=""font-size:60px;"">+</div>","null","","","","","","",""
"595.0999999046326","","image-keyboard-response","638","12519878","0.0-8.0-0.19","","img/blue.png","32","trial","32","true","0.6,0.4","1:go_a","",""
"null","","html-keyboard-response","639","12520881","0.0-8.0-1.19","","<img src=""img/blue-r.png"" border=""10"">","null","trial","32","","0.6,0.4","1:go_a","1",""
"null","","html-keyboard-response","640","12521883","0.0-8.0-2.19","","<div style=""font-size:60px;"">+</div>","null","","","","","","",""
"474.2000000476837","","image-keyboard-response","641","12522357","0.0-8.0-0.20","","img/pink.png","32","trial","32","true","0.6,0.4","3:go_c","",""
"null","","html-keyboard-response","642","12523359","0.0-8.0-1.20","","<img src=""img/pink-r.png"" border=""10"">","null","trial","32","","0.6,0.4","3:go_c","1",""
"null","","html-keyboard-response","643","12524360","0.0-8.0-2.20","","<div style=""font-size:60px;"">+</div>","null","","","","","","",""
"821.2999999523163","","image-keyboard-response","644","12525182","0.0-8.0-0.21","","img/red.png","32","trial","null","false","0.4,0.6","2:nogo_b","",""
"null","","html-keyboard-response","645","12526186","0.0-8.0-1.21","","<img src=""img/red-r.png"" border=""10"">","null","trial","null","","0.4,0.6","2:nogo_b","1",""
"null","","html-keyboard-response","646","12527188","0.0-8.0-2.21","","<div style=""font-size:60px;"">+</div>","null","","","","","","",""
"489.59999990463257","","image-keyboard-response","647","12527678","0.0-8.0-0.22","","img/blue.png","32","trial","32","true","0.6,0.4","1:go_a","",""
"null","","html-keyboard-response","648","12528680","0.0-8.0-1.22","","<img src=""img/blue-r.png"" border=""10"">","null","trial","32","","0.6,0.4","1:go_a","1",""
"null","","html-keyboard-response","649","12529681","0.0-8.0-2.22","","<div style=""font-size:60px;"">+</div>","null","","","","","","",""
"583.2999999523163","","image-keyboard-response","650","12530265","0.0-8.0-0.23","","img/orange.png","32","trial","null","false","0.4,0.6","4:nogo_d","",""
"null","","html-keyboard-response","651","12531267","0.0-8.0-1.23","","<img src=""img/orange-r.png"" border=""10"">","null","trial","null","","0.4,0.6","4:nogo_d","1",""
"null","","html-keyboard-response","652","12532269","0.0-8.0-2.23","","<div style=""font-size:60px;"">+</div>","null","","","","","","",""
"564.0999999046326","","image-keyboard-response","653","12532834","0.0-8.0-0.24","","img/blue.png","32","trial","32","true","0.6,0.4","1:go_a","",""
"null","","html-keyboard-response","654","12533837","0.0-8.0-1.24","","<img src=""img/blue-r.png"" border=""10"">","null","trial","32","","0.6,0.4","1:go_a","1",""
"null","","html-keyboard-response","655","12534840","0.0-8.0-2.24","","<div style=""font-size:60px;"">+</div>","null","","","","","","",""
"709.2000000476837","","image-keyboard-response","656","12535550","0.0-8.0-0.25","","img/orange.png","32","trial","null","false","0.4,0.6","4:nogo_d","",""
"null","","html-keyboard-response","657","12536552","0.0-8.0-1.25","","<img src=""img/orange-n.png"" border=""10"">","null","trial","null","","0.4,0.6","4:nogo_d","0",""
"null","","html-keyboard-response","658","12537554","0.0-8.0-2.25","","<div style=""font-size:60px;"">+</div>","null","","","","","","",""
"596.8999998569489","","image-keyboard-response","659","12538152","0.0-8.0-0.26","","img/pink.png","32","trial","32","true","0.6,0.4","3:go_c","",""
"null","","html-keyboard-response","660","12539154","0.0-8.0-1.26","","<img src=""img/pink-n.png"" border=""10"">","null","trial","32","","0.6,0.4","3:go_c","0",""
"null","","html-keyboard-response","661","12540156","0.0-8.0-2.26","","<div style=""font-size:60px;"">+</div>","null","","","","","","",""
"570.0999999046326","","image-keyboard-response","662","12540727","0.0-8.0-0.27","","img/red.png","32","trial","null","false","0.4,0.6","2:nogo_b","",""
"null","","html-keyboard-response","663","12541729","0.0-8.0-1.27","","<img src=""img/red-r.png"" border=""10"">","null","trial","null","","0.4,0.6","2:nogo_b","1",""
"null","","html-keyboard-response","664","12542730","0.0-8.0-2.27","","<div style=""font-size:60px;"">+</div>","null","","","","","","",""
"446.09999990463257","","image-keyboard-response","665","12543177","0.0-8.0-0.28","","img/blue.png","32","trial","32","true","0.6,0.4","1:go_a","",""
"null","","html-keyboard-response","666","12544178","0.0-8.0-1.28","","<img src=""img/blue-r.png"" border=""10"">","null","trial","32","","0.6,0.4","1:go_a","1",""
"null","","html-keyboard-response","667","12545179","0.0-8.0-2.28","","<div style=""font-size:60px;"">+</div>","null","","","","","","",""
"607.6000001430511","","image-keyboard-response","668","12545788","0.0-8.0-0.29","","img/orange.png","32","trial","null","false","0.4,0.6","4:nogo_d","",""
"null","","html-keyboard-response","669","12546790","0.0-8.0-1.29","","<img src=""img/orange-r.png"" border=""10"">","null","trial","null","","0.4,0.6","4:nogo_d","1",""
"null","","html-keyboard-response","670","12547791","0.0-8.0-2.29","","<div style=""font-size:60px;"">+</div>","null","","","","","","",""
"705","","image-keyboard-response","671","12548498","0.0-8.0-0.30","","img/pink.png","32","trial","32","true","0.6,0.4","3:go_c","",""
"null","","html-keyboard-response","672","12549501","0.0-8.0-1.30","","<img src=""img/pink-n.png"" border=""10"">","null","trial","32","","0.6,0.4","3:go_c","0",""
