"rt","url","trial_type","trial_index","time_elapsed","internal_node_id","view_history","stimulus","key_press","test_part","correct_response","correct","use_rew","which_stim","reward","responses"
"2951.7999999970198","consent.html","external-html","0","3079","0.0-0.0","","","","","","","","","",""
"65726.19999998808","","instructions","1","68804","0.0-1.0","[{""page_index"":0,""viewing_time"":3779.2999999970198},{""page_index"":1,""viewing_time"":24665},{""page_index"":2,""viewing_time"":5024.20000000298},{""page_index"":3,""viewing_time"":15304},{""page_index"":4,""viewing_time"":6471.699999988079},{""page_index"":5,""viewing_time"":6640.4000000059605},{""page_index"":6,""viewing_time"":3839.9000000059605}]","","","","","","","","",""
"null","","image-keyboard-response","2","70311","0.0-2.0-0.0","","img/test2.PNG","null","practice","null","true","","","",""
"null","","html-keyboard-response","3","71321","0.0-2.0-1.0","","<img src=""img/test2-reward.PNG"">","null","","","","","","",""
"null","","html-keyboard-response","4","72324","0.0-2.0-2.0","","<div style=""font-size:60px;"">+</div>","null","","","","","","",""
"428.40000000596046","","image-keyboard-response","5","72754","0.0-2.0-0.1","","img/test3.PNG","32","practice","null","false","","","",""
"null","","html-keyboard-response","6","73765","0.0-2.0-1.1","","<img src=""img/test3-neutral.PNG"" border=""10px; grey"">","null","","","","","","",""
"null","","html-keyboard-response","7","74779","0.0-2.0-2.1","","<div style=""font-size:60px;"">+</div>","null","","","","","","",""
"576.8999999910593","","image-keyboard-response","8","75357","0.0-2.0-0.2","","img/test1.PNG","32","practice","32","true","","","",""
"null","","html-keyboard-response","9","76364","0.0-2.0-1.2","","<img src=""img/test1-reward.PNG"" border=""10px; grey"">","null","","","","","","",""
"null","","html-keyboard-response","10","77372","0.0-2.0-2.2","","<div style=""font-size:60px;"">+</div>","null","","","","","","",""
"551.4000000059605","","image-keyboard-response","11","77926","0.0-2.0-0.3","","img/test1.PNG","32","practice","32","true","","","",""
"null","","html-keyboard-response","12","78942","0.0-2.0-1.3","","<img src=""img/test1-reward.PNG"" border=""10px; grey"">","null","","","","","","",""
"null","","html-keyboard-response","13","79959","0.0-2.0-2.3","","<div style=""font-size:60px;"">+</div>","null","","","","","","",""
"null","","image-keyboard-response","14","81475","0.0-2.0-0.4","","img/test3.PNG","null","practice","null","true","","","",""
"null","","html-keyboard-response","15","82493","0.0-2.0-1.4","","<img src=""img/test3-reward.PNG"">","null","","","","","","",""
"null","","html-keyboard-response","16","83500","0.0-2.0-2.4","","<div style=""font-size:60px;"">+</div>","null","","","","","","",""
"1077.7999999970198","","image-keyboard-response","17","84580","0.0-2.0-0.5","","img/test2.PNG","32","practice","null","false","","","",""
"null","","html-keyboard-response","18","85594","0.0-2.0-1.5","","<img src=""img/test2-neutral.PNG"" border=""10px; grey"">","null","","","","","","",""
"null","","html-keyboard-response","19","86608","0.0-2.0-2.5","","<div style=""font-size:60px;"">+</div>","null","","","","","","",""
"401.5","","image-keyboard-response","20","87010","0.0-2.0-0.6","","img/test3.PNG","32","practice","null","false","","","",""
"null","","html-keyboard-response","21","88022","0.0-2.0-1.6","","<img src=""img/test3-neutral.PNG"" border=""10px; grey"">","null","","","","","","",""
"null","","html-keyboard-response","22","89034","0.0-2.0-2.6","","<div style=""font-size:60px;"">+</div>","null","","","","","","",""
"null","","image-keyboard-response","23","90537","0.0-2.0-0.7","","img/test2.PNG","null","practice","null","true","","","",""
"null","","html-keyboard-response","24","91548","0.0-2.0-1.7","","<img src=""img/test2-reward.PNG"">","null","","","","","","",""
"null","","html-keyboard-response","25","92564","0.0-2.0-2.7","","<div style=""font-size:60px;"">+</div>","null","","","","","","",""
"572.0999999940395","","image-keyboard-response","26","93138","0.0-2.0-0.8","","img/test1.PNG","32","practice","32","true","","","",""
"null","","html-keyboard-response","27","94145","0.0-2.0-1.8","","<img src=""img/test1-reward.PNG"" border=""10px; grey"">","null","","","","","","",""
"null","","html-keyboard-response","28","95154","0.0-2.0-2.8","","<div style=""font-size:60px;"">+</div>","null","","","","","","",""
"null","","image-keyboard-response","29","96671","0.0-2.0-0.9","","img/test3.PNG","null","practice","null","true","","","",""
"null","","html-keyboard-response","30","97682","0.0-2.0-1.9","","<img src=""img/test3-reward.PNG"">","null","","","","","","",""
"null","","html-keyboard-response","31","98685","0.0-2.0-2.9","","<div style=""font-size:60px;"">+</div>","null","","","","","","",""
"514.2999999970198","","image-keyboard-response","32","99200","0.0-2.0-0.10","","img/test1.PNG","32","practice","32","true","","","",""
"null","","html-keyboard-response","33","100209","0.0-2.0-1.10","","<img src=""img/test1-reward.PNG"" border=""10px; grey"">","null","","","","","","",""
"null","","html-keyboard-response","34","101222","0.0-2.0-2.10","","<div style=""font-size:60px;"">+</div>","null","","","","","","",""
"472.90000000596046","","image-keyboard-response","35","101696","0.0-2.0-0.11","","img/test2.PNG","32","practice","null","false","","","",""
"null","","html-keyboard-response","36","102710","0.0-2.0-1.11","","<img src=""img/test2-neutral.PNG"" border=""10px; grey"">","null","","","","","","",""
"null","","html-keyboard-response","37","103716","0.0-2.0-2.11","","<div style=""font-size:60px;"">+</div>","null","","","","","","",""
"3031.2999999970198","","instructions","38","106747","0.0-3.0","[{""page_index"":0,""viewing_time"":3030.9000000059605}]","","","","","","","","",""
"null","","image-keyboard-response","39","108251","0.0-4.0-0.0","","img/red.png","null","trial","null","true","0.2,0.8","2:nogo_b","",""
"null","","html-keyboard-response","40","109260","0.0-4.0-1.0","","<img src=""img/red-r.png"">","null","trial","null","","0.2,0.8","2:nogo_b","1",""
"null","","html-keyboard-response","41","110273","0.0-4.0-2.0","","<div style=""font-size:60px;"">+</div>","null","","","","","","",""
"502.79999999701977","","image-keyboard-response","42","110777","0.0-4.0-0.1","","img/purple.png","32","trial","32","true","0.8,0.2","1:go_a","",""
"null","","html-keyboard-response","43","111793","0.0-4.0-1.1","","<img src=""img/purple-r.png"" border=""10"">","null","trial","32","","0.8,0.2","1:go_a","1",""
"null","","html-keyboard-response","44","112803","0.0-4.0-2.1","","<div style=""font-size:60px;"">+</div>","null","","","","","","",""
"834.8000000119209","","image-keyboard-response","45","113640","0.0-4.0-0.2","","img/red.png","32","trial","null","false","0.2,0.8","2:nogo_b","",""
"null","","html-keyboard-response","46","114650","0.0-4.0-1.2","","<img src=""img/red-r.png"" border=""10"">","null","trial","null","","0.2,0.8","2:nogo_b","1",""
"null","","html-keyboard-response","47","115660","0.0-4.0-2.2","","<div style=""font-size:60px;"">+</div>","null","","","","","","",""
"null","","image-keyboard-response","48","117184","0.0-4.0-0.3","","img/purple.png","null","trial","32","false","0.8,0.2","1:go_a","",""
"null","","html-keyboard-response","49","118187","0.0-4.0-1.3","","<img src=""img/purple-r.png"">","null","trial","32","","0.8,0.2","1:go_a","1",""
"null","","html-keyboard-response","50","119198","0.0-4.0-2.3","","<div style=""font-size:60px;"">+</div>","null","","","","","","",""
"485.80000001192093","","image-keyboard-response","51","119685","0.0-4.0-0.4","","img/red.png","32","trial","null","false","0.2,0.8","2:nogo_b","",""
"null","","html-keyboard-response","52","120703","0.0-4.0-1.4","","<img src=""img/red-n.png"" border=""10"">","null","trial","null","","0.2,0.8","2:nogo_b","0",""
"null","","html-keyboard-response","53","121708","0.0-4.0-2.4","","<div style=""font-size:60px;"">+</div>","null","","","","","","",""
"459.8999999910593","","image-keyboard-response","54","122169","0.0-4.0-0.5","","img/purple.png","32","trial","32","true","0.8,0.2","1:go_a","",""
"null","","html-keyboard-response","55","123172","0.0-4.0-1.5","","<img src=""img/purple-r.png"" border=""10"">","null","trial","32","","0.8,0.2","1:go_a","1",""
"null","","html-keyboard-response","56","124186","0.0-4.0-2.5","","<div style=""font-size:60px;"">+</div>","null","","","","","","",""
"760.5","","image-keyboard-response","57","124947","0.0-4.0-0.6","","img/red.png","32","trial","null","false","0.2,0.8","2:nogo_b","",""
"null","","html-keyboard-response","58","125958","0.0-4.0-1.6","","<img src=""img/red-n.png"" border=""10"">","null","trial","null","","0.2,0.8","2:nogo_b","0",""
"null","","html-keyboard-response","59","126968","0.0-4.0-2.6","","<div style=""font-size:60px;"">+</div>","null","","","","","","",""
"842.5","","image-keyboard-response","60","127812","0.0-4.0-0.7","","img/purple.png","32","trial","32","true","0.8,0.2","1:go_a","",""
"null","","html-keyboard-response","61","128818","0.0-4.0-1.7","","<img src=""img/purple-r.png"" border=""10"">","null","trial","32","","0.8,0.2","1:go_a","1",""
"null","","html-keyboard-response","62","129826","0.0-4.0-2.7","","<div style=""font-size:60px;"">+</div>","null","","","","","","",""
"null","","image-keyboard-response","63","131337","0.0-4.0-0.8","","img/red.png","null","trial","null","true","0.2,0.8","2:nogo_b","",""
"null","","html-keyboard-response","64","132348","0.0-4.0-1.8","","<img src=""img/red-r.png"">","null","trial","null","","0.2,0.8","2:nogo_b","1",""
"null","","html-keyboard-response","65","133356","0.0-4.0-2.8","","<div style=""font-size:60px;"">+</div>","null","","","","","","",""
"678.2000000029802","","image-keyboard-response","66","134036","0.0-4.0-0.9","","img/purple.png","32","trial","32","true","0.8,0.2","1:go_a","",""
"null","","html-keyboard-response","67","135045","0.0-4.0-1.9","","<img src=""img/purple-r.png"" border=""10"">","null","trial","32","","0.8,0.2","1:go_a","1",""
"null","","html-keyboard-response","68","136057","0.0-4.0-2.9","","<div style=""font-size:60px;"">+</div>","null","","","","","","",""
"641.5999999940395","","image-keyboard-response","69","136699","0.0-4.0-0.10","","img/purple.png","32","trial","32","true","0.8,0.2","1:go_a","",""
"null","","html-keyboard-response","70","137712","0.0-4.0-1.10","","<img src=""img/purple-r.png"" border=""10"">","null","trial","32","","0.8,0.2","1:go_a","1",""
"null","","html-keyboard-response","71","138716","0.0-4.0-2.10","","<div style=""font-size:60px;"">+</div>","null","","","","","","",""
"835.2999999970198","","image-keyboard-response","72","139553","0.0-4.0-0.11","","img/red.png","32","trial","null","false","0.2,0.8","2:nogo_b","",""
"null","","html-keyboard-response","73","140564","0.0-4.0-1.11","","<img src=""img/red-n.png"" border=""10"">","null","trial","null","","0.2,0.8","2:nogo_b","0",""
"null","","html-keyboard-response","74","141577","0.0-4.0-2.11","","<div style=""font-size:60px;"">+</div>","null","","","","","","",""
"501","","image-keyboard-response","75","142079","0.0-4.0-0.12","","img/red.png","32","trial","null","false","0.2,0.8","2:nogo_b","",""
"null","","html-keyboard-response","76","143093","0.0-4.0-1.12","","<img src=""img/red-n.png"" border=""10"">","null","trial","null","","0.2,0.8","2:nogo_b","0",""
"null","","html-keyboard-response","77","144104","0.0-4.0-2.12","","<div style=""font-size:60px;"">+</div>","null","","","","","","",""
"864.5999999940395","","image-keyboard-response","78","144970","0.0-4.0-0.13","","img/purple.png","32","trial","32","true","0.8,0.2","1:go_a","",""
"null","","html-keyboard-response","79","145984","0.0-4.0-1.13","","<img src=""img/purple-r.png"" border=""10"">","null","trial","32","","0.8,0.2","1:go_a","1",""
"null","","html-keyboard-response","80","146988","0.0-4.0-2.13","","<div style=""font-size:60px;"">+</div>","null","","","","","","",""
"null","","image-keyboard-response","81","148501","0.0-4.0-0.14","","img/red.png","null","trial","null","true","0.2,0.8","2:nogo_b","",""
"null","","html-keyboard-response","82","149510","0.0-4.0-1.14","","<img src=""img/red-r.png"">","null","trial","null","","0.2,0.8","2:nogo_b","1",""
"null","","html-keyboard-response","83","150519","0.0-4.0-2.14","","<div style=""font-size:60px;"">+</div>","null","","","","","","",""
"805","","image-keyboard-response","84","151326","0.0-4.0-0.15","","img/purple.png","32","trial","32","true","0.8,0.2","1:go_a","",""
"null","","html-keyboard-response","85","152330","0.0-4.0-1.15","","<img src=""img/purple-r.png"" border=""10"">","null","trial","32","","0.8,0.2","1:go_a","1",""
"null","","html-keyboard-response","86","153341","0.0-4.0-2.15","","<div style=""font-size:60px;"">+</div>","null","","","","","","",""
"null","","image-keyboard-response","87","154844","0.0-4.0-0.16","","img/red.png","null","trial","null","true","0.2,0.8","2:nogo_b","",""
"null","","html-keyboard-response","88","155860","0.0-4.0-1.16","","<img src=""img/red-r.png"">","null","trial","null","","0.2,0.8","2:nogo_b","1",""
"null","","html-keyboard-response","89","156862","0.0-4.0-2.16","","<div style=""font-size:60px;"">+</div>","null","","","","","","",""
"473.6000000089407","","image-keyboard-response","90","157337","0.0-4.0-0.17","","img/purple.png","32","trial","32","true","0.8,0.2","1:go_a","",""
"null","","html-keyboard-response","91","158347","0.0-4.0-1.17","","<img src=""img/purple-r.png"" border=""10"">","null","trial","32","","0.8,0.2","1:go_a","1",""
"null","","html-keyboard-response","92","159359","0.0-4.0-2.17","","<div style=""font-size:60px;"">+</div>","null","","","","","","",""
"708.0999999940395","","image-keyboard-response","93","160068","0.0-4.0-0.18","","img/purple.png","32","trial","32","true","0.8,0.2","1:go_a","",""
"null","","html-keyboard-response","94","161081","0.0-4.0-1.18","","<img src=""img/purple-r.png"" border=""10"">","null","trial","32","","0.8,0.2","1:go_a","1",""
"null","","html-keyboard-response","95","162086","0.0-4.0-2.18","","<div style=""font-size:60px;"">+</div>","null","","","","","","",""
"null","","image-keyboard-response","96","163591","0.0-4.0-0.19","","img/red.png","null","trial","null","true","0.2,0.8","2:nogo_b","",""
"null","","html-keyboard-response","97","164603","0.0-4.0-1.19","","<img src=""img/red-r.png"">","null","trial","null","","0.2,0.8","2:nogo_b","1",""
"null","","html-keyboard-response","98","165616","0.0-4.0-2.19","","<div style=""font-size:60px;"">+</div>","null","","","","","","",""
"385.20000000298023","","image-keyboard-response","99","166002","0.0-4.0-0.20","","img/purple.png","32","trial","32","true","0.8,0.2","1:go_a","",""
"null","","html-keyboard-response","100","167028","0.0-4.0-1.20","","<img src=""img/purple-r.png"" border=""10"">","null","trial","32","","0.8,0.2","1:go_a","1",""
"null","","html-keyboard-response","101","168041","0.0-4.0-2.20","","<div style=""font-size:60px;"">+</div>","null","","","","","","",""
"732.2999999970198","","image-keyboard-response","102","168774","0.0-4.0-0.21","","img/red.png","32","trial","null","false","0.2,0.8","2:nogo_b","",""
"null","","html-keyboard-response","103","169784","0.0-4.0-1.21","","<img src=""img/red-r.png"" border=""10"">","null","trial","null","","0.2,0.8","2:nogo_b","1",""
"null","","html-keyboard-response","104","170799","0.0-4.0-2.21","","<div style=""font-size:60px;"">+</div>","null","","","","","","",""
"823.5","","image-keyboard-response","105","171624","0.0-4.0-0.22","","img/purple.png","32","trial","32","true","0.8,0.2","1:go_a","",""
"null","","html-keyboard-response","106","172632","0.0-4.0-1.22","","<img src=""img/purple-r.png"" border=""10"">","null","trial","32","","0.8,0.2","1:go_a","1",""
"null","","html-keyboard-response","107","173644","0.0-4.0-2.22","","<div style=""font-size:60px;"">+</div>","null","","","","","","",""
"null","","image-keyboard-response","108","175158","0.0-4.0-0.23","","img/red.png","null","trial","null","true","0.2,0.8","2:nogo_b","",""
"null","","html-keyboard-response","109","176164","0.0-4.0-1.23","","<img src=""img/red-r.png"">","null","trial","null","","0.2,0.8","2:nogo_b","1",""
"null","","html-keyboard-response","110","177169","0.0-4.0-2.23","","<div style=""font-size:60px;"">+</div>","null","","","","","","",""
"532.2000000029802","","image-keyboard-response","111","177702","0.0-4.0-0.24","","img/purple.png","32","trial","32","true","0.8,0.2","1:go_a","",""
"null","","html-keyboard-response","112","178719","0.0-4.0-1.24","","<img src=""img/purple-r.png"" border=""10"">","null","trial","32","","0.8,0.2","1:go_a","1",""
"null","","html-keyboard-response","113","179722","0.0-4.0-2.24","","<div style=""font-size:60px;"">+</div>","null","","","","","","",""
"null","","image-keyboard-response","114","181237","0.0-4.0-0.25","","img/red.png","null","trial","null","true","0.2,0.8","2:nogo_b","",""
"null","","html-keyboard-response","115","182247","0.0-4.0-1.25","","<img src=""img/red-r.png"">","null","trial","null","","0.2,0.8","2:nogo_b","1",""
"null","","html-keyboard-response","116","183249","0.0-4.0-2.25","","<div style=""font-size:60px;"">+</div>","null","","","","","","",""
"669.5","","image-keyboard-response","117","183920","0.0-4.0-0.26","","img/purple.png","32","trial","32","true","0.8,0.2","1:go_a","",""
"null","","html-keyboard-response","118","184927","0.0-4.0-1.26","","<img src=""img/purple-n.png"" border=""10"">","null","trial","32","","0.8,0.2","1:go_a","0",""
"null","","html-keyboard-response","119","185943","0.0-4.0-2.26","","<div style=""font-size:60px;"">+</div>","null","","","","","","",""
"523.2000000029802","","image-keyboard-response","120","186467","0.0-4.0-0.27","","img/red.png","32","trial","null","false","0.2,0.8","2:nogo_b","",""
"null","","html-keyboard-response","121","187484","0.0-4.0-1.27","","<img src=""img/red-n.png"" border=""10"">","null","trial","null","","0.2,0.8","2:nogo_b","0",""
"null","","html-keyboard-response","122","188497","0.0-4.0-2.27","","<div style=""font-size:60px;"">+</div>","null","","","","","","",""
"null","","image-keyboard-response","123","190002","0.0-4.0-0.28","","img/red.png","null","trial","null","true","0.2,0.8","2:nogo_b","",""
"null","","html-keyboard-response","124","191015","0.0-4.0-1.28","","<img src=""img/red-r.png"">","null","trial","null","","0.2,0.8","2:nogo_b","1",""
"null","","html-keyboard-response","125","192018","0.0-4.0-2.28","","<div style=""font-size:60px;"">+</div>","null","","","","","","",""
"555.0999999940395","","image-keyboard-response","126","192575","0.0-4.0-0.29","","img/purple.png","32","trial","32","true","0.8,0.2","1:go_a","",""
"null","","html-keyboard-response","127","193583","0.0-4.0-1.29","","<img src=""img/purple-n.png"" border=""10"">","null","trial","32","","0.8,0.2","1:go_a","0",""
"null","","html-keyboard-response","128","194588","0.0-4.0-2.29","","<div style=""font-size:60px;"">+</div>","null","","","","","","",""
"416.69999998807907","","image-keyboard-response","129","195006","0.0-4.0-0.30","","img/red.png","32","trial","null","false","0.2,0.8","2:nogo_b","",""
"null","","html-keyboard-response","130","196017","0.0-4.0-1.30","","<img src=""img/red-n.png"" border=""10"">","null","trial","null","","0.2,0.8","2:nogo_b","0",""
"null","","html-keyboard-response","131","197020","0.0-4.0-2.30","","<div style=""font-size:60px;"">+</div>","null","","","","","","",""
"896.8999999910593","","image-keyboard-response","132","197918","0.0-4.0-0.31","","img/purple.png","32","trial","32","true","0.8,0.2","1:go_a","",""
"null","","html-keyboard-response","133","198921","0.0-4.0-1.31","","<img src=""img/purple-r.png"" border=""10"">","null","trial","32","","0.8,0.2","1:go_a","1",""
"null","","html-keyboard-response","134","199932","0.0-4.0-2.31","","<div style=""font-size:60px;"">+</div>","null","","","","","","",""
"921.0999999940395","","image-keyboard-response","135","200855","0.0-4.0-0.32","","img/purple.png","32","trial","32","true","0.8,0.2","1:go_a","",""
"null","","html-keyboard-response","136","201864","0.0-4.0-1.32","","<img src=""img/purple-r.png"" border=""10"">","null","trial","32","","0.8,0.2","1:go_a","1",""
"null","","html-keyboard-response","137","202871","0.0-4.0-2.32","","<div style=""font-size:60px;"">+</div>","null","","","","","","",""
"645.7999999970198","","image-keyboard-response","138","203518","0.0-4.0-0.33","","img/red.png","32","trial","null","false","0.2,0.8","2:nogo_b","",""
"null","","html-keyboard-response","139","204520","0.0-4.0-1.33","","<img src=""img/red-r.png"" border=""10"">","null","trial","null","","0.2,0.8","2:nogo_b","1",""
"null","","html-keyboard-response","140","205528","0.0-4.0-2.33","","<div style=""font-size:60px;"">+</div>","null","","","","","","",""
"622.6000000089407","","image-keyboard-response","141","206152","0.0-4.0-0.34","","img/red.png","32","trial","null","false","0.2,0.8","2:nogo_b","",""
"null","","html-keyboard-response","142","207165","0.0-4.0-1.34","","<img src=""img/red-n.png"" border=""10"">","null","trial","null","","0.2,0.8","2:nogo_b","0",""
"null","","html-keyboard-response","143","208187","0.0-4.0-2.34","","<div style=""font-size:60px;"">+</div>","null","","","","","","",""
"406.40000000596046","","image-keyboard-response","144","208595","0.0-4.0-0.35","","img/purple.png","32","trial","32","true","0.8,0.2","1:go_a","",""
"null","","html-keyboard-response","145","209607","0.0-4.0-1.35","","<img src=""img/purple-r.png"" border=""10"">","null","trial","32","","0.8,0.2","1:go_a","1",""
"null","","html-keyboard-response","146","210619","0.0-4.0-2.35","","<div style=""font-size:60px;"">+</div>","null","","","","","","",""
"null","","image-keyboard-response","147","212132","0.0-4.0-0.36","","img/red.png","null","trial","null","true","0.2,0.8","2:nogo_b","",""
"null","","html-keyboard-response","148","213142","0.0-4.0-1.36","","<img src=""img/red-r.png"">","null","trial","null","","0.2,0.8","2:nogo_b","1",""
"null","","html-keyboard-response","149","214152","0.0-4.0-2.36","","<div style=""font-size:60px;"">+</div>","null","","","","","","",""
"366.29999999701977","","image-keyboard-response","150","214520","0.0-4.0-0.37","","img/purple.png","32","trial","32","true","0.8,0.2","1:go_a","",""
"null","","html-keyboard-response","151","215528","0.0-4.0-1.37","","<img src=""img/purple-r.png"" border=""10"">","null","trial","32","","0.8,0.2","1:go_a","1",""
"null","","html-keyboard-response","152","216532","0.0-4.0-2.37","","<div style=""font-size:60px;"">+</div>","null","","","","","","",""
"null","","image-keyboard-response","153","218043","0.0-4.0-0.38","","img/red.png","null","trial","null","true","0.2,0.8","2:nogo_b","",""
"null","","html-keyboard-response","154","219047","0.0-4.0-1.38","","<img src=""img/red-r.png"">","null","trial","null","","0.2,0.8","2:nogo_b","1",""
"null","","html-keyboard-response","155","220062","0.0-4.0-2.38","","<div style=""font-size:60px;"">+</div>","null","","","","","","",""
"1132.699999988079","","image-keyboard-response","156","221196","0.0-4.0-0.39","","img/purple.png","32","trial","32","true","0.8,0.2","1:go_a","",""
"null","","html-keyboard-response","157","222207","0.0-4.0-1.39","","<img src=""img/purple-r.png"" border=""10"">","null","trial","32","","0.8,0.2","1:go_a","1",""
"null","","html-keyboard-response","158","223219","0.0-4.0-2.39","","<div style=""font-size:60px;"">+</div>","null","","","","","","",""
"1015.4000000059605","","image-keyboard-response","159","224236","0.0-4.0-0.40","","img/purple.png","32","trial","32","true","0.8,0.2","1:go_a","",""
"null","","html-keyboard-response","160","225251","0.0-4.0-1.40","","<img src=""img/purple-r.png"" border=""10"">","null","trial","32","","0.8,0.2","1:go_a","1",""
"null","","html-keyboard-response","161","226267","0.0-4.0-2.40","","<div style=""font-size:60px;"">+</div>","null","","","","","","",""
"null","","image-keyboard-response","162","227772","0.0-4.0-0.41","","img/red.png","null","trial","null","true","0.2,0.8","2:nogo_b","",""
"null","","html-keyboard-response","163","228782","0.0-4.0-1.41","","<img src=""img/red-r.png"">","null","trial","null","","0.2,0.8","2:nogo_b","1",""
"null","","html-keyboard-response","164","229793","0.0-4.0-2.41","","<div style=""font-size:60px;"">+</div>","null","","","","","","",""
"708.1000000089407","","image-keyboard-response","165","230503","0.0-4.0-0.42","","img/purple.png","32","trial","32","true","0.8,0.2","1:go_a","",""
"null","","html-keyboard-response","166","231508","0.0-4.0-1.42","","<img src=""img/purple-r.png"" border=""10"">","null","trial","32","","0.8,0.2","1:go_a","1",""
"null","","html-keyboard-response","167","232513","0.0-4.0-2.42","","<div style=""font-size:60px;"">+</div>","null","","","","","","",""
"892.2000000029802","","image-keyboard-response","168","233407","0.0-4.0-0.43","","img/red.png","32","trial","null","false","0.2,0.8","2:nogo_b","",""
"null","","html-keyboard-response","169","234411","0.0-4.0-1.43","","<img src=""img/red-r.png"" border=""10"">","null","trial","null","","0.2,0.8","2:nogo_b","1",""
"null","","html-keyboard-response","170","235419","0.0-4.0-2.43","","<div style=""font-size:60px;"">+</div>","null","","","","","","",""
"860.5999999940395","","image-keyboard-response","171","236280","0.0-4.0-0.44","","img/purple.png","32","trial","32","true","0.8,0.2","1:go_a","",""
"null","","html-keyboard-response","172","237284","0.0-4.0-1.44","","<img src=""img/purple-r.png"" border=""10"">","null","trial","32","","0.8,0.2","1:go_a","1",""
"null","","html-keyboard-response","173","238294","0.0-4.0-2.44","","<div style=""font-size:60px;"">+</div>","null","","","","","","",""
"754","","image-keyboard-response","174","239050","0.0-4.0-0.45","","img/red.png","32","trial","null","false","0.2,0.8","2:nogo_b","",""
"null","","html-keyboard-response","175","240065","0.0-4.0-1.45","","<img src=""img/red-n.png"" border=""10"">","null","trial","null","","0.2,0.8","2:nogo_b","0",""
"null","","html-keyboard-response","176","241081","0.0-4.0-2.45","","<div style=""font-size:60px;"">+</div>","null","","","","","","",""
"991.9000000059605","","image-keyboard-response","177","242074","0.0-4.0-0.46","","img/purple.png","32","trial","32","true","0.8,0.2","1:go_a","",""
"null","","html-keyboard-response","178","243086","0.0-4.0-1.46","","<img src=""img/purple-r.png"" border=""10"">","null","trial","32","","0.8,0.2","1:go_a","1",""
"null","","html-keyboard-response","179","244102","0.0-4.0-2.46","","<div style=""font-size:60px;"">+</div>","null","","","","","","",""
"null","","image-keyboard-response","180","245617","0.0-4.0-0.47","","img/red.png","null","trial","null","true","0.2,0.8","2:nogo_b","",""
"null","","html-keyboard-response","181","246632","0.0-4.0-1.47","","<img src=""img/red-n.png"">","null","trial","null","","0.2,0.8","2:nogo_b","0",""
"null","","html-keyboard-response","182","247641","0.0-4.0-2.47","","<div style=""font-size:60px;"">+</div>","null","","","","","","",""
"969.3999999910593","","image-keyboard-response","183","248612","0.0-4.0-0.48","","img/red.png","32","trial","null","false","0.2,0.8","2:nogo_b","",""
"null","","html-keyboard-response","184","249614","0.0-4.0-1.48","","<img src=""img/red-n.png"" border=""10"">","null","trial","null","","0.2,0.8","2:nogo_b","0",""
"null","","html-keyboard-response","185","250621","0.0-4.0-2.48","","<div style=""font-size:60px;"">+</div>","null","","","","","","",""
"793.4000000059605","","image-keyboard-response","186","251416","0.0-4.0-0.49","","img/purple.png","32","trial","32","true","0.8,0.2","1:go_a","",""
"null","","html-keyboard-response","187","252431","0.0-4.0-1.49","","<img src=""img/purple-r.png"" border=""10"">","null","trial","32","","0.8,0.2","1:go_a","1",""
"null","","html-keyboard-response","188","253444","0.0-4.0-2.49","","<div style=""font-size:60px;"">+</div>","null","","","","","","",""
"null","","image-keyboard-response","189","254949","0.0-4.0-0.50","","img/red.png","null","trial","null","true","0.2,0.8","2:nogo_b","",""
"null","","html-keyboard-response","190","255963","0.0-4.0-1.50","","<img src=""img/red-r.png"">","null","trial","null","","0.2,0.8","2:nogo_b","1",""
"null","","html-keyboard-response","191","256979","0.0-4.0-2.50","","<div style=""font-size:60px;"">+</div>","null","","","","","","",""
"299.20000000298023","","image-keyboard-response","192","257280","0.0-4.0-0.51","","img/purple.png","32","trial","32","true","0.8,0.2","1:go_a","",""
"null","","html-keyboard-response","193","258291","0.0-4.0-1.51","","<img src=""img/purple-r.png"" border=""10"">","null","trial","32","","0.8,0.2","1:go_a","1",""
"null","","html-keyboard-response","194","259302","0.0-4.0-2.51","","<div style=""font-size:60px;"">+</div>","null","","","","","","",""
"640.6999999880791","","image-keyboard-response","195","259944","0.0-4.0-0.52","","img/purple.png","32","trial","32","true","0.8,0.2","1:go_a","",""
"null","","html-keyboard-response","196","260953","0.0-4.0-1.52","","<img src=""img/purple-r.png"" border=""10"">","null","trial","32","","0.8,0.2","1:go_a","1",""
"null","","html-keyboard-response","197","261960","0.0-4.0-2.52","","<div style=""font-size:60px;"">+</div>","null","","","","","","",""
"null","","image-keyboard-response","198","263485","0.0-4.0-0.53","","img/red.png","null","trial","null","true","0.2,0.8","2:nogo_b","",""
"null","","html-keyboard-response","199","264489","0.0-4.0-1.53","","<img src=""img/red-r.png"">","null","trial","null","","0.2,0.8","2:nogo_b","1",""
"null","","html-keyboard-response","200","265502","0.0-4.0-2.53","","<div style=""font-size:60px;"">+</div>","null","","","","","","",""
"441.59999999403954","","image-keyboard-response","201","265945","0.0-4.0-0.54","","img/purple.png","32","trial","32","true","0.8,0.2","1:go_a","",""
"null","","html-keyboard-response","202","266960","0.0-4.0-1.54","","<img src=""img/purple-n.png"" border=""10"">","null","trial","32","","0.8,0.2","1:go_a","0",""
"null","","html-keyboard-response","203","267965","0.0-4.0-2.54","","<div style=""font-size:60px;"">+</div>","null","","","","","","",""
"389.70000000298023","","image-keyboard-response","204","268356","0.0-4.0-0.55","","img/red.png","32","trial","null","false","0.2,0.8","2:nogo_b","",""
"null","","html-keyboard-response","205","269361","0.0-4.0-1.55","","<img src=""img/red-n.png"" border=""10"">","null","trial","null","","0.2,0.8","2:nogo_b","0",""
"null","","html-keyboard-response","206","270370","0.0-4.0-2.55","","<div style=""font-size:60px;"">+</div>","null","","","","","","",""
"869.1000000089407","","image-keyboard-response","207","271240","0.0-4.0-0.56","","img/purple.png","32","trial","32","true","0.8,0.2","1:go_a","",""
"null","","html-keyboard-response","208","272251","0.0-4.0-1.56","","<img src=""img/purple-r.png"" border=""10"">","null","trial","32","","0.8,0.2","1:go_a","1",""
"null","","html-keyboard-response","209","273260","0.0-4.0-2.56","","<div style=""font-size:60px;"">+</div>","null","","","","","","",""
"903.5","","image-keyboard-response","210","274164","0.0-4.0-0.57","","img/red.png","32","trial","null","false","0.2,0.8","2:nogo_b","",""
"null","","html-keyboard-response","211","275172","0.0-4.0-1.57","","<img src=""img/red-n.png"" border=""10"">","null","trial","null","","0.2,0.8","2:nogo_b","0",""
"null","","html-keyboard-response","212","276181","0.0-4.0-2.57","","<div style=""font-size:60px;"">+</div>","null","","","","","","",""
"null","","image-keyboard-response","213","277684","0.0-4.0-0.58","","img/red.png","null","trial","null","true","0.2,0.8","2:nogo_b","",""
"null","","html-keyboard-response","214","278692","0.0-4.0-1.58","","<img src=""img/red-r.png"">","null","trial","null","","0.2,0.8","2:nogo_b","1",""
"null","","html-keyboard-response","215","279707","0.0-4.0-2.58","","<div style=""font-size:60px;"">+</div>","null","","","","","","",""
"552.6999999880791","","image-keyboard-response","216","280261","0.0-4.0-0.59","","img/purple.png","32","trial","32","true","0.8,0.2","1:go_a","",""
"null","","html-keyboard-response","217","281275","0.0-4.0-1.59","","<img src=""img/purple-r.png"" border=""10"">","null","trial","32","","0.8,0.2","1:go_a","1",""
"null","","html-keyboard-response","218","282282","0.0-4.0-2.59","","<div style=""font-size:60px;"">+</div>","null","","","","","","",""
"66876.29999999702","","instructions","219","349160","0.0-5.0","[{""page_index"":0,""viewing_time"":66875.79999999702}]","","","","","","","","",""
"null","","image-keyboard-response","220","350665","0.0-6.0-0.0","","img/yellow.png","null","trial","null","true","0.2,0.8","2:nogo_b","",""
"null","","html-keyboard-response","221","351676","0.0-6.0-1.0","","<img src=""img/yellow-r.png"">","null","trial","null","","0.2,0.8","2:nogo_b","1",""
"null","","html-keyboard-response","222","352683","0.0-6.0-2.0","","<div style=""font-size:60px;"">+</div>","null","","","","","","",""
"499.29999999701977","","image-keyboard-response","223","353183","0.0-6.0-0.1","","img/green.png","32","trial","32","true","0.8,0.2","1:go_a","",""
"null","","html-keyboard-response","224","354201","0.0-6.0-1.1","","<img src=""img/green-r.png"" border=""10"">","null","trial","32","","0.8,0.2","1:go_a","1",""
"null","","html-keyboard-response","225","355214","0.0-6.0-2.1","","<div style=""font-size:60px;"">+</div>","null","","","","","","",""
"null","","image-keyboard-response","226","356729","0.0-6.0-0.2","","img/purple.png","null","trial","null","true","0,1","4:nogo_d","",""
"null","","html-keyboard-response","227","357744","0.0-6.0-1.2","","<img src=""img/purple-r.png"">","null","trial","null","","0,1","4:nogo_d","1",""
"null","","html-keyboard-response","228","358748","0.0-6.0-2.2","","<div style=""font-size:60px;"">+</div>","null","","","","","","",""
"null","","image-keyboard-response","229","360255","0.0-6.0-0.3","","img/red.png","null","trial","32","false","1,0","3:go_c","",""
"null","","html-keyboard-response","230","361272","0.0-6.0-1.3","","<img src=""img/red-n.png"">","null","trial","32","","1,0","3:go_c","0",""
"null","","html-keyboard-response","231","362284","0.0-6.0-2.3","","<div style=""font-size:60px;"">+</div>","null","","","","","","",""
"433","","image-keyboard-response","232","362718","0.0-6.0-0.4","","img/yellow.png","32","trial","null","false","0.2,0.8","2:nogo_b","",""
"null","","html-keyboard-response","233","363727","0.0-6.0-1.4","","<img src=""img/yellow-r.png"" border=""10"">","null","trial","null","","0.2,0.8","2:nogo_b","1",""
"null","","html-keyboard-response","234","364732","0.0-6.0-2.4","","<div style=""font-size:60px;"">+</div>","null","","","","","","",""
"472.5","","image-keyboard-response","235","365206","0.0-6.0-0.5","","img/green.png","32","trial","32","true","0.8,0.2","1:go_a","",""
"null","","html-keyboard-response","236","366211","0.0-6.0-1.5","","<img src=""img/green-n.png"" border=""10"">","null","trial","32","","0.8,0.2","1:go_a","0",""
"null","","html-keyboard-response","237","367216","0.0-6.0-2.5","","<div style=""font-size:60px;"">+</div>","null","","","","","","",""
"680.1000000089407","","image-keyboard-response","238","367897","0.0-6.0-0.6","","img/purple.png","32","trial","null","false","0,1","4:nogo_d","",""
"null","","html-keyboard-response","239","368907","0.0-6.0-1.6","","<img src=""img/purple-n.png"" border=""10"">","null","trial","null","","0,1","4:nogo_d","0",""
"null","","html-keyboard-response","240","369923","0.0-6.0-2.6","","<div style=""font-size:60px;"">+</div>","null","","","","","","",""
"null","","image-keyboard-response","241","371431","0.0-6.0-0.7","","img/red.png","null","trial","32","false","1,0","3:go_c","",""
"null","","html-keyboard-response","242","372437","0.0-6.0-1.7","","<img src=""img/red-n.png"">","null","trial","32","","1,0","3:go_c","0",""
"null","","html-keyboard-response","243","373439","0.0-6.0-2.7","","<div style=""font-size:60px;"">+</div>","null","","","","","","",""
"434.3999999910593","","image-keyboard-response","244","373874","0.0-6.0-0.8","","img/yellow.png","32","trial","null","false","0.2,0.8","2:nogo_b","",""
"null","","html-keyboard-response","245","374892","0.0-6.0-1.8","","<img src=""img/yellow-n.png"" border=""10"">","null","trial","null","","0.2,0.8","2:nogo_b","0",""
"null","","html-keyboard-response","246","375894","0.0-6.0-2.8","","<div style=""font-size:60px;"">+</div>","null","","","","","","",""
"968.4000000059605","","image-keyboard-response","247","376863","0.0-6.0-0.9","","img/purple.png","32","trial","null","false","0,1","4:nogo_d","",""
"null","","html-keyboard-response","248","377873","0.0-6.0-1.9","","<img src=""img/purple-n.png"" border=""10"">","null","trial","null","","0,1","4:nogo_d","0",""
"null","","html-keyboard-response","249","378878","0.0-6.0-2.9","","<div style=""font-size:60px;"">+</div>","null","","","","","","",""
"null","","image-keyboard-response","250","380390","0.0-6.0-0.10","","img/red.png","null","trial","32","false","1,0","3:go_c","",""
"null","","html-keyboard-response","251","381399","0.0-6.0-1.10","","<img src=""img/red-n.png"">","null","trial","32","","1,0","3:go_c","0",""
"null","","html-keyboard-response","252","382402","0.0-6.0-2.10","","<div style=""font-size:60px;"">+</div>","null","","","","","","",""
"668.2000000029802","","image-keyboard-response","253","383071","0.0-6.0-0.11","","img/green.png","32","trial","32","true","0.8,0.2","1:go_a","",""
"null","","html-keyboard-response","254","384082","0.0-6.0-1.11","","<img src=""img/green-r.png"" border=""10"">","null","trial","32","","0.8,0.2","1:go_a","1",""
"null","","html-keyboard-response","255","385089","0.0-6.0-2.11","","<div style=""font-size:60px;"">+</div>","null","","","","","","",""
"845.8000000119209","","image-keyboard-response","256","385936","0.0-6.0-0.12","","img/green.png","32","trial","32","true","0.8,0.2","1:go_a","",""
"null","","html-keyboard-response","257","386944","0.0-6.0-1.12","","<img src=""img/green-r.png"" border=""10"">","null","trial","32","","0.8,0.2","1:go_a","1",""
"null","","html-keyboard-response","258","387951","0.0-6.0-2.12","","<div style=""font-size:60px;"">+</div>","null","","","","","","",""
"null","","image-keyboard-response","259","389457","0.0-6.0-0.13","","img/red.png","null","trial","32","false","1,0","3:go_c","",""
"null","","html-keyboard-response","260","390464","0.0-6.0-1.13","","<img src=""img/red-n.png"">","null","trial","32","","1,0","3:go_c","0",""
"null","","html-keyboard-response","261","391467","0.0-6.0-2.13","","<div style=""font-size:60px;"">+</div>","null","","","","","","",""
"463.70000000298023","","image-keyboard-response","262","391932","0.0-6.0-0.14","","img/yellow.png","32","trial","null","false","0.2,0.8","2:nogo_b","",""
"null","","html-keyboard-response","263","392935","0.0-6.0-1.14","","<img src=""img/yellow-r.png"" border=""10"">","null","trial","null","","0.2,0.8","2:nogo_b","1",""
"null","","html-keyboard-response","264","393950","0.0-6.0-2.14","","<div style=""font-size:60px;"">+</div>","null","","","","","","",""
"684.1999999880791","","image-keyboard-response","265","394635","0.0-6.0-0.15","","img/purple.png","32","trial","null","false","0,1","4:nogo_d","",""
"null","","html-keyboard-response","266","395639","0.0-6.0-1.15","","<img src=""img/purple-n.png"" border=""10"">","null","trial","null","","0,1","4:nogo_d","0",""
"null","","html-keyboard-response","267","396648","0.0-6.0-2.15","","<div style=""font-size:60px;"">+</div>","null","","","","","","",""
"560.7000000029802","","image-keyboard-response","268","397210","0.0-6.0-0.16","","img/yellow.png","32","trial","null","false","0.2,0.8","2:nogo_b","",""
"null","","html-keyboard-response","269","398226","0.0-6.0-1.16","","<img src=""img/yellow-n.png"" border=""10"">","null","trial","null","","0.2,0.8","2:nogo_b","0",""
"null","","html-keyboard-response","270","399241","0.0-6.0-2.16","","<div style=""font-size:60px;"">+</div>","null","","","","","","",""
"918.7000000029802","","image-keyboard-response","271","400160","0.0-6.0-0.17","","img/green.png","32","trial","32","true","0.8,0.2","1:go_a","",""
"null","","html-keyboard-response","272","401174","0.0-6.0-1.17","","<img src=""img/green-r.png"" border=""10"">","null","trial","32","","0.8,0.2","1:go_a","1",""
"null","","html-keyboard-response","273","402185","0.0-6.0-2.17","","<div style=""font-size:60px;"">+</div>","null","","","","","","",""
"null","","image-keyboard-response","274","403708","0.0-6.0-0.18","","img/purple.png","null","trial","null","true","0,1","4:nogo_d","",""
"null","","html-keyboard-response","275","404713","0.0-6.0-1.18","","<img src=""img/purple-r.png"">","null","trial","null","","0,1","4:nogo_d","1",""
"null","","html-keyboard-response","276","405723","0.0-6.0-2.18","","<div style=""font-size:60px;"">+</div>","null","","","","","","",""
"null","","image-keyboard-response","277","407227","0.0-6.0-0.19","","img/red.png","null","trial","32","false","1,0","3:go_c","",""
"null","","html-keyboard-response","278","408244","0.0-6.0-1.19","","<img src=""img/red-n.png"">","null","trial","32","","1,0","3:go_c","0",""
"null","","html-keyboard-response","279","409246","0.0-6.0-2.19","","<div style=""font-size:60px;"">+</div>","null","","","","","","",""
"494.09999999403954","","image-keyboard-response","280","409740","0.0-6.0-0.20","","img/green.png","32","trial","32","true","0.8,0.2","1:go_a","",""
"null","","html-keyboard-response","281","410757","0.0-6.0-1.20","","<img src=""img/green-n.png"" border=""10"">","null","trial","32","","0.8,0.2","1:go_a","0",""
"null","","html-keyboard-response","282","411764","0.0-6.0-2.20","","<div style=""font-size:60px;"">+</div>","null","","","","","","",""
"381.69999998807907","","image-keyboard-response","283","412147","0.0-6.0-0.21","","img/purple.png","32","trial","null","false","0,1","4:nogo_d","",""
"null","","html-keyboard-response","284","413162","0.0-6.0-1.21","","<img src=""img/purple-n.png"" border=""10"">","null","trial","null","","0,1","4:nogo_d","0",""
"null","","html-keyboard-response","285","414173","0.0-6.0-2.21","","<div style=""font-size:60px;"">+</div>","null","","","","","","",""
"null","","image-keyboard-response","286","415683","0.0-6.0-0.22","","img/red.png","null","trial","32","false","1,0","3:go_c","",""
"null","","html-keyboard-response","287","416696","0.0-6.0-1.22","","<img src=""img/red-n.png"">","null","trial","32","","1,0","3:go_c","0",""
"null","","html-keyboard-response","288","417706","0.0-6.0-2.22","","<div style=""font-size:60px;"">+</div>","null","","","","","","",""
"941.5999999940395","","image-keyboard-response","289","418649","0.0-6.0-0.23","","img/yellow.png","32","trial","null","false","0.2,0.8","2:nogo_b","",""
"null","","html-keyboard-response","290","419657","0.0-6.0-1.23","","<img src=""img/yellow-n.png"" border=""10"">","null","trial","null","","0.2,0.8","2:nogo_b","0",""
"null","","html-keyboard-response","291","420666","0.0-6.0-2.23","","<div style=""font-size:60px;"">+</div>","null","","","","","","",""
"null","","image-keyboard-response","292","422178","0.0-6.0-0.24","","img/red.png","null","trial","32","false","1,0","3:go_c","",""
"null","","html-keyboard-response","293","423193","0.0-6.0-1.24","","<img src=""img/red-n.png"">","null","trial","32","","1,0","3:go_c","0",""
"null","","html-keyboard-response","294","424197","0.0-6.0-2.24","","<div style=""font-size:60px;"">+</div>","null","","","","","","",""
"null","","image-keyboard-response","295","425703","0.0-6.0-0.25","","img/purple.png","null","trial","null","true","0,1","4:nogo_d","",""
"null","","html-keyboard-response","296","426712","0.0-6.0-1.25","","<img src=""img/purple-r.png"">","null","trial","null","","0,1","4:nogo_d","1",""
"null","","html-keyboard-response","297","427733","0.0-6.0-2.25","","<div style=""font-size:60px;"">+</div>","null","","","","","","",""
"632.2999999970198","","image-keyboard-response","298","428367","0.0-6.0-0.26","","img/green.png","32","trial","32","true","0.8,0.2","1:go_a","",""
"null","","html-keyboard-response","299","429371","0.0-6.0-1.26","","<img src=""img/green-n.png"" border=""10"">","null","trial","32","","0.8,0.2","1:go_a","0",""
"null","","html-keyboard-response","300","430379","0.0-6.0-2.26","","<div style=""font-size:60px;"">+</div>","null","","","","","","",""
"854.9000000059605","","image-keyboard-response","301","431236","0.0-6.0-0.27","","img/yellow.png","32","trial","null","false","0.2,0.8","2:nogo_b","",""
"null","","html-keyboard-response","302","432239","0.0-6.0-1.27","","<img src=""img/yellow-n.png"" border=""10"">","null","trial","null","","0.2,0.8","2:nogo_b","0",""
"null","","html-keyboard-response","303","433241","0.0-6.0-2.27","","<div style=""font-size:60px;"">+</div>","null","","","","","","",""
"null","","image-keyboard-response","304","434758","0.0-6.0-0.28","","img/purple.png","null","trial","null","true","0,1","4:nogo_d","",""
"null","","html-keyboard-response","305","435777","0.0-6.0-1.28","","<img src=""img/purple-r.png"">","null","trial","null","","0,1","4:nogo_d","1",""
"null","","html-keyboard-response","306","436778","0.0-6.0-2.28","","<div style=""font-size:60px;"">+</div>","null","","","","","","",""
"null","","image-keyboard-response","307","438287","0.0-6.0-0.29","","img/red.png","null","trial","32","false","1,0","3:go_c","",""
"null","","html-keyboard-response","308","439301","0.0-6.0-1.29","","<img src=""img/red-n.png"">","null","trial","32","","1,0","3:go_c","0",""
"null","","html-keyboard-response","309","440309","0.0-6.0-2.29","","<div style=""font-size:60px;"">+</div>","null","","","","","","",""
"515.6000000089407","","image-keyboard-response","310","440826","0.0-6.0-0.30","","img/yellow.png","32","trial","null","false","0.2,0.8","2:nogo_b","",""
"null","","html-keyboard-response","311","441842","0.0-6.0-1.30","","<img src=""img/yellow-r.png"" border=""10"">","null","trial","null","","0.2,0.8","2:nogo_b","1",""
"null","","html-keyboard-response","312","442853","0.0-6.0-2.30","","<div style=""font-size:60px;"">+</div>","null","","","","","","",""
"671.6000000089407","","image-keyboard-response","313","443526","0.0-6.0-0.31","","img/green.png","32","trial","32","true","0.8,0.2","1:go_a","",""
"null","","html-keyboard-response","314","444541","0.0-6.0-1.31","","<img src=""img/green-r.png"" border=""10"">","null","trial","32","","0.8,0.2","1:go_a","1",""
"null","","html-keyboard-response","315","445553","0.0-6.0-2.31","","<div style=""font-size:60px;"">+</div>","null","","","","","","",""
"null","","image-keyboard-response","316","447059","0.0-6.0-0.32","","img/red.png","null","trial","32","false","1,0","3:go_c","",""
"null","","html-keyboard-response","317","448063","0.0-6.0-1.32","","<img src=""img/red-n.png"">","null","trial","32","","1,0","3:go_c","0",""
"null","","html-keyboard-response","318","449069","0.0-6.0-2.32","","<div style=""font-size:60px;"">+</div>","null","","","","","","",""
"895.4000000059605","","image-keyboard-response","319","449965","0.0-6.0-0.33","","img/green.png","32","trial","32","true","0.8,0.2","1:go_a","",""
"null","","html-keyboard-response","320","450975","0.0-6.0-1.33","","<img src=""img/green-r.png"" border=""10"">","null","trial","32","","0.8,0.2","1:go_a","1",""
"null","","html-keyboard-response","321","451991","0.0-6.0-2.33","","<div style=""font-size:60px;"">+</div>","null","","","","","","",""
"null","","image-keyboard-response","322","453495","0.0-6.0-0.34","","img/purple.png","null","trial","null","true","0,1","4:nogo_d","",""
"null","","html-keyboard-response","323","454512","0.0-6.0-1.34","","<img src=""img/purple-r.png"">","null","trial","null","","0,1","4:nogo_d","1",""
"null","","html-keyboard-response","324","455528","0.0-6.0-2.34","","<div style=""font-size:60px;"">+</div>","null","","","","","","",""
"440.59999999403954","","image-keyboard-response","325","455971","0.0-6.0-0.35","","img/yellow.png","32","trial","null","false","0.2,0.8","2:nogo_b","",""
"null","","html-keyboard-response","326","456979","0.0-6.0-1.35","","<img src=""img/yellow-n.png"" border=""10"">","null","trial","null","","0.2,0.8","2:nogo_b","0",""
"null","","html-keyboard-response","327","457989","0.0-6.0-2.35","","<div style=""font-size:60px;"">+</div>","null","","","","","","",""
"null","","image-keyboard-response","328","459494","0.0-6.0-0.36","","img/red.png","null","trial","32","false","1,0","3:go_c","",""
"null","","html-keyboard-response","329","460501","0.0-6.0-1.36","","<img src=""img/red-n.png"">","null","trial","32","","1,0","3:go_c","0",""
"null","","html-keyboard-response","330","461508","0.0-6.0-2.36","","<div style=""font-size:60px;"">+</div>","null","","","","","","",""
"537.5","","image-keyboard-response","331","462047","0.0-6.0-0.37","","img/green.png","32","trial","32","true","0.8,0.2","1:go_a","",""
"null","","html-keyboard-response","332","463063","0.0-6.0-1.37","","<img src=""img/green-r.png"" border=""10"">","null","trial","32","","0.8,0.2","1:go_a","1",""
"null","","html-keyboard-response","333","464069","0.0-6.0-2.37","","<div style=""font-size:60px;"">+</div>","null","","","","","","",""
"null","","image-keyboard-response","334","465581","0.0-6.0-0.38","","img/purple.png","null","trial","null","true","0,1","4:nogo_d","",""
"null","","html-keyboard-response","335","466597","0.0-6.0-1.38","","<img src=""img/purple-r.png"">","null","trial","null","","0,1","4:nogo_d","1",""
"null","","html-keyboard-response","336","467609","0.0-6.0-2.38","","<div style=""font-size:60px;"">+</div>","null","","","","","","",""
"568.5","","image-keyboard-response","337","468179","0.0-6.0-0.39","","img/yellow.png","32","trial","null","false","0.2,0.8","2:nogo_b","",""
"null","","html-keyboard-response","338","469196","0.0-6.0-1.39","","<img src=""img/yellow-n.png"" border=""10"">","null","trial","null","","0.2,0.8","2:nogo_b","0",""
"null","","html-keyboard-response","339","470212","0.0-6.0-2.39","","<div style=""font-size:60px;"">+</div>","null","","","","","","",""
"null","","image-keyboard-response","340","471720","0.0-6.0-0.40","","img/purple.png","null","trial","null","true","0,1","4:nogo_d","",""
"null","","html-keyboard-response","341","472730","0.0-6.0-1.40","","<img src=""img/purple-r.png"">","null","trial","null","","0,1","4:nogo_d","1",""
"null","","html-keyboard-response","342","473744","0.0-6.0-2.40","","<div style=""font-size:60px;"">+</div>","null","","","","","","",""
"776.2000000029802","","image-keyboard-response","343","474521","0.0-6.0-0.41","","img/green.png","32","trial","32","true","0.8,0.2","1:go_a","",""
"null","","html-keyboard-response","344","475528","0.0-6.0-1.41","","<img src=""img/green-r.png"" border=""10"">","null","trial","32","","0.8,0.2","1:go_a","1",""
"null","","html-keyboard-response","345","476530","0.0-6.0-2.41","","<div style=""font-size:60px;"">+</div>","null","","","","","","",""
"509.20000000298023","","image-keyboard-response","346","477040","0.0-6.0-0.42","","img/yellow.png","32","trial","null","false","0.2,0.8","2:nogo_b","",""
"null","","html-keyboard-response","347","478055","0.0-6.0-1.42","","<img src=""img/yellow-n.png"" border=""10"">","null","trial","null","","0.2,0.8","2:nogo_b","0",""
"null","","html-keyboard-response","348","479069","0.0-6.0-2.42","","<div style=""font-size:60px;"">+</div>","null","","","","","","",""
"null","","image-keyboard-response","349","480571","0.0-6.0-0.43","","img/red.png","null","trial","32","false","1,0","3:go_c","",""
"null","","html-keyboard-response","350","481576","0.0-6.0-1.43","","<img src=""img/red-n.png"">","null","trial","32","","1,0","3:go_c","0",""
"null","","html-keyboard-response","351","482589","0.0-6.0-2.43","","<div style=""font-size:60px;"">+</div>","null","","","","","","",""
"null","","image-keyboard-response","352","484093","0.0-6.0-0.44","","img/green.png","null","trial","32","false","0.8,0.2","1:go_a","",""
"null","","html-keyboard-response","353","485099","0.0-6.0-1.44","","<img src=""img/green-n.png"">","null","trial","32","","0.8,0.2","1:go_a","0",""
"null","","html-keyboard-response","354","486107","0.0-6.0-2.44","","<div style=""font-size:60px;"">+</div>","null","","","","","","",""
"null","","image-keyboard-response","355","487623","0.0-6.0-0.45","","img/purple.png","null","trial","null","true","0,1","4:nogo_d","",""
"null","","html-keyboard-response","356","488627","0.0-6.0-1.45","","<img src=""img/purple-r.png"">","null","trial","null","","0,1","4:nogo_d","1",""
"null","","html-keyboard-response","357","489634","0.0-6.0-2.45","","<div style=""font-size:60px;"">+</div>","null","","","","","","",""
"533.9000000059605","","image-keyboard-response","358","490169","0.0-6.0-0.46","","img/yellow.png","32","trial","null","false","0.2,0.8","2:nogo_b","",""
"null","","html-keyboard-response","359","491184","0.0-6.0-1.46","","<img src=""img/yellow-n.png"" border=""10"">","null","trial","null","","0.2,0.8","2:nogo_b","0",""
"null","","html-keyboard-response","360","492192","0.0-6.0-2.46","","<div style=""font-size:60px;"">+</div>","null","","","","","","",""
"null","","image-keyboard-response","361","493704","0.0-6.0-0.47","","img/red.png","null","trial","32","false","1,0","3:go_c","",""
"null","","html-keyboard-response","362","494711","0.0-6.0-1.47","","<img src=""img/red-n.png"">","null","trial","32","","1,0","3:go_c","0",""
"null","","html-keyboard-response","363","495718","0.0-6.0-2.47","","<div style=""font-size:60px;"">+</div>","null","","","","","","",""
"626.2000000029802","","image-keyboard-response","364","496345","0.0-6.0-0.48","","img/green.png","32","trial","32","true","0.8,0.2","1:go_a","",""
"null","","html-keyboard-response","365","497359","0.0-6.0-1.48","","<img src=""img/green-r.png"" border=""10"">","null","trial","32","","0.8,0.2","1:go_a","1",""
"null","","html-keyboard-response","366","498364","0.0-6.0-2.48","","<div style=""font-size:60px;"">+</div>","null","","","","","","",""
"590.7000000029802","","image-keyboard-response","367","498956","0.0-6.0-0.49","","img/purple.png","32","trial","null","false","0,1","4:nogo_d","",""
"null","","html-keyboard-response","368","499959","0.0-6.0-1.49","","<img src=""img/purple-n.png"" border=""10"">","null","trial","null","","0,1","4:nogo_d","0",""
"null","","html-keyboard-response","369","500967","0.0-6.0-2.49","","<div style=""font-size:60px;"">+</div>","null","","","","","","",""
"968.4000000059605","","image-keyboard-response","370","501937","0.0-6.0-0.50","","img/yellow.png","32","trial","null","false","0.2,0.8","2:nogo_b","",""
"null","","html-keyboard-response","371","502945","0.0-6.0-1.50","","<img src=""img/yellow-n.png"" border=""10"">","null","trial","null","","0.2,0.8","2:nogo_b","0",""
"null","","html-keyboard-response","372","503956","0.0-6.0-2.50","","<div style=""font-size:60px;"">+</div>","null","","","","","","",""
"null","","image-keyboard-response","373","505462","0.0-6.0-0.51","","img/red.png","null","trial","32","false","1,0","3:go_c","",""
"null","","html-keyboard-response","374","506473","0.0-6.0-1.51","","<img src=""img/red-n.png"">","null","trial","32","","1,0","3:go_c","0",""
"null","","html-keyboard-response","375","507483","0.0-6.0-2.51","","<div style=""font-size:60px;"">+</div>","null","","","","","","",""
"null","","image-keyboard-response","376","508994","0.0-6.0-0.52","","img/red.png","null","trial","32","false","1,0","3:go_c","",""
"null","","html-keyboard-response","377","509999","0.0-6.0-1.52","","<img src=""img/red-n.png"">","null","trial","32","","1,0","3:go_c","0",""
"null","","html-keyboard-response","378","511003","0.0-6.0-2.52","","<div style=""font-size:60px;"">+</div>","null","","","","","","",""
"607","","image-keyboard-response","379","511611","0.0-6.0-0.53","","img/green.png","32","trial","32","true","0.8,0.2","1:go_a","",""
"null","","html-keyboard-response","380","512618","0.0-6.0-1.53","","<img src=""img/green-r.png"" border=""10"">","null","trial","32","","0.8,0.2","1:go_a","1",""
"null","","html-keyboard-response","381","513630","0.0-6.0-2.53","","<div style=""font-size:60px;"">+</div>","null","","","","","","",""
"877.5","","image-keyboard-response","382","514509","0.0-6.0-0.54","","img/purple.png","32","trial","null","false","0,1","4:nogo_d","",""
"null","","html-keyboard-response","383","515520","0.0-6.0-1.54","","<img src=""img/purple-n.png"" border=""10"">","null","trial","null","","0,1","4:nogo_d","0",""
"null","","html-keyboard-response","384","516525","0.0-6.0-2.54","","<div style=""font-size:60px;"">+</div>","null","","","","","","",""
"1369.9000000059605","","image-keyboard-response","385","517895","0.0-6.0-0.55","","img/yellow.png","32","trial","null","false","0.2,0.8","2:nogo_b","",""
"null","","html-keyboard-response","386","518912","0.0-6.0-1.55","","<img src=""img/yellow-n.png"" border=""10"">","null","trial","null","","0.2,0.8","2:nogo_b","0",""
"null","","html-keyboard-response","387","519923","0.0-6.0-2.55","","<div style=""font-size:60px;"">+</div>","null","","","","","","",""
"null","","image-keyboard-response","388","521432","0.0-6.0-0.56","","img/purple.png","null","trial","null","true","0,1","4:nogo_d","",""
"null","","html-keyboard-response","389","522436","0.0-6.0-1.56","","<img src=""img/purple-r.png"">","null","trial","null","","0,1","4:nogo_d","1",""
"null","","html-keyboard-response","390","523440","0.0-6.0-2.56","","<div style=""font-size:60px;"">+</div>","null","","","","","","",""
"null","","image-keyboard-response","391","524950","0.0-6.0-0.57","","img/red.png","null","trial","32","false","1,0","3:go_c","",""
"null","","html-keyboard-response","392","525954","0.0-6.0-1.57","","<img src=""img/red-n.png"">","null","trial","32","","1,0","3:go_c","0",""
"null","","html-keyboard-response","393","526958","0.0-6.0-2.57","","<div style=""font-size:60px;"">+</div>","null","","","","","","",""
"692.4000000059605","","image-keyboard-response","394","527652","0.0-6.0-0.58","","img/green.png","32","trial","32","true","0.8,0.2","1:go_a","",""
"null","","html-keyboard-response","395","528684","0.0-6.0-1.58","","<img src=""img/green-r.png"" border=""10"">","null","trial","32","","0.8,0.2","1:go_a","1",""
"null","","html-keyboard-response","396","529698","0.0-6.0-2.58","","<div style=""font-size:60px;"">+</div>","null","","","","","","",""
"646.5","","image-keyboard-response","397","530345","0.0-6.0-0.59","","img/yellow.png","32","trial","null","false","0.2,0.8","2:nogo_b","",""
"null","","html-keyboard-response","398","531349","0.0-6.0-1.59","","<img src=""img/yellow-n.png"" border=""10"">","null","trial","null","","0.2,0.8","2:nogo_b","0",""
"null","","html-keyboard-response","399","532353","0.0-6.0-2.59","","<div style=""font-size:60px;"">+</div>","null","","","","","","",""
"993.5","","image-keyboard-response","400","533348","0.0-6.0-0.60","","img/yellow.png","32","trial","null","false","0.2,0.8","2:nogo_b","",""
"null","","html-keyboard-response","401","534361","0.0-6.0-1.60","","<img src=""img/yellow-r.png"" border=""10"">","null","trial","null","","0.2,0.8","2:nogo_b","1",""
"null","","html-keyboard-response","402","535371","0.0-6.0-2.60","","<div style=""font-size:60px;"">+</div>","null","","","","","","",""
"null","","image-keyboard-response","403","536887","0.0-6.0-0.61","","img/red.png","null","trial","32","false","1,0","3:go_c","",""
"null","","html-keyboard-response","404","537889","0.0-6.0-1.61","","<img src=""img/red-n.png"">","null","trial","32","","1,0","3:go_c","0",""
"null","","html-keyboard-response","405","538900","0.0-6.0-2.61","","<div style=""font-size:60px;"">+</div>","null","","","","","","",""
"687.0999999940395","","image-keyboard-response","406","539589","0.0-6.0-0.62","","img/purple.png","32","trial","null","false","0,1","4:nogo_d","",""
"null","","html-keyboard-response","407","540605","0.0-6.0-1.62","","<img src=""img/purple-n.png"" border=""10"">","null","trial","null","","0,1","4:nogo_d","0",""
"null","","html-keyboard-response","408","541619","0.0-6.0-2.62","","<div style=""font-size:60px;"">+</div>","null","","","","","","",""
"710.8000000119209","","image-keyboard-response","409","542331","0.0-6.0-0.63","","img/green.png","32","trial","32","true","0.8,0.2","1:go_a","",""
"null","","html-keyboard-response","410","543347","0.0-6.0-1.63","","<img src=""img/green-r.png"" border=""10"">","null","trial","32","","0.8,0.2","1:go_a","1",""
"null","","html-keyboard-response","411","544351","0.0-6.0-2.63","","<div style=""font-size:60px;"">+</div>","null","","","","","","",""
"856.2999999970198","","image-keyboard-response","412","545209","0.0-6.0-0.64","","img/yellow.png","32","trial","null","false","0.2,0.8","2:nogo_b","",""
"null","","html-keyboard-response","413","546220","0.0-6.0-1.64","","<img src=""img/yellow-n.png"" border=""10"">","null","trial","null","","0.2,0.8","2:nogo_b","0",""
"null","","html-keyboard-response","414","547233","0.0-6.0-2.64","","<div style=""font-size:60px;"">+</div>","null","","","","","","",""
"null","","image-keyboard-response","415","548746","0.0-6.0-0.65","","img/purple.png","null","trial","null","true","0,1","4:nogo_d","",""
"null","","html-keyboard-response","416","549753","0.0-6.0-1.65","","<img src=""img/purple-r.png"">","null","trial","null","","0,1","4:nogo_d","1",""
"null","","html-keyboard-response","417","550763","0.0-6.0-2.65","","<div style=""font-size:60px;"">+</div>","null","","","","","","",""
"null","","image-keyboard-response","418","552265","0.0-6.0-0.66","","img/red.png","null","trial","32","false","1,0","3:go_c","",""
"null","","html-keyboard-response","419","553281","0.0-6.0-1.66","","<img src=""img/red-n.png"">","null","trial","32","","1,0","3:go_c","0",""
"null","","html-keyboard-response","420","554294","0.0-6.0-2.66","","<div style=""font-size:60px;"">+</div>","null","","","","","","",""
"426.1000000089407","","image-keyboard-response","421","554722","0.0-6.0-0.67","","img/green.png","32","trial","32","true","0.8,0.2","1:go_a","",""
"null","","html-keyboard-response","422","555739","0.0-6.0-1.67","","<img src=""img/green-r.png"" border=""10"">","null","trial","32","","0.8,0.2","1:go_a","1",""
"null","","html-keyboard-response","423","556750","0.0-6.0-2.67","","<div style=""font-size:60px;"">+</div>","null","","","","","","",""
"390.59999999403954","","image-keyboard-response","424","557142","0.0-6.0-0.68","","img/green.png","32","trial","32","true","0.8,0.2","1:go_a","",""
"null","","html-keyboard-response","425","558159","0.0-6.0-1.68","","<img src=""img/green-r.png"" border=""10"">","null","trial","32","","0.8,0.2","1:go_a","1",""
"null","","html-keyboard-response","426","559164","0.0-6.0-2.68","","<div style=""font-size:60px;"">+</div>","null","","","","","","",""
"null","","image-keyboard-response","427","560671","0.0-6.0-0.69","","img/red.png","null","trial","32","false","1,0","3:go_c","",""
"null","","html-keyboard-response","428","561678","0.0-6.0-1.69","","<img src=""img/red-n.png"">","null","trial","32","","1,0","3:go_c","0",""
"null","","html-keyboard-response","429","562680","0.0-6.0-2.69","","<div style=""font-size:60px;"">+</div>","null","","","","","","",""
"744.0999999940395","","image-keyboard-response","430","563426","0.0-6.0-0.70","","img/yellow.png","32","trial","null","false","0.2,0.8","2:nogo_b","",""
"null","","html-keyboard-response","431","564430","0.0-6.0-1.70","","<img src=""img/yellow-r.png"" border=""10"">","null","trial","null","","0.2,0.8","2:nogo_b","1",""
"null","","html-keyboard-response","432","565439","0.0-6.0-2.70","","<div style=""font-size:60px;"">+</div>","null","","","","","","",""
"750.6000000089407","","image-keyboard-response","433","566191","0.0-6.0-0.71","","img/purple.png","32","trial","null","false","0,1","4:nogo_d","",""
"null","","html-keyboard-response","434","567197","0.0-6.0-1.71","","<img src=""img/purple-n.png"" border=""10"">","null","trial","null","","0,1","4:nogo_d","0",""
"null","","html-keyboard-response","435","568207","0.0-6.0-2.71","","<div style=""font-size:60px;"">+</div>","null","","","","","","",""
"null","","image-keyboard-response","436","569713","0.0-6.0-0.72","","img/red.png","null","trial","32","false","1,0","3:go_c","",""
"null","","html-keyboard-response","437","570745","0.0-6.0-1.72","","<img src=""img/red-n.png"">","null","trial","32","","1,0","3:go_c","0",""
"null","","html-keyboard-response","438","571757","0.0-6.0-2.72","","<div style=""font-size:60px;"">+</div>","null","","","","","","",""
"655.7999999970198","","image-keyboard-response","439","572414","0.0-6.0-0.73","","img/green.png","32","trial","32","true","0.8,0.2","1:go_a","",""
"null","","html-keyboard-response","440","573429","0.0-6.0-1.73","","<img src=""img/green-r.png"" border=""10"">","null","trial","32","","0.8,0.2","1:go_a","1",""
"null","","html-keyboard-response","441","574441","0.0-6.0-2.73","","<div style=""font-size:60px;"">+</div>","null","","","","","","",""
"832.3999999910593","","image-keyboard-response","442","575275","0.0-6.0-0.74","","img/purple.png","32","trial","null","false","0,1","4:nogo_d","",""
"null","","html-keyboard-response","443","576285","0.0-6.0-1.74","","<img src=""img/purple-n.png"" border=""10"">","null","trial","null","","0,1","4:nogo_d","0",""
"null","","html-keyboard-response","444","577296","0.0-6.0-2.74","","<div style=""font-size:60px;"">+</div>","null","","","","","","",""
"null","","image-keyboard-response","445","578805","0.0-6.0-0.75","","img/yellow.png","null","trial","null","true","0.2,0.8","2:nogo_b","",""
"null","","html-keyboard-response","446","579817","0.0-6.0-1.75","","<img src=""img/yellow-r.png"">","null","trial","null","","0.2,0.8","2:nogo_b","1",""
"null","","html-keyboard-response","447","580829","0.0-6.0-2.75","","<div style=""font-size:60px;"">+</div>","null","","","","","","",""
"480.59999999403954","","image-keyboard-response","448","581311","0.0-6.0-0.76","","img/green.png","32","trial","32","true","0.8,0.2","1:go_a","",""
"null","","html-keyboard-response","449","582320","0.0-6.0-1.76","","<img src=""img/green-r.png"" border=""10"">","null","trial","32","","0.8,0.2","1:go_a","1",""
"null","","html-keyboard-response","450","583327","0.0-6.0-2.76","","<div style=""font-size:60px;"">+</div>","null","","","","","","",""
"628.2000000029802","","image-keyboard-response","451","583956","0.0-6.0-0.77","","img/yellow.png","32","trial","null","false","0.2,0.8","2:nogo_b","",""
"null","","html-keyboard-response","452","584960","0.0-6.0-1.77","","<img src=""img/yellow-n.png"" border=""10"">","null","trial","null","","0.2,0.8","2:nogo_b","0",""
"null","","html-keyboard-response","453","585976","0.0-6.0-2.77","","<div style=""font-size:60px;"">+</div>","null","","","","","","",""
"null","","image-keyboard-response","454","587492","0.0-6.0-0.78","","img/purple.png","null","trial","null","true","0,1","4:nogo_d","",""
"null","","html-keyboard-response","455","588500","0.0-6.0-1.78","","<img src=""img/purple-r.png"">","null","trial","null","","0,1","4:nogo_d","1",""
"null","","html-keyboard-response","456","589516","0.0-6.0-2.78","","<div style=""font-size:60px;"">+</div>","null","","","","","","",""
"null","","image-keyboard-response","457","591033","0.0-6.0-0.79","","img/red.png","null","trial","32","false","1,0","3:go_c","",""
"null","","html-keyboard-response","458","592036","0.0-6.0-1.79","","<img src=""img/red-n.png"">","null","trial","32","","1,0","3:go_c","0",""
"null","","html-keyboard-response","459","593044","0.0-6.0-2.79","","<div style=""font-size:60px;"">+</div>","null","","","","","","",""
"620.2000000029802","","image-keyboard-response","460","593666","0.0-6.0-0.80","","img/yellow.png","32","trial","null","false","0.2,0.8","2:nogo_b","",""
"null","","html-keyboard-response","461","594670","0.0-6.0-1.80","","<img src=""img/yellow-n.png"" border=""10"">","null","trial","null","","0.2,0.8","2:nogo_b","0",""
"null","","html-keyboard-response","462","595687","0.0-6.0-2.80","","<div style=""font-size:60px;"">+</div>","null","","","","","","",""
"null","","image-keyboard-response","463","597201","0.0-6.0-0.81","","img/green.png","null","trial","32","false","0.8,0.2","1:go_a","",""
"null","","html-keyboard-response","464","598214","0.0-6.0-1.81","","<img src=""img/green-n.png"">","null","trial","32","","0.8,0.2","1:go_a","0",""
"null","","html-keyboard-response","465","599216","0.0-6.0-2.81","","<div style=""font-size:60px;"">+</div>","null","","","","","","",""
"null","","image-keyboard-response","466","600718","0.0-6.0-0.82","","img/red.png","null","trial","32","false","1,0","3:go_c","",""
"null","","html-keyboard-response","467","601726","0.0-6.0-1.82","","<img src=""img/red-n.png"">","null","trial","32","","1,0","3:go_c","0",""
"null","","html-keyboard-response","468","602729","0.0-6.0-2.82","","<div style=""font-size:60px;"">+</div>","null","","","","","","",""
"755","","image-keyboard-response","469","603486","0.0-6.0-0.83","","img/purple.png","32","trial","null","false","0,1","4:nogo_d","",""
"null","","html-keyboard-response","470","604494","0.0-6.0-1.83","","<img src=""img/purple-n.png"" border=""10"">","null","trial","null","","0,1","4:nogo_d","0",""
"null","","html-keyboard-response","471","605496","0.0-6.0-2.83","","<div style=""font-size:60px;"">+</div>","null","","","","","","",""
"null","","image-keyboard-response","472","607011","0.0-6.0-0.84","","img/red.png","null","trial","32","false","1,0","3:go_c","",""
"null","","html-keyboard-response","473","608028","0.0-6.0-1.84","","<img src=""img/red-n.png"">","null","trial","32","","1,0","3:go_c","0",""
"null","","html-keyboard-response","474","609043","0.0-6.0-2.84","","<div style=""font-size:60px;"">+</div>","null","","","","","","",""
"1112.4000000059605","","image-keyboard-response","475","610157","0.0-6.0-0.85","","img/green.png","32","trial","32","true","0.8,0.2","1:go_a","",""
"null","","html-keyboard-response","476","611171","0.0-6.0-1.85","","<img src=""img/green-r.png"" border=""10"">","null","trial","32","","0.8,0.2","1:go_a","1",""
"null","","html-keyboard-response","477","612181","0.0-6.0-2.85","","<div style=""font-size:60px;"">+</div>","null","","","","","","",""
"397.79999999701977","","image-keyboard-response","478","612580","0.0-6.0-0.86","","img/purple.png","32","trial","null","false","0,1","4:nogo_d","",""
"null","","html-keyboard-response","479","613587","0.0-6.0-1.86","","<img src=""img/purple-n.png"" border=""10"">","null","trial","null","","0,1","4:nogo_d","0",""
"null","","html-keyboard-response","480","614594","0.0-6.0-2.86","","<div style=""font-size:60px;"">+</div>","null","","","","","","",""
"462.6000000089407","","image-keyboard-response","481","615058","0.0-6.0-0.87","","img/yellow.png","32","trial","null","false","0.2,0.8","2:nogo_b","",""
"null","","html-keyboard-response","482","616064","0.0-6.0-1.87","","<img src=""img/yellow-n.png"" border=""10"">","null","trial","null","","0.2,0.8","2:nogo_b","0",""
"null","","html-keyboard-response","483","617077","0.0-6.0-2.87","","<div style=""font-size:60px;"">+</div>","null","","","","","","",""
"null","","image-keyboard-response","484","618581","0.0-6.0-0.88","","img/purple.png","null","trial","null","true","0,1","4:nogo_d","",""
"null","","html-keyboard-response","485","619584","0.0-6.0-1.88","","<img src=""img/purple-r.png"">","null","trial","null","","0,1","4:nogo_d","1",""
"null","","html-keyboard-response","486","620606","0.0-6.0-2.88","","<div style=""font-size:60px;"">+</div>","null","","","","","","",""
"410.09999999403954","","image-keyboard-response","487","621017","0.0-6.0-0.89","","img/green.png","32","trial","32","true","0.8,0.2","1:go_a","",""
"null","","html-keyboard-response","488","622021","0.0-6.0-1.89","","<img src=""img/green-r.png"" border=""10"">","null","trial","32","","0.8,0.2","1:go_a","1",""
"null","","html-keyboard-response","489","623027","0.0-6.0-2.89","","<div style=""font-size:60px;"">+</div>","null","","","","","","",""
"855.2000000029802","","image-keyboard-response","490","623883","0.0-6.0-0.90","","img/yellow.png","32","trial","null","false","0.2,0.8","2:nogo_b","",""
"null","","html-keyboard-response","491","624887","0.0-6.0-1.90","","<img src=""img/yellow-r.png"" border=""10"">","null","trial","null","","0.2,0.8","2:nogo_b","1",""
"null","","html-keyboard-response","492","625900","0.0-6.0-2.90","","<div style=""font-size:60px;"">+</div>","null","","","","","","",""
"null","","image-keyboard-response","493","627411","0.0-6.0-0.91","","img/red.png","null","trial","32","false","1,0","3:go_c","",""
"null","","html-keyboard-response","494","628426","0.0-6.0-1.91","","<img src=""img/red-n.png"">","null","trial","32","","1,0","3:go_c","0",""
"null","","html-keyboard-response","495","629432","0.0-6.0-2.91","","<div style=""font-size:60px;"">+</div>","null","","","","","","",""
"null","","image-keyboard-response","496","630947","0.0-6.0-0.92","","img/green.png","null","trial","32","false","0.8,0.2","1:go_a","",""
"null","","html-keyboard-response","497","631965","0.0-6.0-1.92","","<img src=""img/green-r.png"">","null","trial","32","","0.8,0.2","1:go_a","1",""
"null","","html-keyboard-response","498","632977","0.0-6.0-2.92","","<div style=""font-size:60px;"">+</div>","null","","","","","","",""
"837.3999999910593","","image-keyboard-response","499","633815","0.0-6.0-0.93","","img/purple.png","32","trial","null","false","0,1","4:nogo_d","",""
"null","","html-keyboard-response","500","634840","0.0-6.0-1.93","","<img src=""img/purple-n.png"" border=""10"">","null","trial","null","","0,1","4:nogo_d","0",""
"null","","html-keyboard-response","501","635856","0.0-6.0-2.93","","<div style=""font-size:60px;"">+</div>","null","","","","","","",""
"null","","image-keyboard-response","502","637358","0.0-6.0-0.94","","img/red.png","null","trial","32","false","1,0","3:go_c","",""
"null","","html-keyboard-response","503","638368","0.0-6.0-1.94","","<img src=""img/red-n.png"">","null","trial","32","","1,0","3:go_c","0",""
"null","","html-keyboard-response","504","639373","0.0-6.0-2.94","","<div style=""font-size:60px;"">+</div>","null","","","","","","",""
"null","","image-keyboard-response","505","640882","0.0-6.0-0.95","","img/yellow.png","null","trial","null","true","0.2,0.8","2:nogo_b","",""
"null","","html-keyboard-response","506","641898","0.0-6.0-1.95","","<img src=""img/yellow-r.png"">","null","trial","null","","0.2,0.8","2:nogo_b","1",""
"null","","html-keyboard-response","507","642907","0.0-6.0-2.95","","<div style=""font-size:60px;"">+</div>","null","","","","","","",""
"649","","image-keyboard-response","508","643557","0.0-6.0-0.96","","img/green.png","32","trial","32","true","0.8,0.2","1:go_a","",""
"null","","html-keyboard-response","509","644573","0.0-6.0-1.96","","<img src=""img/green-r.png"" border=""10"">","null","trial","32","","0.8,0.2","1:go_a","1",""
"null","","html-keyboard-response","510","645585","0.0-6.0-2.96","","<div style=""font-size:60px;"">+</div>","null","","","","","","",""
"null","","image-keyboard-response","511","647088","0.0-6.0-0.97","","img/red.png","null","trial","32","false","1,0","3:go_c","",""
"null","","html-keyboard-response","512","648090","0.0-6.0-1.97","","<img src=""img/red-n.png"">","null","trial","32","","1,0","3:go_c","0",""
"null","","html-keyboard-response","513","649106","0.0-6.0-2.97","","<div style=""font-size:60px;"">+</div>","null","","","","","","",""
"null","","image-keyboard-response","514","650614","0.0-6.0-0.98","","img/yellow.png","null","trial","null","true","0.2,0.8","2:nogo_b","",""
"null","","html-keyboard-response","515","651617","0.0-6.0-1.98","","<img src=""img/yellow-r.png"">","null","trial","null","","0.2,0.8","2:nogo_b","1",""
"null","","html-keyboard-response","516","652630","0.0-6.0-2.98","","<div style=""font-size:60px;"">+</div>","null","","","","","","",""
"null","","image-keyboard-response","517","654131","0.0-6.0-0.99","","img/purple.png","null","trial","null","true","0,1","4:nogo_d","",""
"null","","html-keyboard-response","518","655134","0.0-6.0-1.99","","<img src=""img/purple-r.png"">","null","trial","null","","0,1","4:nogo_d","1",""
"null","","html-keyboard-response","519","656137","0.0-6.0-2.99","","<div style=""font-size:60px;"">+</div>","null","","","","","","",""
"433.90000000596046","","image-keyboard-response","520","656573","0.0-6.0-0.100","","img/green.png","32","trial","32","true","0.8,0.2","1:go_a","",""
"null","","html-keyboard-response","521","657589","0.0-6.0-1.100","","<img src=""img/green-n.png"" border=""10"">","null","trial","32","","0.8,0.2","1:go_a","0",""
"null","","html-keyboard-response","522","658597","0.0-6.0-2.100","","<div style=""font-size:60px;"">+</div>","null","","","","","","",""
"null","","image-keyboard-response","523","660113","0.0-6.0-0.101","","img/red.png","null","trial","32","false","1,0","3:go_c","",""
"null","","html-keyboard-response","524","661118","0.0-6.0-1.101","","<img src=""img/red-n.png"">","null","trial","32","","1,0","3:go_c","0",""
"null","","html-keyboard-response","525","662124","0.0-6.0-2.101","","<div style=""font-size:60px;"">+</div>","null","","","","","","",""
"541.7999999970198","","image-keyboard-response","526","662667","0.0-6.0-0.102","","img/yellow.png","32","trial","null","false","0.2,0.8","2:nogo_b","",""
"null","","html-keyboard-response","527","663678","0.0-6.0-1.102","","<img src=""img/yellow-n.png"" border=""10"">","null","trial","null","","0.2,0.8","2:nogo_b","0",""
"null","","html-keyboard-response","528","664690","0.0-6.0-2.102","","<div style=""font-size:60px;"">+</div>","null","","","","","","",""
"null","","image-keyboard-response","529","666197","0.0-6.0-0.103","","img/purple.png","null","trial","null","true","0,1","4:nogo_d","",""
"null","","html-keyboard-response","530","667213","0.0-6.0-1.103","","<img src=""img/purple-r.png"">","null","trial","null","","0,1","4:nogo_d","1",""
"null","","html-keyboard-response","531","668225","0.0-6.0-2.103","","<div style=""font-size:60px;"">+</div>","null","","","","","","",""
"518.2999999970198","","image-keyboard-response","532","668745","0.0-6.0-0.104","","img/green.png","32","trial","32","true","0.8,0.2","1:go_a","",""
"null","","html-keyboard-response","533","669751","0.0-6.0-1.104","","<img src=""img/green-r.png"" border=""10"">","null","trial","32","","0.8,0.2","1:go_a","1",""
"null","","html-keyboard-response","534","670762","0.0-6.0-2.104","","<div style=""font-size:60px;"">+</div>","null","","","","","","",""
"659.3000000119209","","image-keyboard-response","535","671423","0.0-6.0-0.105","","img/purple.png","32","trial","null","false","0,1","4:nogo_d","",""
"null","","html-keyboard-response","536","672435","0.0-6.0-1.105","","<img src=""img/purple-n.png"" border=""10"">","null","trial","null","","0,1","4:nogo_d","0",""
"null","","html-keyboard-response","537","673450","0.0-6.0-2.105","","<div style=""font-size:60px;"">+</div>","null","","","","","","",""
"null","","image-keyboard-response","538","674962","0.0-6.0-0.106","","img/red.png","null","trial","32","false","1,0","3:go_c","",""
"null","","html-keyboard-response","539","675976","0.0-6.0-1.106","","<img src=""img/red-n.png"">","null","trial","32","","1,0","3:go_c","0",""
"null","","html-keyboard-response","540","676978","0.0-6.0-2.106","","<div style=""font-size:60px;"">+</div>","null","","","","","","",""
"747.8999999910593","","image-keyboard-response","541","677727","0.0-6.0-0.107","","img/yellow.png","32","trial","null","false","0.2,0.8","2:nogo_b","",""
"null","","html-keyboard-response","542","678734","0.0-6.0-1.107","","<img src=""img/yellow-n.png"" border=""10"">","null","trial","null","","0.2,0.8","2:nogo_b","0",""
"null","","html-keyboard-response","543","679736","0.0-6.0-2.107","","<div style=""font-size:60px;"">+</div>","null","","","","","","",""
"null","","image-keyboard-response","544","681241","0.0-6.0-0.108","","img/purple.png","null","trial","null","true","0,1","4:nogo_d","",""
"null","","html-keyboard-response","545","682252","0.0-6.0-1.108","","<img src=""img/purple-r.png"">","null","trial","null","","0,1","4:nogo_d","1",""
"null","","html-keyboard-response","546","683267","0.0-6.0-2.108","","<div style=""font-size:60px;"">+</div>","null","","","","","","",""
"534.5","","image-keyboard-response","547","683803","0.0-6.0-0.109","","img/green.png","32","trial","32","true","0.8,0.2","1:go_a","",""
"null","","html-keyboard-response","548","684806","0.0-6.0-1.109","","<img src=""img/green-n.png"" border=""10"">","null","trial","32","","0.8,0.2","1:go_a","0",""
"null","","html-keyboard-response","549","685814","0.0-6.0-2.109","","<div style=""font-size:60px;"">+</div>","null","","","","","","",""
"null","","image-keyboard-response","550","687330","0.0-6.0-0.110","","img/yellow.png","null","trial","null","true","0.2,0.8","2:nogo_b","",""
"null","","html-keyboard-response","551","688336","0.0-6.0-1.110","","<img src=""img/yellow-r.png"">","null","trial","null","","0.2,0.8","2:nogo_b","1",""
"null","","html-keyboard-response","552","689342","0.0-6.0-2.110","","<div style=""font-size:60px;"">+</div>","null","","","","","","",""
"null","","image-keyboard-response","553","690857","0.0-6.0-0.111","","img/red.png","null","trial","32","false","1,0","3:go_c","",""
"null","","html-keyboard-response","554","691862","0.0-6.0-1.111","","<img src=""img/red-n.png"">","null","trial","32","","1,0","3:go_c","0",""
"null","","html-keyboard-response","555","692878","0.0-6.0-2.111","","<div style=""font-size:60px;"">+</div>","null","","","","","","",""
"null","","image-keyboard-response","556","694390","0.0-6.0-0.112","","img/red.png","null","trial","32","false","1,0","3:go_c","",""
"null","","html-keyboard-response","557","695404","0.0-6.0-1.112","","<img src=""img/red-n.png"">","null","trial","32","","1,0","3:go_c","0",""
"null","","html-keyboard-response","558","696417","0.0-6.0-2.112","","<div style=""font-size:60px;"">+</div>","null","","","","","","",""
"512.6999999880791","","image-keyboard-response","559","696931","0.0-6.0-0.113","","img/purple.png","32","trial","null","false","0,1","4:nogo_d","",""
"null","","html-keyboard-response","560","697938","0.0-6.0-1.113","","<img src=""img/purple-n.png"" border=""10"">","null","trial","null","","0,1","4:nogo_d","0",""
"null","","html-keyboard-response","561","698943","0.0-6.0-2.113","","<div style=""font-size:60px;"">+</div>","null","","","","","","",""
"null","","image-keyboard-response","562","700450","0.0-6.0-0.114","","img/green.png","null","trial","32","false","0.8,0.2","1:go_a","",""
"null","","html-keyboard-response","563","701468","0.0-6.0-1.114","","<img src=""img/green-n.png"">","null","trial","32","","0.8,0.2","1:go_a","0",""
"null","","html-keyboard-response","564","702469","0.0-6.0-2.114","","<div style=""font-size:60px;"">+</div>","null","","","","","","",""
"1021.0999999940395","","image-keyboard-response","565","703492","0.0-6.0-0.115","","img/yellow.png","32","trial","null","false","0.2,0.8","2:nogo_b","",""
"null","","html-keyboard-response","566","704506","0.0-6.0-1.115","","<img src=""img/yellow-n.png"" border=""10"">","null","trial","null","","0.2,0.8","2:nogo_b","0",""
"null","","html-keyboard-response","567","705522","0.0-6.0-2.115","","<div style=""font-size:60px;"">+</div>","null","","","","","","",""
"920.7000000029802","","image-keyboard-response","568","706444","0.0-6.0-0.116","","img/green.png","32","trial","32","true","0.8,0.2","1:go_a","",""
"null","","html-keyboard-response","569","707453","0.0-6.0-1.116","","<img src=""img/green-r.png"" border=""10"">","null","trial","32","","0.8,0.2","1:go_a","1",""
"null","","html-keyboard-response","570","708464","0.0-6.0-2.116","","<div style=""font-size:60px;"">+</div>","null","","","","","","",""
"790.6000000089407","","image-keyboard-response","571","709256","0.0-6.0-0.117","","img/purple.png","32","trial","null","false","0,1","4:nogo_d","",""
"null","","html-keyboard-response","572","710262","0.0-6.0-1.117","","<img src=""img/purple-n.png"" border=""10"">","null","trial","null","","0,1","4:nogo_d","0",""
"null","","html-keyboard-response","573","711270","0.0-6.0-2.117","","<div style=""font-size:60px;"">+</div>","null","","","","","","",""
"null","","image-keyboard-response","574","712779","0.0-6.0-0.118","","img/red.png","null","trial","32","false","1,0","3:go_c","",""
"null","","html-keyboard-response","575","713784","0.0-6.0-1.118","","<img src=""img/red-n.png"">","null","trial","32","","1,0","3:go_c","0",""
"null","","html-keyboard-response","576","714796","0.0-6.0-2.118","","<div style=""font-size:60px;"">+</div>","null","","","","","","",""
"null","","image-keyboard-response","577","716312","0.0-6.0-0.119","","img/yellow.png","null","trial","null","true","0.2,0.8","2:nogo_b","",""
"null","","html-keyboard-response","578","717321","0.0-6.0-1.119","","<img src=""img/yellow-n.png"">","null","trial","null","","0.2,0.8","2:nogo_b","0",""
"null","","html-keyboard-response","579","718325","0.0-6.0-2.119","","<div style=""font-size:60px;"">+</div>","null","","","","","","",""
"10965.5","","instructions","580","729292","0.0-7.0","[{""page_index"":0,""viewing_time"":10965}]","","","","","","","","",""
"null","","image-keyboard-response","581","730797","0.0-8.0-0.0","","img/grey.png","null","trial","32","false","0.6,0.4","3:go_c","",""
"null","","html-keyboard-response","582","731812","0.0-8.0-1.0","","<img src=""img/grey-n.png"">","null","trial","32","","0.6,0.4","3:go_c","0",""
"null","","html-keyboard-response","583","732828","0.0-8.0-2.0","","<div style=""font-size:60px;"">+</div>","null","","","","","","",""
"521.4000000059605","","image-keyboard-response","584","733350","0.0-8.0-0.1","","img/yellow.png","32","trial","32","true","0.8,0.2","1:go_a","",""
"null","","html-keyboard-response","585","734361","0.0-8.0-1.1","","<img src=""img/yellow-r.png"" border=""10"">","null","trial","32","","0.8,0.2","1:go_a","1",""
"null","","html-keyboard-response","586","735368","0.0-8.0-2.1","","<div style=""font-size:60px;"">+</div>","null","","","","","","",""
"873.1000000089407","","image-keyboard-response","587","736242","0.0-8.0-0.2","","img/blue.png","32","trial","null","false","0.4,0.6","4:nogo_d","",""
"null","","html-keyboard-response","588","737259","0.0-8.0-1.2","","<img src=""img/blue-n.png"" border=""10"">","null","trial","null","","0.4,0.6","4:nogo_d","0",""
"null","","html-keyboard-response","589","738261","0.0-8.0-2.2","","<div style=""font-size:60px;"">+</div>","null","","","","","","",""
"null","","image-keyboard-response","590","739767","0.0-8.0-0.3","","img/red.png","null","trial","null","true","0.2,0.8","2:nogo_b","",""
"null","","html-keyboard-response","591","740773","0.0-8.0-1.3","","<img src=""img/red-n.png"">","null","trial","null","","0.2,0.8","2:nogo_b","0",""
"null","","html-keyboard-response","592","741785","0.0-8.0-2.3","","<div style=""font-size:60px;"">+</div>","null","","","","","","",""
"null","","image-keyboard-response","593","743288","0.0-8.0-0.4","","img/red.png","null","trial","null","true","0.2,0.8","2:nogo_b","",""
"null","","html-keyboard-response","594","744295","0.0-8.0-1.4","","<img src=""img/red-r.png"">","null","trial","null","","0.2,0.8","2:nogo_b","1",""
"null","","html-keyboard-response","595","745303","0.0-8.0-2.4","","<div style=""font-size:60px;"">+</div>","null","","","","","","",""
"704.2000000029802","","image-keyboard-response","596","746008","0.0-8.0-0.5","","img/blue.png","32","trial","null","false","0.4,0.6","4:nogo_d","",""
"null","","html-keyboard-response","597","747023","0.0-8.0-1.5","","<img src=""img/blue-n.png"" border=""10"">","null","trial","null","","0.4,0.6","4:nogo_d","0",""
"null","","html-keyboard-response","598","748032","0.0-8.0-2.5","","<div style=""font-size:60px;"">+</div>","null","","","","","","",""
"987","","image-keyboard-response","599","749021","0.0-8.0-0.6","","img/yellow.png","32","trial","32","true","0.8,0.2","1:go_a","",""
"null","","html-keyboard-response","600","750032","0.0-8.0-1.6","","<img src=""img/yellow-r.png"" border=""10"">","null","trial","32","","0.8,0.2","1:go_a","1",""
"null","","html-keyboard-response","601","751047","0.0-8.0-2.6","","<div style=""font-size:60px;"">+</div>","null","","","","","","",""
"1158.1000000089407","","image-keyboard-response","602","752206","0.0-8.0-0.7","","img/grey.png","32","trial","32","true","0.6,0.4","3:go_c","",""
"null","","html-keyboard-response","603","753219","0.0-8.0-1.7","","<img src=""img/grey-n.png"" border=""10"">","null","trial","32","","0.6,0.4","3:go_c","0",""
"null","","html-keyboard-response","604","754222","0.0-8.0-2.7","","<div style=""font-size:60px;"">+</div>","null","","","","","","",""
"null","","image-keyboard-response","605","755733","0.0-8.0-0.8","","img/red.png","null","trial","null","true","0.2,0.8","2:nogo_b","",""
"null","","html-keyboard-response","606","756747","0.0-8.0-1.8","","<img src=""img/red-r.png"">","null","trial","null","","0.2,0.8","2:nogo_b","1",""
"null","","html-keyboard-response","607","757750","0.0-8.0-2.8","","<div style=""font-size:60px;"">+</div>","null","","","","","","",""
"1067.8999999910593","","image-keyboard-response","608","758819","0.0-8.0-0.9","","img/grey.png","32","trial","32","true","0.6,0.4","3:go_c","",""
"null","","html-keyboard-response","609","759827","0.0-8.0-1.9","","<img src=""img/grey-r.png"" border=""10"">","null","trial","32","","0.6,0.4","3:go_c","1",""
"null","","html-keyboard-response","610","760836","0.0-8.0-2.9","","<div style=""font-size:60px;"">+</div>","null","","","","","","",""
"null","","image-keyboard-response","611","762353","0.0-8.0-0.10","","img/blue.png","null","trial","null","true","0.4,0.6","4:nogo_d","",""
"null","","html-keyboard-response","612","763364","0.0-8.0-1.10","","<img src=""img/blue-n.png"">","null","trial","null","","0.4,0.6","4:nogo_d","0",""
"null","","html-keyboard-response","613","764370","0.0-8.0-2.10","","<div style=""font-size:60px;"">+</div>","null","","","","","","",""
"835","","image-keyboard-response","614","765208","0.0-8.0-0.11","","img/yellow.png","32","trial","32","true","0.8,0.2","1:go_a","",""
"null","","html-keyboard-response","615","766218","0.0-8.0-1.11","","<img src=""img/yellow-r.png"" border=""10"">","null","trial","32","","0.8,0.2","1:go_a","1",""
"null","","html-keyboard-response","616","767231","0.0-8.0-2.11","","<div style=""font-size:60px;"">+</div>","null","","","","","","",""
"null","","image-keyboard-response","617","768736","0.0-8.0-0.12","","img/red.png","null","trial","null","true","0.2,0.8","2:nogo_b","",""
"null","","html-keyboard-response","618","769749","0.0-8.0-1.12","","<img src=""img/red-r.png"">","null","trial","null","","0.2,0.8","2:nogo_b","1",""
"null","","html-keyboard-response","619","770762","0.0-8.0-2.12","","<div style=""font-size:60px;"">+</div>","null","","","","","","",""
"null","","image-keyboard-response","620","772271","0.0-8.0-0.13","","img/yellow.png","null","trial","32","false","0.8,0.2","1:go_a","",""
"null","","html-keyboard-response","621","773275","0.0-8.0-1.13","","<img src=""img/yellow-n.png"">","null","trial","32","","0.8,0.2","1:go_a","0",""
"null","","html-keyboard-response","622","774281","0.0-8.0-2.13","","<div style=""font-size:60px;"">+</div>","null","","","","","","",""
"764.7000000029802","","image-keyboard-response","623","775047","0.0-8.0-0.14","","img/blue.png","32","trial","null","false","0.4,0.6","4:nogo_d","",""
"null","","html-keyboard-response","624","776056","0.0-8.0-1.14","","<img src=""img/blue-n.png"" border=""10"">","null","trial","null","","0.4,0.6","4:nogo_d","0",""
"null","","html-keyboard-response","625","777061","0.0-8.0-2.14","","<div style=""font-size:60px;"">+</div>","null","","","","","","",""
"1047.5","","image-keyboard-response","626","778109","0.0-8.0-0.15","","img/grey.png","32","trial","32","true","0.6,0.4","3:go_c","",""
"null","","html-keyboard-response","627","779113","0.0-8.0-1.15","","<img src=""img/grey-r.png"" border=""10"">","null","trial","32","","0.6,0.4","3:go_c","1",""
"null","","html-keyboard-response","628","780122","0.0-8.0-2.15","","<div style=""font-size:60px;"">+</div>","null","","","","","","",""
"1006.1000000089407","","image-keyboard-response","629","781130","0.0-8.0-0.16","","img/red.png","32","trial","null","false","0.2,0.8","2:nogo_b","",""
"null","","html-keyboard-response","630","782132","0.0-8.0-1.16","","<img src=""img/red-r.png"" border=""10"">","null","trial","null","","0.2,0.8","2:nogo_b","1",""
"null","","html-keyboard-response","631","783135","0.0-8.0-2.16","","<div style=""font-size:60px;"">+</div>","null","","","","","","",""
"null","","image-keyboard-response","632","784639","0.0-8.0-0.17","","img/grey.png","null","trial","32","false","0.6,0.4","3:go_c","",""
"null","","html-keyboard-response","633","785653","0.0-8.0-1.17","","<img src=""img/grey-n.png"">","null","trial","32","","0.6,0.4","3:go_c","0",""
"null","","html-keyboard-response","634","786659","0.0-8.0-2.17","","<div style=""font-size:60px;"">+</div>","null","","","","","","",""
"638.7000000029802","","image-keyboard-response","635","787298","0.0-8.0-0.18","","img/yellow.png","32","trial","32","true","0.8,0.2","1:go_a","",""
"null","","html-keyboard-response","636","788308","0.0-8.0-1.18","","<img src=""img/yellow-r.png"" border=""10"">","null","trial","32","","0.8,0.2","1:go_a","1",""
"null","","html-keyboard-response","637","789320","0.0-8.0-2.18","","<div style=""font-size:60px;"">+</div>","null","","","","","","",""
"null","","image-keyboard-response","638","790824","0.0-8.0-0.19","","img/blue.png","null","trial","null","true","0.4,0.6","4:nogo_d","",""
"null","","html-keyboard-response","639","791833","0.0-8.0-1.19","","<img src=""img/blue-n.png"">","null","trial","null","","0.4,0.6","4:nogo_d","0",""
"null","","html-keyboard-response","640","792836","0.0-8.0-2.19","","<div style=""font-size:60px;"">+</div>","null","","","","","","",""
"679.7000000029802","","image-keyboard-response","641","793517","0.0-8.0-0.20","","img/red.png","32","trial","null","false","0.2,0.8","2:nogo_b","",""
"null","","html-keyboard-response","642","794532","0.0-8.0-1.20","","<img src=""img/red-n.png"" border=""10"">","null","trial","null","","0.2,0.8","2:nogo_b","0",""
"null","","html-keyboard-response","643","795559","0.0-8.0-2.20","","<div style=""font-size:60px;"">+</div>","null","","","","","","",""
"933.2999999970198","","image-keyboard-response","644","796493","0.0-8.0-0.21","","img/yellow.png","32","trial","32","true","0.8,0.2","1:go_a","",""
"null","","html-keyboard-response","645","797508","0.0-8.0-1.21","","<img src=""img/yellow-n.png"" border=""10"">","null","trial","32","","0.8,0.2","1:go_a","0",""
"null","","html-keyboard-response","646","798525","0.0-8.0-2.21","","<div style=""font-size:60px;"">+</div>","null","","","","","","",""
"null","","image-keyboard-response","647","800043","0.0-8.0-0.22","","img/blue.png","null","trial","null","true","0.4,0.6","4:nogo_d","",""
"null","","html-keyboard-response","648","801058","0.0-8.0-1.22","","<img src=""img/blue-n.png"">","null","trial","null","","0.4,0.6","4:nogo_d","0",""
"null","","html-keyboard-response","649","802067","0.0-8.0-2.22","","<div style=""font-size:60px;"">+</div>","null","","","","","","",""
"774.6999999880791","","image-keyboard-response","650","802843","0.0-8.0-0.23","","img/grey.png","32","trial","32","true","0.6,0.4","3:go_c","",""
"null","","html-keyboard-response","651","803853","0.0-8.0-1.23","","<img src=""img/grey-r.png"" border=""10"">","null","trial","32","","0.6,0.4","3:go_c","1",""
"null","","html-keyboard-response","652","804858","0.0-8.0-2.23","","<div style=""font-size:60px;"">+</div>","null","","","","","","",""
"null","","image-keyboard-response","653","806371","0.0-8.0-0.24","","img/grey.png","null","trial","32","false","0.6,0.4","3:go_c","",""
"null","","html-keyboard-response","654","807388","0.0-8.0-1.24","","<img src=""img/grey-n.png"">","null","trial","32","","0.6,0.4","3:go_c","0",""
"null","","html-keyboard-response","655","808400","0.0-8.0-2.24","","<div style=""font-size:60px;"">+</div>","null","","","","","","",""
"527.8000000119209","","image-keyboard-response","656","808930","0.0-8.0-0.25","","img/yellow.png","32","trial","32","true","0.8,0.2","1:go_a","",""
"null","","html-keyboard-response","657","809935","0.0-8.0-1.25","","<img src=""img/yellow-r.png"" border=""10"">","null","trial","32","","0.8,0.2","1:go_a","1",""
"null","","html-keyboard-response","658","810937","0.0-8.0-2.25","","<div style=""font-size:60px;"">+</div>","null","","","","","","",""
"941.2000000029802","","image-keyboard-response","659","811880","0.0-8.0-0.26","","img/red.png","32","trial","null","false","0.2,0.8","2:nogo_b","",""
"null","","html-keyboard-response","660","812891","0.0-8.0-1.26","","<img src=""img/red-n.png"" border=""10"">","null","trial","null","","0.2,0.8","2:nogo_b","0",""
"null","","html-keyboard-response","661","813908","0.0-8.0-2.26","","<div style=""font-size:60px;"">+</div>","null","","","","","","",""
"698","","image-keyboard-response","662","814607","0.0-8.0-0.27","","img/blue.png","32","trial","null","false","0.4,0.6","4:nogo_d","",""
"null","","html-keyboard-response","663","815625","0.0-8.0-1.27","","<img src=""img/blue-r.png"" border=""10"">","null","trial","null","","0.4,0.6","4:nogo_d","1",""
"null","","html-keyboard-response","664","816628","0.0-8.0-2.27","","<div style=""font-size:60px;"">+</div>","null","","","","","","",""
"837.7000000029802","","image-keyboard-response","665","817467","0.0-8.0-0.28","","img/grey.png","32","trial","32","true","0.6,0.4","3:go_c","",""
"null","","html-keyboard-response","666","818478","0.0-8.0-1.28","","<img src=""img/grey-n.png"" border=""10"">","null","trial","32","","0.6,0.4","3:go_c","0",""
"null","","html-keyboard-response","667","819491","0.0-8.0-2.28","","<div style=""font-size:60px;"">+</div>","null","","","","","","",""
"650.1000000089407","","image-keyboard-response","668","820142","0.0-8.0-0.29","","img/red.png","32","trial","null","false","0.2,0.8","2:nogo_b","",""
"null","","html-keyboard-response","669","821149","0.0-8.0-1.29","","<img src=""img/red-n.png"" border=""10"">","null","trial","null","","0.2,0.8","2:nogo_b","0",""
"null","","html-keyboard-response","670","822166","0.0-8.0-2.29","","<div style=""font-size:60px;"">+</div>","null","","","","","","",""
"null","","image-keyboard-response","671","823668","0.0-8.0-0.30","","img/yellow.png","null","trial","32","false","0.8,0.2","1:go_a","",""
"null","","html-keyboard-response","672","824678","0.0-8.0-1.30","","<img src=""img/yellow-n.png"">","null","trial","32","","0.8,0.2","1:go_a","0",""
"null","","html-keyboard-response","673","825697","0.0-8.0-2.30","","<div style=""font-size:60px;"">+</div>","null","","","","","","",""
"473.59999999403954","","image-keyboard-response","674","826172","0.0-8.0-0.31","","img/blue.png","32","trial","null","false","0.4,0.6","4:nogo_d","",""
"null","","html-keyboard-response","675","827188","0.0-8.0-1.31","","<img src=""img/blue-n.png"" border=""10"">","null","trial","null","","0.4,0.6","4:nogo_d","0",""
"null","","html-keyboard-response","676","828201","0.0-8.0-2.31","","<div style=""font-size:60px;"">+</div>","null","","","","","","",""
"null","","image-keyboard-response","677","829709","0.0-8.0-0.32","","img/blue.png","null","trial","null","true","0.4,0.6","4:nogo_d","",""
"null","","html-keyboard-response","678","830720","0.0-8.0-1.32","","<img src=""img/blue-n.png"">","null","trial","null","","0.4,0.6","4:nogo_d","0",""
"null","","html-keyboard-response","679","831728","0.0-8.0-2.32","","<div style=""font-size:60px;"">+</div>","null","","","","","","",""
"699.5999999940395","","image-keyboard-response","680","832429","0.0-8.0-0.33","","img/red.png","32","trial","null","false","0.2,0.8","2:nogo_b","",""
"null","","html-keyboard-response","681","833437","0.0-8.0-1.33","","<img src=""img/red-n.png"" border=""10"">","null","trial","null","","0.2,0.8","2:nogo_b","0",""
"null","","html-keyboard-response","682","834443","0.0-8.0-2.33","","<div style=""font-size:60px;"">+</div>","null","","","","","","",""
