"rt","url","trial_type","trial_index","time_elapsed","internal_node_id","view_history","stimulus","key_press","test_part","correct_response","correct","use_rew","which_stim","reward","responses"
"20905.99999995902","consent.html","external-html","0","21351","0.0-0.0","","","","","","","","","",""
"335194.0000001341","","instructions","1","356548","0.0-1.0","[{""page_index"":0,""viewing_time"":12203.000000212342},{""page_index"":1,""viewing_time"":35047.99999995157},{""page_index"":2,""viewing_time"":2231.999999843538},{""page_index"":1,""viewing_time"":4109.000000171363},{""page_index"":2,""viewing_time"":6646.999999880791},{""page_index"":3,""viewing_time"":29055.000000167638},{""page_index"":4,""viewing_time"":12966.999999713153},{""page_index"":5,""viewing_time"":214252.00000032783},{""page_index"":6,""viewing_time"":18679.999999701977}]","","","","","","","","",""
"null","","image-keyboard-response","2","358051","0.0-2.0-0.0","","img/test2.PNG","null","practice","null","true","","","",""
"null","","html-keyboard-response","3","359053","0.0-2.0-1.0","","<img src=""img/test2-reward.PNG"">","null","","","","","","",""
"null","","html-keyboard-response","4","360055","0.0-2.0-2.0","","<div style=""font-size:60px;"">+</div>","null","","","","","","",""
"894.000000320375","","image-keyboard-response","5","360951","0.0-2.0-0.1","","img/test1.PNG","32","practice","32","true","","","",""
"null","","html-keyboard-response","6","361952","0.0-2.0-1.1","","<img src=""img/test1-reward.PNG"" border=""10px; grey"">","null","","","","","","",""
"null","","html-keyboard-response","7","362960","0.0-2.0-2.1","","<div style=""font-size:60px;"">+</div>","null","","","","","","",""
"null","","image-keyboard-response","8","364465","0.0-2.0-0.2","","img/test3.PNG","null","practice","null","true","","","",""
"null","","html-keyboard-response","9","365465","0.0-2.0-1.2","","<img src=""img/test3-reward.PNG"">","null","","","","","","",""
"null","","html-keyboard-response","10","366491","0.0-2.0-2.2","","<div style=""font-size:60px;"">+</div>","null","","","","","","",""
"null","","image-keyboard-response","11","368040","0.0-2.0-0.3","","img/test3.PNG","null","practice","null","true","","","",""
"null","","html-keyboard-response","12","369043","0.0-2.0-1.3","","<img src=""img/test3-reward.PNG"">","null","","","","","","",""
"null","","html-keyboard-response","13","370046","0.0-2.0-2.3","","<div style=""font-size:60px;"">+</div>","null","","","","","","",""
"777.0000002346933","","image-keyboard-response","14","370824","0.0-2.0-0.4","","img/test1.PNG","32","practice","32","true","","","",""
"null","","html-keyboard-response","15","371826","0.0-2.0-1.4","","<img src=""img/test1-reward.PNG"" border=""10px; grey"">","null","","","","","","",""
"null","","html-keyboard-response","16","372873","0.0-2.0-2.4","","<div style=""font-size:60px;"">+</div>","null","","","","","","",""
"null","","image-keyboard-response","17","374500","0.0-2.0-0.5","","img/test2.PNG","null","practice","null","true","","","",""
"null","","html-keyboard-response","18","375505","0.0-2.0-1.5","","<img src=""img/test2-reward.PNG"">","null","","","","","","",""
"null","","html-keyboard-response","19","376506","0.0-2.0-2.5","","<div style=""font-size:60px;"">+</div>","null","","","","","","",""
"851.9999999552965","","image-keyboard-response","20","377359","0.0-2.0-0.6","","img/test1.PNG","32","practice","32","true","","","",""
"null","","html-keyboard-response","21","378460","0.0-2.0-1.6","","<img src=""img/test1-reward.PNG"" border=""10px; grey"">","null","","","","","","",""
"null","","html-keyboard-response","22","379461","0.0-2.0-2.6","","<div style=""font-size:60px;"">+</div>","null","","","","","","",""
"null","","image-keyboard-response","23","380963","0.0-2.0-0.7","","img/test2.PNG","null","practice","null","true","","","",""
"null","","html-keyboard-response","24","381966","0.0-2.0-1.7","","<img src=""img/test2-reward.PNG"">","null","","","","","","",""
"null","","html-keyboard-response","25","382966","0.0-2.0-2.7","","<div style=""font-size:60px;"">+</div>","null","","","","","","",""
"null","","image-keyboard-response","26","384468","0.0-2.0-0.8","","img/test3.PNG","null","practice","null","true","","","",""
"null","","html-keyboard-response","27","385471","0.0-2.0-1.8","","<img src=""img/test3-reward.PNG"">","null","","","","","","",""
"null","","html-keyboard-response","28","386472","0.0-2.0-2.8","","<div style=""font-size:60px;"">+</div>","null","","","","","","",""
"null","","image-keyboard-response","29","387975","0.0-2.0-0.9","","img/test3.PNG","null","practice","null","true","","","",""
"null","","html-keyboard-response","30","388975","0.0-2.0-1.9","","<img src=""img/test3-reward.PNG"">","null","","","","","","",""
"null","","html-keyboard-response","31","389976","0.0-2.0-2.9","","<div style=""font-size:60px;"">+</div>","null","","","","","","",""
"null","","image-keyboard-response","32","391478","0.0-2.0-0.10","","img/test2.PNG","null","practice","null","true","","","",""
"null","","html-keyboard-response","33","392511","0.0-2.0-1.10","","<img src=""img/test2-reward.PNG"">","null","","","","","","",""
"null","","html-keyboard-response","34","393512","0.0-2.0-2.10","","<div style=""font-size:60px;"">+</div>","null","","","","","","",""
"844.0000000409782","","image-keyboard-response","35","394359","0.0-2.0-0.11","","img/test1.PNG","32","practice","32","true","","","",""
"null","","html-keyboard-response","36","395361","0.0-2.0-1.11","","<img src=""img/test1-reward.PNG"" border=""10px; grey"">","null","","","","","","",""
"null","","html-keyboard-response","37","396362","0.0-2.0-2.11","","<div style=""font-size:60px;"">+</div>","null","","","","","","",""
"26223.99999992922","","instructions","38","422587","0.0-3.0","[{""page_index"":0,""viewing_time"":26223.000000230968}]","","","","","","","","",""
"null","","image-keyboard-response","39","424088","0.0-4.0-0.0","","img/pink.png","null","trial","null","true","0.2,0.8","2:nogo_b","",""
"null","","html-keyboard-response","40","425091","0.0-4.0-1.0","","<img src=""img/pink-n.png"">","null","trial","null","","0.2,0.8","2:nogo_b","0",""
"null","","html-keyboard-response","41","426092","0.0-4.0-2.0","","<div style=""font-size:60px;"">+</div>","null","","","","","","",""
"null","","image-keyboard-response","42","427630","0.0-4.0-0.1","","img/blue.png","null","trial","32","false","0.8,0.2","1:go_a","",""
"null","","html-keyboard-response","43","428635","0.0-4.0-1.1","","<img src=""img/blue-n.png"">","null","trial","32","","0.8,0.2","1:go_a","0",""
"null","","html-keyboard-response","44","429637","0.0-4.0-2.1","","<div style=""font-size:60px;"">+</div>","null","","","","","","",""
"null","","image-keyboard-response","45","431139","0.0-4.0-0.2","","img/blue.png","null","trial","32","false","0.8,0.2","1:go_a","",""
"null","","html-keyboard-response","46","432143","0.0-4.0-1.2","","<img src=""img/blue-r.png"">","null","trial","32","","0.8,0.2","1:go_a","1",""
"null","","html-keyboard-response","47","433156","0.0-4.0-2.2","","<div style=""font-size:60px;"">+</div>","null","","","","","","",""
"1080.9999997727573","","image-keyboard-response","48","434238","0.0-4.0-0.3","","img/pink.png","32","trial","null","false","0.2,0.8","2:nogo_b","",""
"null","","html-keyboard-response","49","435240","0.0-4.0-1.3","","<img src=""img/pink-n.png"" border=""10"">","null","trial","null","","0.2,0.8","2:nogo_b","0",""
"null","","html-keyboard-response","50","436241","0.0-4.0-2.3","","<div style=""font-size:60px;"">+</div>","null","","","","","","",""
"null","","image-keyboard-response","51","437743","0.0-4.0-0.4","","img/blue.png","null","trial","32","false","0.8,0.2","1:go_a","",""
"null","","html-keyboard-response","52","438744","0.0-4.0-1.4","","<img src=""img/blue-n.png"">","null","trial","32","","0.8,0.2","1:go_a","0",""
"null","","html-keyboard-response","53","439746","0.0-4.0-2.4","","<div style=""font-size:60px;"">+</div>","null","","","","","","",""
"null","","image-keyboard-response","54","441249","0.0-4.0-0.5","","img/pink.png","null","trial","null","true","0.2,0.8","2:nogo_b","",""
"null","","html-keyboard-response","55","442423","0.0-4.0-1.5","","<img src=""img/pink-r.png"">","null","trial","null","","0.2,0.8","2:nogo_b","1",""
"null","","html-keyboard-response","56","443662","0.0-4.0-2.5","","<div style=""font-size:60px;"">+</div>","null","","","","","","",""
"804.0000000037253","","image-keyboard-response","57","444467","0.0-4.0-0.6","","img/pink.png","32","trial","null","false","0.2,0.8","2:nogo_b","",""
"null","","html-keyboard-response","58","445470","0.0-4.0-1.6","","<img src=""img/pink-r.png"" border=""10"">","null","trial","null","","0.2,0.8","2:nogo_b","1",""
"null","","html-keyboard-response","59","446471","0.0-4.0-2.6","","<div style=""font-size:60px;"">+</div>","null","","","","","","",""
"947.0000001601875","","image-keyboard-response","60","447420","0.0-4.0-0.7","","img/blue.png","32","trial","32","true","0.8,0.2","1:go_a","",""
"null","","html-keyboard-response","61","448422","0.0-4.0-1.7","","<img src=""img/blue-r.png"" border=""10"">","null","trial","32","","0.8,0.2","1:go_a","1",""
"null","","html-keyboard-response","62","449422","0.0-4.0-2.7","","<div style=""font-size:60px;"">+</div>","null","","","","","","",""
"910.0000001490116","","image-keyboard-response","63","450333","0.0-4.0-0.8","","img/pink.png","32","trial","null","false","0.2,0.8","2:nogo_b","",""
"null","","html-keyboard-response","64","451336","0.0-4.0-1.8","","<img src=""img/pink-r.png"" border=""10"">","null","trial","null","","0.2,0.8","2:nogo_b","1",""
"null","","html-keyboard-response","65","452343","0.0-4.0-2.8","","<div style=""font-size:60px;"">+</div>","null","","","","","","",""
"850.9999997913837","","image-keyboard-response","66","453196","0.0-4.0-0.9","","img/blue.png","32","trial","32","true","0.8,0.2","1:go_a","",""
"null","","html-keyboard-response","67","454198","0.0-4.0-1.9","","<img src=""img/blue-r.png"" border=""10"">","null","trial","32","","0.8,0.2","1:go_a","1",""
"null","","html-keyboard-response","68","455198","0.0-4.0-2.9","","<div style=""font-size:60px;"">+</div>","null","","","","","","",""
"961.0000001266599","","image-keyboard-response","69","456161","0.0-4.0-0.10","","img/pink.png","32","trial","null","false","0.2,0.8","2:nogo_b","",""
"null","","html-keyboard-response","70","457164","0.0-4.0-1.10","","<img src=""img/pink-n.png"" border=""10"">","null","trial","null","","0.2,0.8","2:nogo_b","0",""
"null","","html-keyboard-response","71","458515","0.0-4.0-2.10","","<div style=""font-size:60px;"">+</div>","null","","","","","","",""
"831.9999999366701","","image-keyboard-response","72","459348","0.0-4.0-0.11","","img/blue.png","32","trial","32","true","0.8,0.2","1:go_a","",""
"null","","html-keyboard-response","73","460349","0.0-4.0-1.11","","<img src=""img/blue-r.png"" border=""10"">","null","trial","32","","0.8,0.2","1:go_a","1",""
"null","","html-keyboard-response","74","461349","0.0-4.0-2.11","","<div style=""font-size:60px;"">+</div>","null","","","","","","",""
"847.0000000670552","","image-keyboard-response","75","462197","0.0-4.0-0.12","","img/pink.png","32","trial","null","false","0.2,0.8","2:nogo_b","",""
"null","","html-keyboard-response","76","463200","0.0-4.0-1.12","","<img src=""img/pink-n.png"" border=""10"">","null","trial","null","","0.2,0.8","2:nogo_b","0",""
"null","","html-keyboard-response","77","464200","0.0-4.0-2.12","","<div style=""font-size:60px;"">+</div>","null","","","","","","",""
"913.9999998733401","","image-keyboard-response","78","465115","0.0-4.0-0.13","","img/blue.png","32","trial","32","true","0.8,0.2","1:go_a","",""
"null","","html-keyboard-response","79","466117","0.0-4.0-1.13","","<img src=""img/blue-r.png"" border=""10"">","null","trial","32","","0.8,0.2","1:go_a","1",""
"null","","html-keyboard-response","80","467120","0.0-4.0-2.13","","<div style=""font-size:60px;"">+</div>","null","","","","","","",""
"785.9999998472631","","image-keyboard-response","81","467907","0.0-4.0-0.14","","img/blue.png","32","trial","32","true","0.8,0.2","1:go_a","",""
"null","","html-keyboard-response","82","468908","0.0-4.0-1.14","","<img src=""img/blue-r.png"" border=""10"">","null","trial","32","","0.8,0.2","1:go_a","1",""
"null","","html-keyboard-response","83","469909","0.0-4.0-2.14","","<div style=""font-size:60px;"">+</div>","null","","","","","","",""
"899.0000002086163","","image-keyboard-response","84","470810","0.0-4.0-0.15","","img/pink.png","32","trial","null","false","0.2,0.8","2:nogo_b","",""
"null","","html-keyboard-response","85","471813","0.0-4.0-1.15","","<img src=""img/pink-n.png"" border=""10"">","null","trial","null","","0.2,0.8","2:nogo_b","0",""
"null","","html-keyboard-response","86","472814","0.0-4.0-2.15","","<div style=""font-size:60px;"">+</div>","null","","","","","","",""
"729.9999999813735","","image-keyboard-response","87","473545","0.0-4.0-0.16","","img/blue.png","32","trial","32","true","0.8,0.2","1:go_a","",""
"null","","html-keyboard-response","88","474560","0.0-4.0-1.16","","<img src=""img/blue-r.png"" border=""10"">","null","trial","32","","0.8,0.2","1:go_a","1",""
"null","","html-keyboard-response","89","475560","0.0-4.0-2.16","","<div style=""font-size:60px;"">+</div>","null","","","","","","",""
"899.0000002086163","","image-keyboard-response","90","476460","0.0-4.0-0.17","","img/pink.png","32","trial","null","false","0.2,0.8","2:nogo_b","",""
"null","","html-keyboard-response","91","477462","0.0-4.0-1.17","","<img src=""img/pink-n.png"" border=""10"">","null","trial","null","","0.2,0.8","2:nogo_b","0",""
"null","","html-keyboard-response","92","478464","0.0-4.0-2.17","","<div style=""font-size:60px;"">+</div>","null","","","","","","",""
"691.9999998062849","","image-keyboard-response","93","479158","0.0-4.0-0.18","","img/blue.png","32","trial","32","true","0.8,0.2","1:go_a","",""
"null","","html-keyboard-response","94","480160","0.0-4.0-1.18","","<img src=""img/blue-n.png"" border=""10"">","null","trial","32","","0.8,0.2","1:go_a","0",""
"null","","html-keyboard-response","95","481363","0.0-4.0-2.18","","<div style=""font-size:60px;"">+</div>","null","","","","","","",""
"1182.0000000298023","","image-keyboard-response","96","482546","0.0-4.0-0.19","","img/pink.png","32","trial","null","false","0.2,0.8","2:nogo_b","",""
"null","","html-keyboard-response","97","483548","0.0-4.0-1.19","","<img src=""img/pink-r.png"" border=""10"">","null","trial","null","","0.2,0.8","2:nogo_b","1",""
"null","","html-keyboard-response","98","484551","0.0-4.0-2.19","","<div style=""font-size:60px;"">+</div>","null","","","","","","",""
"1362.9999998956919","","image-keyboard-response","99","485914","0.0-4.0-0.20","","img/blue.png","32","trial","32","true","0.8,0.2","1:go_a","",""
"null","","html-keyboard-response","100","486916","0.0-4.0-1.20","","<img src=""img/blue-r.png"" border=""10"">","null","trial","32","","0.8,0.2","1:go_a","1",""
"null","","html-keyboard-response","101","487931","0.0-4.0-2.20","","<div style=""font-size:60px;"">+</div>","null","","","","","","",""
"754.9999998882413","","image-keyboard-response","102","488687","0.0-4.0-0.21","","img/pink.png","32","trial","null","false","0.2,0.8","2:nogo_b","",""
"null","","html-keyboard-response","103","489689","0.0-4.0-1.21","","<img src=""img/pink-n.png"" border=""10"">","null","trial","null","","0.2,0.8","2:nogo_b","0",""
"null","","html-keyboard-response","104","490689","0.0-4.0-2.21","","<div style=""font-size:60px;"">+</div>","null","","","","","","",""
"273.99999974295497","","image-keyboard-response","105","490964","0.0-4.0-0.22","","img/blue.png","32","trial","32","true","0.8,0.2","1:go_a","",""
"null","","html-keyboard-response","106","491965","0.0-4.0-1.22","","<img src=""img/blue-r.png"" border=""10"">","null","trial","32","","0.8,0.2","1:go_a","1",""
"null","","html-keyboard-response","107","492965","0.0-4.0-2.22","","<div style=""font-size:60px;"">+</div>","null","","","","","","",""
"77.99999974668026","","image-keyboard-response","108","493044","0.0-4.0-0.23","","img/pink.png","32","trial","null","false","0.2,0.8","2:nogo_b","",""
"null","","html-keyboard-response","109","494048","0.0-4.0-1.23","","<img src=""img/pink-r.png"" border=""10"">","null","trial","null","","0.2,0.8","2:nogo_b","1",""
"null","","html-keyboard-response","110","495048","0.0-4.0-2.23","","<div style=""font-size:60px;"">+</div>","null","","","","","","",""
"225.00000009313226","","image-keyboard-response","111","495274","0.0-4.0-0.24","","img/pink.png","32","trial","null","false","0.2,0.8","2:nogo_b","",""
"null","","html-keyboard-response","112","496287","0.0-4.0-1.24","","<img src=""img/pink-n.png"" border=""10"">","null","trial","null","","0.2,0.8","2:nogo_b","0",""
"null","","html-keyboard-response","113","497288","0.0-4.0-2.24","","<div style=""font-size:60px;"">+</div>","null","","","","","","",""
"294.9999999254942","","image-keyboard-response","114","497584","0.0-4.0-0.25","","img/blue.png","32","trial","32","true","0.8,0.2","1:go_a","",""
"null","","html-keyboard-response","115","498586","0.0-4.0-1.25","","<img src=""img/blue-r.png"" border=""10"">","null","trial","32","","0.8,0.2","1:go_a","1",""
"null","","html-keyboard-response","116","499807","0.0-4.0-2.25","","<div style=""font-size:60px;"">+</div>","null","","","","","","",""
"16.99999999254942","","image-keyboard-response","117","499824","0.0-4.0-0.26","","img/pink.png","32","trial","null","false","0.2,0.8","2:nogo_b","",""
"null","","html-keyboard-response","118","500827","0.0-4.0-1.26","","<img src=""img/pink-r.png"" border=""10"">","null","trial","null","","0.2,0.8","2:nogo_b","1",""
"null","","html-keyboard-response","119","501828","0.0-4.0-2.26","","<div style=""font-size:60px;"">+</div>","null","","","","","","",""
"265.00000013038516","","image-keyboard-response","120","502095","0.0-4.0-0.27","","img/blue.png","32","trial","32","true","0.8,0.2","1:go_a","",""
"null","","html-keyboard-response","121","503096","0.0-4.0-1.27","","<img src=""img/blue-n.png"" border=""10"">","null","trial","32","","0.8,0.2","1:go_a","0",""
"null","","html-keyboard-response","122","504098","0.0-4.0-2.27","","<div style=""font-size:60px;"">+</div>","null","","","","","","",""
"6.000000052154064","","image-keyboard-response","123","504104","0.0-4.0-0.28","","img/blue.png","32","trial","32","true","0.8,0.2","1:go_a","",""
"null","","html-keyboard-response","124","505105","0.0-4.0-1.28","","<img src=""img/blue-r.png"" border=""10"">","null","trial","32","","0.8,0.2","1:go_a","1",""
"null","","html-keyboard-response","125","506247","0.0-4.0-2.28","","<div style=""font-size:60px;"">+</div>","null","","","","","","",""
"226.99999995529652","","image-keyboard-response","126","506476","0.0-4.0-0.29","","img/pink.png","32","trial","null","false","0.2,0.8","2:nogo_b","",""
"null","","html-keyboard-response","127","507478","0.0-4.0-1.29","","<img src=""img/pink-r.png"" border=""10"">","null","trial","null","","0.2,0.8","2:nogo_b","1",""
"null","","html-keyboard-response","128","508479","0.0-4.0-2.29","","<div style=""font-size:60px;"">+</div>","null","","","","","","",""
"43.99999976158142","","image-keyboard-response","129","508525","0.0-4.0-0.30","","img/blue.png","32","trial","32","true","0.8,0.2","1:go_a","",""
"null","","html-keyboard-response","130","509526","0.0-4.0-1.30","","<img src=""img/blue-n.png"" border=""10"">","null","trial","32","","0.8,0.2","1:go_a","0",""
"null","","html-keyboard-response","131","510526","0.0-4.0-2.30","","<div style=""font-size:60px;"">+</div>","null","","","","","","",""
"216.00000001490116","","image-keyboard-response","132","510744","0.0-4.0-0.31","","img/pink.png","32","trial","null","false","0.2,0.8","2:nogo_b","",""
"null","","html-keyboard-response","133","511745","0.0-4.0-1.31","","<img src=""img/pink-n.png"" border=""10"">","null","trial","null","","0.2,0.8","2:nogo_b","0",""
"null","","html-keyboard-response","134","512745","0.0-4.0-2.31","","<div style=""font-size:60px;"">+</div>","null","","","","","","",""
"148.00000004470348","","image-keyboard-response","135","512895","0.0-4.0-0.32","","img/pink.png","32","trial","null","false","0.2,0.8","2:nogo_b","",""
"null","","html-keyboard-response","136","513976","0.0-4.0-1.32","","<img src=""img/pink-n.png"" border=""10"">","null","trial","null","","0.2,0.8","2:nogo_b","0",""
"null","","html-keyboard-response","137","514976","0.0-4.0-2.32","","<div style=""font-size:60px;"">+</div>","null","","","","","","",""
"137.9999998025596","","image-keyboard-response","138","515114","0.0-4.0-0.33","","img/blue.png","32","trial","32","true","0.8,0.2","1:go_a","",""
"null","","html-keyboard-response","139","516115","0.0-4.0-1.33","","<img src=""img/blue-r.png"" border=""10"">","null","trial","32","","0.8,0.2","1:go_a","1",""
"null","","html-keyboard-response","140","517117","0.0-4.0-2.33","","<div style=""font-size:60px;"">+</div>","null","","","","","","",""
"175.99999997764826","","image-keyboard-response","141","517294","0.0-4.0-0.34","","img/blue.png","32","trial","32","true","0.8,0.2","1:go_a","",""
"null","","html-keyboard-response","142","518296","0.0-4.0-1.34","","<img src=""img/blue-r.png"" border=""10"">","null","trial","32","","0.8,0.2","1:go_a","1",""
"null","","html-keyboard-response","143","519329","0.0-4.0-2.34","","<div style=""font-size:60px;"">+</div>","null","","","","","","",""
"15.00000013038516","","image-keyboard-response","144","519345","0.0-4.0-0.35","","img/pink.png","32","trial","null","false","0.2,0.8","2:nogo_b","",""
"null","","html-keyboard-response","145","520347","0.0-4.0-1.35","","<img src=""img/pink-n.png"" border=""10"">","null","trial","null","","0.2,0.8","2:nogo_b","0",""
"null","","html-keyboard-response","146","521347","0.0-4.0-2.35","","<div style=""font-size:60px;"">+</div>","null","","","","","","",""
"265.99999982863665","","image-keyboard-response","147","521614","0.0-4.0-0.36","","img/pink.png","32","trial","null","false","0.2,0.8","2:nogo_b","",""
"null","","html-keyboard-response","148","522618","0.0-4.0-1.36","","<img src=""img/pink-r.png"" border=""10"">","null","trial","null","","0.2,0.8","2:nogo_b","1",""
"null","","html-keyboard-response","149","523620","0.0-4.0-2.36","","<div style=""font-size:60px;"">+</div>","null","","","","","","",""
"6.000000052154064","","image-keyboard-response","150","523627","0.0-4.0-0.37","","img/blue.png","32","trial","32","true","0.8,0.2","1:go_a","",""
"null","","html-keyboard-response","151","524628","0.0-4.0-1.37","","<img src=""img/blue-r.png"" border=""10"">","null","trial","32","","0.8,0.2","1:go_a","1",""
"null","","html-keyboard-response","152","525630","0.0-4.0-2.37","","<div style=""font-size:60px;"">+</div>","null","","","","","","",""
"83.99999979883432","","image-keyboard-response","153","525715","0.0-4.0-0.38","","img/pink.png","32","trial","null","false","0.2,0.8","2:nogo_b","",""
"null","","html-keyboard-response","154","526720","0.0-4.0-1.38","","<img src=""img/pink-n.png"" border=""10"">","null","trial","null","","0.2,0.8","2:nogo_b","0",""
"null","","html-keyboard-response","155","527721","0.0-4.0-2.38","","<div style=""font-size:60px;"">+</div>","null","","","","","","",""
"194.99999983236194","","image-keyboard-response","156","527918","0.0-4.0-0.39","","img/blue.png","32","trial","32","true","0.8,0.2","1:go_a","",""
"null","","html-keyboard-response","157","528922","0.0-4.0-1.39","","<img src=""img/blue-r.png"" border=""10"">","null","trial","32","","0.8,0.2","1:go_a","1",""
"null","","html-keyboard-response","158","529923","0.0-4.0-2.39","","<div style=""font-size:60px;"">+</div>","null","","","","","","",""
"242.99999978393316","","image-keyboard-response","159","530167","0.0-4.0-0.40","","img/blue.png","32","trial","32","true","0.8,0.2","1:go_a","",""
"null","","html-keyboard-response","160","531171","0.0-4.0-1.40","","<img src=""img/blue-r.png"" border=""10"">","null","trial","32","","0.8,0.2","1:go_a","1",""
"null","","html-keyboard-response","161","532171","0.0-4.0-2.40","","<div style=""font-size:60px;"">+</div>","null","","","","","","",""
"208.00000010058284","","image-keyboard-response","162","532380","0.0-4.0-0.41","","img/pink.png","32","trial","null","false","0.2,0.8","2:nogo_b","",""
"null","","html-keyboard-response","163","533381","0.0-4.0-1.41","","<img src=""img/pink-n.png"" border=""10"">","null","trial","null","","0.2,0.8","2:nogo_b","0",""
"null","","html-keyboard-response","164","534381","0.0-4.0-2.41","","<div style=""font-size:60px;"">+</div>","null","","","","","","",""
"332.99999963492155","","image-keyboard-response","165","534715","0.0-4.0-0.42","","img/pink.png","32","trial","null","false","0.2,0.8","2:nogo_b","",""
"null","","html-keyboard-response","166","535719","0.0-4.0-1.42","","<img src=""img/pink-n.png"" border=""10"">","null","trial","null","","0.2,0.8","2:nogo_b","0",""
"null","","html-keyboard-response","167","536719","0.0-4.0-2.42","","<div style=""font-size:60px;"">+</div>","null","","","","","","",""
"46.00000008940697","","image-keyboard-response","168","536765","0.0-4.0-0.43","","img/blue.png","32","trial","32","true","0.8,0.2","1:go_a","",""
"null","","html-keyboard-response","169","537766","0.0-4.0-1.43","","<img src=""img/blue-n.png"" border=""10"">","null","trial","32","","0.8,0.2","1:go_a","0",""
"null","","html-keyboard-response","170","538767","0.0-4.0-2.43","","<div style=""font-size:60px;"">+</div>","null","","","","","","",""
"148.00000004470348","","image-keyboard-response","171","538916","0.0-4.0-0.44","","img/blue.png","32","trial","32","true","0.8,0.2","1:go_a","",""
"null","","html-keyboard-response","172","539938","0.0-4.0-1.44","","<img src=""img/blue-r.png"" border=""10"">","null","trial","32","","0.8,0.2","1:go_a","1",""
"null","","html-keyboard-response","173","540938","0.0-4.0-2.44","","<div style=""font-size:60px;"">+</div>","null","","","","","","",""
"199.00000002235174","","image-keyboard-response","174","541138","0.0-4.0-0.45","","img/pink.png","32","trial","null","false","0.2,0.8","2:nogo_b","",""
"null","","html-keyboard-response","175","542140","0.0-4.0-1.45","","<img src=""img/pink-n.png"" border=""10"">","null","trial","null","","0.2,0.8","2:nogo_b","0",""
"null","","html-keyboard-response","176","543144","0.0-4.0-2.45","","<div style=""font-size:60px;"">+</div>","null","","","","","","",""
"123.99999983608723","","image-keyboard-response","177","543270","0.0-4.0-0.46","","img/pink.png","32","trial","null","false","0.2,0.8","2:nogo_b","",""
"null","","html-keyboard-response","178","544272","0.0-4.0-1.46","","<img src=""img/pink-n.png"" border=""10"">","null","trial","null","","0.2,0.8","2:nogo_b","0",""
"null","","html-keyboard-response","179","545272","0.0-4.0-2.46","","<div style=""font-size:60px;"">+</div>","null","","","","","","",""
"111.9999997317791","","image-keyboard-response","180","545386","0.0-4.0-0.47","","img/blue.png","32","trial","32","true","0.8,0.2","1:go_a","",""
"null","","html-keyboard-response","181","546390","0.0-4.0-1.47","","<img src=""img/blue-n.png"" border=""10"">","null","trial","32","","0.8,0.2","1:go_a","0",""
"null","","html-keyboard-response","182","547393","0.0-4.0-2.47","","<div style=""font-size:60px;"">+</div>","null","","","","","","",""
"510.99999994039536","","image-keyboard-response","183","547905","0.0-4.0-0.48","","img/blue.png","32","trial","32","true","0.8,0.2","1:go_a","",""
"null","","html-keyboard-response","184","548907","0.0-4.0-1.48","","<img src=""img/blue-r.png"" border=""10"">","null","trial","32","","0.8,0.2","1:go_a","1",""
"null","","html-keyboard-response","185","549908","0.0-4.0-2.48","","<div style=""font-size:60px;"">+</div>","null","","","","","","",""
"205.9999997727573","","image-keyboard-response","186","550115","0.0-4.0-0.49","","img/pink.png","32","trial","null","false","0.2,0.8","2:nogo_b","",""
"null","","html-keyboard-response","187","551118","0.0-4.0-1.49","","<img src=""img/pink-r.png"" border=""10"">","null","trial","null","","0.2,0.8","2:nogo_b","1",""
"null","","html-keyboard-response","188","552118","0.0-4.0-2.49","","<div style=""font-size:60px;"">+</div>","null","","","","","","",""
"101.99999995529652","","image-keyboard-response","189","552221","0.0-4.0-0.50","","img/blue.png","32","trial","32","true","0.8,0.2","1:go_a","",""
"null","","html-keyboard-response","190","553223","0.0-4.0-1.50","","<img src=""img/blue-r.png"" border=""10"">","null","trial","32","","0.8,0.2","1:go_a","1",""
"null","","html-keyboard-response","191","554224","0.0-4.0-2.50","","<div style=""font-size:60px;"">+</div>","null","","","","","","",""
"277.9999999329448","","image-keyboard-response","192","554505","0.0-4.0-0.51","","img/pink.png","32","trial","null","false","0.2,0.8","2:nogo_b","",""
"null","","html-keyboard-response","193","555507","0.0-4.0-1.51","","<img src=""img/pink-n.png"" border=""10"">","null","trial","null","","0.2,0.8","2:nogo_b","0",""
"null","","html-keyboard-response","194","556628","0.0-4.0-2.51","","<div style=""font-size:60px;"">+</div>","null","","","","","","",""
"16.99999999254942","","image-keyboard-response","195","556646","0.0-4.0-0.52","","img/pink.png","32","trial","null","false","0.2,0.8","2:nogo_b","",""
"null","","html-keyboard-response","196","557648","0.0-4.0-1.52","","<img src=""img/pink-r.png"" border=""10"">","null","trial","null","","0.2,0.8","2:nogo_b","1",""
"null","","html-keyboard-response","197","558649","0.0-4.0-2.52","","<div style=""font-size:60px;"">+</div>","null","","","","","","",""
"24.999999906867743","","image-keyboard-response","198","558675","0.0-4.0-0.53","","img/blue.png","32","trial","32","true","0.8,0.2","1:go_a","",""
"null","","html-keyboard-response","199","559677","0.0-4.0-1.53","","<img src=""img/blue-r.png"" border=""10"">","null","trial","32","","0.8,0.2","1:go_a","1",""
"null","","html-keyboard-response","200","560678","0.0-4.0-2.53","","<div style=""font-size:60px;"">+</div>","null","","","","","","",""
"23.000000044703484","","image-keyboard-response","201","560701","0.0-4.0-0.54","","img/blue.png","32","trial","32","true","0.8,0.2","1:go_a","",""
"null","","html-keyboard-response","202","561703","0.0-4.0-1.54","","<img src=""img/blue-r.png"" border=""10"">","null","trial","32","","0.8,0.2","1:go_a","1",""
"null","","html-keyboard-response","203","562703","0.0-4.0-2.54","","<div style=""font-size:60px;"">+</div>","null","","","","","","",""
"212.00000029057264","","image-keyboard-response","204","562916","0.0-4.0-0.55","","img/pink.png","32","trial","null","false","0.2,0.8","2:nogo_b","",""
"null","","html-keyboard-response","205","563919","0.0-4.0-1.55","","<img src=""img/pink-n.png"" border=""10"">","null","trial","null","","0.2,0.8","2:nogo_b","0",""
"null","","html-keyboard-response","206","564919","0.0-4.0-2.55","","<div style=""font-size:60px;"">+</div>","null","","","","","","",""
"166.00000020116568","","image-keyboard-response","207","565085","0.0-4.0-0.56","","img/blue.png","32","trial","32","true","0.8,0.2","1:go_a","",""
"null","","html-keyboard-response","208","566147","0.0-4.0-1.56","","<img src=""img/blue-n.png"" border=""10"">","null","trial","32","","0.8,0.2","1:go_a","0",""
"null","","html-keyboard-response","209","567198","0.0-4.0-2.56","","<div style=""font-size:60px;"">+</div>","null","","","","","","",""
"157.00000012293458","","image-keyboard-response","210","567356","0.0-4.0-0.57","","img/pink.png","32","trial","null","false","0.2,0.8","2:nogo_b","",""
"null","","html-keyboard-response","211","568370","0.0-4.0-1.57","","<img src=""img/pink-n.png"" border=""10"">","null","trial","null","","0.2,0.8","2:nogo_b","0",""
"null","","html-keyboard-response","212","569380","0.0-4.0-2.57","","<div style=""font-size:60px;"">+</div>","null","","","","","","",""
"256.00000005215406","","image-keyboard-response","213","569637","0.0-4.0-0.58","","img/blue.png","32","trial","32","true","0.8,0.2","1:go_a","",""
"null","","html-keyboard-response","214","570638","0.0-4.0-1.58","","<img src=""img/blue-r.png"" border=""10"">","null","trial","32","","0.8,0.2","1:go_a","1",""
"null","","html-keyboard-response","215","571639","0.0-4.0-2.58","","<div style=""font-size:60px;"">+</div>","null","","","","","","",""
"206.99999993667006","","image-keyboard-response","216","571846","0.0-4.0-0.59","","img/pink.png","32","trial","null","false","0.2,0.8","2:nogo_b","",""
"null","","html-keyboard-response","217","572848","0.0-4.0-1.59","","<img src=""img/pink-n.png"" border=""10"">","null","trial","null","","0.2,0.8","2:nogo_b","0",""
"null","","html-keyboard-response","218","573848","0.0-4.0-2.59","","<div style=""font-size:60px;"">+</div>","null","","","","","","",""
"14957.000000402331","","instructions","219","588804","0.0-5.0","[{""page_index"":0,""viewing_time"":14957.000000402331}]","","","","","","","","",""
"961.9999998249114","","image-keyboard-response","220","589769","0.0-6.0-0.0","","img/purple.png","32","trial","null","false","0.4,0.6","4:nogo_d","",""
"null","","html-keyboard-response","221","590770","0.0-6.0-1.0","","<img src=""img/purple-n.png"" border=""10"">","null","trial","null","","0.4,0.6","4:nogo_d","0",""
"null","","html-keyboard-response","222","591771","0.0-6.0-2.0","","<div style=""font-size:60px;"">+</div>","null","","","","","","",""
"672.9999999515712","","image-keyboard-response","223","592445","0.0-6.0-0.1","","img/grey.png","32","trial","32","true","0.6,0.4","3:go_c","",""
"null","","html-keyboard-response","224","593551","0.0-6.0-1.1","","<img src=""img/grey-n.png"" border=""10"">","null","trial","32","","0.6,0.4","3:go_c","0",""
"null","","html-keyboard-response","225","594552","0.0-6.0-2.1","","<div style=""font-size:60px;"">+</div>","null","","","","","","",""
"800.9999999776483","","image-keyboard-response","226","595355","0.0-6.0-0.2","","img/pink.png","32","trial","32","true","0.8,0.2","1:go_a","",""
"null","","html-keyboard-response","227","596356","0.0-6.0-1.2","","<img src=""img/pink-r.png"" border=""10"">","null","trial","32","","0.8,0.2","1:go_a","1",""
"null","","html-keyboard-response","228","597357","0.0-6.0-2.2","","<div style=""font-size:60px;"">+</div>","null","","","","","","",""
"1146.9999998807907","","image-keyboard-response","229","598505","0.0-6.0-0.3","","img/red.png","32","trial","null","false","0.2,0.8","2:nogo_b","",""
"null","","html-keyboard-response","230","599506","0.0-6.0-1.3","","<img src=""img/red-n.png"" border=""10"">","null","trial","null","","0.2,0.8","2:nogo_b","0",""
"null","","html-keyboard-response","231","600507","0.0-6.0-2.3","","<div style=""font-size:60px;"">+</div>","null","","","","","","",""
"1459.0000002644956","","image-keyboard-response","232","601966","0.0-6.0-0.4","","img/red.png","32","trial","null","false","0.2,0.8","2:nogo_b","",""
"null","","html-keyboard-response","233","603118","0.0-6.0-1.4","","<img src=""img/red-r.png"" border=""10"">","null","trial","null","","0.2,0.8","2:nogo_b","1",""
"null","","html-keyboard-response","234","604137","0.0-6.0-2.4","","<div style=""font-size:60px;"">+</div>","null","","","","","","",""
"787.0000000111759","","image-keyboard-response","235","604924","0.0-6.0-0.5","","img/pink.png","32","trial","32","true","0.8,0.2","1:go_a","",""
"null","","html-keyboard-response","236","605966","0.0-6.0-1.5","","<img src=""img/pink-r.png"" border=""10"">","null","trial","32","","0.8,0.2","1:go_a","1",""
"null","","html-keyboard-response","237","606967","0.0-6.0-2.5","","<div style=""font-size:60px;"">+</div>","null","","","","","","",""
"97.00000006705523","","image-keyboard-response","238","607065","0.0-6.0-0.6","","img/grey.png","32","trial","32","true","0.6,0.4","3:go_c","",""
"null","","html-keyboard-response","239","608070","0.0-6.0-1.6","","<img src=""img/grey-r.png"" border=""10"">","null","trial","32","","0.6,0.4","3:go_c","1",""
"null","","html-keyboard-response","240","609094","0.0-6.0-2.6","","<div style=""font-size:60px;"">+</div>","null","","","","","","",""
"129.9999998882413","","image-keyboard-response","241","609225","0.0-6.0-0.7","","img/purple.png","32","trial","null","false","0.4,0.6","4:nogo_d","",""
"null","","html-keyboard-response","242","610226","0.0-6.0-1.7","","<img src=""img/purple-n.png"" border=""10"">","null","trial","null","","0.4,0.6","4:nogo_d","0",""
"null","","html-keyboard-response","243","611226","0.0-6.0-2.7","","<div style=""font-size:60px;"">+</div>","null","","","","","","",""
"220.00000020489097","","image-keyboard-response","244","611449","0.0-6.0-0.8","","img/grey.png","32","trial","32","true","0.6,0.4","3:go_c","",""
"null","","html-keyboard-response","245","612451","0.0-6.0-1.8","","<img src=""img/grey-r.png"" border=""10"">","null","trial","32","","0.6,0.4","3:go_c","1",""
"null","","html-keyboard-response","246","613502","0.0-6.0-2.8","","<div style=""font-size:60px;"">+</div>","null","","","","","","",""
"506.99999975040555","","image-keyboard-response","247","614010","0.0-6.0-0.9","","img/red.png","32","trial","null","false","0.2,0.8","2:nogo_b","",""
"null","","html-keyboard-response","248","615012","0.0-6.0-1.9","","<img src=""img/red-n.png"" border=""10"">","null","trial","null","","0.2,0.8","2:nogo_b","0",""
"null","","html-keyboard-response","249","616013","0.0-6.0-2.9","","<div style=""font-size:60px;"">+</div>","null","","","","","","",""
"131.00000005215406","","image-keyboard-response","250","616145","0.0-6.0-0.10","","img/pink.png","32","trial","32","true","0.8,0.2","1:go_a","",""
"null","","html-keyboard-response","251","617147","0.0-6.0-1.10","","<img src=""img/pink-r.png"" border=""10"">","null","trial","32","","0.8,0.2","1:go_a","1",""
"null","","html-keyboard-response","252","618147","0.0-6.0-2.10","","<div style=""font-size:60px;"">+</div>","null","","","","","","",""
"74.99999972060323","","image-keyboard-response","253","618223","0.0-6.0-0.11","","img/purple.png","32","trial","null","false","0.4,0.6","4:nogo_d","",""
"null","","html-keyboard-response","254","619224","0.0-6.0-1.11","","<img src=""img/purple-n.png"" border=""10"">","null","trial","null","","0.4,0.6","4:nogo_d","0",""
"null","","html-keyboard-response","255","620224","0.0-6.0-2.11","","<div style=""font-size:60px;"">+</div>","null","","","","","","",""
"259.0000000782311","","image-keyboard-response","256","620484","0.0-6.0-0.12","","img/grey.png","32","trial","32","true","0.6,0.4","3:go_c","",""
"null","","html-keyboard-response","257","621485","0.0-6.0-1.12","","<img src=""img/grey-n.png"" border=""10"">","null","trial","32","","0.6,0.4","3:go_c","0",""
"null","","html-keyboard-response","258","622485","0.0-6.0-2.12","","<div style=""font-size:60px;"">+</div>","null","","","","","","",""
"185.99999975413084","","image-keyboard-response","259","622673","0.0-6.0-0.13","","img/red.png","32","trial","null","false","0.2,0.8","2:nogo_b","",""
"null","","html-keyboard-response","260","623734","0.0-6.0-1.13","","<img src=""img/red-n.png"" border=""10"">","null","trial","null","","0.2,0.8","2:nogo_b","0",""
"null","","html-keyboard-response","261","624736","0.0-6.0-2.13","","<div style=""font-size:60px;"">+</div>","null","","","","","","",""
"442.9999999701977","","image-keyboard-response","262","625179","0.0-6.0-0.14","","img/purple.png","32","trial","null","false","0.4,0.6","4:nogo_d","",""
"null","","html-keyboard-response","263","626181","0.0-6.0-1.14","","<img src=""img/purple-n.png"" border=""10"">","null","trial","null","","0.4,0.6","4:nogo_d","0",""
"null","","html-keyboard-response","264","627183","0.0-6.0-2.14","","<div style=""font-size:60px;"">+</div>","null","","","","","","",""
"74.99999972060323","","image-keyboard-response","265","627259","0.0-6.0-0.15","","img/pink.png","32","trial","32","true","0.8,0.2","1:go_a","",""
"null","","html-keyboard-response","266","628260","0.0-6.0-1.15","","<img src=""img/pink-r.png"" border=""10"">","null","trial","32","","0.8,0.2","1:go_a","1",""
"null","","html-keyboard-response","267","629260","0.0-6.0-2.15","","<div style=""font-size:60px;"">+</div>","null","","","","","","",""
"902.9999999329448","","image-keyboard-response","268","630164","0.0-6.0-0.16","","img/pink.png","32","trial","32","true","0.8,0.2","1:go_a","",""
"null","","html-keyboard-response","269","631167","0.0-6.0-1.16","","<img src=""img/pink-r.png"" border=""10"">","null","trial","32","","0.8,0.2","1:go_a","1",""
"null","","html-keyboard-response","270","632167","0.0-6.0-2.16","","<div style=""font-size:60px;"">+</div>","null","","","","","","",""
"null","","image-keyboard-response","271","633669","0.0-6.0-0.17","","img/purple.png","null","trial","null","true","0.4,0.6","4:nogo_d","",""
"null","","html-keyboard-response","272","634670","0.0-6.0-1.17","","<img src=""img/purple-r.png"">","null","trial","null","","0.4,0.6","4:nogo_d","1",""
"null","","html-keyboard-response","273","635670","0.0-6.0-2.17","","<div style=""font-size:60px;"">+</div>","null","","","","","","",""
"1251.0000001639128","","image-keyboard-response","274","636922","0.0-6.0-0.18","","img/grey.png","32","trial","32","true","0.6,0.4","3:go_c","",""
"null","","html-keyboard-response","275","637926","0.0-6.0-1.18","","<img src=""img/grey-n.png"" border=""10"">","null","trial","32","","0.6,0.4","3:go_c","0",""
"null","","html-keyboard-response","276","638927","0.0-6.0-2.18","","<div style=""font-size:60px;"">+</div>","null","","","","","","",""
"1237.9999998956919","","image-keyboard-response","277","640166","0.0-6.0-0.19","","img/red.png","32","trial","null","false","0.2,0.8","2:nogo_b","",""
"null","","html-keyboard-response","278","641169","0.0-6.0-1.19","","<img src=""img/red-n.png"" border=""10"">","null","trial","null","","0.2,0.8","2:nogo_b","0",""
"null","","html-keyboard-response","279","642173","0.0-6.0-2.19","","<div style=""font-size:60px;"">+</div>","null","","","","","","",""
"null","","image-keyboard-response","280","643674","0.0-6.0-0.20","","img/red.png","null","trial","null","true","0.2,0.8","2:nogo_b","",""
"null","","html-keyboard-response","281","644675","0.0-6.0-1.20","","<img src=""img/red-r.png"">","null","trial","null","","0.2,0.8","2:nogo_b","1",""
"null","","html-keyboard-response","282","645677","0.0-6.0-2.20","","<div style=""font-size:60px;"">+</div>","null","","","","","","",""
"873.9999998360872","","image-keyboard-response","283","646552","0.0-6.0-0.21","","img/pink.png","32","trial","32","true","0.8,0.2","1:go_a","",""
"null","","html-keyboard-response","284","647559","0.0-6.0-1.21","","<img src=""img/pink-r.png"" border=""10"">","null","trial","32","","0.8,0.2","1:go_a","1",""
"null","","html-keyboard-response","285","648559","0.0-6.0-2.21","","<div style=""font-size:60px;"">+</div>","null","","","","","","",""
"1145.999999716878","","image-keyboard-response","286","649707","0.0-6.0-0.22","","img/grey.png","32","trial","32","true","0.6,0.4","3:go_c","",""
"null","","html-keyboard-response","287","650709","0.0-6.0-1.22","","<img src=""img/grey-r.png"" border=""10"">","null","trial","32","","0.6,0.4","3:go_c","1",""
"null","","html-keyboard-response","288","651711","0.0-6.0-2.22","","<div style=""font-size:60px;"">+</div>","null","","","","","","",""
"null","","image-keyboard-response","289","653213","0.0-6.0-0.23","","img/purple.png","null","trial","null","true","0.4,0.6","4:nogo_d","",""
"null","","html-keyboard-response","290","654216","0.0-6.0-1.23","","<img src=""img/purple-n.png"">","null","trial","null","","0.4,0.6","4:nogo_d","0",""
"null","","html-keyboard-response","291","655217","0.0-6.0-2.23","","<div style=""font-size:60px;"">+</div>","null","","","","","","",""
"1464.9999998509884","","image-keyboard-response","292","656683","0.0-6.0-0.24","","img/grey.png","32","trial","32","true","0.6,0.4","3:go_c","",""
"null","","html-keyboard-response","293","657684","0.0-6.0-1.24","","<img src=""img/grey-n.png"" border=""10"">","null","trial","32","","0.6,0.4","3:go_c","0",""
"null","","html-keyboard-response","294","658712","0.0-6.0-2.24","","<div style=""font-size:60px;"">+</div>","null","","","","","","",""
"null","","image-keyboard-response","295","660213","0.0-6.0-0.25","","img/red.png","null","trial","null","true","0.2,0.8","2:nogo_b","",""
"null","","html-keyboard-response","296","661215","0.0-6.0-1.25","","<img src=""img/red-r.png"">","null","trial","null","","0.2,0.8","2:nogo_b","1",""
"null","","html-keyboard-response","297","662216","0.0-6.0-2.25","","<div style=""font-size:60px;"">+</div>","null","","","","","","",""
"808.0000001937151","","image-keyboard-response","298","663025","0.0-6.0-0.26","","img/purple.png","32","trial","null","false","0.4,0.6","4:nogo_d","",""
"null","","html-keyboard-response","299","664026","0.0-6.0-1.26","","<img src=""img/purple-n.png"" border=""10"">","null","trial","null","","0.4,0.6","4:nogo_d","0",""
"null","","html-keyboard-response","300","665027","0.0-6.0-2.26","","<div style=""font-size:60px;"">+</div>","null","","","","","","",""
"1476.9999999552965","","image-keyboard-response","301","666506","0.0-6.0-0.27","","img/pink.png","32","trial","32","true","0.8,0.2","1:go_a","",""
"null","","html-keyboard-response","302","667507","0.0-6.0-1.27","","<img src=""img/pink-r.png"" border=""10"">","null","trial","32","","0.8,0.2","1:go_a","1",""
"null","","html-keyboard-response","303","668507","0.0-6.0-2.27","","<div style=""font-size:60px;"">+</div>","null","","","","","","",""
"null","","image-keyboard-response","304","670009","0.0-6.0-0.28","","img/red.png","null","trial","null","true","0.2,0.8","2:nogo_b","",""
"null","","html-keyboard-response","305","671318","0.0-6.0-1.28","","<img src=""img/red-r.png"">","null","trial","null","","0.2,0.8","2:nogo_b","1",""
"null","","html-keyboard-response","306","672318","0.0-6.0-2.28","","<div style=""font-size:60px;"">+</div>","null","","","","","","",""
"1184.0000003576279","","image-keyboard-response","307","673503","0.0-6.0-0.29","","img/pink.png","32","trial","32","true","0.8,0.2","1:go_a","",""
"null","","html-keyboard-response","308","674530","0.0-6.0-1.29","","<img src=""img/pink-r.png"" border=""10"">","null","trial","32","","0.8,0.2","1:go_a","1",""
"null","","html-keyboard-response","309","675531","0.0-6.0-2.29","","<div style=""font-size:60px;"">+</div>","null","","","","","","",""
"990.9999999217689","","image-keyboard-response","310","676524","0.0-6.0-0.30","","img/grey.png","32","trial","32","true","0.6,0.4","3:go_c","",""
"null","","html-keyboard-response","311","677527","0.0-6.0-1.30","","<img src=""img/grey-r.png"" border=""10"">","null","trial","32","","0.6,0.4","3:go_c","1",""
"null","","html-keyboard-response","312","678529","0.0-6.0-2.30","","<div style=""font-size:60px;"">+</div>","null","","","","","","",""
"1780.9999999590218","","image-keyboard-response","313","680312","0.0-6.0-0.31","","img/purple.png","32","trial","null","false","0.4,0.6","4:nogo_d","",""
"null","","html-keyboard-response","314","681383","0.0-6.0-1.31","","<img src=""img/purple-n.png"" border=""10"">","null","trial","null","","0.4,0.6","4:nogo_d","0",""
"null","","html-keyboard-response","315","682384","0.0-6.0-2.31","","<div style=""font-size:60px;"">+</div>","null","","","","","","",""
"null","","image-keyboard-response","316","683886","0.0-6.0-0.32","","img/grey.png","null","trial","32","false","0.6,0.4","3:go_c","",""
"null","","html-keyboard-response","317","684892","0.0-6.0-1.32","","<img src=""img/grey-n.png"">","null","trial","32","","0.6,0.4","3:go_c","0",""
"null","","html-keyboard-response","318","685893","0.0-6.0-2.32","","<div style=""font-size:60px;"">+</div>","null","","","","","","",""
"null","","image-keyboard-response","319","687395","0.0-6.0-0.33","","img/red.png","null","trial","null","true","0.2,0.8","2:nogo_b","",""
"null","","html-keyboard-response","320","688398","0.0-6.0-1.33","","<img src=""img/red-r.png"">","null","trial","null","","0.2,0.8","2:nogo_b","1",""
"null","","html-keyboard-response","321","689400","0.0-6.0-2.33","","<div style=""font-size:60px;"">+</div>","null","","","","","","",""
"1276.0000000707805","","image-keyboard-response","322","690677","0.0-6.0-0.34","","img/pink.png","32","trial","32","true","0.8,0.2","1:go_a","",""
"null","","html-keyboard-response","323","691680","0.0-6.0-1.34","","<img src=""img/pink-n.png"" border=""10"">","null","trial","32","","0.8,0.2","1:go_a","0",""
"null","","html-keyboard-response","324","692900","0.0-6.0-2.34","","<div style=""font-size:60px;"">+</div>","null","","","","","","",""
"1133.0000003799796","","image-keyboard-response","325","694034","0.0-6.0-0.35","","img/purple.png","32","trial","null","false","0.4,0.6","4:nogo_d","",""
"null","","html-keyboard-response","326","695041","0.0-6.0-1.35","","<img src=""img/purple-n.png"" border=""10"">","null","trial","null","","0.4,0.6","4:nogo_d","0",""
"null","","html-keyboard-response","327","696044","0.0-6.0-2.35","","<div style=""font-size:60px;"">+</div>","null","","","","","","",""
"null","","image-keyboard-response","328","697548","0.0-6.0-0.36","","img/red.png","null","trial","null","true","0.2,0.8","2:nogo_b","",""
"null","","html-keyboard-response","329","698551","0.0-6.0-1.36","","<img src=""img/red-r.png"">","null","trial","null","","0.2,0.8","2:nogo_b","1",""
"null","","html-keyboard-response","330","699564","0.0-6.0-2.36","","<div style=""font-size:60px;"">+</div>","null","","","","","","",""
"1472.0000000670552","","image-keyboard-response","331","701037","0.0-6.0-0.37","","img/grey.png","32","trial","32","true","0.6,0.4","3:go_c","",""
"null","","html-keyboard-response","332","702038","0.0-6.0-1.37","","<img src=""img/grey-r.png"" border=""10"">","null","trial","32","","0.6,0.4","3:go_c","1",""
"null","","html-keyboard-response","333","703090","0.0-6.0-2.37","","<div style=""font-size:60px;"">+</div>","null","","","","","","",""
"null","","image-keyboard-response","334","704598","0.0-6.0-0.38","","img/purple.png","null","trial","null","true","0.4,0.6","4:nogo_d","",""
"null","","html-keyboard-response","335","705601","0.0-6.0-1.38","","<img src=""img/purple-n.png"">","null","trial","null","","0.4,0.6","4:nogo_d","0",""
"null","","html-keyboard-response","336","706603","0.0-6.0-2.38","","<div style=""font-size:60px;"">+</div>","null","","","","","","",""
"1393.9999998547137","","image-keyboard-response","337","707999","0.0-6.0-0.39","","img/pink.png","32","trial","32","true","0.8,0.2","1:go_a","",""
"null","","html-keyboard-response","338","709004","0.0-6.0-1.39","","<img src=""img/pink-n.png"" border=""10"">","null","trial","32","","0.8,0.2","1:go_a","0",""
"null","","html-keyboard-response","339","710008","0.0-6.0-2.39","","<div style=""font-size:60px;"">+</div>","null","","","","","","",""
"969.0000000409782","","image-keyboard-response","340","710979","0.0-6.0-0.40","","img/grey.png","32","trial","32","true","0.6,0.4","3:go_c","",""
"null","","html-keyboard-response","341","711980","0.0-6.0-1.40","","<img src=""img/grey-n.png"" border=""10"">","null","trial","32","","0.6,0.4","3:go_c","0",""
"null","","html-keyboard-response","342","712980","0.0-6.0-2.40","","<div style=""font-size:60px;"">+</div>","null","","","","","","",""
"1314.0000002458692","","image-keyboard-response","343","714295","0.0-6.0-0.41","","img/red.png","32","trial","null","false","0.2,0.8","2:nogo_b","",""
"null","","html-keyboard-response","344","715442","0.0-6.0-1.41","","<img src=""img/red-n.png"" border=""10"">","null","trial","null","","0.2,0.8","2:nogo_b","0",""
"null","","html-keyboard-response","345","716444","0.0-6.0-2.41","","<div style=""font-size:60px;"">+</div>","null","","","","","","",""
"null","","image-keyboard-response","346","717954","0.0-6.0-0.42","","img/purple.png","null","trial","null","true","0.4,0.6","4:nogo_d","",""
"null","","html-keyboard-response","347","718956","0.0-6.0-1.42","","<img src=""img/purple-r.png"">","null","trial","null","","0.4,0.6","4:nogo_d","1",""
"null","","html-keyboard-response","348","719958","0.0-6.0-2.42","","<div style=""font-size:60px;"">+</div>","null","","","","","","",""
"null","","image-keyboard-response","349","721458","0.0-6.0-0.43","","img/pink.png","null","trial","32","false","0.8,0.2","1:go_a","",""
"null","","html-keyboard-response","350","722459","0.0-6.0-1.43","","<img src=""img/pink-n.png"">","null","trial","32","","0.8,0.2","1:go_a","0",""
"null","","html-keyboard-response","351","723460","0.0-6.0-2.43","","<div style=""font-size:60px;"">+</div>","null","","","","","","",""
"null","","image-keyboard-response","352","724962","0.0-6.0-0.44","","img/red.png","null","trial","null","true","0.2,0.8","2:nogo_b","",""
"null","","html-keyboard-response","353","725963","0.0-6.0-1.44","","<img src=""img/red-n.png"">","null","trial","null","","0.2,0.8","2:nogo_b","0",""
"null","","html-keyboard-response","354","727291","0.0-6.0-2.44","","<div style=""font-size:60px;"">+</div>","null","","","","","","",""
"1200.999999884516","","image-keyboard-response","355","728493","0.0-6.0-0.45","","img/pink.png","32","trial","32","true","0.8,0.2","1:go_a","",""
"null","","html-keyboard-response","356","729495","0.0-6.0-1.45","","<img src=""img/pink-r.png"" border=""10"">","null","trial","32","","0.8,0.2","1:go_a","1",""
"null","","html-keyboard-response","357","730499","0.0-6.0-2.45","","<div style=""font-size:60px;"">+</div>","null","","","","","","",""
"913.0000001750886","","image-keyboard-response","358","731420","0.0-6.0-0.46","","img/grey.png","32","trial","32","true","0.6,0.4","3:go_c","",""
"null","","html-keyboard-response","359","732422","0.0-6.0-1.46","","<img src=""img/grey-n.png"" border=""10"">","null","trial","32","","0.6,0.4","3:go_c","0",""
"null","","html-keyboard-response","360","733424","0.0-6.0-2.46","","<div style=""font-size:60px;"">+</div>","null","","","","","","",""
"754.9999998882413","","image-keyboard-response","361","734180","0.0-6.0-0.47","","img/purple.png","32","trial","null","false","0.4,0.6","4:nogo_d","",""
"null","","html-keyboard-response","362","735184","0.0-6.0-1.47","","<img src=""img/purple-r.png"" border=""10"">","null","trial","null","","0.4,0.6","4:nogo_d","1",""
"null","","html-keyboard-response","363","736185","0.0-6.0-2.47","","<div style=""font-size:60px;"">+</div>","null","","","","","","",""
"1078.999999910593","","image-keyboard-response","364","737265","0.0-6.0-0.48","","img/pink.png","32","trial","32","true","0.8,0.2","1:go_a","",""
"null","","html-keyboard-response","365","738268","0.0-6.0-1.48","","<img src=""img/pink-r.png"" border=""10"">","null","trial","32","","0.8,0.2","1:go_a","1",""
"null","","html-keyboard-response","366","739315","0.0-6.0-2.48","","<div style=""font-size:60px;"">+</div>","null","","","","","","",""
"4.000000189989805","","image-keyboard-response","367","739321","0.0-6.0-0.49","","img/purple.png","32","trial","null","false","0.4,0.6","4:nogo_d","",""
"null","","html-keyboard-response","368","740321","0.0-6.0-1.49","","<img src=""img/purple-r.png"" border=""10"">","null","trial","null","","0.4,0.6","4:nogo_d","1",""
"null","","html-keyboard-response","369","741322","0.0-6.0-2.49","","<div style=""font-size:60px;"">+</div>","null","","","","","","",""
"320.9999999962747","","image-keyboard-response","370","741644","0.0-6.0-0.50","","img/red.png","32","trial","null","false","0.2,0.8","2:nogo_b","",""
"null","","html-keyboard-response","371","742646","0.0-6.0-1.50","","<img src=""img/red-n.png"" border=""10"">","null","trial","null","","0.2,0.8","2:nogo_b","0",""
"null","","html-keyboard-response","372","743646","0.0-6.0-2.50","","<div style=""font-size:60px;"">+</div>","null","","","","","","",""
"217.99999987706542","","image-keyboard-response","373","743864","0.0-6.0-0.51","","img/grey.png","32","trial","32","true","0.6,0.4","3:go_c","",""
"null","","html-keyboard-response","374","744866","0.0-6.0-1.51","","<img src=""img/grey-r.png"" border=""10"">","null","trial","32","","0.6,0.4","3:go_c","1",""
"null","","html-keyboard-response","375","745866","0.0-6.0-2.51","","<div style=""font-size:60px;"">+</div>","null","","","","","","",""
"485.0000003352761","","image-keyboard-response","376","746352","0.0-6.0-0.52","","img/pink.png","32","trial","32","true","0.8,0.2","1:go_a","",""
"null","","html-keyboard-response","377","747354","0.0-6.0-1.52","","<img src=""img/pink-r.png"" border=""10"">","null","trial","32","","0.8,0.2","1:go_a","1",""
"null","","html-keyboard-response","378","748356","0.0-6.0-2.52","","<div style=""font-size:60px;"">+</div>","null","","","","","","",""
"78.00000021234155","","image-keyboard-response","379","748434","0.0-6.0-0.53","","img/purple.png","32","trial","null","false","0.4,0.6","4:nogo_d","",""
"null","","html-keyboard-response","380","749618","0.0-6.0-1.53","","<img src=""img/purple-n.png"" border=""10"">","null","trial","null","","0.4,0.6","4:nogo_d","0",""
"null","","html-keyboard-response","381","750619","0.0-6.0-2.53","","<div style=""font-size:60px;"">+</div>","null","","","","","","",""
"240.00000022351742","","image-keyboard-response","382","750861","0.0-6.0-0.54","","img/grey.png","32","trial","32","true","0.6,0.4","3:go_c","",""
"null","","html-keyboard-response","383","751863","0.0-6.0-1.54","","<img src=""img/grey-r.png"" border=""10"">","null","trial","32","","0.6,0.4","3:go_c","1",""
"null","","html-keyboard-response","384","752872","0.0-6.0-2.54","","<div style=""font-size:60px;"">+</div>","null","","","","","","",""
"183.0000001937151","","image-keyboard-response","385","753056","0.0-6.0-0.55","","img/red.png","32","trial","null","false","0.2,0.8","2:nogo_b","",""
"null","","html-keyboard-response","386","754058","0.0-6.0-1.55","","<img src=""img/red-n.png"" border=""10"">","null","trial","null","","0.2,0.8","2:nogo_b","0",""
"null","","html-keyboard-response","387","755059","0.0-6.0-2.55","","<div style=""font-size:60px;"">+</div>","null","","","","","","",""
"453.99999991059303","","image-keyboard-response","388","755514","0.0-6.0-0.56","","img/grey.png","32","trial","32","true","0.6,0.4","3:go_c","",""
"null","","html-keyboard-response","389","756518","0.0-6.0-1.56","","<img src=""img/grey-n.png"" border=""10"">","null","trial","32","","0.6,0.4","3:go_c","0",""
"null","","html-keyboard-response","390","757518","0.0-6.0-2.56","","<div style=""font-size:60px;"">+</div>","null","","","","","","",""
"475.00000009313226","","image-keyboard-response","391","757993","0.0-6.0-0.57","","img/purple.png","32","trial","null","false","0.4,0.6","4:nogo_d","",""
"null","","html-keyboard-response","392","758999","0.0-6.0-1.57","","<img src=""img/purple-n.png"" border=""10"">","null","trial","null","","0.4,0.6","4:nogo_d","0",""
"null","","html-keyboard-response","393","760000","0.0-6.0-2.57","","<div style=""font-size:60px;"">+</div>","null","","","","","","",""
"588.9999996870756","","image-keyboard-response","394","760590","0.0-6.0-0.58","","img/red.png","32","trial","null","false","0.2,0.8","2:nogo_b","",""
"null","","html-keyboard-response","395","761592","0.0-6.0-1.58","","<img src=""img/red-r.png"" border=""10"">","null","trial","null","","0.2,0.8","2:nogo_b","1",""
"null","","html-keyboard-response","396","762592","0.0-6.0-2.58","","<div style=""font-size:60px;"">+</div>","null","","","","","","",""
"null","","image-keyboard-response","397","764094","0.0-6.0-0.59","","img/pink.png","null","trial","32","false","0.8,0.2","1:go_a","",""
"null","","html-keyboard-response","398","765097","0.0-6.0-1.59","","<img src=""img/pink-n.png"">","null","trial","32","","0.8,0.2","1:go_a","0",""
"null","","html-keyboard-response","399","766101","0.0-6.0-2.59","","<div style=""font-size:60px;"">+</div>","null","","","","","","",""
"359.00000017136335","","image-keyboard-response","400","766461","0.0-6.0-0.60","","img/grey.png","32","trial","32","true","0.6,0.4","3:go_c","",""
"null","","html-keyboard-response","401","767464","0.0-6.0-1.60","","<img src=""img/grey-r.png"" border=""10"">","null","trial","32","","0.6,0.4","3:go_c","1",""
"null","","html-keyboard-response","402","768466","0.0-6.0-2.60","","<div style=""font-size:60px;"">+</div>","null","","","","","","",""
"117.99999978393316","","image-keyboard-response","403","768585","0.0-6.0-0.61","","img/purple.png","32","trial","null","false","0.4,0.6","4:nogo_d","",""
"null","","html-keyboard-response","404","769588","0.0-6.0-1.61","","<img src=""img/purple-n.png"" border=""10"">","null","trial","null","","0.4,0.6","4:nogo_d","0",""
"null","","html-keyboard-response","405","770593","0.0-6.0-2.61","","<div style=""font-size:60px;"">+</div>","null","","","","","","",""
"604.9999999813735","","image-keyboard-response","406","771199","0.0-6.0-0.62","","img/pink.png","32","trial","32","true","0.8,0.2","1:go_a","",""
"null","","html-keyboard-response","407","772204","0.0-6.0-1.62","","<img src=""img/pink-r.png"" border=""10"">","null","trial","32","","0.8,0.2","1:go_a","1",""
"null","","html-keyboard-response","408","773206","0.0-6.0-2.62","","<div style=""font-size:60px;"">+</div>","null","","","","","","",""
"519.000000320375","","image-keyboard-response","409","773725","0.0-6.0-0.63","","img/red.png","32","trial","null","false","0.2,0.8","2:nogo_b","",""
"null","","html-keyboard-response","410","774726","0.0-6.0-1.63","","<img src=""img/red-n.png"" border=""10"">","null","trial","null","","0.2,0.8","2:nogo_b","0",""
"null","","html-keyboard-response","411","775726","0.0-6.0-2.63","","<div style=""font-size:60px;"">+</div>","null","","","","","","",""
"69.99999983236194","","image-keyboard-response","412","775797","0.0-6.0-0.64","","img/pink.png","32","trial","32","true","0.8,0.2","1:go_a","",""
"null","","html-keyboard-response","413","776798","0.0-6.0-1.64","","<img src=""img/pink-r.png"" border=""10"">","null","trial","32","","0.8,0.2","1:go_a","1",""
"null","","html-keyboard-response","414","777798","0.0-6.0-2.64","","<div style=""font-size:60px;"">+</div>","null","","","","","","",""
"6.99999975040555","","image-keyboard-response","415","777806","0.0-6.0-0.65","","img/purple.png","32","trial","null","false","0.4,0.6","4:nogo_d","",""
"null","","html-keyboard-response","416","778808","0.0-6.0-1.65","","<img src=""img/purple-n.png"" border=""10"">","null","trial","null","","0.4,0.6","4:nogo_d","0",""
"null","","html-keyboard-response","417","779889","0.0-6.0-2.65","","<div style=""font-size:60px;"">+</div>","null","","","","","","",""
"27.999999932944775","","image-keyboard-response","418","779918","0.0-6.0-0.66","","img/red.png","32","trial","null","false","0.2,0.8","2:nogo_b","",""
"null","","html-keyboard-response","419","780955","0.0-6.0-1.66","","<img src=""img/red-n.png"" border=""10"">","null","trial","null","","0.2,0.8","2:nogo_b","0",""
"null","","html-keyboard-response","420","781955","0.0-6.0-2.66","","<div style=""font-size:60px;"">+</div>","null","","","","","","",""
"451.0000003501773","","image-keyboard-response","421","782407","0.0-6.0-0.67","","img/grey.png","32","trial","32","true","0.6,0.4","3:go_c","",""
"null","","html-keyboard-response","422","783409","0.0-6.0-1.67","","<img src=""img/grey-n.png"" border=""10"">","null","trial","32","","0.6,0.4","3:go_c","0",""
"null","","html-keyboard-response","423","784409","0.0-6.0-2.67","","<div style=""font-size:60px;"">+</div>","null","","","","","","",""
"1009.9999997764826","","image-keyboard-response","424","785420","0.0-6.0-0.68","","img/red.png","32","trial","null","false","0.2,0.8","2:nogo_b","",""
"null","","html-keyboard-response","425","786423","0.0-6.0-1.68","","<img src=""img/red-n.png"" border=""10"">","null","trial","null","","0.2,0.8","2:nogo_b","0",""
"null","","html-keyboard-response","426","787426","0.0-6.0-2.68","","<div style=""font-size:60px;"">+</div>","null","","","","","","",""
"1069.999999832362","","image-keyboard-response","427","788497","0.0-6.0-0.69","","img/purple.png","32","trial","null","false","0.4,0.6","4:nogo_d","",""
"null","","html-keyboard-response","428","789500","0.0-6.0-1.69","","<img src=""img/purple-r.png"" border=""10"">","null","trial","null","","0.4,0.6","4:nogo_d","1",""
"null","","html-keyboard-response","429","790554","0.0-6.0-2.69","","<div style=""font-size:60px;"">+</div>","null","","","","","","",""
"null","","image-keyboard-response","430","792263","0.0-6.0-0.70","","img/grey.png","null","trial","32","false","0.6,0.4","3:go_c","",""
"null","","html-keyboard-response","431","793492","0.0-6.0-1.70","","<img src=""img/grey-n.png"">","null","trial","32","","0.6,0.4","3:go_c","0",""
"null","","html-keyboard-response","432","794492","0.0-6.0-2.70","","<div style=""font-size:60px;"">+</div>","null","","","","","","",""
"null","","image-keyboard-response","433","795993","0.0-6.0-0.71","","img/pink.png","null","trial","32","false","0.8,0.2","1:go_a","",""
"null","","html-keyboard-response","434","796994","0.0-6.0-1.71","","<img src=""img/pink-n.png"">","null","trial","32","","0.8,0.2","1:go_a","0",""
"null","","html-keyboard-response","435","797994","0.0-6.0-2.71","","<div style=""font-size:60px;"">+</div>","null","","","","","","",""
"922.9999999515712","","image-keyboard-response","436","798918","0.0-6.0-0.72","","img/pink.png","32","trial","32","true","0.8,0.2","1:go_a","",""
"null","","html-keyboard-response","437","799920","0.0-6.0-1.72","","<img src=""img/pink-r.png"" border=""10"">","null","trial","32","","0.8,0.2","1:go_a","1",""
"null","","html-keyboard-response","438","800922","0.0-6.0-2.72","","<div style=""font-size:60px;"">+</div>","null","","","","","","",""
"898.0000000447035","","image-keyboard-response","439","801822","0.0-6.0-0.73","","img/grey.png","32","trial","32","true","0.6,0.4","3:go_c","",""
"null","","html-keyboard-response","440","802824","0.0-6.0-1.73","","<img src=""img/grey-n.png"" border=""10"">","null","trial","32","","0.6,0.4","3:go_c","0",""
"null","","html-keyboard-response","441","803825","0.0-6.0-2.73","","<div style=""font-size:60px;"">+</div>","null","","","","","","",""
"null","","image-keyboard-response","442","805326","0.0-6.0-0.74","","img/red.png","null","trial","null","true","0.2,0.8","2:nogo_b","",""
"null","","html-keyboard-response","443","806635","0.0-6.0-1.74","","<img src=""img/red-r.png"">","null","trial","null","","0.2,0.8","2:nogo_b","1",""
"null","","html-keyboard-response","444","807641","0.0-6.0-2.74","","<div style=""font-size:60px;"">+</div>","null","","","","","","",""
"null","","image-keyboard-response","445","809142","0.0-6.0-0.75","","img/purple.png","null","trial","null","true","0.4,0.6","4:nogo_d","",""
"null","","html-keyboard-response","446","810144","0.0-6.0-1.75","","<img src=""img/purple-n.png"">","null","trial","null","","0.4,0.6","4:nogo_d","0",""
"null","","html-keyboard-response","447","811145","0.0-6.0-2.75","","<div style=""font-size:60px;"">+</div>","null","","","","","","",""
"1460.9999996609986","","image-keyboard-response","448","812607","0.0-6.0-0.76","","img/pink.png","32","trial","32","true","0.8,0.2","1:go_a","",""
"null","","html-keyboard-response","449","813613","0.0-6.0-1.76","","<img src=""img/pink-r.png"" border=""10"">","null","trial","32","","0.8,0.2","1:go_a","1",""
"null","","html-keyboard-response","450","814616","0.0-6.0-2.76","","<div style=""font-size:60px;"">+</div>","null","","","","","","",""
"1202.9999997466803","","image-keyboard-response","451","815820","0.0-6.0-0.77","","img/grey.png","32","trial","32","true","0.6,0.4","3:go_c","",""
"null","","html-keyboard-response","452","816822","0.0-6.0-1.77","","<img src=""img/grey-n.png"" border=""10"">","null","trial","32","","0.6,0.4","3:go_c","0",""
"null","","html-keyboard-response","453","817823","0.0-6.0-2.77","","<div style=""font-size:60px;"">+</div>","null","","","","","","",""
"970.9999999031425","","image-keyboard-response","454","818796","0.0-6.0-0.78","","img/purple.png","32","trial","null","false","0.4,0.6","4:nogo_d","",""
"null","","html-keyboard-response","455","819797","0.0-6.0-1.78","","<img src=""img/purple-r.png"" border=""10"">","null","trial","null","","0.4,0.6","4:nogo_d","1",""
"null","","html-keyboard-response","456","820798","0.0-6.0-2.78","","<div style=""font-size:60px;"">+</div>","null","","","","","","",""
"null","","image-keyboard-response","457","822301","0.0-6.0-0.79","","img/red.png","null","trial","null","true","0.2,0.8","2:nogo_b","",""
"null","","html-keyboard-response","458","823303","0.0-6.0-1.79","","<img src=""img/red-n.png"">","null","trial","null","","0.2,0.8","2:nogo_b","0",""
"null","","html-keyboard-response","459","824304","0.0-6.0-2.79","","<div style=""font-size:60px;"">+</div>","null","","","","","","",""
"null","","image-keyboard-response","460","825806","0.0-6.0-0.80","","img/red.png","null","trial","null","true","0.2,0.8","2:nogo_b","",""
"null","","html-keyboard-response","461","826808","0.0-6.0-1.80","","<img src=""img/red-n.png"">","null","trial","null","","0.2,0.8","2:nogo_b","0",""
"null","","html-keyboard-response","462","827809","0.0-6.0-2.80","","<div style=""font-size:60px;"">+</div>","null","","","","","","",""
"1458.9999997988343","","image-keyboard-response","463","829271","0.0-6.0-0.81","","img/pink.png","32","trial","32","true","0.8,0.2","1:go_a","",""
"null","","html-keyboard-response","464","830555","0.0-6.0-1.81","","<img src=""img/pink-r.png"" border=""10"">","null","trial","32","","0.8,0.2","1:go_a","1",""
"null","","html-keyboard-response","465","831557","0.0-6.0-2.81","","<div style=""font-size:60px;"">+</div>","null","","","","","","",""
"916.0000002011657","","image-keyboard-response","466","832475","0.0-6.0-0.82","","img/grey.png","32","trial","32","true","0.6,0.4","3:go_c","",""
"null","","html-keyboard-response","467","833477","0.0-6.0-1.82","","<img src=""img/grey-n.png"" border=""10"">","null","trial","32","","0.6,0.4","3:go_c","0",""
"null","","html-keyboard-response","468","834478","0.0-6.0-2.82","","<div style=""font-size:60px;"">+</div>","null","","","","","","",""
"62.0000003837049","","image-keyboard-response","469","834540","0.0-6.0-0.83","","img/purple.png","32","trial","null","false","0.4,0.6","4:nogo_d","",""
"null","","html-keyboard-response","470","835541","0.0-6.0-1.83","","<img src=""img/purple-n.png"" border=""10"">","null","trial","null","","0.4,0.6","4:nogo_d","0",""
"null","","html-keyboard-response","471","836542","0.0-6.0-2.83","","<div style=""font-size:60px;"">+</div>","null","","","","","","",""
"170.00000039115548","","image-keyboard-response","472","836714","0.0-6.0-0.84","","img/purple.png","32","trial","null","false","0.4,0.6","4:nogo_d","",""
"null","","html-keyboard-response","473","837716","0.0-6.0-1.84","","<img src=""img/purple-n.png"" border=""10"">","null","trial","null","","0.4,0.6","4:nogo_d","0",""
"null","","html-keyboard-response","474","838777","0.0-6.0-2.84","","<div style=""font-size:60px;"">+</div>","null","","","","","","",""
"6.99999975040555","","image-keyboard-response","475","838785","0.0-6.0-0.85","","img/grey.png","32","trial","32","true","0.6,0.4","3:go_c","",""
"null","","html-keyboard-response","476","839944","0.0-6.0-1.85","","<img src=""img/grey-n.png"" border=""10"">","null","trial","32","","0.6,0.4","3:go_c","0",""
"null","","html-keyboard-response","477","841011","0.0-6.0-2.85","","<div style=""font-size:60px;"">+</div>","null","","","","","","",""
"394.00000032037497","","image-keyboard-response","478","841406","0.0-6.0-0.86","","img/pink.png","32","trial","32","true","0.8,0.2","1:go_a","",""
"null","","html-keyboard-response","479","842538","0.0-6.0-1.86","","<img src=""img/pink-n.png"" border=""10"">","null","trial","32","","0.8,0.2","1:go_a","0",""
"null","","html-keyboard-response","480","843539","0.0-6.0-2.86","","<div style=""font-size:60px;"">+</div>","null","","","","","","",""
"253.99999972432852","","image-keyboard-response","481","843794","0.0-6.0-0.87","","img/red.png","32","trial","null","false","0.2,0.8","2:nogo_b","",""
"null","","html-keyboard-response","482","844795","0.0-6.0-1.87","","<img src=""img/red-r.png"" border=""10"">","null","trial","null","","0.2,0.8","2:nogo_b","1",""
"null","","html-keyboard-response","483","845797","0.0-6.0-2.87","","<div style=""font-size:60px;"">+</div>","null","","","","","","",""
"226.99999995529652","","image-keyboard-response","484","846025","0.0-6.0-0.88","","img/grey.png","32","trial","32","true","0.6,0.4","3:go_c","",""
"null","","html-keyboard-response","485","847028","0.0-6.0-1.88","","<img src=""img/grey-r.png"" border=""10"">","null","trial","32","","0.6,0.4","3:go_c","1",""
"null","","html-keyboard-response","486","848029","0.0-6.0-2.88","","<div style=""font-size:60px;"">+</div>","null","","","","","","",""
"234.00000017136335","","image-keyboard-response","487","848264","0.0-6.0-0.89","","img/red.png","32","trial","null","false","0.2,0.8","2:nogo_b","",""
"null","","html-keyboard-response","488","849266","0.0-6.0-1.89","","<img src=""img/red-r.png"" border=""10"">","null","trial","null","","0.2,0.8","2:nogo_b","1",""
"null","","html-keyboard-response","489","850266","0.0-6.0-2.89","","<div style=""font-size:60px;"">+</div>","null","","","","","","",""
"317.9999999701977","","image-keyboard-response","490","850586","0.0-6.0-0.90","","img/purple.png","32","trial","null","false","0.4,0.6","4:nogo_d","",""
"null","","html-keyboard-response","491","851589","0.0-6.0-1.90","","<img src=""img/purple-n.png"" border=""10"">","null","trial","null","","0.4,0.6","4:nogo_d","0",""
"null","","html-keyboard-response","492","852677","0.0-6.0-2.90","","<div style=""font-size:60px;"">+</div>","null","","","","","","",""
"138.0000002682209","","image-keyboard-response","493","852815","0.0-6.0-0.91","","img/pink.png","32","trial","32","true","0.8,0.2","1:go_a","",""
"null","","html-keyboard-response","494","853816","0.0-6.0-1.91","","<img src=""img/pink-r.png"" border=""10"">","null","trial","32","","0.8,0.2","1:go_a","1",""
"null","","html-keyboard-response","495","854818","0.0-6.0-2.91","","<div style=""font-size:60px;"">+</div>","null","","","","","","",""
"665.0000000372529","","image-keyboard-response","496","855484","0.0-6.0-0.92","","img/grey.png","32","trial","32","true","0.6,0.4","3:go_c","",""
"null","","html-keyboard-response","497","856485","0.0-6.0-1.92","","<img src=""img/grey-r.png"" border=""10"">","null","trial","32","","0.6,0.4","3:go_c","1",""
"null","","html-keyboard-response","498","857486","0.0-6.0-2.92","","<div style=""font-size:60px;"">+</div>","null","","","","","","",""
"83.00000010058284","","image-keyboard-response","499","857570","0.0-6.0-0.93","","img/red.png","32","trial","null","false","0.2,0.8","2:nogo_b","",""
"null","","html-keyboard-response","500","858574","0.0-6.0-1.93","","<img src=""img/red-n.png"" border=""10"">","null","trial","null","","0.2,0.8","2:nogo_b","0",""
"null","","html-keyboard-response","501","859576","0.0-6.0-2.93","","<div style=""font-size:60px;"">+</div>","null","","","","","","",""
"168.99999976158142","","image-keyboard-response","502","859746","0.0-6.0-0.94","","img/purple.png","32","trial","null","false","0.4,0.6","4:nogo_d","",""
"null","","html-keyboard-response","503","860748","0.0-6.0-1.94","","<img src=""img/purple-r.png"" border=""10"">","null","trial","null","","0.4,0.6","4:nogo_d","1",""
"null","","html-keyboard-response","504","861754","0.0-6.0-2.94","","<div style=""font-size:60px;"">+</div>","null","","","","","","",""
"null","","image-keyboard-response","505","863257","0.0-6.0-0.95","","img/pink.png","null","trial","32","false","0.8,0.2","1:go_a","",""
"null","","html-keyboard-response","506","864617","0.0-6.0-1.95","","<img src=""img/pink-n.png"">","null","trial","32","","0.8,0.2","1:go_a","0",""
"null","","html-keyboard-response","507","865618","0.0-6.0-2.95","","<div style=""font-size:60px;"">+</div>","null","","","","","","",""
"731.9999998435378","","image-keyboard-response","508","866351","0.0-6.0-0.96","","img/pink.png","32","trial","32","true","0.8,0.2","1:go_a","",""
"null","","html-keyboard-response","509","867353","0.0-6.0-1.96","","<img src=""img/pink-r.png"" border=""10"">","null","trial","32","","0.8,0.2","1:go_a","1",""
"null","","html-keyboard-response","510","868354","0.0-6.0-2.96","","<div style=""font-size:60px;"">+</div>","null","","","","","","",""
"1318.9999996684492","","image-keyboard-response","511","869674","0.0-6.0-0.97","","img/red.png","32","trial","null","false","0.2,0.8","2:nogo_b","",""
"null","","html-keyboard-response","512","870676","0.0-6.0-1.97","","<img src=""img/red-r.png"" border=""10"">","null","trial","null","","0.2,0.8","2:nogo_b","1",""
"null","","html-keyboard-response","513","871677","0.0-6.0-2.97","","<div style=""font-size:60px;"">+</div>","null","","","","","","",""
"280.9999999590218","","image-keyboard-response","514","871959","0.0-6.0-0.98","","img/grey.png","32","trial","32","true","0.6,0.4","3:go_c","",""
"null","","html-keyboard-response","515","872960","0.0-6.0-1.98","","<img src=""img/grey-r.png"" border=""10"">","null","trial","32","","0.6,0.4","3:go_c","1",""
"null","","html-keyboard-response","516","873961","0.0-6.0-2.98","","<div style=""font-size:60px;"">+</div>","null","","","","","","",""
"81.99999993667006","","image-keyboard-response","517","874045","0.0-6.0-0.99","","img/purple.png","32","trial","null","false","0.4,0.6","4:nogo_d","",""
"null","","html-keyboard-response","518","875046","0.0-6.0-1.99","","<img src=""img/purple-n.png"" border=""10"">","null","trial","null","","0.4,0.6","4:nogo_d","0",""
"null","","html-keyboard-response","519","876080","0.0-6.0-2.99","","<div style=""font-size:60px;"">+</div>","null","","","","","","",""
"256.00000005215406","","image-keyboard-response","520","876337","0.0-6.0-0.100","","img/grey.png","32","trial","32","true","0.6,0.4","3:go_c","",""
"null","","html-keyboard-response","521","877338","0.0-6.0-1.100","","<img src=""img/grey-n.png"" border=""10"">","null","trial","32","","0.6,0.4","3:go_c","0",""
"null","","html-keyboard-response","522","878339","0.0-6.0-2.100","","<div style=""font-size:60px;"">+</div>","null","","","","","","",""
"298.0000004172325","","image-keyboard-response","523","878646","0.0-6.0-0.101","","img/purple.png","32","trial","null","false","0.4,0.6","4:nogo_d","",""
"null","","html-keyboard-response","524","879650","0.0-6.0-1.101","","<img src=""img/purple-r.png"" border=""10"">","null","trial","null","","0.4,0.6","4:nogo_d","1",""
"null","","html-keyboard-response","525","880650","0.0-6.0-2.101","","<div style=""font-size:60px;"">+</div>","null","","","","","","",""
"33.00000028684735","","image-keyboard-response","526","880684","0.0-6.0-0.102","","img/pink.png","32","trial","32","true","0.8,0.2","1:go_a","",""
"null","","html-keyboard-response","527","881687","0.0-6.0-1.102","","<img src=""img/pink-r.png"" border=""10"">","null","trial","32","","0.8,0.2","1:go_a","1",""
"null","","html-keyboard-response","528","882689","0.0-6.0-2.102","","<div style=""font-size:60px;"">+</div>","null","","","","","","",""
"94.0000000409782","","image-keyboard-response","529","882784","0.0-6.0-0.103","","img/red.png","32","trial","null","false","0.2,0.8","2:nogo_b","",""
"null","","html-keyboard-response","530","883786","0.0-6.0-1.103","","<img src=""img/red-n.png"" border=""10"">","null","trial","null","","0.2,0.8","2:nogo_b","0",""
"null","","html-keyboard-response","531","884787","0.0-6.0-2.103","","<div style=""font-size:60px;"">+</div>","null","","","","","","",""
"115.9999999217689","","image-keyboard-response","532","884904","0.0-6.0-0.104","","img/grey.png","32","trial","32","true","0.6,0.4","3:go_c","",""
"null","","html-keyboard-response","533","885905","0.0-6.0-1.104","","<img src=""img/grey-r.png"" border=""10"">","null","trial","32","","0.6,0.4","3:go_c","1",""
"null","","html-keyboard-response","534","886906","0.0-6.0-2.104","","<div style=""font-size:60px;"">+</div>","null","","","","","","",""
"833.0000001005828","","image-keyboard-response","535","887741","0.0-6.0-0.105","","img/purple.png","32","trial","null","false","0.4,0.6","4:nogo_d","",""
"null","","html-keyboard-response","536","888841","0.0-6.0-1.105","","<img src=""img/purple-n.png"" border=""10"">","null","trial","null","","0.4,0.6","4:nogo_d","0",""
"null","","html-keyboard-response","537","889848","0.0-6.0-2.105","","<div style=""font-size:60px;"">+</div>","null","","","","","","",""
"null","","image-keyboard-response","538","891349","0.0-6.0-0.106","","img/pink.png","null","trial","32","false","0.8,0.2","1:go_a","",""
"null","","html-keyboard-response","539","892350","0.0-6.0-1.106","","<img src=""img/pink-r.png"">","null","trial","32","","0.8,0.2","1:go_a","1",""
"null","","html-keyboard-response","540","893351","0.0-6.0-2.106","","<div style=""font-size:60px;"">+</div>","null","","","","","","",""
"null","","image-keyboard-response","541","894853","0.0-6.0-0.107","","img/red.png","null","trial","null","true","0.2,0.8","2:nogo_b","",""
"null","","html-keyboard-response","542","895855","0.0-6.0-1.107","","<img src=""img/red-r.png"">","null","trial","null","","0.2,0.8","2:nogo_b","1",""
"null","","html-keyboard-response","543","896856","0.0-6.0-2.107","","<div style=""font-size:60px;"">+</div>","null","","","","","","",""
"null","","image-keyboard-response","544","898357","0.0-6.0-0.108","","img/pink.png","null","trial","32","false","0.8,0.2","1:go_a","",""
"null","","html-keyboard-response","545","899371","0.0-6.0-1.108","","<img src=""img/pink-n.png"">","null","trial","32","","0.8,0.2","1:go_a","0",""
"null","","html-keyboard-response","546","900373","0.0-6.0-2.108","","<div style=""font-size:60px;"">+</div>","null","","","","","","",""
"null","","image-keyboard-response","547","901874","0.0-6.0-0.109","","img/red.png","null","trial","null","true","0.2,0.8","2:nogo_b","",""
"null","","html-keyboard-response","548","902877","0.0-6.0-1.109","","<img src=""img/red-r.png"">","null","trial","null","","0.2,0.8","2:nogo_b","1",""
"null","","html-keyboard-response","549","903896","0.0-6.0-2.109","","<div style=""font-size:60px;"">+</div>","null","","","","","","",""
"null","","image-keyboard-response","550","905399","0.0-6.0-0.110","","img/purple.png","null","trial","null","true","0.4,0.6","4:nogo_d","",""
"null","","html-keyboard-response","551","906406","0.0-6.0-1.110","","<img src=""img/purple-r.png"">","null","trial","null","","0.4,0.6","4:nogo_d","1",""
"null","","html-keyboard-response","552","907408","0.0-6.0-2.110","","<div style=""font-size:60px;"">+</div>","null","","","","","","",""
"925.0000002793968","","image-keyboard-response","553","908335","0.0-6.0-0.111","","img/grey.png","32","trial","32","true","0.6,0.4","3:go_c","",""
"null","","html-keyboard-response","554","909338","0.0-6.0-1.111","","<img src=""img/grey-n.png"" border=""10"">","null","trial","32","","0.6,0.4","3:go_c","0",""
"null","","html-keyboard-response","555","910339","0.0-6.0-2.111","","<div style=""font-size:60px;"">+</div>","null","","","","","","",""
"1495.9999998100102","","image-keyboard-response","556","911838","0.0-6.0-0.112","","img/grey.png","32","trial","32","true","0.6,0.4","3:go_c","",""
"null","","html-keyboard-response","557","913095","0.0-6.0-1.112","","<img src=""img/grey-r.png"" border=""10"">","null","trial","32","","0.6,0.4","3:go_c","1",""
"null","","html-keyboard-response","558","914253","0.0-6.0-2.112","","<div style=""font-size:60px;"">+</div>","null","","","","","","",""
"970.9999999031425","","image-keyboard-response","559","915225","0.0-6.0-0.113","","img/pink.png","32","trial","32","true","0.8,0.2","1:go_a","",""
"null","","html-keyboard-response","560","916227","0.0-6.0-1.113","","<img src=""img/pink-r.png"" border=""10"">","null","trial","32","","0.8,0.2","1:go_a","1",""
"null","","html-keyboard-response","561","917230","0.0-6.0-2.113","","<div style=""font-size:60px;"">+</div>","null","","","","","","",""
"691.9999998062849","","image-keyboard-response","562","917924","0.0-6.0-0.114","","img/red.png","32","trial","null","false","0.2,0.8","2:nogo_b","",""
"null","","html-keyboard-response","563","918926","0.0-6.0-1.114","","<img src=""img/red-n.png"" border=""10"">","null","trial","null","","0.2,0.8","2:nogo_b","0",""
"null","","html-keyboard-response","564","919927","0.0-6.0-2.114","","<div style=""font-size:60px;"">+</div>","null","","","","","","",""
"null","","image-keyboard-response","565","921428","0.0-6.0-0.115","","img/purple.png","null","trial","null","true","0.4,0.6","4:nogo_d","",""
"null","","html-keyboard-response","566","922430","0.0-6.0-1.115","","<img src=""img/purple-r.png"">","null","trial","null","","0.4,0.6","4:nogo_d","1",""
"null","","html-keyboard-response","567","923431","0.0-6.0-2.115","","<div style=""font-size:60px;"">+</div>","null","","","","","","",""
"null","","image-keyboard-response","568","924933","0.0-6.0-0.116","","img/purple.png","null","trial","null","true","0.4,0.6","4:nogo_d","",""
"null","","html-keyboard-response","569","926154","0.0-6.0-1.116","","<img src=""img/purple-r.png"">","null","trial","null","","0.4,0.6","4:nogo_d","1",""
"null","","html-keyboard-response","570","927156","0.0-6.0-2.116","","<div style=""font-size:60px;"">+</div>","null","","","","","","",""
"964.0000001527369","","image-keyboard-response","571","928121","0.0-6.0-0.117","","img/pink.png","32","trial","32","true","0.8,0.2","1:go_a","",""
"null","","html-keyboard-response","572","929123","0.0-6.0-1.117","","<img src=""img/pink-r.png"" border=""10"">","null","trial","32","","0.8,0.2","1:go_a","1",""
"null","","html-keyboard-response","573","930130","0.0-6.0-2.117","","<div style=""font-size:60px;"">+</div>","null","","","","","","",""
"1154.0000000968575","","image-keyboard-response","574","931285","0.0-6.0-0.118","","img/grey.png","32","trial","32","true","0.6,0.4","3:go_c","",""
"null","","html-keyboard-response","575","932288","0.0-6.0-1.118","","<img src=""img/grey-n.png"" border=""10"">","null","trial","32","","0.6,0.4","3:go_c","0",""
"null","","html-keyboard-response","576","933288","0.0-6.0-2.118","","<div style=""font-size:60px;"">+</div>","null","","","","","","",""
"null","","image-keyboard-response","577","934791","0.0-6.0-0.119","","img/red.png","null","trial","null","true","0.2,0.8","2:nogo_b","",""
"null","","html-keyboard-response","578","935792","0.0-6.0-1.119","","<img src=""img/red-r.png"">","null","trial","null","","0.2,0.8","2:nogo_b","1",""
"null","","html-keyboard-response","579","936828","0.0-6.0-2.119","","<div style=""font-size:60px;"">+</div>","null","","","","","","",""
"3777.0000002346933","","instructions","580","940605","0.0-7.0","[{""page_index"":0,""viewing_time"":3777.0000002346933}]","","","","","","","","",""
"1445.9999999962747","","image-keyboard-response","581","942053","0.0-8.0-0.0","","img/blue.png","32","trial","32","true","0.8,0.2","3:go_c","",""
"null","","html-keyboard-response","582","943056","0.0-8.0-1.0","","<img src=""img/blue-r.png"" border=""10"">","null","trial","32","","0.8,0.2","3:go_c","1",""
"null","","html-keyboard-response","583","944057","0.0-8.0-2.0","","<div style=""font-size:60px;"">+</div>","null","","","","","","",""
"986.9999997317791","","image-keyboard-response","584","945044","0.0-8.0-0.1","","img/green.png","32","trial","32","true","0.8,0.2","1:go_a","",""
"null","","html-keyboard-response","585","946045","0.0-8.0-1.1","","<img src=""img/green-n.png"" border=""10"">","null","trial","32","","0.8,0.2","1:go_a","0",""
"null","","html-keyboard-response","586","947046","0.0-8.0-2.1","","<div style=""font-size:60px;"">+</div>","null","","","","","","",""
"808.9999998919666","","image-keyboard-response","587","947856","0.0-8.0-0.2","","img/pink.png","32","trial","null","false","0.2,0.8","4:nogo_d","",""
"null","","html-keyboard-response","588","948859","0.0-8.0-1.2","","<img src=""img/pink-n.png"" border=""10"">","null","trial","null","","0.2,0.8","4:nogo_d","0",""
"null","","html-keyboard-response","589","949861","0.0-8.0-2.2","","<div style=""font-size:60px;"">+</div>","null","","","","","","",""
"805.0000001676381","","image-keyboard-response","590","950668","0.0-8.0-0.3","","img/yellow.png","32","trial","null","false","0.2,0.8","2:nogo_b","",""
"null","","html-keyboard-response","591","951669","0.0-8.0-1.3","","<img src=""img/yellow-n.png"" border=""10"">","null","trial","null","","0.2,0.8","2:nogo_b","0",""
"null","","html-keyboard-response","592","952672","0.0-8.0-2.3","","<div style=""font-size:60px;"">+</div>","null","","","","","","",""
"800.0000002793968","","image-keyboard-response","593","953475","0.0-8.0-0.4","","img/blue.png","32","trial","32","true","0.8,0.2","3:go_c","",""
"null","","html-keyboard-response","594","954476","0.0-8.0-1.4","","<img src=""img/blue-r.png"" border=""10"">","null","trial","32","","0.8,0.2","3:go_c","1",""
"null","","html-keyboard-response","595","955477","0.0-8.0-2.4","","<div style=""font-size:60px;"">+</div>","null","","","","","","",""
"null","","image-keyboard-response","596","957037","0.0-8.0-0.5","","img/yellow.png","null","trial","null","true","0.2,0.8","2:nogo_b","",""
"null","","html-keyboard-response","597","958067","0.0-8.0-1.5","","<img src=""img/yellow-r.png"">","null","trial","null","","0.2,0.8","2:nogo_b","1",""
"null","","html-keyboard-response","598","959068","0.0-8.0-2.5","","<div style=""font-size:60px;"">+</div>","null","","","","","","",""
"null","","image-keyboard-response","599","960572","0.0-8.0-0.6","","img/green.png","null","trial","32","false","0.8,0.2","1:go_a","",""
"null","","html-keyboard-response","600","961573","0.0-8.0-1.6","","<img src=""img/green-n.png"">","null","trial","32","","0.8,0.2","1:go_a","0",""
"null","","html-keyboard-response","601","962584","0.0-8.0-2.6","","<div style=""font-size:60px;"">+</div>","null","","","","","","",""
"null","","image-keyboard-response","602","964122","0.0-8.0-0.7","","img/pink.png","null","trial","null","true","0.2,0.8","4:nogo_d","",""
"null","","html-keyboard-response","603","965125","0.0-8.0-1.7","","<img src=""img/pink-n.png"">","null","trial","null","","0.2,0.8","4:nogo_d","0",""
"null","","html-keyboard-response","604","966129","0.0-8.0-2.7","","<div style=""font-size:60px;"">+</div>","null","","","","","","",""
"427.00000014156103","","image-keyboard-response","605","966557","0.0-8.0-0.8","","img/pink.png","32","trial","null","false","0.2,0.8","4:nogo_d","",""
"null","","html-keyboard-response","606","967559","0.0-8.0-1.8","","<img src=""img/pink-n.png"" border=""10"">","null","trial","null","","0.2,0.8","4:nogo_d","0",""
"null","","html-keyboard-response","607","968758","0.0-8.0-2.8","","<div style=""font-size:60px;"">+</div>","null","","","","","","",""
"61.99999991804361","","image-keyboard-response","608","968820","0.0-8.0-0.9","","img/green.png","32","trial","32","true","0.8,0.2","1:go_a","",""
"null","","html-keyboard-response","609","969821","0.0-8.0-1.9","","<img src=""img/green-n.png"" border=""10"">","null","trial","32","","0.8,0.2","1:go_a","0",""
"null","","html-keyboard-response","610","970931","0.0-8.0-2.9","","<div style=""font-size:60px;"">+</div>","null","","","","","","",""
"20.00000001862645","","image-keyboard-response","611","970952","0.0-8.0-0.10","","img/yellow.png","32","trial","null","false","0.2,0.8","2:nogo_b","",""
"null","","html-keyboard-response","612","971955","0.0-8.0-1.10","","<img src=""img/yellow-n.png"" border=""10"">","null","trial","null","","0.2,0.8","2:nogo_b","0",""
"null","","html-keyboard-response","613","972957","0.0-8.0-2.10","","<div style=""font-size:60px;"">+</div>","null","","","","","","",""
"46.00000008940697","","image-keyboard-response","614","973005","0.0-8.0-0.11","","img/blue.png","32","trial","32","true","0.8,0.2","3:go_c","",""
"null","","html-keyboard-response","615","974008","0.0-8.0-1.11","","<img src=""img/blue-r.png"" border=""10"">","null","trial","32","","0.8,0.2","3:go_c","1",""
"null","","html-keyboard-response","616","975016","0.0-8.0-2.11","","<div style=""font-size:60px;"">+</div>","null","","","","","","",""
"688.9999997802079","","image-keyboard-response","617","975706","0.0-8.0-0.12","","img/pink.png","32","trial","null","false","0.2,0.8","4:nogo_d","",""
"null","","html-keyboard-response","618","976708","0.0-8.0-1.12","","<img src=""img/pink-n.png"" border=""10"">","null","trial","null","","0.2,0.8","4:nogo_d","0",""
"null","","html-keyboard-response","619","977709","0.0-8.0-2.12","","<div style=""font-size:60px;"">+</div>","null","","","","","","",""
"1149.9999999068677","","image-keyboard-response","620","978861","0.0-8.0-0.13","","img/green.png","32","trial","32","true","0.8,0.2","1:go_a","",""
"null","","html-keyboard-response","621","979862","0.0-8.0-1.13","","<img src=""img/green-n.png"" border=""10"">","null","trial","32","","0.8,0.2","1:go_a","0",""
"null","","html-keyboard-response","622","980987","0.0-8.0-2.13","","<div style=""font-size:60px;"">+</div>","null","","","","","","",""
"1126.9999998621643","","image-keyboard-response","623","982115","0.0-8.0-0.14","","img/yellow.png","32","trial","null","false","0.2,0.8","2:nogo_b","",""
"null","","html-keyboard-response","624","983117","0.0-8.0-1.14","","<img src=""img/yellow-n.png"" border=""10"">","null","trial","null","","0.2,0.8","2:nogo_b","0",""
"null","","html-keyboard-response","625","984118","0.0-8.0-2.14","","<div style=""font-size:60px;"">+</div>","null","","","","","","",""
"954.0000003762543","","image-keyboard-response","626","985074","0.0-8.0-0.15","","img/blue.png","32","trial","32","true","0.8,0.2","3:go_c","",""
"null","","html-keyboard-response","627","986093","0.0-8.0-1.15","","<img src=""img/blue-r.png"" border=""10"">","null","trial","32","","0.8,0.2","3:go_c","1",""
"null","","html-keyboard-response","628","987093","0.0-8.0-2.15","","<div style=""font-size:60px;"">+</div>","null","","","","","","",""
"1172.0000002533197","","image-keyboard-response","629","988267","0.0-8.0-0.16","","img/pink.png","32","trial","null","false","0.2,0.8","4:nogo_d","",""
"null","","html-keyboard-response","630","989268","0.0-8.0-1.16","","<img src=""img/pink-n.png"" border=""10"">","null","trial","null","","0.2,0.8","4:nogo_d","0",""
"null","","html-keyboard-response","631","990268","0.0-8.0-2.16","","<div style=""font-size:60px;"">+</div>","null","","","","","","",""
"1205.9999997727573","","image-keyboard-response","632","991476","0.0-8.0-0.17","","img/green.png","32","trial","32","true","0.8,0.2","1:go_a","",""
"null","","html-keyboard-response","633","992479","0.0-8.0-1.17","","<img src=""img/green-n.png"" border=""10"">","null","trial","32","","0.8,0.2","1:go_a","0",""
"null","","html-keyboard-response","634","993888","0.0-8.0-2.17","","<div style=""font-size:60px;"">+</div>","null","","","","","","",""
"null","","image-keyboard-response","635","995390","0.0-8.0-0.18","","img/yellow.png","null","trial","null","true","0.2,0.8","2:nogo_b","",""
"null","","html-keyboard-response","636","996391","0.0-8.0-1.18","","<img src=""img/yellow-r.png"">","null","trial","null","","0.2,0.8","2:nogo_b","1",""
"null","","html-keyboard-response","637","997392","0.0-8.0-2.18","","<div style=""font-size:60px;"">+</div>","null","","","","","","",""
"null","","image-keyboard-response","638","998893","0.0-8.0-0.19","","img/blue.png","null","trial","32","false","0.8,0.2","3:go_c","",""
"null","","html-keyboard-response","639","999910","0.0-8.0-1.19","","<img src=""img/blue-n.png"">","null","trial","32","","0.8,0.2","3:go_c","0",""
"null","","html-keyboard-response","640","1000911","0.0-8.0-2.19","","<div style=""font-size:60px;"">+</div>","null","","","","","","",""
"null","","image-keyboard-response","641","1002413","0.0-8.0-0.20","","img/green.png","null","trial","32","false","0.8,0.2","1:go_a","",""
"null","","html-keyboard-response","642","1003629","0.0-8.0-1.20","","<img src=""img/green-r.png"">","null","trial","32","","0.8,0.2","1:go_a","1",""
"null","","html-keyboard-response","643","1004631","0.0-8.0-2.20","","<div style=""font-size:60px;"">+</div>","null","","","","","","",""
"1207.9949998296797","","image-keyboard-response","644","1005854","0.0-8.0-0.21","","img/yellow.png","32","trial","null","false","0.2,0.8","2:nogo_b","",""
"null","","html-keyboard-response","645","1006856","0.0-8.0-1.21","","<img src=""img/yellow-n.png"" border=""10"">","null","trial","null","","0.2,0.8","2:nogo_b","0",""
"null","","html-keyboard-response","646","1007975","0.0-8.0-2.21","","<div style=""font-size:60px;"">+</div>","null","","","","","","",""
"null","","image-keyboard-response","647","1009485","0.0-8.0-0.22","","img/pink.png","null","trial","null","true","0.2,0.8","4:nogo_d","",""
"null","","html-keyboard-response","648","1010487","0.0-8.0-1.22","","<img src=""img/pink-r.png"">","null","trial","null","","0.2,0.8","4:nogo_d","1",""
"null","","html-keyboard-response","649","1011489","0.0-8.0-2.22","","<div style=""font-size:60px;"">+</div>","null","","","","","","",""
"892.9999996908009","","image-keyboard-response","650","1012383","0.0-8.0-0.23","","img/blue.png","32","trial","32","true","0.8,0.2","3:go_c","",""
"null","","html-keyboard-response","651","1013384","0.0-8.0-1.23","","<img src=""img/blue-r.png"" border=""10"">","null","trial","32","","0.8,0.2","3:go_c","1",""
"null","","html-keyboard-response","652","1014385","0.0-8.0-2.23","","<div style=""font-size:60px;"">+</div>","null","","","","","","",""
"158.00000028684735","","image-keyboard-response","653","1014544","0.0-8.0-0.24","","img/green.png","32","trial","32","true","0.8,0.2","1:go_a","",""
"null","","html-keyboard-response","654","1015548","0.0-8.0-1.24","","<img src=""img/green-r.png"" border=""10"">","null","trial","32","","0.8,0.2","1:go_a","1",""
"null","","html-keyboard-response","655","1016548","0.0-8.0-2.24","","<div style=""font-size:60px;"">+</div>","null","","","","","","",""
"294.9999999254942","","image-keyboard-response","656","1016844","0.0-8.0-0.25","","img/pink.png","32","trial","null","false","0.2,0.8","4:nogo_d","",""
"null","","html-keyboard-response","657","1017847","0.0-8.0-1.25","","<img src=""img/pink-n.png"" border=""10"">","null","trial","null","","0.2,0.8","4:nogo_d","0",""
"null","","html-keyboard-response","658","1018847","0.0-8.0-2.25","","<div style=""font-size:60px;"">+</div>","null","","","","","","",""
"763.9999999664724","","image-keyboard-response","659","1019613","0.0-8.0-0.26","","img/yellow.png","32","trial","null","false","0.2,0.8","2:nogo_b","",""
"null","","html-keyboard-response","660","1020908","0.0-8.0-1.26","","<img src=""img/yellow-r.png"" border=""10"">","null","trial","null","","0.2,0.8","2:nogo_b","1",""
"null","","html-keyboard-response","661","1022083","0.0-8.0-2.26","","<div style=""font-size:60px;"">+</div>","null","","","","","","",""
"229.00000028312206","","image-keyboard-response","662","1022314","0.0-8.0-0.27","","img/blue.png","32","trial","32","true","0.8,0.2","3:go_c","",""
"null","","html-keyboard-response","663","1023318","0.0-8.0-1.27","","<img src=""img/blue-r.png"" border=""10"">","null","trial","32","","0.8,0.2","3:go_c","1",""
"null","","html-keyboard-response","664","1024320","0.0-8.0-2.27","","<div style=""font-size:60px;"">+</div>","null","","","","","","",""
"434.00000035762787","","image-keyboard-response","665","1024756","0.0-8.0-0.28","","img/blue.png","32","trial","32","true","0.8,0.2","3:go_c","",""
"null","","html-keyboard-response","666","1025758","0.0-8.0-1.28","","<img src=""img/blue-r.png"" border=""10"">","null","trial","32","","0.8,0.2","3:go_c","1",""
"null","","html-keyboard-response","667","1026760","0.0-8.0-2.28","","<div style=""font-size:60px;"">+</div>","null","","","","","","",""
"218.0000003427267","","image-keyboard-response","668","1026979","0.0-8.0-0.29","","img/pink.png","32","trial","null","false","0.2,0.8","4:nogo_d","",""
"null","","html-keyboard-response","669","1027982","0.0-8.0-1.29","","<img src=""img/pink-n.png"" border=""10"">","null","trial","null","","0.2,0.8","4:nogo_d","0",""
"null","","html-keyboard-response","670","1028984","0.0-8.0-2.29","","<div style=""font-size:60px;"">+</div>","null","","","","","","",""
