"rt","url","trial_type","trial_index","time_elapsed","internal_node_id","view_history","stimulus","key_press","test_part","correct_response","correct","use_rew","which_stim","reward","responses"
"20781.86000000096","consent.html","external-html","0","20871","0.0-0.0","","","","","","","","","",""
"85697.29000000007","","instructions","1","106569","0.0-1.0","[{""page_index"":0,""viewing_time"":4433.575000000928},{""page_index"":1,""viewing_time"":22047.08000000028},{""page_index"":2,""viewing_time"":7928.1299999984185},{""page_index"":3,""viewing_time"":23435.33000000025},{""page_index"":4,""viewing_time"":9293.50499999964},{""page_index"":5,""viewing_time"":5921.885000001566},{""page_index"":6,""viewing_time"":12637.29499999863}]","","","","","","","","",""
"null","","image-keyboard-response","2","108071","0.0-2.0-0.0","","img/test3.PNG","null","practice","null","true","","","",""
"null","","html-keyboard-response","3","109072","0.0-2.0-1.0","","<img src=""img/test3-reward.PNG"">","null","","","","","","",""
"null","","html-keyboard-response","4","110073","0.0-2.0-2.0","","<div style=""font-size:60px;"">+</div>","null","","","","","","",""
"null","","image-keyboard-response","5","111574","0.0-2.0-0.1","","img/test2.PNG","null","practice","null","true","","","",""
"null","","html-keyboard-response","6","112575","0.0-2.0-1.1","","<img src=""img/test2-reward.PNG"">","null","","","","","","",""
"null","","html-keyboard-response","7","113576","0.0-2.0-2.1","","<div style=""font-size:60px;"">+</div>","null","","","","","","",""
"489.93500000142376","","image-keyboard-response","8","114067","0.0-2.0-0.2","","img/test1.PNG","32","practice","32","true","","","",""
"null","","html-keyboard-response","9","115068","0.0-2.0-1.2","","<img src=""img/test1-reward.PNG"" border=""10px; grey"">","null","","","","","","",""
"null","","html-keyboard-response","10","116069","0.0-2.0-2.2","","<div style=""font-size:60px;"">+</div>","null","","","","","","",""
"506.89000000056694","","image-keyboard-response","11","116576","0.0-2.0-0.3","","img/test1.PNG","32","practice","32","true","","","",""
"null","","html-keyboard-response","12","117577","0.0-2.0-1.3","","<img src=""img/test1-reward.PNG"" border=""10px; grey"">","null","","","","","","",""
"null","","html-keyboard-response","13","118578","0.0-2.0-2.3","","<div style=""font-size:60px;"">+</div>","null","","","","","","",""
"null","","image-keyboard-response","14","120079","0.0-2.0-0.4","","img/test2.PNG","null","practice","null","true","","","",""
"null","","html-keyboard-response","15","121080","0.0-2.0-1.4","","<img src=""img/test2-reward.PNG"">","null","","","","","","",""
"null","","html-keyboard-response","16","122080","0.0-2.0-2.4","","<div style=""font-size:60px;"">+</div>","null","","","","","","",""
"null","","image-keyboard-response","17","123582","0.0-2.0-0.5","","img/test3.PNG","null","practice","null","true","","","",""
"null","","html-keyboard-response","18","124582","0.0-2.0-1.5","","<img src=""img/test3-reward.PNG"">","null","","","","","","",""
"null","","html-keyboard-response","19","125583","0.0-2.0-2.5","","<div style=""font-size:60px;"">+</div>","null","","","","","","",""
"null","","image-keyboard-response","20","127084","0.0-2.0-0.6","","img/test3.PNG","null","practice","null","true","","","",""
"null","","html-keyboard-response","21","128085","0.0-2.0-1.6","","<img src=""img/test3-reward.PNG"">","null","","","","","","",""
"null","","html-keyboard-response","22","129086","0.0-2.0-2.6","","<div style=""font-size:60px;"">+</div>","null","","","","","","",""
"573.6300000007905","","image-keyboard-response","23","129661","0.0-2.0-0.7","","img/test1.PNG","32","practice","32","true","","","",""
"null","","html-keyboard-response","24","130661","0.0-2.0-1.7","","<img src=""img/test1-reward.PNG"" border=""10px; grey"">","null","","","","","","",""
"null","","html-keyboard-response","25","131662","0.0-2.0-2.7","","<div style=""font-size:60px;"">+</div>","null","","","","","","",""
"null","","image-keyboard-response","26","133163","0.0-2.0-0.8","","img/test2.PNG","null","practice","null","true","","","",""
"null","","html-keyboard-response","27","134164","0.0-2.0-1.8","","<img src=""img/test2-reward.PNG"">","null","","","","","","",""
"null","","html-keyboard-response","28","135164","0.0-2.0-2.8","","<div style=""font-size:60px;"">+</div>","null","","","","","","",""
"null","","image-keyboard-response","29","136665","0.0-2.0-0.9","","img/test2.PNG","null","practice","null","true","","","",""
"null","","html-keyboard-response","30","137666","0.0-2.0-1.9","","<img src=""img/test2-reward.PNG"">","null","","","","","","",""
"null","","html-keyboard-response","31","138666","0.0-2.0-2.9","","<div style=""font-size:60px;"">+</div>","null","","","","","","",""
"775.789999999688","","image-keyboard-response","32","139443","0.0-2.0-0.10","","img/test1.PNG","32","practice","32","true","","","",""
"null","","html-keyboard-response","33","140444","0.0-2.0-1.10","","<img src=""img/test1-reward.PNG"" border=""10px; grey"">","null","","","","","","",""
"null","","html-keyboard-response","34","141445","0.0-2.0-2.10","","<div style=""font-size:60px;"">+</div>","null","","","","","","",""
"null","","image-keyboard-response","35","142946","0.0-2.0-0.11","","img/test3.PNG","null","practice","null","true","","","",""
"null","","html-keyboard-response","36","143947","0.0-2.0-1.11","","<img src=""img/test3-reward.PNG"">","null","","","","","","",""
"null","","html-keyboard-response","37","144948","0.0-2.0-2.11","","<div style=""font-size:60px;"">+</div>","null","","","","","","",""
"9269.175000001269","","instructions","38","154217","0.0-3.0","[{""page_index"":0,""viewing_time"":9269.005000000092}]","","","","","","","","",""
"1047.324999999546","","image-keyboard-response","39","155265","0.0-4.0-0.0","","img/green.png","32","trial","32","true","0.8,0.2","1:go_a","",""
"null","","html-keyboard-response","40","156267","0.0-4.0-1.0","","<img src=""img/green-r.png"" border=""10"">","null","trial","32","","0.8,0.2","1:go_a","1",""
"null","","html-keyboard-response","41","157268","0.0-4.0-2.0","","<div style=""font-size:60px;"">+</div>","null","","","","","","",""
"1095.0150000007998","","image-keyboard-response","42","158363","0.0-4.0-0.1","","img/blue.png","32","trial","null","false","0.2,0.8","2:nogo_b","",""
"null","","html-keyboard-response","43","159364","0.0-4.0-1.1","","<img src=""img/blue-n.png"" border=""10"">","null","trial","null","","0.2,0.8","2:nogo_b","0",""
"null","","html-keyboard-response","44","160365","0.0-4.0-2.1","","<div style=""font-size:60px;"">+</div>","null","","","","","","",""
"null","","image-keyboard-response","45","161867","0.0-4.0-0.2","","img/blue.png","null","trial","null","true","0.2,0.8","2:nogo_b","",""
"null","","html-keyboard-response","46","162868","0.0-4.0-1.2","","<img src=""img/blue-r.png"">","null","trial","null","","0.2,0.8","2:nogo_b","1",""
"null","","html-keyboard-response","47","163869","0.0-4.0-2.2","","<div style=""font-size:60px;"">+</div>","null","","","","","","",""
"560.8449999999721","","image-keyboard-response","48","164430","0.0-4.0-0.3","","img/green.png","32","trial","32","true","0.8,0.2","1:go_a","",""
"null","","html-keyboard-response","49","165431","0.0-4.0-1.3","","<img src=""img/green-n.png"" border=""10"">","null","trial","32","","0.8,0.2","1:go_a","0",""
"null","","html-keyboard-response","50","166432","0.0-4.0-2.3","","<div style=""font-size:60px;"">+</div>","null","","","","","","",""
"null","","image-keyboard-response","51","167934","0.0-4.0-0.4","","img/blue.png","null","trial","null","true","0.2,0.8","2:nogo_b","",""
"null","","html-keyboard-response","52","168935","0.0-4.0-1.4","","<img src=""img/blue-r.png"">","null","trial","null","","0.2,0.8","2:nogo_b","1",""
"null","","html-keyboard-response","53","169936","0.0-4.0-2.4","","<div style=""font-size:60px;"">+</div>","null","","","","","","",""
"null","","image-keyboard-response","54","171437","0.0-4.0-0.5","","img/green.png","null","trial","32","false","0.8,0.2","1:go_a","",""
"null","","html-keyboard-response","55","172438","0.0-4.0-1.5","","<img src=""img/green-n.png"">","null","trial","32","","0.8,0.2","1:go_a","0",""
"null","","html-keyboard-response","56","173439","0.0-4.0-2.5","","<div style=""font-size:60px;"">+</div>","null","","","","","","",""
"574.6749999998428","","image-keyboard-response","57","174014","0.0-4.0-0.6","","img/blue.png","32","trial","null","false","0.2,0.8","2:nogo_b","",""
"null","","html-keyboard-response","58","175015","0.0-4.0-1.6","","<img src=""img/blue-r.png"" border=""10"">","null","trial","null","","0.2,0.8","2:nogo_b","1",""
"null","","html-keyboard-response","59","176016","0.0-4.0-2.6","","<div style=""font-size:60px;"">+</div>","null","","","","","","",""
"550.9950000014214","","image-keyboard-response","60","176568","0.0-4.0-0.7","","img/green.png","32","trial","32","true","0.8,0.2","1:go_a","",""
"null","","html-keyboard-response","61","177569","0.0-4.0-1.7","","<img src=""img/green-n.png"" border=""10"">","null","trial","32","","0.8,0.2","1:go_a","0",""
"null","","html-keyboard-response","62","178570","0.0-4.0-2.7","","<div style=""font-size:60px;"">+</div>","null","","","","","","",""
"1041.9750000000931","","image-keyboard-response","63","179612","0.0-4.0-0.8","","img/green.png","32","trial","32","true","0.8,0.2","1:go_a","",""
"null","","html-keyboard-response","64","180613","0.0-4.0-1.8","","<img src=""img/green-r.png"" border=""10"">","null","trial","32","","0.8,0.2","1:go_a","1",""
"null","","html-keyboard-response","65","181614","0.0-4.0-2.8","","<div style=""font-size:60px;"">+</div>","null","","","","","","",""
"null","","image-keyboard-response","66","183114","0.0-4.0-0.9","","img/blue.png","null","trial","null","true","0.2,0.8","2:nogo_b","",""
"null","","html-keyboard-response","67","184116","0.0-4.0-1.9","","<img src=""img/blue-r.png"">","null","trial","null","","0.2,0.8","2:nogo_b","1",""
"null","","html-keyboard-response","68","185117","0.0-4.0-2.9","","<div style=""font-size:60px;"">+</div>","null","","","","","","",""
"null","","image-keyboard-response","69","186618","0.0-4.0-0.10","","img/blue.png","null","trial","null","true","0.2,0.8","2:nogo_b","",""
"null","","html-keyboard-response","70","187620","0.0-4.0-1.10","","<img src=""img/blue-r.png"">","null","trial","null","","0.2,0.8","2:nogo_b","1",""
"null","","html-keyboard-response","71","188621","0.0-4.0-2.10","","<div style=""font-size:60px;"">+</div>","null","","","","","","",""
"596.8949999987672","","image-keyboard-response","72","189219","0.0-4.0-0.11","","img/green.png","32","trial","32","true","0.8,0.2","1:go_a","",""
"null","","html-keyboard-response","73","190220","0.0-4.0-1.11","","<img src=""img/green-r.png"" border=""10"">","null","trial","32","","0.8,0.2","1:go_a","1",""
"null","","html-keyboard-response","74","191221","0.0-4.0-2.11","","<div style=""font-size:60px;"">+</div>","null","","","","","","",""
"null","","image-keyboard-response","75","192722","0.0-4.0-0.12","","img/blue.png","null","trial","null","true","0.2,0.8","2:nogo_b","",""
"null","","html-keyboard-response","76","193723","0.0-4.0-1.12","","<img src=""img/blue-r.png"">","null","trial","null","","0.2,0.8","2:nogo_b","1",""
"null","","html-keyboard-response","77","194724","0.0-4.0-2.12","","<div style=""font-size:60px;"">+</div>","null","","","","","","",""
"652.1549999997369","","image-keyboard-response","78","195377","0.0-4.0-0.13","","img/green.png","32","trial","32","true","0.8,0.2","1:go_a","",""
"null","","html-keyboard-response","79","196378","0.0-4.0-1.13","","<img src=""img/green-r.png"" border=""10"">","null","trial","32","","0.8,0.2","1:go_a","1",""
"null","","html-keyboard-response","80","197379","0.0-4.0-2.13","","<div style=""font-size:60px;"">+</div>","null","","","","","","",""
"null","","image-keyboard-response","81","198880","0.0-4.0-0.14","","img/blue.png","null","trial","null","true","0.2,0.8","2:nogo_b","",""
"null","","html-keyboard-response","82","199881","0.0-4.0-1.14","","<img src=""img/blue-r.png"">","null","trial","null","","0.2,0.8","2:nogo_b","1",""
"null","","html-keyboard-response","83","200882","0.0-4.0-2.14","","<div style=""font-size:60px;"">+</div>","null","","","","","","",""
"604.4149999997753","","image-keyboard-response","84","201487","0.0-4.0-0.15","","img/green.png","32","trial","32","true","0.8,0.2","1:go_a","",""
"null","","html-keyboard-response","85","202488","0.0-4.0-1.15","","<img src=""img/green-r.png"" border=""10"">","null","trial","32","","0.8,0.2","1:go_a","1",""
"null","","html-keyboard-response","86","203489","0.0-4.0-2.15","","<div style=""font-size:60px;"">+</div>","null","","","","","","",""
"896.8349999995553","","image-keyboard-response","87","204386","0.0-4.0-0.16","","img/green.png","32","trial","32","true","0.8,0.2","1:go_a","",""
"null","","html-keyboard-response","88","205387","0.0-4.0-1.16","","<img src=""img/green-r.png"" border=""10"">","null","trial","32","","0.8,0.2","1:go_a","1",""
"null","","html-keyboard-response","89","206388","0.0-4.0-2.16","","<div style=""font-size:60px;"">+</div>","null","","","","","","",""
"null","","image-keyboard-response","90","207889","0.0-4.0-0.17","","img/blue.png","null","trial","null","true","0.2,0.8","2:nogo_b","",""
"null","","html-keyboard-response","91","208890","0.0-4.0-1.17","","<img src=""img/blue-r.png"">","null","trial","null","","0.2,0.8","2:nogo_b","1",""
"null","","html-keyboard-response","92","209891","0.0-4.0-2.17","","<div style=""font-size:60px;"">+</div>","null","","","","","","",""
"497.2799999995914","","image-keyboard-response","93","210388","0.0-4.0-0.18","","img/green.png","32","trial","32","true","0.8,0.2","1:go_a","",""
"null","","html-keyboard-response","94","211390","0.0-4.0-1.18","","<img src=""img/green-r.png"" border=""10"">","null","trial","32","","0.8,0.2","1:go_a","1",""
"null","","html-keyboard-response","95","212390","0.0-4.0-2.18","","<div style=""font-size:60px;"">+</div>","null","","","","","","",""
"null","","image-keyboard-response","96","213891","0.0-4.0-0.19","","img/blue.png","null","trial","null","true","0.2,0.8","2:nogo_b","",""
"null","","html-keyboard-response","97","214893","0.0-4.0-1.19","","<img src=""img/blue-n.png"">","null","trial","null","","0.2,0.8","2:nogo_b","0",""
"null","","html-keyboard-response","98","215893","0.0-4.0-2.19","","<div style=""font-size:60px;"">+</div>","null","","","","","","",""
"667.2699999999022","","image-keyboard-response","99","216561","0.0-4.0-0.20","","img/green.png","32","trial","32","true","0.8,0.2","1:go_a","",""
"null","","html-keyboard-response","100","217563","0.0-4.0-1.20","","<img src=""img/green-r.png"" border=""10"">","null","trial","32","","0.8,0.2","1:go_a","1",""
"null","","html-keyboard-response","101","218564","0.0-4.0-2.20","","<div style=""font-size:60px;"">+</div>","null","","","","","","",""
"null","","image-keyboard-response","102","220065","0.0-4.0-0.21","","img/blue.png","null","trial","null","true","0.2,0.8","2:nogo_b","",""
"null","","html-keyboard-response","103","221066","0.0-4.0-1.21","","<img src=""img/blue-r.png"">","null","trial","null","","0.2,0.8","2:nogo_b","1",""
"null","","html-keyboard-response","104","222067","0.0-4.0-2.21","","<div style=""font-size:60px;"">+</div>","null","","","","","","",""
"null","","image-keyboard-response","105","223568","0.0-4.0-0.22","","img/blue.png","null","trial","null","true","0.2,0.8","2:nogo_b","",""
"null","","html-keyboard-response","106","224570","0.0-4.0-1.22","","<img src=""img/blue-r.png"">","null","trial","null","","0.2,0.8","2:nogo_b","1",""
"null","","html-keyboard-response","107","225571","0.0-4.0-2.22","","<div style=""font-size:60px;"">+</div>","null","","","","","","",""
"579.7999999995227","","image-keyboard-response","108","226151","0.0-4.0-0.23","","img/green.png","32","trial","32","true","0.8,0.2","1:go_a","",""
"null","","html-keyboard-response","109","227152","0.0-4.0-1.23","","<img src=""img/green-n.png"" border=""10"">","null","trial","32","","0.8,0.2","1:go_a","0",""
"null","","html-keyboard-response","110","228153","0.0-4.0-2.23","","<div style=""font-size:60px;"">+</div>","null","","","","","","",""
"null","","image-keyboard-response","111","229654","0.0-4.0-0.24","","img/blue.png","null","trial","null","true","0.2,0.8","2:nogo_b","",""
"null","","html-keyboard-response","112","230656","0.0-4.0-1.24","","<img src=""img/blue-n.png"">","null","trial","null","","0.2,0.8","2:nogo_b","0",""
"null","","html-keyboard-response","113","231656","0.0-4.0-2.24","","<div style=""font-size:60px;"">+</div>","null","","","","","","",""
"600.7700000009208","","image-keyboard-response","114","232258","0.0-4.0-0.25","","img/green.png","32","trial","32","true","0.8,0.2","1:go_a","",""
"null","","html-keyboard-response","115","233259","0.0-4.0-1.25","","<img src=""img/green-n.png"" border=""10"">","null","trial","32","","0.8,0.2","1:go_a","0",""
"null","","html-keyboard-response","116","234260","0.0-4.0-2.25","","<div style=""font-size:60px;"">+</div>","null","","","","","","",""
"683.285000000993","","image-keyboard-response","117","234944","0.0-4.0-0.26","","img/green.png","32","trial","32","true","0.8,0.2","1:go_a","",""
"null","","html-keyboard-response","118","235945","0.0-4.0-1.26","","<img src=""img/green-r.png"" border=""10"">","null","trial","32","","0.8,0.2","1:go_a","1",""
"null","","html-keyboard-response","119","236946","0.0-4.0-2.26","","<div style=""font-size:60px;"">+</div>","null","","","","","","",""
"null","","image-keyboard-response","120","238447","0.0-4.0-0.27","","img/blue.png","null","trial","null","true","0.2,0.8","2:nogo_b","",""
"null","","html-keyboard-response","121","239448","0.0-4.0-1.27","","<img src=""img/blue-r.png"">","null","trial","null","","0.2,0.8","2:nogo_b","1",""
"null","","html-keyboard-response","122","240450","0.0-4.0-2.27","","<div style=""font-size:60px;"">+</div>","null","","","","","","",""
"null","","image-keyboard-response","123","241951","0.0-4.0-0.28","","img/blue.png","null","trial","null","true","0.2,0.8","2:nogo_b","",""
"null","","html-keyboard-response","124","242952","0.0-4.0-1.28","","<img src=""img/blue-r.png"">","null","trial","null","","0.2,0.8","2:nogo_b","1",""
"null","","html-keyboard-response","125","243953","0.0-4.0-2.28","","<div style=""font-size:60px;"">+</div>","null","","","","","","",""
"630.1800000001094","","image-keyboard-response","126","244584","0.0-4.0-0.29","","img/green.png","32","trial","32","true","0.8,0.2","1:go_a","",""
"null","","html-keyboard-response","127","245585","0.0-4.0-1.29","","<img src=""img/green-r.png"" border=""10"">","null","trial","32","","0.8,0.2","1:go_a","1",""
"null","","html-keyboard-response","128","246586","0.0-4.0-2.29","","<div style=""font-size:60px;"">+</div>","null","","","","","","",""
"677.3499999999476","","image-keyboard-response","129","247264","0.0-4.0-0.30","","img/green.png","32","trial","32","true","0.8,0.2","1:go_a","",""
"null","","html-keyboard-response","130","248265","0.0-4.0-1.30","","<img src=""img/green-r.png"" border=""10"">","null","trial","32","","0.8,0.2","1:go_a","1",""
"null","","html-keyboard-response","131","249266","0.0-4.0-2.30","","<div style=""font-size:60px;"">+</div>","null","","","","","","",""
"null","","image-keyboard-response","132","250768","0.0-4.0-0.31","","img/blue.png","null","trial","null","true","0.2,0.8","2:nogo_b","",""
"null","","html-keyboard-response","133","251769","0.0-4.0-1.31","","<img src=""img/blue-n.png"">","null","trial","null","","0.2,0.8","2:nogo_b","0",""
"null","","html-keyboard-response","134","252770","0.0-4.0-2.31","","<div style=""font-size:60px;"">+</div>","null","","","","","","",""
"null","","image-keyboard-response","135","254271","0.0-4.0-0.32","","img/blue.png","null","trial","null","true","0.2,0.8","2:nogo_b","",""
"null","","html-keyboard-response","136","255273","0.0-4.0-1.32","","<img src=""img/blue-r.png"">","null","trial","null","","0.2,0.8","2:nogo_b","1",""
"null","","html-keyboard-response","137","256273","0.0-4.0-2.32","","<div style=""font-size:60px;"">+</div>","null","","","","","","",""
"496.0449999998673","","image-keyboard-response","138","256770","0.0-4.0-0.33","","img/green.png","32","trial","32","true","0.8,0.2","1:go_a","",""
"null","","html-keyboard-response","139","257771","0.0-4.0-1.33","","<img src=""img/green-r.png"" border=""10"">","null","trial","32","","0.8,0.2","1:go_a","1",""
"null","","html-keyboard-response","140","258772","0.0-4.0-2.33","","<div style=""font-size:60px;"">+</div>","null","","","","","","",""
"null","","image-keyboard-response","141","260273","0.0-4.0-0.34","","img/blue.png","null","trial","null","true","0.2,0.8","2:nogo_b","",""
"null","","html-keyboard-response","142","261274","0.0-4.0-1.34","","<img src=""img/blue-r.png"">","null","trial","null","","0.2,0.8","2:nogo_b","1",""
"null","","html-keyboard-response","143","262275","0.0-4.0-2.34","","<div style=""font-size:60px;"">+</div>","null","","","","","","",""
"706.5449999991106","","image-keyboard-response","144","262982","0.0-4.0-0.35","","img/green.png","32","trial","32","true","0.8,0.2","1:go_a","",""
"null","","html-keyboard-response","145","263984","0.0-4.0-1.35","","<img src=""img/green-n.png"" border=""10"">","null","trial","32","","0.8,0.2","1:go_a","0",""
"null","","html-keyboard-response","146","264985","0.0-4.0-2.35","","<div style=""font-size:60px;"">+</div>","null","","","","","","",""
"null","","image-keyboard-response","147","266486","0.0-4.0-0.36","","img/blue.png","null","trial","null","true","0.2,0.8","2:nogo_b","",""
"null","","html-keyboard-response","148","267487","0.0-4.0-1.36","","<img src=""img/blue-r.png"">","null","trial","null","","0.2,0.8","2:nogo_b","1",""
"null","","html-keyboard-response","149","268488","0.0-4.0-2.36","","<div style=""font-size:60px;"">+</div>","null","","","","","","",""
"629.9049999997951","","image-keyboard-response","150","269119","0.0-4.0-0.37","","img/green.png","32","trial","32","true","0.8,0.2","1:go_a","",""
"null","","html-keyboard-response","151","270120","0.0-4.0-1.37","","<img src=""img/green-r.png"" border=""10"">","null","trial","32","","0.8,0.2","1:go_a","1",""
"null","","html-keyboard-response","152","271121","0.0-4.0-2.37","","<div style=""font-size:60px;"">+</div>","null","","","","","","",""
"605.1699999988778","","image-keyboard-response","153","271727","0.0-4.0-0.38","","img/green.png","32","trial","32","true","0.8,0.2","1:go_a","",""
"null","","html-keyboard-response","154","272728","0.0-4.0-1.38","","<img src=""img/green-r.png"" border=""10"">","null","trial","32","","0.8,0.2","1:go_a","1",""
"null","","html-keyboard-response","155","273730","0.0-4.0-2.38","","<div style=""font-size:60px;"">+</div>","null","","","","","","",""
"null","","image-keyboard-response","156","275231","0.0-4.0-0.39","","img/blue.png","null","trial","null","true","0.2,0.8","2:nogo_b","",""
"null","","html-keyboard-response","157","276232","0.0-4.0-1.39","","<img src=""img/blue-r.png"">","null","trial","null","","0.2,0.8","2:nogo_b","1",""
"null","","html-keyboard-response","158","277233","0.0-4.0-2.39","","<div style=""font-size:60px;"">+</div>","null","","","","","","",""
"null","","image-keyboard-response","159","278734","0.0-4.0-0.40","","img/blue.png","null","trial","null","true","0.2,0.8","2:nogo_b","",""
"null","","html-keyboard-response","160","279736","0.0-4.0-1.40","","<img src=""img/blue-r.png"">","null","trial","null","","0.2,0.8","2:nogo_b","1",""
"null","","html-keyboard-response","161","280737","0.0-4.0-2.40","","<div style=""font-size:60px;"">+</div>","null","","","","","","",""
"607.2949999997509","","image-keyboard-response","162","281344","0.0-4.0-0.41","","img/green.png","32","trial","32","true","0.8,0.2","1:go_a","",""
"null","","html-keyboard-response","163","282346","0.0-4.0-1.41","","<img src=""img/green-r.png"" border=""10"">","null","trial","32","","0.8,0.2","1:go_a","1",""
"null","","html-keyboard-response","164","283346","0.0-4.0-2.41","","<div style=""font-size:60px;"">+</div>","null","","","","","","",""
"621.9400000008754","","image-keyboard-response","165","283969","0.0-4.0-0.42","","img/green.png","32","trial","32","true","0.8,0.2","1:go_a","",""
"null","","html-keyboard-response","166","284970","0.0-4.0-1.42","","<img src=""img/green-r.png"" border=""10"">","null","trial","32","","0.8,0.2","1:go_a","1",""
"null","","html-keyboard-response","167","285970","0.0-4.0-2.42","","<div style=""font-size:60px;"">+</div>","null","","","","","","",""
"null","","image-keyboard-response","168","287471","0.0-4.0-0.43","","img/blue.png","null","trial","null","true","0.2,0.8","2:nogo_b","",""
"null","","html-keyboard-response","169","288473","0.0-4.0-1.43","","<img src=""img/blue-r.png"">","null","trial","null","","0.2,0.8","2:nogo_b","1",""
"null","","html-keyboard-response","170","289474","0.0-4.0-2.43","","<div style=""font-size:60px;"">+</div>","null","","","","","","",""
"null","","image-keyboard-response","171","290975","0.0-4.0-0.44","","img/blue.png","null","trial","null","true","0.2,0.8","2:nogo_b","",""
"null","","html-keyboard-response","172","291976","0.0-4.0-1.44","","<img src=""img/blue-r.png"">","null","trial","null","","0.2,0.8","2:nogo_b","1",""
"null","","html-keyboard-response","173","292977","0.0-4.0-2.44","","<div style=""font-size:60px;"">+</div>","null","","","","","","",""
"575.8999999998487","","image-keyboard-response","174","293553","0.0-4.0-0.45","","img/green.png","32","trial","32","true","0.8,0.2","1:go_a","",""
"null","","html-keyboard-response","175","294554","0.0-4.0-1.45","","<img src=""img/green-r.png"" border=""10"">","null","trial","32","","0.8,0.2","1:go_a","1",""
"null","","html-keyboard-response","176","295555","0.0-4.0-2.45","","<div style=""font-size:60px;"">+</div>","null","","","","","","",""
"null","","image-keyboard-response","177","297056","0.0-4.0-0.46","","img/blue.png","null","trial","null","true","0.2,0.8","2:nogo_b","",""
"null","","html-keyboard-response","178","298057","0.0-4.0-1.46","","<img src=""img/blue-r.png"">","null","trial","null","","0.2,0.8","2:nogo_b","1",""
"null","","html-keyboard-response","179","299058","0.0-4.0-2.46","","<div style=""font-size:60px;"">+</div>","null","","","","","","",""
"604.6400000013527","","image-keyboard-response","180","299663","0.0-4.0-0.47","","img/green.png","32","trial","32","true","0.8,0.2","1:go_a","",""
"null","","html-keyboard-response","181","300664","0.0-4.0-1.47","","<img src=""img/green-r.png"" border=""10"">","null","trial","32","","0.8,0.2","1:go_a","1",""
"null","","html-keyboard-response","182","301665","0.0-4.0-2.47","","<div style=""font-size:60px;"">+</div>","null","","","","","","",""
"643.5650000003516","","image-keyboard-response","183","302309","0.0-4.0-0.48","","img/green.png","32","trial","32","true","0.8,0.2","1:go_a","",""
"null","","html-keyboard-response","184","303311","0.0-4.0-1.48","","<img src=""img/green-r.png"" border=""10"">","null","trial","32","","0.8,0.2","1:go_a","1",""
"null","","html-keyboard-response","185","304311","0.0-4.0-2.48","","<div style=""font-size:60px;"">+</div>","null","","","","","","",""
"null","","image-keyboard-response","186","305813","0.0-4.0-0.49","","img/blue.png","null","trial","null","true","0.2,0.8","2:nogo_b","",""
"null","","html-keyboard-response","187","306814","0.0-4.0-1.49","","<img src=""img/blue-n.png"">","null","trial","null","","0.2,0.8","2:nogo_b","0",""
"null","","html-keyboard-response","188","307815","0.0-4.0-2.49","","<div style=""font-size:60px;"">+</div>","null","","","","","","",""
"null","","image-keyboard-response","189","309315","0.0-4.0-0.50","","img/blue.png","null","trial","null","true","0.2,0.8","2:nogo_b","",""
"null","","html-keyboard-response","190","310317","0.0-4.0-1.50","","<img src=""img/blue-r.png"">","null","trial","null","","0.2,0.8","2:nogo_b","1",""
"null","","html-keyboard-response","191","311317","0.0-4.0-2.50","","<div style=""font-size:60px;"">+</div>","null","","","","","","",""
"595.9800000000396","","image-keyboard-response","192","311914","0.0-4.0-0.51","","img/green.png","32","trial","32","true","0.8,0.2","1:go_a","",""
"null","","html-keyboard-response","193","312915","0.0-4.0-1.51","","<img src=""img/green-r.png"" border=""10"">","null","trial","32","","0.8,0.2","1:go_a","1",""
"null","","html-keyboard-response","194","313916","0.0-4.0-2.51","","<div style=""font-size:60px;"">+</div>","null","","","","","","",""
"573.325000001234","","image-keyboard-response","195","314490","0.0-4.0-0.52","","img/green.png","32","trial","32","true","0.8,0.2","1:go_a","",""
"null","","html-keyboard-response","196","315490","0.0-4.0-1.52","","<img src=""img/green-n.png"" border=""10"">","null","trial","32","","0.8,0.2","1:go_a","0",""
"null","","html-keyboard-response","197","316491","0.0-4.0-2.52","","<div style=""font-size:60px;"">+</div>","null","","","","","","",""
"null","","image-keyboard-response","198","317992","0.0-4.0-0.53","","img/blue.png","null","trial","null","true","0.2,0.8","2:nogo_b","",""
"null","","html-keyboard-response","199","318993","0.0-4.0-1.53","","<img src=""img/blue-r.png"">","null","trial","null","","0.2,0.8","2:nogo_b","1",""
"null","","html-keyboard-response","200","319994","0.0-4.0-2.53","","<div style=""font-size:60px;"">+</div>","null","","","","","","",""
"598.0149999995483","","image-keyboard-response","201","320593","0.0-4.0-0.54","","img/green.png","32","trial","32","true","0.8,0.2","1:go_a","",""
"null","","html-keyboard-response","202","321594","0.0-4.0-1.54","","<img src=""img/green-r.png"" border=""10"">","null","trial","32","","0.8,0.2","1:go_a","1",""
"null","","html-keyboard-response","203","322595","0.0-4.0-2.54","","<div style=""font-size:60px;"">+</div>","null","","","","","","",""
"null","","image-keyboard-response","204","324096","0.0-4.0-0.55","","img/blue.png","null","trial","null","true","0.2,0.8","2:nogo_b","",""
"null","","html-keyboard-response","205","325097","0.0-4.0-1.55","","<img src=""img/blue-r.png"">","null","trial","null","","0.2,0.8","2:nogo_b","1",""
"null","","html-keyboard-response","206","326098","0.0-4.0-2.55","","<div style=""font-size:60px;"">+</div>","null","","","","","","",""
"549.2450000001118","","image-keyboard-response","207","326648","0.0-4.0-0.56","","img/green.png","32","trial","32","true","0.8,0.2","1:go_a","",""
"null","","html-keyboard-response","208","327649","0.0-4.0-1.56","","<img src=""img/green-r.png"" border=""10"">","null","trial","32","","0.8,0.2","1:go_a","1",""
"null","","html-keyboard-response","209","328650","0.0-4.0-2.56","","<div style=""font-size:60px;"">+</div>","null","","","","","","",""
"null","","image-keyboard-response","210","330151","0.0-4.0-0.57","","img/blue.png","null","trial","null","true","0.2,0.8","2:nogo_b","",""
"null","","html-keyboard-response","211","331152","0.0-4.0-1.57","","<img src=""img/blue-r.png"">","null","trial","null","","0.2,0.8","2:nogo_b","1",""
"null","","html-keyboard-response","212","332153","0.0-4.0-2.57","","<div style=""font-size:60px;"">+</div>","null","","","","","","",""
"null","","image-keyboard-response","213","333654","0.0-4.0-0.58","","img/blue.png","null","trial","null","true","0.2,0.8","2:nogo_b","",""
"null","","html-keyboard-response","214","334656","0.0-4.0-1.58","","<img src=""img/blue-r.png"">","null","trial","null","","0.2,0.8","2:nogo_b","1",""
"null","","html-keyboard-response","215","335656","0.0-4.0-2.58","","<div style=""font-size:60px;"">+</div>","null","","","","","","",""
"730.1499999994412","","image-keyboard-response","216","336387","0.0-4.0-0.59","","img/green.png","32","trial","32","true","0.8,0.2","1:go_a","",""
"null","","html-keyboard-response","217","337388","0.0-4.0-1.59","","<img src=""img/green-r.png"" border=""10"">","null","trial","32","","0.8,0.2","1:go_a","1",""
"null","","html-keyboard-response","218","338389","0.0-4.0-2.59","","<div style=""font-size:60px;"">+</div>","null","","","","","","",""
"88374.63500000013","","instructions","219","426764","0.0-5.0","[{""page_index"":0,""viewing_time"":88374.46000000095}]","","","","","","","","",""
"864.6250000001746","","image-keyboard-response","220","427629","0.0-6.0-0.0","","img/pink.png","32","trial","32","true","0.8,0.2","3:go_c","",""
"null","","html-keyboard-response","221","428631","0.0-6.0-1.0","","<img src=""img/pink-r.png"" border=""10"">","null","trial","32","","0.8,0.2","3:go_c","1",""
"null","","html-keyboard-response","222","429632","0.0-6.0-2.0","","<div style=""font-size:60px;"">+</div>","null","","","","","","",""
"1081.6149999991758","","image-keyboard-response","223","430714","0.0-6.0-0.1","","img/purple.png","32","trial","32","true","0.8,0.2","1:go_a","",""
"null","","html-keyboard-response","224","431715","0.0-6.0-1.1","","<img src=""img/purple-r.png"" border=""10"">","null","trial","32","","0.8,0.2","1:go_a","1",""
"null","","html-keyboard-response","225","432715","0.0-6.0-2.1","","<div style=""font-size:60px;"">+</div>","null","","","","","","",""
"null","","image-keyboard-response","226","434217","0.0-6.0-0.2","","img/orange.png","null","trial","null","true","0.2,0.8","2:nogo_b","",""
"null","","html-keyboard-response","227","435218","0.0-6.0-1.2","","<img src=""img/orange-r.png"">","null","trial","null","","0.2,0.8","2:nogo_b","1",""
"null","","html-keyboard-response","228","436219","0.0-6.0-2.2","","<div style=""font-size:60px;"">+</div>","null","","","","","","",""
"null","","image-keyboard-response","229","437720","0.0-6.0-0.3","","img/blue.png","null","trial","null","true","0.2,0.8","4:nogo_d","",""
"null","","html-keyboard-response","230","438721","0.0-6.0-1.3","","<img src=""img/blue-r.png"">","null","trial","null","","0.2,0.8","4:nogo_d","1",""
"null","","html-keyboard-response","231","439722","0.0-6.0-2.3","","<div style=""font-size:60px;"">+</div>","null","","","","","","",""
"746.8900000003632","","image-keyboard-response","232","440470","0.0-6.0-0.4","","img/orange.png","32","trial","null","false","0.2,0.8","2:nogo_b","",""
"null","","html-keyboard-response","233","441471","0.0-6.0-1.4","","<img src=""img/orange-n.png"" border=""10"">","null","trial","null","","0.2,0.8","2:nogo_b","0",""
"null","","html-keyboard-response","234","442472","0.0-6.0-2.4","","<div style=""font-size:60px;"">+</div>","null","","","","","","",""
"693.9599999986822","","image-keyboard-response","235","443166","0.0-6.0-0.5","","img/purple.png","32","trial","32","true","0.8,0.2","1:go_a","",""
"null","","html-keyboard-response","236","444167","0.0-6.0-1.5","","<img src=""img/purple-r.png"" border=""10"">","null","trial","32","","0.8,0.2","1:go_a","1",""
"null","","html-keyboard-response","237","445168","0.0-6.0-2.5","","<div style=""font-size:60px;"">+</div>","null","","","","","","",""
"null","","image-keyboard-response","238","446669","0.0-6.0-0.6","","img/blue.png","null","trial","null","true","0.2,0.8","4:nogo_d","",""
"null","","html-keyboard-response","239","447670","0.0-6.0-1.6","","<img src=""img/blue-r.png"">","null","trial","null","","0.2,0.8","4:nogo_d","1",""
"null","","html-keyboard-response","240","448671","0.0-6.0-2.6","","<div style=""font-size:60px;"">+</div>","null","","","","","","",""
"1124.3899999990244","","image-keyboard-response","241","449796","0.0-6.0-0.7","","img/pink.png","32","trial","32","true","0.8,0.2","3:go_c","",""
"null","","html-keyboard-response","242","450797","0.0-6.0-1.7","","<img src=""img/pink-r.png"" border=""10"">","null","trial","32","","0.8,0.2","3:go_c","1",""
"null","","html-keyboard-response","243","451798","0.0-6.0-2.7","","<div style=""font-size:60px;"">+</div>","null","","","","","","",""
"663.4599999997299","","image-keyboard-response","244","452462","0.0-6.0-0.8","","img/pink.png","32","trial","32","true","0.8,0.2","3:go_c","",""
"null","","html-keyboard-response","245","453463","0.0-6.0-1.8","","<img src=""img/pink-n.png"" border=""10"">","null","trial","32","","0.8,0.2","3:go_c","0",""
"null","","html-keyboard-response","246","454464","0.0-6.0-2.8","","<div style=""font-size:60px;"">+</div>","null","","","","","","",""
"null","","image-keyboard-response","247","455965","0.0-6.0-0.9","","img/orange.png","null","trial","null","true","0.2,0.8","2:nogo_b","",""
"null","","html-keyboard-response","248","456966","0.0-6.0-1.9","","<img src=""img/orange-r.png"">","null","trial","null","","0.2,0.8","2:nogo_b","1",""
"null","","html-keyboard-response","249","457967","0.0-6.0-2.9","","<div style=""font-size:60px;"">+</div>","null","","","","","","",""
"693.0499999998719","","image-keyboard-response","250","458660","0.0-6.0-0.10","","img/purple.png","32","trial","32","true","0.8,0.2","1:go_a","",""
"null","","html-keyboard-response","251","459662","0.0-6.0-1.10","","<img src=""img/purple-r.png"" border=""10"">","null","trial","32","","0.8,0.2","1:go_a","1",""
"null","","html-keyboard-response","252","460662","0.0-6.0-2.10","","<div style=""font-size:60px;"">+</div>","null","","","","","","",""
"null","","image-keyboard-response","253","462164","0.0-6.0-0.11","","img/blue.png","null","trial","null","true","0.2,0.8","4:nogo_d","",""
"null","","html-keyboard-response","254","463165","0.0-6.0-1.11","","<img src=""img/blue-r.png"">","null","trial","null","","0.2,0.8","4:nogo_d","1",""
"null","","html-keyboard-response","255","464166","0.0-6.0-2.11","","<div style=""font-size:60px;"">+</div>","null","","","","","","",""
"884.08999999956","","image-keyboard-response","256","465051","0.0-6.0-0.12","","img/purple.png","32","trial","32","true","0.8,0.2","1:go_a","",""
"null","","html-keyboard-response","257","466052","0.0-6.0-1.12","","<img src=""img/purple-r.png"" border=""10"">","null","trial","32","","0.8,0.2","1:go_a","1",""
"null","","html-keyboard-response","258","467053","0.0-6.0-2.12","","<div style=""font-size:60px;"">+</div>","null","","","","","","",""
"null","","image-keyboard-response","259","468554","0.0-6.0-0.13","","img/blue.png","null","trial","null","true","0.2,0.8","4:nogo_d","",""
"null","","html-keyboard-response","260","469555","0.0-6.0-1.13","","<img src=""img/blue-n.png"">","null","trial","null","","0.2,0.8","4:nogo_d","0",""
"null","","html-keyboard-response","261","470556","0.0-6.0-2.13","","<div style=""font-size:60px;"">+</div>","null","","","","","","",""
"null","","image-keyboard-response","262","472057","0.0-6.0-0.14","","img/orange.png","null","trial","null","true","0.2,0.8","2:nogo_b","",""
"null","","html-keyboard-response","263","473058","0.0-6.0-1.14","","<img src=""img/orange-r.png"">","null","trial","null","","0.2,0.8","2:nogo_b","1",""
"null","","html-keyboard-response","264","474059","0.0-6.0-2.14","","<div style=""font-size:60px;"">+</div>","null","","","","","","",""
"893.4250000002212","","image-keyboard-response","265","474953","0.0-6.0-0.15","","img/pink.png","32","trial","32","true","0.8,0.2","3:go_c","",""
"null","","html-keyboard-response","266","475954","0.0-6.0-1.15","","<img src=""img/pink-r.png"" border=""10"">","null","trial","32","","0.8,0.2","3:go_c","1",""
"null","","html-keyboard-response","267","476955","0.0-6.0-2.15","","<div style=""font-size:60px;"">+</div>","null","","","","","","",""
"679.6500000000815","","image-keyboard-response","268","477635","0.0-6.0-0.16","","img/purple.png","32","trial","32","true","0.8,0.2","1:go_a","",""
"null","","html-keyboard-response","269","478636","0.0-6.0-1.16","","<img src=""img/purple-r.png"" border=""10"">","null","trial","32","","0.8,0.2","1:go_a","1",""
"null","","html-keyboard-response","270","479637","0.0-6.0-2.16","","<div style=""font-size:60px;"">+</div>","null","","","","","","",""
"634.804999999702","","image-keyboard-response","271","480272","0.0-6.0-0.17","","img/pink.png","32","trial","32","true","0.8,0.2","3:go_c","",""
"null","","html-keyboard-response","272","481274","0.0-6.0-1.17","","<img src=""img/pink-r.png"" border=""10"">","null","trial","32","","0.8,0.2","3:go_c","1",""
"null","","html-keyboard-response","273","482275","0.0-6.0-2.17","","<div style=""font-size:60px;"">+</div>","null","","","","","","",""
"null","","image-keyboard-response","274","483776","0.0-6.0-0.18","","img/orange.png","null","trial","null","true","0.2,0.8","2:nogo_b","",""
"null","","html-keyboard-response","275","484777","0.0-6.0-1.18","","<img src=""img/orange-n.png"">","null","trial","null","","0.2,0.8","2:nogo_b","0",""
"null","","html-keyboard-response","276","485778","0.0-6.0-2.18","","<div style=""font-size:60px;"">+</div>","null","","","","","","",""
"null","","image-keyboard-response","277","487278","0.0-6.0-0.19","","img/blue.png","null","trial","null","true","0.2,0.8","4:nogo_d","",""
"null","","html-keyboard-response","278","488279","0.0-6.0-1.19","","<img src=""img/blue-r.png"">","null","trial","null","","0.2,0.8","4:nogo_d","1",""
"null","","html-keyboard-response","279","489280","0.0-6.0-2.19","","<div style=""font-size:60px;"">+</div>","null","","","","","","",""
"574.5750000005355","","image-keyboard-response","280","489855","0.0-6.0-0.20","","img/purple.png","32","trial","32","true","0.8,0.2","1:go_a","",""
"null","","html-keyboard-response","281","490856","0.0-6.0-1.20","","<img src=""img/purple-r.png"" border=""10"">","null","trial","32","","0.8,0.2","1:go_a","1",""
"null","","html-keyboard-response","282","491856","0.0-6.0-2.20","","<div style=""font-size:60px;"">+</div>","null","","","","","","",""
"null","","image-keyboard-response","283","493357","0.0-6.0-0.21","","img/orange.png","null","trial","null","true","0.2,0.8","2:nogo_b","",""
"null","","html-keyboard-response","284","494358","0.0-6.0-1.21","","<img src=""img/orange-r.png"">","null","trial","null","","0.2,0.8","2:nogo_b","1",""
"null","","html-keyboard-response","285","495359","0.0-6.0-2.21","","<div style=""font-size:60px;"">+</div>","null","","","","","","",""
"null","","image-keyboard-response","286","496860","0.0-6.0-0.22","","img/blue.png","null","trial","null","true","0.2,0.8","4:nogo_d","",""
"null","","html-keyboard-response","287","497861","0.0-6.0-1.22","","<img src=""img/blue-r.png"">","null","trial","null","","0.2,0.8","4:nogo_d","1",""
"null","","html-keyboard-response","288","498862","0.0-6.0-2.22","","<div style=""font-size:60px;"">+</div>","null","","","","","","",""
"424.43500000075437","","image-keyboard-response","289","499287","0.0-6.0-0.23","","img/pink.png","32","trial","32","true","0.8,0.2","3:go_c","",""
"null","","html-keyboard-response","290","500288","0.0-6.0-1.23","","<img src=""img/pink-r.png"" border=""10"">","null","trial","32","","0.8,0.2","3:go_c","1",""
"null","","html-keyboard-response","291","501289","0.0-6.0-2.23","","<div style=""font-size:60px;"">+</div>","null","","","","","","",""
"544.2149999999092","","image-keyboard-response","292","501833","0.0-6.0-0.24","","img/pink.png","32","trial","32","true","0.8,0.2","3:go_c","",""
"null","","html-keyboard-response","293","502835","0.0-6.0-1.24","","<img src=""img/pink-n.png"" border=""10"">","null","trial","32","","0.8,0.2","3:go_c","0",""
"null","","html-keyboard-response","294","503836","0.0-6.0-2.24","","<div style=""font-size:60px;"">+</div>","null","","","","","","",""
"null","","image-keyboard-response","295","505337","0.0-6.0-0.25","","img/blue.png","null","trial","null","true","0.2,0.8","4:nogo_d","",""
"null","","html-keyboard-response","296","506338","0.0-6.0-1.25","","<img src=""img/blue-r.png"">","null","trial","null","","0.2,0.8","4:nogo_d","1",""
"null","","html-keyboard-response","297","507339","0.0-6.0-2.25","","<div style=""font-size:60px;"">+</div>","null","","","","","","",""
"null","","image-keyboard-response","298","508840","0.0-6.0-0.26","","img/orange.png","null","trial","null","true","0.2,0.8","2:nogo_b","",""
"null","","html-keyboard-response","299","509841","0.0-6.0-1.26","","<img src=""img/orange-r.png"">","null","trial","null","","0.2,0.8","2:nogo_b","1",""
"null","","html-keyboard-response","300","510842","0.0-6.0-2.26","","<div style=""font-size:60px;"">+</div>","null","","","","","","",""
"460.8299999999581","","image-keyboard-response","301","511303","0.0-6.0-0.27","","img/purple.png","32","trial","32","true","0.8,0.2","1:go_a","",""
"null","","html-keyboard-response","302","512304","0.0-6.0-1.27","","<img src=""img/purple-r.png"" border=""10"">","null","trial","32","","0.8,0.2","1:go_a","1",""
"null","","html-keyboard-response","303","513305","0.0-6.0-2.27","","<div style=""font-size:60px;"">+</div>","null","","","","","","",""
"null","","image-keyboard-response","304","514806","0.0-6.0-0.28","","img/orange.png","null","trial","null","true","0.2,0.8","2:nogo_b","",""
"null","","html-keyboard-response","305","515807","0.0-6.0-1.28","","<img src=""img/orange-r.png"">","null","trial","null","","0.2,0.8","2:nogo_b","1",""
"null","","html-keyboard-response","306","516807","0.0-6.0-2.28","","<div style=""font-size:60px;"">+</div>","null","","","","","","",""
"null","","image-keyboard-response","307","518308","0.0-6.0-0.29","","img/blue.png","null","trial","null","true","0.2,0.8","4:nogo_d","",""
"null","","html-keyboard-response","308","519309","0.0-6.0-1.29","","<img src=""img/blue-r.png"">","null","trial","null","","0.2,0.8","4:nogo_d","1",""
"null","","html-keyboard-response","309","520310","0.0-6.0-2.29","","<div style=""font-size:60px;"">+</div>","null","","","","","","",""
"621.1899999998859","","image-keyboard-response","310","520932","0.0-6.0-0.30","","img/purple.png","32","trial","32","true","0.8,0.2","1:go_a","",""
"null","","html-keyboard-response","311","521933","0.0-6.0-1.30","","<img src=""img/purple-n.png"" border=""10"">","null","trial","32","","0.8,0.2","1:go_a","0",""
"null","","html-keyboard-response","312","522934","0.0-6.0-2.30","","<div style=""font-size:60px;"">+</div>","null","","","","","","",""
"411.01999999955297","","image-keyboard-response","313","523346","0.0-6.0-0.31","","img/pink.png","32","trial","32","true","0.8,0.2","3:go_c","",""
"null","","html-keyboard-response","314","524347","0.0-6.0-1.31","","<img src=""img/pink-r.png"" border=""10"">","null","trial","32","","0.8,0.2","3:go_c","1",""
"null","","html-keyboard-response","315","525348","0.0-6.0-2.31","","<div style=""font-size:60px;"">+</div>","null","","","","","","",""
"null","","image-keyboard-response","316","526849","0.0-6.0-0.32","","img/orange.png","null","trial","null","true","0.2,0.8","2:nogo_b","",""
"null","","html-keyboard-response","317","527850","0.0-6.0-1.32","","<img src=""img/orange-r.png"">","null","trial","null","","0.2,0.8","2:nogo_b","1",""
"null","","html-keyboard-response","318","528851","0.0-6.0-2.32","","<div style=""font-size:60px;"">+</div>","null","","","","","","",""
"577.7350000006845","","image-keyboard-response","319","529429","0.0-6.0-0.33","","img/pink.png","32","trial","32","true","0.8,0.2","3:go_c","",""
"null","","html-keyboard-response","320","530431","0.0-6.0-1.33","","<img src=""img/pink-r.png"" border=""10"">","null","trial","32","","0.8,0.2","3:go_c","1",""
"null","","html-keyboard-response","321","531432","0.0-6.0-2.33","","<div style=""font-size:60px;"">+</div>","null","","","","","","",""
"null","","image-keyboard-response","322","532933","0.0-6.0-0.34","","img/blue.png","null","trial","null","true","0.2,0.8","4:nogo_d","",""
"null","","html-keyboard-response","323","533934","0.0-6.0-1.34","","<img src=""img/blue-n.png"">","null","trial","null","","0.2,0.8","4:nogo_d","0",""
"null","","html-keyboard-response","324","534935","0.0-6.0-2.34","","<div style=""font-size:60px;"">+</div>","null","","","","","","",""
"428.1800000007497","","image-keyboard-response","325","535364","0.0-6.0-0.35","","img/purple.png","32","trial","32","true","0.8,0.2","1:go_a","",""
"null","","html-keyboard-response","326","536365","0.0-6.0-1.35","","<img src=""img/purple-r.png"" border=""10"">","null","trial","32","","0.8,0.2","1:go_a","1",""
"null","","html-keyboard-response","327","537366","0.0-6.0-2.35","","<div style=""font-size:60px;"">+</div>","null","","","","","","",""
"567.3000000006286","","image-keyboard-response","328","537934","0.0-6.0-0.36","","img/pink.png","32","trial","32","true","0.8,0.2","3:go_c","",""
"null","","html-keyboard-response","329","538935","0.0-6.0-1.36","","<img src=""img/pink-r.png"" border=""10"">","null","trial","32","","0.8,0.2","3:go_c","1",""
"null","","html-keyboard-response","330","539936","0.0-6.0-2.36","","<div style=""font-size:60px;"">+</div>","null","","","","","","",""
"null","","image-keyboard-response","331","541437","0.0-6.0-0.37","","img/orange.png","null","trial","null","true","0.2,0.8","2:nogo_b","",""
"null","","html-keyboard-response","332","542438","0.0-6.0-1.37","","<img src=""img/orange-r.png"">","null","trial","null","","0.2,0.8","2:nogo_b","1",""
"null","","html-keyboard-response","333","543439","0.0-6.0-2.37","","<div style=""font-size:60px;"">+</div>","null","","","","","","",""
"537.7150000003166","","image-keyboard-response","334","543978","0.0-6.0-0.38","","img/purple.png","32","trial","32","true","0.8,0.2","1:go_a","",""
"null","","html-keyboard-response","335","544979","0.0-6.0-1.38","","<img src=""img/purple-r.png"" border=""10"">","null","trial","32","","0.8,0.2","1:go_a","1",""
"null","","html-keyboard-response","336","545980","0.0-6.0-2.38","","<div style=""font-size:60px;"">+</div>","null","","","","","","",""
"null","","image-keyboard-response","337","547481","0.0-6.0-0.39","","img/blue.png","null","trial","null","true","0.2,0.8","4:nogo_d","",""
"null","","html-keyboard-response","338","548482","0.0-6.0-1.39","","<img src=""img/blue-n.png"">","null","trial","null","","0.2,0.8","4:nogo_d","0",""
"null","","html-keyboard-response","339","549482","0.0-6.0-2.39","","<div style=""font-size:60px;"">+</div>","null","","","","","","",""
"null","","image-keyboard-response","340","550983","0.0-6.0-0.40","","img/blue.png","null","trial","null","true","0.2,0.8","4:nogo_d","",""
"null","","html-keyboard-response","341","551984","0.0-6.0-1.40","","<img src=""img/blue-r.png"">","null","trial","null","","0.2,0.8","4:nogo_d","1",""
"null","","html-keyboard-response","342","552985","0.0-6.0-2.40","","<div style=""font-size:60px;"">+</div>","null","","","","","","",""
"608.7499999994179","","image-keyboard-response","343","553594","0.0-6.0-0.41","","img/pink.png","32","trial","32","true","0.8,0.2","3:go_c","",""
"null","","html-keyboard-response","344","554595","0.0-6.0-1.41","","<img src=""img/pink-r.png"" border=""10"">","null","trial","32","","0.8,0.2","3:go_c","1",""
"null","","html-keyboard-response","345","555596","0.0-6.0-2.41","","<div style=""font-size:60px;"">+</div>","null","","","","","","",""
"565.4849999991711","","image-keyboard-response","346","556162","0.0-6.0-0.42","","img/purple.png","32","trial","32","true","0.8,0.2","1:go_a","",""
"null","","html-keyboard-response","347","557163","0.0-6.0-1.42","","<img src=""img/purple-r.png"" border=""10"">","null","trial","32","","0.8,0.2","1:go_a","1",""
"null","","html-keyboard-response","348","558164","0.0-6.0-2.42","","<div style=""font-size:60px;"">+</div>","null","","","","","","",""
"null","","image-keyboard-response","349","559665","0.0-6.0-0.43","","img/orange.png","null","trial","null","true","0.2,0.8","2:nogo_b","",""
"null","","html-keyboard-response","350","560666","0.0-6.0-1.43","","<img src=""img/orange-r.png"">","null","trial","null","","0.2,0.8","2:nogo_b","1",""
"null","","html-keyboard-response","351","561667","0.0-6.0-2.43","","<div style=""font-size:60px;"">+</div>","null","","","","","","",""
"622.6349999997765","","image-keyboard-response","352","562290","0.0-6.0-0.44","","img/pink.png","32","trial","32","true","0.8,0.2","3:go_c","",""
"null","","html-keyboard-response","353","563292","0.0-6.0-1.44","","<img src=""img/pink-r.png"" border=""10"">","null","trial","32","","0.8,0.2","3:go_c","1",""
"null","","html-keyboard-response","354","564293","0.0-6.0-2.44","","<div style=""font-size:60px;"">+</div>","null","","","","","","",""
"null","","image-keyboard-response","355","565794","0.0-6.0-0.45","","img/orange.png","null","trial","null","true","0.2,0.8","2:nogo_b","",""
"null","","html-keyboard-response","356","566795","0.0-6.0-1.45","","<img src=""img/orange-r.png"">","null","trial","null","","0.2,0.8","2:nogo_b","1",""
"null","","html-keyboard-response","357","567796","0.0-6.0-2.45","","<div style=""font-size:60px;"">+</div>","null","","","","","","",""
"533.2949999993434","","image-keyboard-response","358","568330","0.0-6.0-0.46","","img/purple.png","32","trial","32","true","0.8,0.2","1:go_a","",""
"null","","html-keyboard-response","359","569331","0.0-6.0-1.46","","<img src=""img/purple-r.png"" border=""10"">","null","trial","32","","0.8,0.2","1:go_a","1",""
"null","","html-keyboard-response","360","570332","0.0-6.0-2.46","","<div style=""font-size:60px;"">+</div>","null","","","","","","",""
"null","","image-keyboard-response","361","571833","0.0-6.0-0.47","","img/blue.png","null","trial","null","true","0.2,0.8","4:nogo_d","",""
"null","","html-keyboard-response","362","572834","0.0-6.0-1.47","","<img src=""img/blue-r.png"">","null","trial","null","","0.2,0.8","4:nogo_d","1",""
"null","","html-keyboard-response","363","573835","0.0-6.0-2.47","","<div style=""font-size:60px;"">+</div>","null","","","","","","",""
"565.0450000012061","","image-keyboard-response","364","574400","0.0-6.0-0.48","","img/pink.png","32","trial","32","true","0.8,0.2","3:go_c","",""
"null","","html-keyboard-response","365","575402","0.0-6.0-1.48","","<img src=""img/pink-r.png"" border=""10"">","null","trial","32","","0.8,0.2","3:go_c","1",""
"null","","html-keyboard-response","366","576403","0.0-6.0-2.48","","<div style=""font-size:60px;"">+</div>","null","","","","","","",""
"null","","image-keyboard-response","367","577904","0.0-6.0-0.49","","img/blue.png","null","trial","null","true","0.2,0.8","4:nogo_d","",""
"null","","html-keyboard-response","368","578905","0.0-6.0-1.49","","<img src=""img/blue-r.png"">","null","trial","null","","0.2,0.8","4:nogo_d","1",""
"null","","html-keyboard-response","369","579906","0.0-6.0-2.49","","<div style=""font-size:60px;"">+</div>","null","","","","","","",""
"519.8049999999348","","image-keyboard-response","370","580427","0.0-6.0-0.50","","img/purple.png","32","trial","32","true","0.8,0.2","1:go_a","",""
"null","","html-keyboard-response","371","581428","0.0-6.0-1.50","","<img src=""img/purple-r.png"" border=""10"">","null","trial","32","","0.8,0.2","1:go_a","1",""
"null","","html-keyboard-response","372","582429","0.0-6.0-2.50","","<div style=""font-size:60px;"">+</div>","null","","","","","","",""
"null","","image-keyboard-response","373","583930","0.0-6.0-0.51","","img/orange.png","null","trial","null","true","0.2,0.8","2:nogo_b","",""
"null","","html-keyboard-response","374","584931","0.0-6.0-1.51","","<img src=""img/orange-r.png"">","null","trial","null","","0.2,0.8","2:nogo_b","1",""
"null","","html-keyboard-response","375","585932","0.0-6.0-2.51","","<div style=""font-size:60px;"">+</div>","null","","","","","","",""
"530.3199999999488","","image-keyboard-response","376","586463","0.0-6.0-0.52","","img/purple.png","32","trial","32","true","0.8,0.2","1:go_a","",""
"null","","html-keyboard-response","377","587464","0.0-6.0-1.52","","<img src=""img/purple-r.png"" border=""10"">","null","trial","32","","0.8,0.2","1:go_a","1",""
"null","","html-keyboard-response","378","588465","0.0-6.0-2.52","","<div style=""font-size:60px;"">+</div>","null","","","","","","",""
"null","","image-keyboard-response","379","589965","0.0-6.0-0.53","","img/orange.png","null","trial","null","true","0.2,0.8","2:nogo_b","",""
"null","","html-keyboard-response","380","590967","0.0-6.0-1.53","","<img src=""img/orange-n.png"">","null","trial","null","","0.2,0.8","2:nogo_b","0",""
"null","","html-keyboard-response","381","591967","0.0-6.0-2.53","","<div style=""font-size:60px;"">+</div>","null","","","","","","",""
"null","","image-keyboard-response","382","593468","0.0-6.0-0.54","","img/blue.png","null","trial","null","true","0.2,0.8","4:nogo_d","",""
"null","","html-keyboard-response","383","594469","0.0-6.0-1.54","","<img src=""img/blue-r.png"">","null","trial","null","","0.2,0.8","4:nogo_d","1",""
"null","","html-keyboard-response","384","595469","0.0-6.0-2.54","","<div style=""font-size:60px;"">+</div>","null","","","","","","",""
"567.4749999998603","","image-keyboard-response","385","596037","0.0-6.0-0.55","","img/pink.png","32","trial","32","true","0.8,0.2","3:go_c","",""
"null","","html-keyboard-response","386","597038","0.0-6.0-1.55","","<img src=""img/pink-n.png"" border=""10"">","null","trial","32","","0.8,0.2","3:go_c","0",""
"null","","html-keyboard-response","387","598038","0.0-6.0-2.55","","<div style=""font-size:60px;"">+</div>","null","","","","","","",""
"null","","image-keyboard-response","388","599540","0.0-6.0-0.56","","img/blue.png","null","trial","null","true","0.2,0.8","4:nogo_d","",""
"null","","html-keyboard-response","389","600541","0.0-6.0-1.56","","<img src=""img/blue-r.png"">","null","trial","null","","0.2,0.8","4:nogo_d","1",""
"null","","html-keyboard-response","390","601542","0.0-6.0-2.56","","<div style=""font-size:60px;"">+</div>","null","","","","","","",""
"null","","image-keyboard-response","391","603043","0.0-6.0-0.57","","img/orange.png","null","trial","null","true","0.2,0.8","2:nogo_b","",""
"null","","html-keyboard-response","392","604044","0.0-6.0-1.57","","<img src=""img/orange-r.png"">","null","trial","null","","0.2,0.8","2:nogo_b","1",""
"null","","html-keyboard-response","393","605045","0.0-6.0-2.57","","<div style=""font-size:60px;"">+</div>","null","","","","","","",""
"617.4350000001723","","image-keyboard-response","394","605663","0.0-6.0-0.58","","img/pink.png","32","trial","32","true","0.8,0.2","3:go_c","",""
"null","","html-keyboard-response","395","606664","0.0-6.0-1.58","","<img src=""img/pink-n.png"" border=""10"">","null","trial","32","","0.8,0.2","3:go_c","0",""
"null","","html-keyboard-response","396","607665","0.0-6.0-2.58","","<div style=""font-size:60px;"">+</div>","null","","","","","","",""
"401.28000000002794","","image-keyboard-response","397","608067","0.0-6.0-0.59","","img/purple.png","32","trial","32","true","0.8,0.2","1:go_a","",""
"null","","html-keyboard-response","398","609068","0.0-6.0-1.59","","<img src=""img/purple-r.png"" border=""10"">","null","trial","32","","0.8,0.2","1:go_a","1",""
"null","","html-keyboard-response","399","610069","0.0-6.0-2.59","","<div style=""font-size:60px;"">+</div>","null","","","","","","",""
"null","","image-keyboard-response","400","611570","0.0-6.0-0.60","","img/blue.png","null","trial","null","true","0.2,0.8","4:nogo_d","",""
"null","","html-keyboard-response","401","612571","0.0-6.0-1.60","","<img src=""img/blue-r.png"">","null","trial","null","","0.2,0.8","4:nogo_d","1",""
"null","","html-keyboard-response","402","613571","0.0-6.0-2.60","","<div style=""font-size:60px;"">+</div>","null","","","","","","",""
"448.67999999946915","","image-keyboard-response","403","614020","0.0-6.0-0.61","","img/pink.png","32","trial","32","true","0.8,0.2","3:go_c","",""
"null","","html-keyboard-response","404","615022","0.0-6.0-1.61","","<img src=""img/pink-r.png"" border=""10"">","null","trial","32","","0.8,0.2","3:go_c","1",""
"null","","html-keyboard-response","405","616022","0.0-6.0-2.61","","<div style=""font-size:60px;"">+</div>","null","","","","","","",""
"null","","image-keyboard-response","406","617523","0.0-6.0-0.62","","img/orange.png","null","trial","null","true","0.2,0.8","2:nogo_b","",""
"null","","html-keyboard-response","407","618524","0.0-6.0-1.62","","<img src=""img/orange-r.png"">","null","trial","null","","0.2,0.8","2:nogo_b","1",""
"null","","html-keyboard-response","408","619525","0.0-6.0-2.62","","<div style=""font-size:60px;"">+</div>","null","","","","","","",""
"527.4600000012433","","image-keyboard-response","409","620053","0.0-6.0-0.63","","img/purple.png","32","trial","32","true","0.8,0.2","1:go_a","",""
"null","","html-keyboard-response","410","621054","0.0-6.0-1.63","","<img src=""img/purple-r.png"" border=""10"">","null","trial","32","","0.8,0.2","1:go_a","1",""
"null","","html-keyboard-response","411","622055","0.0-6.0-2.63","","<div style=""font-size:60px;"">+</div>","null","","","","","","",""
"471.4349999995902","","image-keyboard-response","412","622527","0.0-6.0-0.64","","img/purple.png","32","trial","32","true","0.8,0.2","1:go_a","",""
"null","","html-keyboard-response","413","623528","0.0-6.0-1.64","","<img src=""img/purple-r.png"" border=""10"">","null","trial","32","","0.8,0.2","1:go_a","1",""
"null","","html-keyboard-response","414","624529","0.0-6.0-2.64","","<div style=""font-size:60px;"">+</div>","null","","","","","","",""
"null","","image-keyboard-response","415","626031","0.0-6.0-0.65","","img/orange.png","null","trial","null","true","0.2,0.8","2:nogo_b","",""
"null","","html-keyboard-response","416","627031","0.0-6.0-1.65","","<img src=""img/orange-r.png"">","null","trial","null","","0.2,0.8","2:nogo_b","1",""
"null","","html-keyboard-response","417","628032","0.0-6.0-2.65","","<div style=""font-size:60px;"">+</div>","null","","","","","","",""
"584.9600000000792","","image-keyboard-response","418","628617","0.0-6.0-0.66","","img/pink.png","32","trial","32","true","0.8,0.2","3:go_c","",""
"null","","html-keyboard-response","419","629619","0.0-6.0-1.66","","<img src=""img/pink-r.png"" border=""10"">","null","trial","32","","0.8,0.2","3:go_c","1",""
"null","","html-keyboard-response","420","630620","0.0-6.0-2.66","","<div style=""font-size:60px;"">+</div>","null","","","","","","",""
"null","","image-keyboard-response","421","632121","0.0-6.0-0.67","","img/blue.png","null","trial","null","true","0.2,0.8","4:nogo_d","",""
"null","","html-keyboard-response","422","633122","0.0-6.0-1.67","","<img src=""img/blue-r.png"">","null","trial","null","","0.2,0.8","4:nogo_d","1",""
"null","","html-keyboard-response","423","634123","0.0-6.0-2.67","","<div style=""font-size:60px;"">+</div>","null","","","","","","",""
"null","","image-keyboard-response","424","635624","0.0-6.0-0.68","","img/orange.png","null","trial","null","true","0.2,0.8","2:nogo_b","",""
"null","","html-keyboard-response","425","636625","0.0-6.0-1.68","","<img src=""img/orange-r.png"">","null","trial","null","","0.2,0.8","2:nogo_b","1",""
"null","","html-keyboard-response","426","637627","0.0-6.0-2.68","","<div style=""font-size:60px;"">+</div>","null","","","","","","",""
"452.0350000002654","","image-keyboard-response","427","638080","0.0-6.0-0.69","","img/purple.png","32","trial","32","true","0.8,0.2","1:go_a","",""
"null","","html-keyboard-response","428","639081","0.0-6.0-1.69","","<img src=""img/purple-r.png"" border=""10"">","null","trial","32","","0.8,0.2","1:go_a","1",""
"null","","html-keyboard-response","429","640082","0.0-6.0-2.69","","<div style=""font-size:60px;"">+</div>","null","","","","","","",""
"null","","image-keyboard-response","430","641583","0.0-6.0-0.70","","img/blue.png","null","trial","null","true","0.2,0.8","4:nogo_d","",""
"null","","html-keyboard-response","431","642584","0.0-6.0-1.70","","<img src=""img/blue-r.png"">","null","trial","null","","0.2,0.8","4:nogo_d","1",""
"null","","html-keyboard-response","432","643585","0.0-6.0-2.70","","<div style=""font-size:60px;"">+</div>","null","","","","","","",""
"547.3449999990407","","image-keyboard-response","433","644133","0.0-6.0-0.71","","img/pink.png","32","trial","32","true","0.8,0.2","3:go_c","",""
"null","","html-keyboard-response","434","645135","0.0-6.0-1.71","","<img src=""img/pink-r.png"" border=""10"">","null","trial","32","","0.8,0.2","3:go_c","1",""
"null","","html-keyboard-response","435","646135","0.0-6.0-2.71","","<div style=""font-size:60px;"">+</div>","null","","","","","","",""
"681.9400000004098","","image-keyboard-response","436","646818","0.0-6.0-0.72","","img/purple.png","32","trial","32","true","0.8,0.2","1:go_a","",""
"null","","html-keyboard-response","437","647819","0.0-6.0-1.72","","<img src=""img/purple-r.png"" border=""10"">","null","trial","32","","0.8,0.2","1:go_a","1",""
"null","","html-keyboard-response","438","648820","0.0-6.0-2.72","","<div style=""font-size:60px;"">+</div>","null","","","","","","",""
"603.129999999539","","image-keyboard-response","439","649424","0.0-6.0-0.73","","img/pink.png","32","trial","32","true","0.8,0.2","3:go_c","",""
"null","","html-keyboard-response","440","650425","0.0-6.0-1.73","","<img src=""img/pink-r.png"" border=""10"">","null","trial","32","","0.8,0.2","3:go_c","1",""
"null","","html-keyboard-response","441","651426","0.0-6.0-2.73","","<div style=""font-size:60px;"">+</div>","null","","","","","","",""
"null","","image-keyboard-response","442","652927","0.0-6.0-0.74","","img/orange.png","null","trial","null","true","0.2,0.8","2:nogo_b","",""
"null","","html-keyboard-response","443","653928","0.0-6.0-1.74","","<img src=""img/orange-r.png"">","null","trial","null","","0.2,0.8","2:nogo_b","1",""
"null","","html-keyboard-response","444","654928","0.0-6.0-2.74","","<div style=""font-size:60px;"">+</div>","null","","","","","","",""
"null","","image-keyboard-response","445","656430","0.0-6.0-0.75","","img/blue.png","null","trial","null","true","0.2,0.8","4:nogo_d","",""
"null","","html-keyboard-response","446","657431","0.0-6.0-1.75","","<img src=""img/blue-r.png"">","null","trial","null","","0.2,0.8","4:nogo_d","1",""
"null","","html-keyboard-response","447","658431","0.0-6.0-2.75","","<div style=""font-size:60px;"">+</div>","null","","","","","","",""
"557.305000000284","","image-keyboard-response","448","658989","0.0-6.0-0.76","","img/purple.png","32","trial","32","true","0.8,0.2","1:go_a","",""
"null","","html-keyboard-response","449","659990","0.0-6.0-1.76","","<img src=""img/purple-n.png"" border=""10"">","null","trial","32","","0.8,0.2","1:go_a","0",""
"null","","html-keyboard-response","450","660991","0.0-6.0-2.76","","<div style=""font-size:60px;"">+</div>","null","","","","","","",""
"380.6850000001723","","image-keyboard-response","451","661372","0.0-6.0-0.77","","img/pink.png","32","trial","32","true","0.8,0.2","3:go_c","",""
"null","","html-keyboard-response","452","662373","0.0-6.0-1.77","","<img src=""img/pink-n.png"" border=""10"">","null","trial","32","","0.8,0.2","3:go_c","0",""
"null","","html-keyboard-response","453","663374","0.0-6.0-2.77","","<div style=""font-size:60px;"">+</div>","null","","","","","","",""
"null","","image-keyboard-response","454","664875","0.0-6.0-0.78","","img/blue.png","null","trial","null","true","0.2,0.8","4:nogo_d","",""
"null","","html-keyboard-response","455","665877","0.0-6.0-1.78","","<img src=""img/blue-r.png"">","null","trial","null","","0.2,0.8","4:nogo_d","1",""
"null","","html-keyboard-response","456","666878","0.0-6.0-2.78","","<div style=""font-size:60px;"">+</div>","null","","","","","","",""
"null","","image-keyboard-response","457","668379","0.0-6.0-0.79","","img/orange.png","null","trial","null","true","0.2,0.8","2:nogo_b","",""
"null","","html-keyboard-response","458","669380","0.0-6.0-1.79","","<img src=""img/orange-r.png"">","null","trial","null","","0.2,0.8","2:nogo_b","1",""
"null","","html-keyboard-response","459","670381","0.0-6.0-2.79","","<div style=""font-size:60px;"">+</div>","null","","","","","","",""
"478.8150000004098","","image-keyboard-response","460","670860","0.0-6.0-0.80","","img/purple.png","32","trial","32","true","0.8,0.2","1:go_a","",""
"null","","html-keyboard-response","461","671861","0.0-6.0-1.80","","<img src=""img/purple-r.png"" border=""10"">","null","trial","32","","0.8,0.2","1:go_a","1",""
"null","","html-keyboard-response","462","672862","0.0-6.0-2.80","","<div style=""font-size:60px;"">+</div>","null","","","","","","",""
"null","","image-keyboard-response","463","674363","0.0-6.0-0.81","","img/orange.png","null","trial","null","true","0.2,0.8","2:nogo_b","",""
"null","","html-keyboard-response","464","675364","0.0-6.0-1.81","","<img src=""img/orange-r.png"">","null","trial","null","","0.2,0.8","2:nogo_b","1",""
"null","","html-keyboard-response","465","676365","0.0-6.0-2.81","","<div style=""font-size:60px;"">+</div>","null","","","","","","",""
"null","","image-keyboard-response","466","677866","0.0-6.0-0.82","","img/blue.png","null","trial","null","true","0.2,0.8","4:nogo_d","",""
"null","","html-keyboard-response","467","678868","0.0-6.0-1.82","","<img src=""img/blue-r.png"">","null","trial","null","","0.2,0.8","4:nogo_d","1",""
"null","","html-keyboard-response","468","679868","0.0-6.0-2.82","","<div style=""font-size:60px;"">+</div>","null","","","","","","",""
"560.3649999994086","","image-keyboard-response","469","680429","0.0-6.0-0.83","","img/pink.png","32","trial","32","true","0.8,0.2","3:go_c","",""
"null","","html-keyboard-response","470","681431","0.0-6.0-1.83","","<img src=""img/pink-n.png"" border=""10"">","null","trial","32","","0.8,0.2","3:go_c","0",""
"null","","html-keyboard-response","471","682432","0.0-6.0-2.83","","<div style=""font-size:60px;"">+</div>","null","","","","","","",""
"587.1850000002887","","image-keyboard-response","472","683020","0.0-6.0-0.84","","img/pink.png","32","trial","32","true","0.8,0.2","3:go_c","",""
"null","","html-keyboard-response","473","684020","0.0-6.0-1.84","","<img src=""img/pink-n.png"" border=""10"">","null","trial","32","","0.8,0.2","3:go_c","0",""
"null","","html-keyboard-response","474","685021","0.0-6.0-2.84","","<div style=""font-size:60px;"">+</div>","null","","","","","","",""
"null","","image-keyboard-response","475","686522","0.0-6.0-0.85","","img/blue.png","null","trial","null","true","0.2,0.8","4:nogo_d","",""
"null","","html-keyboard-response","476","687523","0.0-6.0-1.85","","<img src=""img/blue-r.png"">","null","trial","null","","0.2,0.8","4:nogo_d","1",""
"null","","html-keyboard-response","477","688524","0.0-6.0-2.85","","<div style=""font-size:60px;"">+</div>","null","","","","","","",""
"549.8250000000698","","image-keyboard-response","478","689074","0.0-6.0-0.86","","img/purple.png","32","trial","32","true","0.8,0.2","1:go_a","",""
"null","","html-keyboard-response","479","690075","0.0-6.0-1.86","","<img src=""img/purple-n.png"" border=""10"">","null","trial","32","","0.8,0.2","1:go_a","0",""
"null","","html-keyboard-response","480","691076","0.0-6.0-2.86","","<div style=""font-size:60px;"">+</div>","null","","","","","","",""
"null","","image-keyboard-response","481","692577","0.0-6.0-0.87","","img/orange.png","null","trial","null","true","0.2,0.8","2:nogo_b","",""
"null","","html-keyboard-response","482","693578","0.0-6.0-1.87","","<img src=""img/orange-r.png"">","null","trial","null","","0.2,0.8","2:nogo_b","1",""
"null","","html-keyboard-response","483","694579","0.0-6.0-2.87","","<div style=""font-size:60px;"">+</div>","null","","","","","","",""
"null","","image-keyboard-response","484","696080","0.0-6.0-0.88","","img/orange.png","null","trial","null","true","0.2,0.8","2:nogo_b","",""
"null","","html-keyboard-response","485","697081","0.0-6.0-1.88","","<img src=""img/orange-r.png"">","null","trial","null","","0.2,0.8","2:nogo_b","1",""
"null","","html-keyboard-response","486","698082","0.0-6.0-2.88","","<div style=""font-size:60px;"">+</div>","null","","","","","","",""
"666.2199999991572","","image-keyboard-response","487","698748","0.0-6.0-0.89","","img/purple.png","32","trial","32","true","0.8,0.2","1:go_a","",""
"null","","html-keyboard-response","488","699749","0.0-6.0-1.89","","<img src=""img/purple-n.png"" border=""10"">","null","trial","32","","0.8,0.2","1:go_a","0",""
"null","","html-keyboard-response","489","700750","0.0-6.0-2.89","","<div style=""font-size:60px;"">+</div>","null","","","","","","",""
"null","","image-keyboard-response","490","702251","0.0-6.0-0.90","","img/blue.png","null","trial","null","true","0.2,0.8","4:nogo_d","",""
"null","","html-keyboard-response","491","703252","0.0-6.0-1.90","","<img src=""img/blue-r.png"">","null","trial","null","","0.2,0.8","4:nogo_d","1",""
"null","","html-keyboard-response","492","704253","0.0-6.0-2.90","","<div style=""font-size:60px;"">+</div>","null","","","","","","",""
"null","","image-keyboard-response","493","705754","0.0-6.0-0.91","","img/pink.png","null","trial","32","false","0.8,0.2","3:go_c","",""
"null","","html-keyboard-response","494","706755","0.0-6.0-1.91","","<img src=""img/pink-r.png"">","null","trial","32","","0.8,0.2","3:go_c","1",""
"null","","html-keyboard-response","495","707756","0.0-6.0-2.91","","<div style=""font-size:60px;"">+</div>","null","","","","","","",""
"null","","image-keyboard-response","496","709257","0.0-6.0-0.92","","img/orange.png","null","trial","null","true","0.2,0.8","2:nogo_b","",""
"null","","html-keyboard-response","497","710259","0.0-6.0-1.92","","<img src=""img/orange-r.png"">","null","trial","null","","0.2,0.8","2:nogo_b","1",""
"null","","html-keyboard-response","498","711259","0.0-6.0-2.92","","<div style=""font-size:60px;"">+</div>","null","","","","","","",""
"null","","image-keyboard-response","499","712760","0.0-6.0-0.93","","img/blue.png","null","trial","null","true","0.2,0.8","4:nogo_d","",""
"null","","html-keyboard-response","500","713761","0.0-6.0-1.93","","<img src=""img/blue-r.png"">","null","trial","null","","0.2,0.8","4:nogo_d","1",""
"null","","html-keyboard-response","501","714761","0.0-6.0-2.93","","<div style=""font-size:60px;"">+</div>","null","","","","","","",""
"null","","image-keyboard-response","502","716262","0.0-6.0-0.94","","img/pink.png","null","trial","32","false","0.8,0.2","3:go_c","",""
"null","","html-keyboard-response","503","717264","0.0-6.0-1.94","","<img src=""img/pink-n.png"">","null","trial","32","","0.8,0.2","3:go_c","0",""
"null","","html-keyboard-response","504","718264","0.0-6.0-2.94","","<div style=""font-size:60px;"">+</div>","null","","","","","","",""
"433.78999999910593","","image-keyboard-response","505","718699","0.0-6.0-0.95","","img/purple.png","32","trial","32","true","0.8,0.2","1:go_a","",""
"null","","html-keyboard-response","506","719700","0.0-6.0-1.95","","<img src=""img/purple-n.png"" border=""10"">","null","trial","32","","0.8,0.2","1:go_a","0",""
"null","","html-keyboard-response","507","720701","0.0-6.0-2.95","","<div style=""font-size:60px;"">+</div>","null","","","","","","",""
"null","","image-keyboard-response","508","722202","0.0-6.0-0.96","","img/purple.png","null","trial","32","false","0.8,0.2","1:go_a","",""
"null","","html-keyboard-response","509","723204","0.0-6.0-1.96","","<img src=""img/purple-n.png"">","null","trial","32","","0.8,0.2","1:go_a","0",""
"null","","html-keyboard-response","510","724205","0.0-6.0-2.96","","<div style=""font-size:60px;"">+</div>","null","","","","","","",""
"465.69000000087544","","image-keyboard-response","511","724671","0.0-6.0-0.97","","img/pink.png","32","trial","32","true","0.8,0.2","3:go_c","",""
"null","","html-keyboard-response","512","725672","0.0-6.0-1.97","","<img src=""img/pink-n.png"" border=""10"">","null","trial","32","","0.8,0.2","3:go_c","0",""
"null","","html-keyboard-response","513","726673","0.0-6.0-2.97","","<div style=""font-size:60px;"">+</div>","null","","","","","","",""
"null","","image-keyboard-response","514","728174","0.0-6.0-0.98","","img/blue.png","null","trial","null","true","0.2,0.8","4:nogo_d","",""
"null","","html-keyboard-response","515","729175","0.0-6.0-1.98","","<img src=""img/blue-n.png"">","null","trial","null","","0.2,0.8","4:nogo_d","0",""
"null","","html-keyboard-response","516","730176","0.0-6.0-2.98","","<div style=""font-size:60px;"">+</div>","null","","","","","","",""
"null","","image-keyboard-response","517","731676","0.0-6.0-0.99","","img/orange.png","null","trial","null","true","0.2,0.8","2:nogo_b","",""
"null","","html-keyboard-response","518","732677","0.0-6.0-1.99","","<img src=""img/orange-n.png"">","null","trial","null","","0.2,0.8","2:nogo_b","0",""
"null","","html-keyboard-response","519","733678","0.0-6.0-2.99","","<div style=""font-size:60px;"">+</div>","null","","","","","","",""
"738.794999999227","","image-keyboard-response","520","734417","0.0-6.0-0.100","","img/purple.png","32","trial","32","true","0.8,0.2","1:go_a","",""
"null","","html-keyboard-response","521","735419","0.0-6.0-1.100","","<img src=""img/purple-r.png"" border=""10"">","null","trial","32","","0.8,0.2","1:go_a","1",""
"null","","html-keyboard-response","522","736420","0.0-6.0-2.100","","<div style=""font-size:60px;"">+</div>","null","","","","","","",""
"null","","image-keyboard-response","523","737920","0.0-6.0-0.101","","img/orange.png","null","trial","null","true","0.2,0.8","2:nogo_b","",""
"null","","html-keyboard-response","524","738921","0.0-6.0-1.101","","<img src=""img/orange-n.png"">","null","trial","null","","0.2,0.8","2:nogo_b","0",""
"null","","html-keyboard-response","525","739922","0.0-6.0-2.101","","<div style=""font-size:60px;"">+</div>","null","","","","","","",""
"null","","image-keyboard-response","526","741423","0.0-6.0-0.102","","img/blue.png","null","trial","null","true","0.2,0.8","4:nogo_d","",""
"null","","html-keyboard-response","527","742423","0.0-6.0-1.102","","<img src=""img/blue-r.png"">","null","trial","null","","0.2,0.8","4:nogo_d","1",""
"null","","html-keyboard-response","528","743424","0.0-6.0-2.102","","<div style=""font-size:60px;"">+</div>","null","","","","","","",""
"811.9299999999348","","image-keyboard-response","529","744237","0.0-6.0-0.103","","img/pink.png","32","trial","32","true","0.8,0.2","3:go_c","",""
"null","","html-keyboard-response","530","745238","0.0-6.0-1.103","","<img src=""img/pink-r.png"" border=""10"">","null","trial","32","","0.8,0.2","3:go_c","1",""
"null","","html-keyboard-response","531","746239","0.0-6.0-2.103","","<div style=""font-size:60px;"">+</div>","null","","","","","","",""
"531.4550000003073","","image-keyboard-response","532","746771","0.0-6.0-0.104","","img/pink.png","32","trial","32","true","0.8,0.2","3:go_c","",""
"null","","html-keyboard-response","533","747772","0.0-6.0-1.104","","<img src=""img/pink-n.png"" border=""10"">","null","trial","32","","0.8,0.2","3:go_c","0",""
"null","","html-keyboard-response","534","748773","0.0-6.0-2.104","","<div style=""font-size:60px;"">+</div>","null","","","","","","",""
"null","","image-keyboard-response","535","750274","0.0-6.0-0.105","","img/blue.png","null","trial","null","true","0.2,0.8","4:nogo_d","",""
"null","","html-keyboard-response","536","751275","0.0-6.0-1.105","","<img src=""img/blue-n.png"">","null","trial","null","","0.2,0.8","4:nogo_d","0",""
"null","","html-keyboard-response","537","752275","0.0-6.0-2.105","","<div style=""font-size:60px;"">+</div>","null","","","","","","",""
"732.519999999553","","image-keyboard-response","538","753008","0.0-6.0-0.106","","img/purple.png","32","trial","32","true","0.8,0.2","1:go_a","",""
"null","","html-keyboard-response","539","754010","0.0-6.0-1.106","","<img src=""img/purple-r.png"" border=""10"">","null","trial","32","","0.8,0.2","1:go_a","1",""
"null","","html-keyboard-response","540","755011","0.0-6.0-2.106","","<div style=""font-size:60px;"">+</div>","null","","","","","","",""
"null","","image-keyboard-response","541","756512","0.0-6.0-0.107","","img/orange.png","null","trial","null","true","0.2,0.8","2:nogo_b","",""
"null","","html-keyboard-response","542","757513","0.0-6.0-1.107","","<img src=""img/orange-r.png"">","null","trial","null","","0.2,0.8","2:nogo_b","1",""
"null","","html-keyboard-response","543","758513","0.0-6.0-2.107","","<div style=""font-size:60px;"">+</div>","null","","","","","","",""
"567.3649999990594","","image-keyboard-response","544","759081","0.0-6.0-0.108","","img/blue.png","32","trial","null","false","0.2,0.8","4:nogo_d","",""
"null","","html-keyboard-response","545","760083","0.0-6.0-1.108","","<img src=""img/blue-n.png"" border=""10"">","null","trial","null","","0.2,0.8","4:nogo_d","0",""
"null","","html-keyboard-response","546","761083","0.0-6.0-2.108","","<div style=""font-size:60px;"">+</div>","null","","","","","","",""
"null","","image-keyboard-response","547","762584","0.0-6.0-0.109","","img/orange.png","null","trial","null","true","0.2,0.8","2:nogo_b","",""
"null","","html-keyboard-response","548","763585","0.0-6.0-1.109","","<img src=""img/orange-r.png"">","null","trial","null","","0.2,0.8","2:nogo_b","1",""
"null","","html-keyboard-response","549","764586","0.0-6.0-2.109","","<div style=""font-size:60px;"">+</div>","null","","","","","","",""
"631.0950000005541","","image-keyboard-response","550","765217","0.0-6.0-0.110","","img/purple.png","32","trial","32","true","0.8,0.2","1:go_a","",""
"null","","html-keyboard-response","551","766219","0.0-6.0-1.110","","<img src=""img/purple-r.png"" border=""10"">","null","trial","32","","0.8,0.2","1:go_a","1",""
"null","","html-keyboard-response","552","767219","0.0-6.0-2.110","","<div style=""font-size:60px;"">+</div>","null","","","","","","",""
"569.7149999996182","","image-keyboard-response","553","767789","0.0-6.0-0.111","","img/pink.png","32","trial","32","true","0.8,0.2","3:go_c","",""
"null","","html-keyboard-response","554","768791","0.0-6.0-1.111","","<img src=""img/pink-r.png"" border=""10"">","null","trial","32","","0.8,0.2","3:go_c","1",""
"null","","html-keyboard-response","555","769792","0.0-6.0-2.111","","<div style=""font-size:60px;"">+</div>","null","","","","","","",""
"null","","image-keyboard-response","556","771293","0.0-6.0-0.112","","img/orange.png","null","trial","null","true","0.2,0.8","2:nogo_b","",""
"null","","html-keyboard-response","557","772294","0.0-6.0-1.112","","<img src=""img/orange-r.png"">","null","trial","null","","0.2,0.8","2:nogo_b","1",""
"null","","html-keyboard-response","558","773295","0.0-6.0-2.112","","<div style=""font-size:60px;"">+</div>","null","","","","","","",""
"null","","image-keyboard-response","559","774796","0.0-6.0-0.113","","img/blue.png","null","trial","null","true","0.2,0.8","4:nogo_d","",""
"null","","html-keyboard-response","560","775797","0.0-6.0-1.113","","<img src=""img/blue-r.png"">","null","trial","null","","0.2,0.8","4:nogo_d","1",""
"null","","html-keyboard-response","561","776798","0.0-6.0-2.113","","<div style=""font-size:60px;"">+</div>","null","","","","","","",""
"492.684999999241","","image-keyboard-response","562","777292","0.0-6.0-0.114","","img/purple.png","32","trial","32","true","0.8,0.2","1:go_a","",""
"null","","html-keyboard-response","563","778293","0.0-6.0-1.114","","<img src=""img/purple-r.png"" border=""10"">","null","trial","32","","0.8,0.2","1:go_a","1",""
"null","","html-keyboard-response","564","779294","0.0-6.0-2.114","","<div style=""font-size:60px;"">+</div>","null","","","","","","",""
"479.2350000006845","","image-keyboard-response","565","779773","0.0-6.0-0.115","","img/pink.png","32","trial","32","true","0.8,0.2","3:go_c","",""
"null","","html-keyboard-response","566","780775","0.0-6.0-1.115","","<img src=""img/pink-r.png"" border=""10"">","null","trial","32","","0.8,0.2","3:go_c","1",""
"null","","html-keyboard-response","567","781776","0.0-6.0-2.115","","<div style=""font-size:60px;"">+</div>","null","","","","","","",""
"null","","image-keyboard-response","568","783277","0.0-6.0-0.116","","img/orange.png","null","trial","null","true","0.2,0.8","2:nogo_b","",""
"null","","html-keyboard-response","569","784278","0.0-6.0-1.116","","<img src=""img/orange-r.png"">","null","trial","null","","0.2,0.8","2:nogo_b","1",""
"null","","html-keyboard-response","570","785279","0.0-6.0-2.116","","<div style=""font-size:60px;"">+</div>","null","","","","","","",""
"631.5350000003818","","image-keyboard-response","571","785912","0.0-6.0-0.117","","img/pink.png","32","trial","32","true","0.8,0.2","3:go_c","",""
"null","","html-keyboard-response","572","786913","0.0-6.0-1.117","","<img src=""img/pink-r.png"" border=""10"">","null","trial","32","","0.8,0.2","3:go_c","1",""
"null","","html-keyboard-response","573","787914","0.0-6.0-2.117","","<div style=""font-size:60px;"">+</div>","null","","","","","","",""
"521.1600000002654","","image-keyboard-response","574","788436","0.0-6.0-0.118","","img/purple.png","32","trial","32","true","0.8,0.2","1:go_a","",""
"null","","html-keyboard-response","575","789437","0.0-6.0-1.118","","<img src=""img/purple-r.png"" border=""10"">","null","trial","32","","0.8,0.2","1:go_a","1",""
"null","","html-keyboard-response","576","790438","0.0-6.0-2.118","","<div style=""font-size:60px;"">+</div>","null","","","","","","",""
"null","","image-keyboard-response","577","791939","0.0-6.0-0.119","","img/blue.png","null","trial","null","true","0.2,0.8","4:nogo_d","",""
"null","","html-keyboard-response","578","792940","0.0-6.0-1.119","","<img src=""img/blue-r.png"">","null","trial","null","","0.2,0.8","4:nogo_d","1",""
"null","","html-keyboard-response","579","793941","0.0-6.0-2.119","","<div style=""font-size:60px;"">+</div>","null","","","","","","",""
"77585.93500000099","","instructions","580","871527","0.0-7.0","[{""page_index"":0,""viewing_time"":77585.74500000034}]","","","","","","","","",""
"null","","image-keyboard-response","581","873028","0.0-8.0-0.0","","img/pink.png","null","trial","null","true","0,1","4:nogo_d","",""
"null","","html-keyboard-response","582","874029","0.0-8.0-1.0","","<img src=""img/pink-r.png"">","null","trial","null","","0,1","4:nogo_d","1",""
"null","","html-keyboard-response","583","875029","0.0-8.0-2.0","","<div style=""font-size:60px;"">+</div>","null","","","","","","",""
"1173.9799999995157","","image-keyboard-response","584","876204","0.0-8.0-0.1","","img/yellow.png","32","trial","32","true","1,0","3:go_c","",""
"null","","html-keyboard-response","585","877204","0.0-8.0-1.1","","<img src=""img/yellow-r.png"" border=""10"">","null","trial","32","","1,0","3:go_c","1",""
"null","","html-keyboard-response","586","878205","0.0-8.0-2.1","","<div style=""font-size:60px;"">+</div>","null","","","","","","",""
"986.4749999996275","","image-keyboard-response","587","879192","0.0-8.0-0.2","","img/orange.png","32","trial","null","false","0.2,0.8","2:nogo_b","",""
"null","","html-keyboard-response","588","880193","0.0-8.0-1.2","","<img src=""img/orange-n.png"" border=""10"">","null","trial","null","","0.2,0.8","2:nogo_b","0",""
"null","","html-keyboard-response","589","881193","0.0-8.0-2.2","","<div style=""font-size:60px;"">+</div>","null","","","","","","",""
"992.0849999998463","","image-keyboard-response","590","882186","0.0-8.0-0.3","","img/grey.png","32","trial","32","true","0.8,0.2","1:go_a","",""
"null","","html-keyboard-response","591","883187","0.0-8.0-1.3","","<img src=""img/grey-r.png"" border=""10"">","null","trial","32","","0.8,0.2","1:go_a","1",""
"null","","html-keyboard-response","592","884187","0.0-8.0-2.3","","<div style=""font-size:60px;"">+</div>","null","","","","","","",""
"838.0049999996554","","image-keyboard-response","593","885026","0.0-8.0-0.4","","img/pink.png","32","trial","null","false","0,1","4:nogo_d","",""
"null","","html-keyboard-response","594","886027","0.0-8.0-1.4","","<img src=""img/pink-n.png"" border=""10"">","null","trial","null","","0,1","4:nogo_d","0",""
"null","","html-keyboard-response","595","887027","0.0-8.0-2.4","","<div style=""font-size:60px;"">+</div>","null","","","","","","",""
"838.4450000012293","","image-keyboard-response","596","887866","0.0-8.0-0.5","","img/grey.png","32","trial","32","true","0.8,0.2","1:go_a","",""
"null","","html-keyboard-response","597","888867","0.0-8.0-1.5","","<img src=""img/grey-r.png"" border=""10"">","null","trial","32","","0.8,0.2","1:go_a","1",""
"null","","html-keyboard-response","598","889867","0.0-8.0-2.5","","<div style=""font-size:60px;"">+</div>","null","","","","","","",""
"584.0250000001397","","image-keyboard-response","599","890452","0.0-8.0-0.6","","img/yellow.png","32","trial","32","true","1,0","3:go_c","",""
"null","","html-keyboard-response","600","891453","0.0-8.0-1.6","","<img src=""img/yellow-r.png"" border=""10"">","null","trial","32","","1,0","3:go_c","1",""
"null","","html-keyboard-response","601","892453","0.0-8.0-2.6","","<div style=""font-size:60px;"">+</div>","null","","","","","","",""
"null","","image-keyboard-response","602","893954","0.0-8.0-0.7","","img/orange.png","null","trial","null","true","0.2,0.8","2:nogo_b","",""
"null","","html-keyboard-response","603","894955","0.0-8.0-1.7","","<img src=""img/orange-r.png"">","null","trial","null","","0.2,0.8","2:nogo_b","1",""
"null","","html-keyboard-response","604","895955","0.0-8.0-2.7","","<div style=""font-size:60px;"">+</div>","null","","","","","","",""
"null","","image-keyboard-response","605","897456","0.0-8.0-0.8","","img/orange.png","null","trial","null","true","0.2,0.8","2:nogo_b","",""
"null","","html-keyboard-response","606","898457","0.0-8.0-1.8","","<img src=""img/orange-r.png"">","null","trial","null","","0.2,0.8","2:nogo_b","1",""
"null","","html-keyboard-response","607","899457","0.0-8.0-2.8","","<div style=""font-size:60px;"">+</div>","null","","","","","","",""
"810.6349999997765","","image-keyboard-response","608","900268","0.0-8.0-0.9","","img/grey.png","32","trial","32","true","0.8,0.2","1:go_a","",""
"null","","html-keyboard-response","609","901269","0.0-8.0-1.9","","<img src=""img/grey-r.png"" border=""10"">","null","trial","32","","0.8,0.2","1:go_a","1",""
"null","","html-keyboard-response","610","902270","0.0-8.0-2.9","","<div style=""font-size:60px;"">+</div>","null","","","","","","",""
"null","","image-keyboard-response","611","903770","0.0-8.0-0.10","","img/pink.png","null","trial","null","true","0,1","4:nogo_d","",""
"null","","html-keyboard-response","612","904772","0.0-8.0-1.10","","<img src=""img/pink-r.png"">","null","trial","null","","0,1","4:nogo_d","1",""
"null","","html-keyboard-response","613","905772","0.0-8.0-2.10","","<div style=""font-size:60px;"">+</div>","null","","","","","","",""
"417.62000000011176","","image-keyboard-response","614","906190","0.0-8.0-0.11","","img/yellow.png","32","trial","32","true","1,0","3:go_c","",""
"null","","html-keyboard-response","615","907191","0.0-8.0-1.11","","<img src=""img/yellow-r.png"" border=""10"">","null","trial","32","","1,0","3:go_c","1",""
"null","","html-keyboard-response","616","908191","0.0-8.0-2.11","","<div style=""font-size:60px;"">+</div>","null","","","","","","",""
"504.26500000141095","","image-keyboard-response","617","908696","0.0-8.0-0.12","","img/yellow.png","32","trial","32","true","1,0","3:go_c","",""
"null","","html-keyboard-response","618","909697","0.0-8.0-1.12","","<img src=""img/yellow-r.png"" border=""10"">","null","trial","32","","1,0","3:go_c","1",""
"null","","html-keyboard-response","619","910697","0.0-8.0-2.12","","<div style=""font-size:60px;"">+</div>","null","","","","","","",""
"746.444999998901","","image-keyboard-response","620","911444","0.0-8.0-0.13","","img/grey.png","32","trial","32","true","0.8,0.2","1:go_a","",""
"null","","html-keyboard-response","621","912445","0.0-8.0-1.13","","<img src=""img/grey-r.png"" border=""10"">","null","trial","32","","0.8,0.2","1:go_a","1",""
"null","","html-keyboard-response","622","913446","0.0-8.0-2.13","","<div style=""font-size:60px;"">+</div>","null","","","","","","",""
"null","","image-keyboard-response","623","914946","0.0-8.0-0.14","","img/pink.png","null","trial","null","true","0,1","4:nogo_d","",""
"null","","html-keyboard-response","624","915947","0.0-8.0-1.14","","<img src=""img/pink-r.png"">","null","trial","null","","0,1","4:nogo_d","1",""
"null","","html-keyboard-response","625","916948","0.0-8.0-2.14","","<div style=""font-size:60px;"">+</div>","null","","","","","","",""
"null","","image-keyboard-response","626","918448","0.0-8.0-0.15","","img/orange.png","null","trial","null","true","0.2,0.8","2:nogo_b","",""
"null","","html-keyboard-response","627","919449","0.0-8.0-1.15","","<img src=""img/orange-r.png"">","null","trial","null","","0.2,0.8","2:nogo_b","1",""
"null","","html-keyboard-response","628","920450","0.0-8.0-2.15","","<div style=""font-size:60px;"">+</div>","null","","","","","","",""
"432.16500000015367","","image-keyboard-response","629","920882","0.0-8.0-0.16","","img/yellow.png","32","trial","32","true","1,0","3:go_c","",""
"null","","html-keyboard-response","630","921883","0.0-8.0-1.16","","<img src=""img/yellow-r.png"" border=""10"">","null","trial","32","","1,0","3:go_c","1",""
"null","","html-keyboard-response","631","922884","0.0-8.0-2.16","","<div style=""font-size:60px;"">+</div>","null","","","","","","",""
"null","","image-keyboard-response","632","924384","0.0-8.0-0.17","","img/pink.png","null","trial","null","true","0,1","4:nogo_d","",""
"null","","html-keyboard-response","633","925385","0.0-8.0-1.17","","<img src=""img/pink-r.png"">","null","trial","null","","0,1","4:nogo_d","1",""
"null","","html-keyboard-response","634","926385","0.0-8.0-2.17","","<div style=""font-size:60px;"">+</div>","null","","","","","","",""
"null","","image-keyboard-response","635","927886","0.0-8.0-0.18","","img/orange.png","null","trial","null","true","0.2,0.8","2:nogo_b","",""
"null","","html-keyboard-response","636","928887","0.0-8.0-1.18","","<img src=""img/orange-r.png"">","null","trial","null","","0.2,0.8","2:nogo_b","1",""
"null","","html-keyboard-response","637","929887","0.0-8.0-2.18","","<div style=""font-size:60px;"">+</div>","null","","","","","","",""
"654.734999999986","","image-keyboard-response","638","930543","0.0-8.0-0.19","","img/grey.png","32","trial","32","true","0.8,0.2","1:go_a","",""
"null","","html-keyboard-response","639","931543","0.0-8.0-1.19","","<img src=""img/grey-r.png"" border=""10"">","null","trial","32","","0.8,0.2","1:go_a","1",""
"null","","html-keyboard-response","640","932544","0.0-8.0-2.19","","<div style=""font-size:60px;"">+</div>","null","","","","","","",""
"null","","image-keyboard-response","641","934044","0.0-8.0-0.20","","img/pink.png","null","trial","null","true","0,1","4:nogo_d","",""
"null","","html-keyboard-response","642","935045","0.0-8.0-1.20","","<img src=""img/pink-r.png"">","null","trial","null","","0,1","4:nogo_d","1",""
"null","","html-keyboard-response","643","936046","0.0-8.0-2.20","","<div style=""font-size:60px;"">+</div>","null","","","","","","",""
"null","","image-keyboard-response","644","937546","0.0-8.0-0.21","","img/orange.png","null","trial","null","true","0.2,0.8","2:nogo_b","",""
"null","","html-keyboard-response","645","938547","0.0-8.0-1.21","","<img src=""img/orange-r.png"">","null","trial","null","","0.2,0.8","2:nogo_b","1",""
"null","","html-keyboard-response","646","939548","0.0-8.0-2.21","","<div style=""font-size:60px;"">+</div>","null","","","","","","",""
"694.6399999996647","","image-keyboard-response","647","940243","0.0-8.0-0.22","","img/yellow.png","32","trial","32","true","1,0","3:go_c","",""
"null","","html-keyboard-response","648","941244","0.0-8.0-1.22","","<img src=""img/yellow-r.png"" border=""10"">","null","trial","32","","1,0","3:go_c","1",""
"null","","html-keyboard-response","649","942244","0.0-8.0-2.22","","<div style=""font-size:60px;"">+</div>","null","","","","","","",""
"686.3499999999767","","image-keyboard-response","650","942931","0.0-8.0-0.23","","img/grey.png","32","trial","32","true","0.8,0.2","1:go_a","",""
"null","","html-keyboard-response","651","943932","0.0-8.0-1.23","","<img src=""img/grey-n.png"" border=""10"">","null","trial","32","","0.8,0.2","1:go_a","0",""
"null","","html-keyboard-response","652","944932","0.0-8.0-2.23","","<div style=""font-size:60px;"">+</div>","null","","","","","","",""
"null","","image-keyboard-response","653","946433","0.0-8.0-0.24","","img/orange.png","null","trial","null","true","0.2,0.8","2:nogo_b","",""
"null","","html-keyboard-response","654","947434","0.0-8.0-1.24","","<img src=""img/orange-r.png"">","null","trial","null","","0.2,0.8","2:nogo_b","1",""
"null","","html-keyboard-response","655","948434","0.0-8.0-2.24","","<div style=""font-size:60px;"">+</div>","null","","","","","","",""
"null","","image-keyboard-response","656","949935","0.0-8.0-0.25","","img/pink.png","null","trial","null","true","0,1","4:nogo_d","",""
"null","","html-keyboard-response","657","950936","0.0-8.0-1.25","","<img src=""img/pink-r.png"">","null","trial","null","","0,1","4:nogo_d","1",""
"null","","html-keyboard-response","658","951936","0.0-8.0-2.25","","<div style=""font-size:60px;"">+</div>","null","","","","","","",""
"617.6750000013271","","image-keyboard-response","659","952555","0.0-8.0-0.26","","img/yellow.png","32","trial","32","true","1,0","3:go_c","",""
"null","","html-keyboard-response","660","953555","0.0-8.0-1.26","","<img src=""img/yellow-r.png"" border=""10"">","null","trial","32","","1,0","3:go_c","1",""
"null","","html-keyboard-response","661","954556","0.0-8.0-2.26","","<div style=""font-size:60px;"">+</div>","null","","","","","","",""
"630.6750000002794","","image-keyboard-response","662","955187","0.0-8.0-0.27","","img/grey.png","32","trial","32","true","0.8,0.2","1:go_a","",""
"null","","html-keyboard-response","663","956188","0.0-8.0-1.27","","<img src=""img/grey-n.png"" border=""10"">","null","trial","32","","0.8,0.2","1:go_a","0",""
"null","","html-keyboard-response","664","957188","0.0-8.0-2.27","","<div style=""font-size:60px;"">+</div>","null","","","","","","",""
"null","","image-keyboard-response","665","958689","0.0-8.0-0.28","","img/orange.png","null","trial","null","true","0.2,0.8","2:nogo_b","",""
"null","","html-keyboard-response","666","959690","0.0-8.0-1.28","","<img src=""img/orange-r.png"">","null","trial","null","","0.2,0.8","2:nogo_b","1",""
"null","","html-keyboard-response","667","960690","0.0-8.0-2.28","","<div style=""font-size:60px;"">+</div>","null","","","","","","",""
"610.0950000000885","","image-keyboard-response","668","961301","0.0-8.0-0.29","","img/grey.png","32","trial","32","true","0.8,0.2","1:go_a","",""
"null","","html-keyboard-response","669","962302","0.0-8.0-1.29","","<img src=""img/grey-r.png"" border=""10"">","null","trial","32","","0.8,0.2","1:go_a","1",""
"null","","html-keyboard-response","670","963302","0.0-8.0-2.29","","<div style=""font-size:60px;"">+</div>","null","","","","","","",""
"464.48000000056345","","image-keyboard-response","671","963767","0.0-8.0-0.30","","img/yellow.png","32","trial","32","true","1,0","3:go_c","",""
"null","","html-keyboard-response","672","964768","0.0-8.0-1.30","","<img src=""img/yellow-r.png"" border=""10"">","null","trial","32","","1,0","3:go_c","1",""
"null","","html-keyboard-response","673","965769","0.0-8.0-2.30","","<div style=""font-size:60px;"">+</div>","null","","","","","","",""
"null","","image-keyboard-response","674","967269","0.0-8.0-0.31","","img/pink.png","null","trial","null","true","0,1","4:nogo_d","",""
"null","","html-keyboard-response","675","968270","0.0-8.0-1.31","","<img src=""img/pink-r.png"">","null","trial","null","","0,1","4:nogo_d","1",""
"null","","html-keyboard-response","676","969271","0.0-8.0-2.31","","<div style=""font-size:60px;"">+</div>","null","","","","","","",""
"null","","image-keyboard-response","677","970771","0.0-8.0-0.32","","img/pink.png","null","trial","null","true","0,1","4:nogo_d","",""
"null","","html-keyboard-response","678","971772","0.0-8.0-1.32","","<img src=""img/pink-r.png"">","null","trial","null","","0,1","4:nogo_d","1",""
"null","","html-keyboard-response","679","972772","0.0-8.0-2.32","","<div style=""font-size:60px;"">+</div>","null","","","","","","",""
"null","","image-keyboard-response","680","974273","0.0-8.0-0.33","","img/orange.png","null","trial","null","true","0.2,0.8","2:nogo_b","",""
"null","","html-keyboard-response","681","975274","0.0-8.0-1.33","","<img src=""img/orange-r.png"">","null","trial","null","","0.2,0.8","2:nogo_b","1",""
"null","","html-keyboard-response","682","976274","0.0-8.0-2.33","","<div style=""font-size:60px;"">+</div>","null","","","","","","",""
