"rt","url","trial_type","trial_index","time_elapsed","internal_node_id","view_history","stimulus","key_press","test_part","correct_response","correct","use_rew","which_stim","reward","responses"
"118973.74000000127","consent.html","external-html","0","119460","0.0-0.0","","","","","","","","","",""
"91152.54500000447","","instructions","1","210622","0.0-1.0","[{""page_index"":0,""viewing_time"":2959.2050000064773},{""page_index"":1,""viewing_time"":25472.054999991087},{""page_index"":2,""viewing_time"":4591.500000009546},{""page_index"":3,""viewing_time"":20016.90499999677},{""page_index"":4,""viewing_time"":22089.844999994966},{""page_index"":5,""viewing_time"":4823.250000001281},{""page_index"":6,""viewing_time"":11191.995000001043}]","","","","","","","","",""
"null","","image-keyboard-response","2","212134","0.0-2.0-0.0","","img/test3.PNG","null","practice","null","true","","","",""
"null","","html-keyboard-response","3","213144","0.0-2.0-1.0","","<img src=""img/test3-reward.PNG"">","null","","","","","","",""
"null","","html-keyboard-response","4","214149","0.0-2.0-2.0","","<div style=""font-size:60px;"">+</div>","null","","","","","","",""
"505.56000000506174","","image-keyboard-response","5","214660","0.0-2.0-0.1","","img/test1.PNG","32","practice","32","true","","","",""
"null","","html-keyboard-response","6","215667","0.0-2.0-1.1","","<img src=""img/test1-reward.PNG"" border=""10px; grey"">","null","","","","","","",""
"null","","html-keyboard-response","7","216673","0.0-2.0-2.1","","<div style=""font-size:60px;"">+</div>","null","","","","","","",""
"null","","image-keyboard-response","8","218176","0.0-2.0-0.2","","img/test2.PNG","null","practice","null","true","","","",""
"null","","html-keyboard-response","9","219183","0.0-2.0-1.2","","<img src=""img/test2-reward.PNG"">","null","","","","","","",""
"null","","html-keyboard-response","10","220186","0.0-2.0-2.2","","<div style=""font-size:60px;"">+</div>","null","","","","","","",""
"null","","image-keyboard-response","11","221693","0.0-2.0-0.3","","img/test3.PNG","null","practice","null","true","","","",""
"null","","html-keyboard-response","12","222699","0.0-2.0-1.3","","<img src=""img/test3-reward.PNG"">","null","","","","","","",""
"null","","html-keyboard-response","13","223703","0.0-2.0-2.3","","<div style=""font-size:60px;"">+</div>","null","","","","","","",""
"null","","image-keyboard-response","14","225209","0.0-2.0-0.4","","img/test2.PNG","null","practice","null","true","","","",""
"null","","html-keyboard-response","15","226212","0.0-2.0-1.4","","<img src=""img/test2-reward.PNG"">","null","","","","","","",""
"null","","html-keyboard-response","16","227215","0.0-2.0-2.4","","<div style=""font-size:60px;"">+</div>","null","","","","","","",""
"390.37500000267755","","image-keyboard-response","17","227610","0.0-2.0-0.5","","img/test1.PNG","32","practice","32","true","","","",""
"null","","html-keyboard-response","18","228615","0.0-2.0-1.5","","<img src=""img/test1-reward.PNG"" border=""10px; grey"">","null","","","","","","",""
"null","","html-keyboard-response","19","229619","0.0-2.0-2.5","","<div style=""font-size:60px;"">+</div>","null","","","","","","",""
"null","","image-keyboard-response","20","231125","0.0-2.0-0.6","","img/test2.PNG","null","practice","null","true","","","",""
"null","","html-keyboard-response","21","232130","0.0-2.0-1.6","","<img src=""img/test2-reward.PNG"">","null","","","","","","",""
"null","","html-keyboard-response","22","233133","0.0-2.0-2.6","","<div style=""font-size:60px;"">+</div>","null","","","","","","",""
"null","","image-keyboard-response","23","234640","0.0-2.0-0.7","","img/test3.PNG","null","practice","null","true","","","",""
"null","","html-keyboard-response","24","235646","0.0-2.0-1.7","","<img src=""img/test3-reward.PNG"">","null","","","","","","",""
"null","","html-keyboard-response","25","236649","0.0-2.0-2.7","","<div style=""font-size:60px;"">+</div>","null","","","","","","",""
"316.60000000556465","","image-keyboard-response","26","236970","0.0-2.0-0.8","","img/test1.PNG","32","practice","32","true","","","",""
"null","","html-keyboard-response","27","237976","0.0-2.0-1.8","","<img src=""img/test1-reward.PNG"" border=""10px; grey"">","null","","","","","","",""
"null","","html-keyboard-response","28","238979","0.0-2.0-2.8","","<div style=""font-size:60px;"">+</div>","null","","","","","","",""
"1326.5549999923678","","image-keyboard-response","29","240310","0.0-2.0-0.9","","img/test1.PNG","32","practice","32","true","","","",""
"null","","html-keyboard-response","30","241315","0.0-2.0-1.9","","<img src=""img/test1-reward.PNG"" border=""10px; grey"">","null","","","","","","",""
"null","","html-keyboard-response","31","242318","0.0-2.0-2.9","","<div style=""font-size:60px;"">+</div>","null","","","","","","",""
"null","","image-keyboard-response","32","243823","0.0-2.0-0.10","","img/test3.PNG","null","practice","null","true","","","",""
"null","","html-keyboard-response","33","244827","0.0-2.0-1.10","","<img src=""img/test3-reward.PNG"">","null","","","","","","",""
"null","","html-keyboard-response","34","245831","0.0-2.0-2.10","","<div style=""font-size:60px;"">+</div>","null","","","","","","",""
"null","","image-keyboard-response","35","247338","0.0-2.0-0.11","","img/test2.PNG","null","practice","null","true","","","",""
"null","","html-keyboard-response","36","248344","0.0-2.0-1.11","","<img src=""img/test2-reward.PNG"">","null","","","","","","",""
"null","","html-keyboard-response","37","249347","0.0-2.0-2.11","","<div style=""font-size:60px;"">+</div>","null","","","","","","",""
"6060.935000001336","","instructions","38","255410","0.0-3.0","[{""page_index"":0,""viewing_time"":6059.150000000955}]","","","","","","","","",""
"903.3150000032037","","image-keyboard-response","39","256320","0.0-4.0-0.0","","img/grey.png","32","trial","32","true","0.8,0.2","1:go_a","",""
"null","","html-keyboard-response","40","257331","0.0-4.0-1.0","","<img src=""img/grey-r.png"" border=""10"">","null","trial","32","","0.8,0.2","1:go_a","1",""
"null","","html-keyboard-response","41","258338","0.0-4.0-2.0","","<div style=""font-size:60px;"">+</div>","null","","","","","","",""
"648.1449999992037","","image-keyboard-response","42","258991","0.0-4.0-0.1","","img/pink.png","32","trial","null","false","0.2,0.8","2:nogo_b","",""
"null","","html-keyboard-response","43","259999","0.0-4.0-1.1","","<img src=""img/pink-n.png"" border=""10"">","null","trial","null","","0.2,0.8","2:nogo_b","0",""
"null","","html-keyboard-response","44","261004","0.0-4.0-2.1","","<div style=""font-size:60px;"">+</div>","null","","","","","","",""
"488.14499999571126","","image-keyboard-response","45","261497","0.0-4.0-0.2","","img/grey.png","32","trial","32","true","0.8,0.2","1:go_a","",""
"null","","html-keyboard-response","46","262518","0.0-4.0-1.2","","<img src=""img/grey-r.png"" border=""10"">","null","trial","32","","0.8,0.2","1:go_a","1",""
"null","","html-keyboard-response","47","263522","0.0-4.0-2.2","","<div style=""font-size:60px;"">+</div>","null","","","","","","",""
"null","","image-keyboard-response","48","265026","0.0-4.0-0.3","","img/pink.png","null","trial","null","true","0.2,0.8","2:nogo_b","",""
"null","","html-keyboard-response","49","266035","0.0-4.0-1.3","","<img src=""img/pink-r.png"">","null","trial","null","","0.2,0.8","2:nogo_b","1",""
"null","","html-keyboard-response","50","267043","0.0-4.0-2.3","","<div style=""font-size:60px;"">+</div>","null","","","","","","",""
"660.8149999956368","","image-keyboard-response","51","267708","0.0-4.0-0.4","","img/grey.png","32","trial","32","true","0.8,0.2","1:go_a","",""
"null","","html-keyboard-response","52","268714","0.0-4.0-1.4","","<img src=""img/grey-r.png"" border=""10"">","null","trial","32","","0.8,0.2","1:go_a","1",""
"null","","html-keyboard-response","53","269719","0.0-4.0-2.4","","<div style=""font-size:60px;"">+</div>","null","","","","","","",""
"null","","image-keyboard-response","54","271223","0.0-4.0-0.5","","img/pink.png","null","trial","null","true","0.2,0.8","2:nogo_b","",""
"null","","html-keyboard-response","55","272231","0.0-4.0-1.5","","<img src=""img/pink-r.png"">","null","trial","null","","0.2,0.8","2:nogo_b","1",""
"null","","html-keyboard-response","56","273235","0.0-4.0-2.5","","<div style=""font-size:60px;"">+</div>","null","","","","","","",""
"null","","image-keyboard-response","57","274740","0.0-4.0-0.6","","img/pink.png","null","trial","null","true","0.2,0.8","2:nogo_b","",""
"null","","html-keyboard-response","58","275746","0.0-4.0-1.6","","<img src=""img/pink-n.png"">","null","trial","null","","0.2,0.8","2:nogo_b","0",""
"null","","html-keyboard-response","59","276751","0.0-4.0-2.6","","<div style=""font-size:60px;"">+</div>","null","","","","","","",""
"578.494999994291","","image-keyboard-response","60","277334","0.0-4.0-0.7","","img/grey.png","32","trial","32","true","0.8,0.2","1:go_a","",""
"null","","html-keyboard-response","61","278342","0.0-4.0-1.7","","<img src=""img/grey-r.png"" border=""10"">","null","trial","32","","0.8,0.2","1:go_a","1",""
"null","","html-keyboard-response","62","279346","0.0-4.0-2.7","","<div style=""font-size:60px;"">+</div>","null","","","","","","",""
"null","","image-keyboard-response","63","280858","0.0-4.0-0.8","","img/pink.png","null","trial","null","true","0.2,0.8","2:nogo_b","",""
"null","","html-keyboard-response","64","281867","0.0-4.0-1.8","","<img src=""img/pink-r.png"">","null","trial","null","","0.2,0.8","2:nogo_b","1",""
"null","","html-keyboard-response","65","282871","0.0-4.0-2.8","","<div style=""font-size:60px;"">+</div>","null","","","","","","",""
"328.639999992447","","image-keyboard-response","66","283206","0.0-4.0-0.9","","img/grey.png","32","trial","32","true","0.8,0.2","1:go_a","",""
"null","","html-keyboard-response","67","284214","0.0-4.0-1.9","","<img src=""img/grey-r.png"" border=""10"">","null","trial","32","","0.8,0.2","1:go_a","1",""
"null","","html-keyboard-response","68","285218","0.0-4.0-2.9","","<div style=""font-size:60px;"">+</div>","null","","","","","","",""
"402.0699999964563","","image-keyboard-response","69","285626","0.0-4.0-0.10","","img/grey.png","32","trial","32","true","0.8,0.2","1:go_a","",""
"null","","html-keyboard-response","70","286644","0.0-4.0-1.10","","<img src=""img/grey-n.png"" border=""10"">","null","trial","32","","0.8,0.2","1:go_a","0",""
"null","","html-keyboard-response","71","287649","0.0-4.0-2.10","","<div style=""font-size:60px;"">+</div>","null","","","","","","",""
"null","","image-keyboard-response","72","289154","0.0-4.0-0.11","","img/pink.png","null","trial","null","true","0.2,0.8","2:nogo_b","",""
"null","","html-keyboard-response","73","290161","0.0-4.0-1.11","","<img src=""img/pink-r.png"">","null","trial","null","","0.2,0.8","2:nogo_b","1",""
"null","","html-keyboard-response","74","291166","0.0-4.0-2.11","","<div style=""font-size:60px;"">+</div>","null","","","","","","",""
"null","","image-keyboard-response","75","292670","0.0-4.0-0.12","","img/pink.png","null","trial","null","true","0.2,0.8","2:nogo_b","",""
"null","","html-keyboard-response","76","293686","0.0-4.0-1.12","","<img src=""img/pink-r.png"">","null","trial","null","","0.2,0.8","2:nogo_b","1",""
"null","","html-keyboard-response","77","294691","0.0-4.0-2.12","","<div style=""font-size:60px;"">+</div>","null","","","","","","",""
"364.25500000768807","","image-keyboard-response","78","295060","0.0-4.0-0.13","","img/grey.png","32","trial","32","true","0.8,0.2","1:go_a","",""
"null","","html-keyboard-response","79","296069","0.0-4.0-1.13","","<img src=""img/grey-r.png"" border=""10"">","null","trial","32","","0.8,0.2","1:go_a","1",""
"null","","html-keyboard-response","80","297073","0.0-4.0-2.13","","<div style=""font-size:60px;"">+</div>","null","","","","","","",""
"369.55000000307336","","image-keyboard-response","81","297447","0.0-4.0-0.14","","img/grey.png","32","trial","32","true","0.8,0.2","1:go_a","",""
"null","","html-keyboard-response","82","298463","0.0-4.0-1.14","","<img src=""img/grey-n.png"" border=""10"">","null","trial","32","","0.8,0.2","1:go_a","0",""
"null","","html-keyboard-response","83","299467","0.0-4.0-2.14","","<div style=""font-size:60px;"">+</div>","null","","","","","","",""
"null","","image-keyboard-response","84","300971","0.0-4.0-0.15","","img/pink.png","null","trial","null","true","0.2,0.8","2:nogo_b","",""
"null","","html-keyboard-response","85","301978","0.0-4.0-1.15","","<img src=""img/pink-r.png"">","null","trial","null","","0.2,0.8","2:nogo_b","1",""
"null","","html-keyboard-response","86","302981","0.0-4.0-2.15","","<div style=""font-size:60px;"">+</div>","null","","","","","","",""
"null","","image-keyboard-response","87","304484","0.0-4.0-0.16","","img/pink.png","null","trial","null","true","0.2,0.8","2:nogo_b","",""
"null","","html-keyboard-response","88","305491","0.0-4.0-1.16","","<img src=""img/pink-r.png"">","null","trial","null","","0.2,0.8","2:nogo_b","1",""
"null","","html-keyboard-response","89","306496","0.0-4.0-2.16","","<div style=""font-size:60px;"">+</div>","null","","","","","","",""
"354.525000002468","","image-keyboard-response","90","306853","0.0-4.0-0.17","","img/grey.png","32","trial","32","true","0.8,0.2","1:go_a","",""
"null","","html-keyboard-response","91","307863","0.0-4.0-1.17","","<img src=""img/grey-r.png"" border=""10"">","null","trial","32","","0.8,0.2","1:go_a","1",""
"null","","html-keyboard-response","92","308868","0.0-4.0-2.17","","<div style=""font-size:60px;"">+</div>","null","","","","","","",""
"null","","image-keyboard-response","93","310373","0.0-4.0-0.18","","img/pink.png","null","trial","null","true","0.2,0.8","2:nogo_b","",""
"null","","html-keyboard-response","94","311382","0.0-4.0-1.18","","<img src=""img/pink-r.png"">","null","trial","null","","0.2,0.8","2:nogo_b","1",""
"null","","html-keyboard-response","95","312386","0.0-4.0-2.18","","<div style=""font-size:60px;"">+</div>","null","","","","","","",""
"430.88499999430496","","image-keyboard-response","96","312819","0.0-4.0-0.19","","img/grey.png","32","trial","32","true","0.8,0.2","1:go_a","",""
"null","","html-keyboard-response","97","313827","0.0-4.0-1.19","","<img src=""img/grey-r.png"" border=""10"">","null","trial","32","","0.8,0.2","1:go_a","1",""
"null","","html-keyboard-response","98","314831","0.0-4.0-2.19","","<div style=""font-size:60px;"">+</div>","null","","","","","","",""
"null","","image-keyboard-response","99","316336","0.0-4.0-0.20","","img/pink.png","null","trial","null","true","0.2,0.8","2:nogo_b","",""
"null","","html-keyboard-response","100","317343","0.0-4.0-1.20","","<img src=""img/pink-r.png"">","null","trial","null","","0.2,0.8","2:nogo_b","1",""
"null","","html-keyboard-response","101","318347","0.0-4.0-2.20","","<div style=""font-size:60px;"">+</div>","null","","","","","","",""
"345.04000000015367","","image-keyboard-response","102","318697","0.0-4.0-0.21","","img/grey.png","32","trial","32","true","0.8,0.2","1:go_a","",""
"null","","html-keyboard-response","103","319703","0.0-4.0-1.21","","<img src=""img/grey-r.png"" border=""10"">","null","trial","32","","0.8,0.2","1:go_a","1",""
"null","","html-keyboard-response","104","320707","0.0-4.0-2.21","","<div style=""font-size:60px;"">+</div>","null","","","","","","",""
"null","","image-keyboard-response","105","322210","0.0-4.0-0.22","","img/pink.png","null","trial","null","true","0.2,0.8","2:nogo_b","",""
"null","","html-keyboard-response","106","323218","0.0-4.0-1.22","","<img src=""img/pink-n.png"">","null","trial","null","","0.2,0.8","2:nogo_b","0",""
"null","","html-keyboard-response","107","324221","0.0-4.0-2.22","","<div style=""font-size:60px;"">+</div>","null","","","","","","",""
"413.07000000961125","","image-keyboard-response","108","324638","0.0-4.0-0.23","","img/grey.png","32","trial","32","true","0.8,0.2","1:go_a","",""
"null","","html-keyboard-response","109","325645","0.0-4.0-1.23","","<img src=""img/grey-r.png"" border=""10"">","null","trial","32","","0.8,0.2","1:go_a","1",""
"null","","html-keyboard-response","110","326650","0.0-4.0-2.23","","<div style=""font-size:60px;"">+</div>","null","","","","","","",""
"636.1450000113109","","image-keyboard-response","111","327291","0.0-4.0-0.24","","img/grey.png","32","trial","32","true","0.8,0.2","1:go_a","",""
"null","","html-keyboard-response","112","328298","0.0-4.0-1.24","","<img src=""img/grey-r.png"" border=""10"">","null","trial","32","","0.8,0.2","1:go_a","1",""
"null","","html-keyboard-response","113","329302","0.0-4.0-2.24","","<div style=""font-size:60px;"">+</div>","null","","","","","","",""
"null","","image-keyboard-response","114","330805","0.0-4.0-0.25","","img/pink.png","null","trial","null","true","0.2,0.8","2:nogo_b","",""
"null","","html-keyboard-response","115","331818","0.0-4.0-1.25","","<img src=""img/pink-n.png"">","null","trial","null","","0.2,0.8","2:nogo_b","0",""
"null","","html-keyboard-response","116","332822","0.0-4.0-2.25","","<div style=""font-size:60px;"">+</div>","null","","","","","","",""
"null","","image-keyboard-response","117","334326","0.0-4.0-0.26","","img/pink.png","null","trial","null","true","0.2,0.8","2:nogo_b","",""
"null","","html-keyboard-response","118","335335","0.0-4.0-1.26","","<img src=""img/pink-r.png"">","null","trial","null","","0.2,0.8","2:nogo_b","1",""
"null","","html-keyboard-response","119","336341","0.0-4.0-2.26","","<div style=""font-size:60px;"">+</div>","null","","","","","","",""
"574.865000002319","","image-keyboard-response","120","336918","0.0-4.0-0.27","","img/grey.png","32","trial","32","true","0.8,0.2","1:go_a","",""
"null","","html-keyboard-response","121","337925","0.0-4.0-1.27","","<img src=""img/grey-r.png"" border=""10"">","null","trial","32","","0.8,0.2","1:go_a","1",""
"null","","html-keyboard-response","122","338929","0.0-4.0-2.27","","<div style=""font-size:60px;"">+</div>","null","","","","","","",""
"null","","image-keyboard-response","123","340433","0.0-4.0-0.28","","img/pink.png","null","trial","null","true","0.2,0.8","2:nogo_b","",""
"null","","html-keyboard-response","124","341440","0.0-4.0-1.28","","<img src=""img/pink-r.png"">","null","trial","null","","0.2,0.8","2:nogo_b","1",""
"null","","html-keyboard-response","125","342444","0.0-4.0-2.28","","<div style=""font-size:60px;"">+</div>","null","","","","","","",""
"379.1800000035437","","image-keyboard-response","126","342827","0.0-4.0-0.29","","img/grey.png","32","trial","32","true","0.8,0.2","1:go_a","",""
"null","","html-keyboard-response","127","343834","0.0-4.0-1.29","","<img src=""img/grey-r.png"" border=""10"">","null","trial","32","","0.8,0.2","1:go_a","1",""
"null","","html-keyboard-response","128","344838","0.0-4.0-2.29","","<div style=""font-size:60px;"">+</div>","null","","","","","","",""
"539.2549999960465","","image-keyboard-response","129","345381","0.0-4.0-0.30","","img/grey.png","32","trial","32","true","0.8,0.2","1:go_a","",""
"null","","html-keyboard-response","130","346388","0.0-4.0-1.30","","<img src=""img/grey-r.png"" border=""10"">","null","trial","32","","0.8,0.2","1:go_a","1",""
"null","","html-keyboard-response","131","347392","0.0-4.0-2.30","","<div style=""font-size:60px;"">+</div>","null","","","","","","",""
"null","","image-keyboard-response","132","348897","0.0-4.0-0.31","","img/pink.png","null","trial","null","true","0.2,0.8","2:nogo_b","",""
"null","","html-keyboard-response","133","349909","0.0-4.0-1.31","","<img src=""img/pink-r.png"">","null","trial","null","","0.2,0.8","2:nogo_b","1",""
"null","","html-keyboard-response","134","350914","0.0-4.0-2.31","","<div style=""font-size:60px;"">+</div>","null","","","","","","",""
"312.03000000095926","","image-keyboard-response","135","351230","0.0-4.0-0.32","","img/grey.png","32","trial","32","true","0.8,0.2","1:go_a","",""
"null","","html-keyboard-response","136","352237","0.0-4.0-1.32","","<img src=""img/grey-r.png"" border=""10"">","null","trial","32","","0.8,0.2","1:go_a","1",""
"null","","html-keyboard-response","137","353242","0.0-4.0-2.32","","<div style=""font-size:60px;"">+</div>","null","","","","","","",""
"null","","image-keyboard-response","138","354746","0.0-4.0-0.33","","img/pink.png","null","trial","null","true","0.2,0.8","2:nogo_b","",""
"null","","html-keyboard-response","139","355755","0.0-4.0-1.33","","<img src=""img/pink-r.png"">","null","trial","null","","0.2,0.8","2:nogo_b","1",""
"null","","html-keyboard-response","140","356759","0.0-4.0-2.33","","<div style=""font-size:60px;"">+</div>","null","","","","","","",""
"463.6400000017602","","image-keyboard-response","141","357226","0.0-4.0-0.34","","img/grey.png","32","trial","32","true","0.8,0.2","1:go_a","",""
"null","","html-keyboard-response","142","358234","0.0-4.0-1.34","","<img src=""img/grey-r.png"" border=""10"">","null","trial","32","","0.8,0.2","1:go_a","1",""
"null","","html-keyboard-response","143","359238","0.0-4.0-2.34","","<div style=""font-size:60px;"">+</div>","null","","","","","","",""
"null","","image-keyboard-response","144","360744","0.0-4.0-0.35","","img/pink.png","null","trial","null","true","0.2,0.8","2:nogo_b","",""
"null","","html-keyboard-response","145","361751","0.0-4.0-1.35","","<img src=""img/pink-r.png"">","null","trial","null","","0.2,0.8","2:nogo_b","1",""
"null","","html-keyboard-response","146","362755","0.0-4.0-2.35","","<div style=""font-size:60px;"">+</div>","null","","","","","","",""
"371.47500000719447","","image-keyboard-response","147","363129","0.0-4.0-0.36","","img/grey.png","32","trial","32","true","0.8,0.2","1:go_a","",""
"null","","html-keyboard-response","148","364137","0.0-4.0-1.36","","<img src=""img/grey-r.png"" border=""10"">","null","trial","32","","0.8,0.2","1:go_a","1",""
"null","","html-keyboard-response","149","365142","0.0-4.0-2.36","","<div style=""font-size:60px;"">+</div>","null","","","","","","",""
"null","","image-keyboard-response","150","366646","0.0-4.0-0.37","","img/pink.png","null","trial","null","true","0.2,0.8","2:nogo_b","",""
"null","","html-keyboard-response","151","367654","0.0-4.0-1.37","","<img src=""img/pink-r.png"">","null","trial","null","","0.2,0.8","2:nogo_b","1",""
"null","","html-keyboard-response","152","368657","0.0-4.0-2.37","","<div style=""font-size:60px;"">+</div>","null","","","","","","",""
"null","","image-keyboard-response","153","370161","0.0-4.0-0.38","","img/pink.png","null","trial","null","true","0.2,0.8","2:nogo_b","",""
"null","","html-keyboard-response","154","371170","0.0-4.0-1.38","","<img src=""img/pink-n.png"">","null","trial","null","","0.2,0.8","2:nogo_b","0",""
"null","","html-keyboard-response","155","372182","0.0-4.0-2.38","","<div style=""font-size:60px;"">+</div>","null","","","","","","",""
"426.16000000271015","","image-keyboard-response","156","372613","0.0-4.0-0.39","","img/grey.png","32","trial","32","true","0.8,0.2","1:go_a","",""
"null","","html-keyboard-response","157","373620","0.0-4.0-1.39","","<img src=""img/grey-r.png"" border=""10"">","null","trial","32","","0.8,0.2","1:go_a","1",""
"null","","html-keyboard-response","158","374624","0.0-4.0-2.39","","<div style=""font-size:60px;"">+</div>","null","","","","","","",""
"528.9800000027753","","image-keyboard-response","159","375157","0.0-4.0-0.40","","img/grey.png","32","trial","32","true","0.8,0.2","1:go_a","",""
"null","","html-keyboard-response","160","376164","0.0-4.0-1.40","","<img src=""img/grey-r.png"" border=""10"">","null","trial","32","","0.8,0.2","1:go_a","1",""
"null","","html-keyboard-response","161","377169","0.0-4.0-2.40","","<div style=""font-size:60px;"">+</div>","null","","","","","","",""
"null","","image-keyboard-response","162","378674","0.0-4.0-0.41","","img/pink.png","null","trial","null","true","0.2,0.8","2:nogo_b","",""
"null","","html-keyboard-response","163","379681","0.0-4.0-1.41","","<img src=""img/pink-r.png"">","null","trial","null","","0.2,0.8","2:nogo_b","1",""
"null","","html-keyboard-response","164","380684","0.0-4.0-2.41","","<div style=""font-size:60px;"">+</div>","null","","","","","","",""
"443.74500001140404","","image-keyboard-response","165","381132","0.0-4.0-0.42","","img/grey.png","32","trial","32","true","0.8,0.2","1:go_a","",""
"null","","html-keyboard-response","166","382140","0.0-4.0-1.42","","<img src=""img/grey-r.png"" border=""10"">","null","trial","32","","0.8,0.2","1:go_a","1",""
"null","","html-keyboard-response","167","383145","0.0-4.0-2.42","","<div style=""font-size:60px;"">+</div>","null","","","","","","",""
"null","","image-keyboard-response","168","384650","0.0-4.0-0.43","","img/pink.png","null","trial","null","true","0.2,0.8","2:nogo_b","",""
"null","","html-keyboard-response","169","385658","0.0-4.0-1.43","","<img src=""img/pink-r.png"">","null","trial","null","","0.2,0.8","2:nogo_b","1",""
"null","","html-keyboard-response","170","386663","0.0-4.0-2.43","","<div style=""font-size:60px;"">+</div>","null","","","","","","",""
"314.07999999646563","","image-keyboard-response","171","386981","0.0-4.0-0.44","","img/grey.png","32","trial","32","true","0.8,0.2","1:go_a","",""
"null","","html-keyboard-response","172","387990","0.0-4.0-1.44","","<img src=""img/grey-n.png"" border=""10"">","null","trial","32","","0.8,0.2","1:go_a","0",""
"null","","html-keyboard-response","173","388996","0.0-4.0-2.44","","<div style=""font-size:60px;"">+</div>","null","","","","","","",""
"null","","image-keyboard-response","174","390501","0.0-4.0-0.45","","img/pink.png","null","trial","null","true","0.2,0.8","2:nogo_b","",""
"null","","html-keyboard-response","175","391509","0.0-4.0-1.45","","<img src=""img/pink-r.png"">","null","trial","null","","0.2,0.8","2:nogo_b","1",""
"null","","html-keyboard-response","176","392512","0.0-4.0-2.45","","<div style=""font-size:60px;"">+</div>","null","","","","","","",""
"417.1000000060303","","image-keyboard-response","177","392934","0.0-4.0-0.46","","img/grey.png","32","trial","32","true","0.8,0.2","1:go_a","",""
"null","","html-keyboard-response","178","393940","0.0-4.0-1.46","","<img src=""img/grey-r.png"" border=""10"">","null","trial","32","","0.8,0.2","1:go_a","1",""
"null","","html-keyboard-response","179","394945","0.0-4.0-2.46","","<div style=""font-size:60px;"">+</div>","null","","","","","","",""
"null","","image-keyboard-response","180","396448","0.0-4.0-0.47","","img/pink.png","null","trial","null","true","0.2,0.8","2:nogo_b","",""
"null","","html-keyboard-response","181","397460","0.0-4.0-1.47","","<img src=""img/pink-n.png"">","null","trial","null","","0.2,0.8","2:nogo_b","0",""
"null","","html-keyboard-response","182","398465","0.0-4.0-2.47","","<div style=""font-size:60px;"">+</div>","null","","","","","","",""
"381.52999999874737","","image-keyboard-response","183","398850","0.0-4.0-0.48","","img/grey.png","32","trial","32","true","0.8,0.2","1:go_a","",""
"null","","html-keyboard-response","184","399854","0.0-4.0-1.48","","<img src=""img/grey-r.png"" border=""10"">","null","trial","32","","0.8,0.2","1:go_a","1",""
"null","","html-keyboard-response","185","400858","0.0-4.0-2.48","","<div style=""font-size:60px;"">+</div>","null","","","","","","",""
"null","","image-keyboard-response","186","402362","0.0-4.0-0.49","","img/pink.png","null","trial","null","true","0.2,0.8","2:nogo_b","",""
"null","","html-keyboard-response","187","403371","0.0-4.0-1.49","","<img src=""img/pink-r.png"">","null","trial","null","","0.2,0.8","2:nogo_b","1",""
"null","","html-keyboard-response","188","404375","0.0-4.0-2.49","","<div style=""font-size:60px;"">+</div>","null","","","","","","",""
"null","","image-keyboard-response","189","405880","0.0-4.0-0.50","","img/pink.png","null","trial","null","true","0.2,0.8","2:nogo_b","",""
"null","","html-keyboard-response","190","406888","0.0-4.0-1.50","","<img src=""img/pink-r.png"">","null","trial","null","","0.2,0.8","2:nogo_b","1",""
"null","","html-keyboard-response","191","407892","0.0-4.0-2.50","","<div style=""font-size:60px;"">+</div>","null","","","","","","",""
"432.7649999904679","","image-keyboard-response","192","408328","0.0-4.0-0.51","","img/grey.png","32","trial","32","true","0.8,0.2","1:go_a","",""
"null","","html-keyboard-response","193","409335","0.0-4.0-1.51","","<img src=""img/grey-n.png"" border=""10"">","null","trial","32","","0.8,0.2","1:go_a","0",""
"null","","html-keyboard-response","194","410339","0.0-4.0-2.51","","<div style=""font-size:60px;"">+</div>","null","","","","","","",""
"null","","image-keyboard-response","195","411844","0.0-4.0-0.52","","img/pink.png","null","trial","null","true","0.2,0.8","2:nogo_b","",""
"null","","html-keyboard-response","196","412851","0.0-4.0-1.52","","<img src=""img/pink-n.png"">","null","trial","null","","0.2,0.8","2:nogo_b","0",""
"null","","html-keyboard-response","197","413856","0.0-4.0-2.52","","<div style=""font-size:60px;"">+</div>","null","","","","","","",""
"361.66499998944346","","image-keyboard-response","198","414221","0.0-4.0-0.53","","img/grey.png","32","trial","32","true","0.8,0.2","1:go_a","",""
"null","","html-keyboard-response","199","415228","0.0-4.0-1.53","","<img src=""img/grey-r.png"" border=""10"">","null","trial","32","","0.8,0.2","1:go_a","1",""
"null","","html-keyboard-response","200","416233","0.0-4.0-2.53","","<div style=""font-size:60px;"">+</div>","null","","","","","","",""
"null","","image-keyboard-response","201","417737","0.0-4.0-0.54","","img/pink.png","null","trial","null","true","0.2,0.8","2:nogo_b","",""
"null","","html-keyboard-response","202","418744","0.0-4.0-1.54","","<img src=""img/pink-r.png"">","null","trial","null","","0.2,0.8","2:nogo_b","1",""
"null","","html-keyboard-response","203","419748","0.0-4.0-2.54","","<div style=""font-size:60px;"">+</div>","null","","","","","","",""
"334.1050000017276","","image-keyboard-response","204","420087","0.0-4.0-0.55","","img/grey.png","32","trial","32","true","0.8,0.2","1:go_a","",""
"null","","html-keyboard-response","205","421094","0.0-4.0-1.55","","<img src=""img/grey-n.png"" border=""10"">","null","trial","32","","0.8,0.2","1:go_a","0",""
"null","","html-keyboard-response","206","422098","0.0-4.0-2.55","","<div style=""font-size:60px;"">+</div>","null","","","","","","",""
"411.5449999953853","","image-keyboard-response","207","422514","0.0-4.0-0.56","","img/grey.png","32","trial","32","true","0.8,0.2","1:go_a","",""
"null","","html-keyboard-response","208","423522","0.0-4.0-1.56","","<img src=""img/grey-r.png"" border=""10"">","null","trial","32","","0.8,0.2","1:go_a","1",""
"null","","html-keyboard-response","209","424527","0.0-4.0-2.56","","<div style=""font-size:60px;"">+</div>","null","","","","","","",""
"null","","image-keyboard-response","210","426038","0.0-4.0-0.57","","img/pink.png","null","trial","null","true","0.2,0.8","2:nogo_b","",""
"null","","html-keyboard-response","211","427046","0.0-4.0-1.57","","<img src=""img/pink-r.png"">","null","trial","null","","0.2,0.8","2:nogo_b","1",""
"null","","html-keyboard-response","212","428051","0.0-4.0-2.57","","<div style=""font-size:60px;"">+</div>","null","","","","","","",""
"null","","image-keyboard-response","213","429554","0.0-4.0-0.58","","img/pink.png","null","trial","null","true","0.2,0.8","2:nogo_b","",""
"null","","html-keyboard-response","214","430562","0.0-4.0-1.58","","<img src=""img/pink-r.png"">","null","trial","null","","0.2,0.8","2:nogo_b","1",""
"null","","html-keyboard-response","215","431566","0.0-4.0-2.58","","<div style=""font-size:60px;"">+</div>","null","","","","","","",""
"334.21000000089407","","image-keyboard-response","216","431904","0.0-4.0-0.59","","img/grey.png","32","trial","32","true","0.8,0.2","1:go_a","",""
"null","","html-keyboard-response","217","432912","0.0-4.0-1.59","","<img src=""img/grey-n.png"" border=""10"">","null","trial","32","","0.8,0.2","1:go_a","0",""
"null","","html-keyboard-response","218","433916","0.0-4.0-2.59","","<div style=""font-size:60px;"">+</div>","null","","","","","","",""
"4296.014999999898","","instructions","219","438214","0.0-5.0","[{""page_index"":0,""viewing_time"":4295.0849999906495}]","","","","","","","","",""
"1071.990000011283","","image-keyboard-response","220","439293","0.0-6.0-0.0","","img/orange.png","32","trial","null","false","0.2,0.8","2:nogo_b","",""
"null","","html-keyboard-response","221","440302","0.0-6.0-1.0","","<img src=""img/orange-n.png"" border=""10"">","null","trial","null","","0.2,0.8","2:nogo_b","0",""
"null","","html-keyboard-response","222","441306","0.0-6.0-2.0","","<div style=""font-size:60px;"">+</div>","null","","","","","","",""
"450.7350000058068","","image-keyboard-response","223","441764","0.0-6.0-0.1","","img/red.png","32","trial","32","true","0.8,0.2","1:go_a","",""
"null","","html-keyboard-response","224","442772","0.0-6.0-1.1","","<img src=""img/red-r.png"" border=""10"">","null","trial","32","","0.8,0.2","1:go_a","1",""
"null","","html-keyboard-response","225","443776","0.0-6.0-2.1","","<div style=""font-size:60px;"">+</div>","null","","","","","","",""
"761.2450000015087","","image-keyboard-response","226","444540","0.0-6.0-0.2","","img/purple.png","32","trial","null","false","0.2,0.8","4:nogo_d","",""
"null","","html-keyboard-response","227","445547","0.0-6.0-1.2","","<img src=""img/purple-n.png"" border=""10"">","null","trial","null","","0.2,0.8","4:nogo_d","0",""
"null","","html-keyboard-response","228","446552","0.0-6.0-2.2","","<div style=""font-size:60px;"">+</div>","null","","","","","","",""
"807.2300000058021","","image-keyboard-response","229","447363","0.0-6.0-0.3","","img/green.png","32","trial","32","true","0.8,0.2","3:go_c","",""
"null","","html-keyboard-response","230","448372","0.0-6.0-1.3","","<img src=""img/green-r.png"" border=""10"">","null","trial","32","","0.8,0.2","3:go_c","1",""
"null","","html-keyboard-response","231","449376","0.0-6.0-2.3","","<div style=""font-size:60px;"">+</div>","null","","","","","","",""
"459.31999999447726","","image-keyboard-response","232","449838","0.0-6.0-0.4","","img/orange.png","32","trial","null","false","0.2,0.8","2:nogo_b","",""
"null","","html-keyboard-response","233","450846","0.0-6.0-1.4","","<img src=""img/orange-n.png"" border=""10"">","null","trial","null","","0.2,0.8","2:nogo_b","0",""
"null","","html-keyboard-response","234","451850","0.0-6.0-2.4","","<div style=""font-size:60px;"">+</div>","null","","","","","","",""
"752.5000000023283","","image-keyboard-response","235","452606","0.0-6.0-0.5","","img/green.png","32","trial","32","true","0.8,0.2","3:go_c","",""
"null","","html-keyboard-response","236","453614","0.0-6.0-1.5","","<img src=""img/green-r.png"" border=""10"">","null","trial","32","","0.8,0.2","3:go_c","1",""
"null","","html-keyboard-response","237","454619","0.0-6.0-2.5","","<div style=""font-size:60px;"">+</div>","null","","","","","","",""
"null","","image-keyboard-response","238","456123","0.0-6.0-0.6","","img/red.png","null","trial","32","false","0.8,0.2","1:go_a","",""
"null","","html-keyboard-response","239","457132","0.0-6.0-1.6","","<img src=""img/red-n.png"">","null","trial","32","","0.8,0.2","1:go_a","0",""
"null","","html-keyboard-response","240","458136","0.0-6.0-2.6","","<div style=""font-size:60px;"">+</div>","null","","","","","","",""
"null","","image-keyboard-response","241","459640","0.0-6.0-0.7","","img/purple.png","null","trial","null","true","0.2,0.8","4:nogo_d","",""
"null","","html-keyboard-response","242","460649","0.0-6.0-1.7","","<img src=""img/purple-r.png"">","null","trial","null","","0.2,0.8","4:nogo_d","1",""
"null","","html-keyboard-response","243","461653","0.0-6.0-2.7","","<div style=""font-size:60px;"">+</div>","null","","","","","","",""
"476.6549999912968","","image-keyboard-response","244","462134","0.0-6.0-0.8","","img/red.png","32","trial","32","true","0.8,0.2","1:go_a","",""
"null","","html-keyboard-response","245","463142","0.0-6.0-1.8","","<img src=""img/red-r.png"" border=""10"">","null","trial","32","","0.8,0.2","1:go_a","1",""
"null","","html-keyboard-response","246","464147","0.0-6.0-2.8","","<div style=""font-size:60px;"">+</div>","null","","","","","","",""
"null","","image-keyboard-response","247","465652","0.0-6.0-0.9","","img/purple.png","null","trial","null","true","0.2,0.8","4:nogo_d","",""
"null","","html-keyboard-response","248","466658","0.0-6.0-1.9","","<img src=""img/purple-r.png"">","null","trial","null","","0.2,0.8","4:nogo_d","1",""
"null","","html-keyboard-response","249","467663","0.0-6.0-2.9","","<div style=""font-size:60px;"">+</div>","null","","","","","","",""
"358.4549999941373","","image-keyboard-response","250","468025","0.0-6.0-0.10","","img/green.png","32","trial","32","true","0.8,0.2","3:go_c","",""
"null","","html-keyboard-response","251","469032","0.0-6.0-1.10","","<img src=""img/green-r.png"" border=""10"">","null","trial","32","","0.8,0.2","3:go_c","1",""
"null","","html-keyboard-response","252","470037","0.0-6.0-2.10","","<div style=""font-size:60px;"">+</div>","null","","","","","","",""
"null","","image-keyboard-response","253","471542","0.0-6.0-0.11","","img/orange.png","null","trial","null","true","0.2,0.8","2:nogo_b","",""
"null","","html-keyboard-response","254","472549","0.0-6.0-1.11","","<img src=""img/orange-r.png"">","null","trial","null","","0.2,0.8","2:nogo_b","1",""
"null","","html-keyboard-response","255","473553","0.0-6.0-2.11","","<div style=""font-size:60px;"">+</div>","null","","","","","","",""
"581.1400000093272","","image-keyboard-response","256","474138","0.0-6.0-0.12","","img/green.png","32","trial","32","true","0.8,0.2","3:go_c","",""
"null","","html-keyboard-response","257","475146","0.0-6.0-1.12","","<img src=""img/green-r.png"" border=""10"">","null","trial","32","","0.8,0.2","3:go_c","1",""
"null","","html-keyboard-response","258","476150","0.0-6.0-2.12","","<div style=""font-size:60px;"">+</div>","null","","","","","","",""
"null","","image-keyboard-response","259","477655","0.0-6.0-0.13","","img/orange.png","null","trial","null","true","0.2,0.8","2:nogo_b","",""
"null","","html-keyboard-response","260","478662","0.0-6.0-1.13","","<img src=""img/orange-r.png"">","null","trial","null","","0.2,0.8","2:nogo_b","1",""
"null","","html-keyboard-response","261","479666","0.0-6.0-2.13","","<div style=""font-size:60px;"">+</div>","null","","","","","","",""
"402.48499999870546","","image-keyboard-response","262","480072","0.0-6.0-0.14","","img/red.png","32","trial","32","true","0.8,0.2","1:go_a","",""
"null","","html-keyboard-response","263","481079","0.0-6.0-1.14","","<img src=""img/red-r.png"" border=""10"">","null","trial","32","","0.8,0.2","1:go_a","1",""
"null","","html-keyboard-response","264","482084","0.0-6.0-2.14","","<div style=""font-size:60px;"">+</div>","null","","","","","","",""
"null","","image-keyboard-response","265","483588","0.0-6.0-0.15","","img/purple.png","null","trial","null","true","0.2,0.8","4:nogo_d","",""
"null","","html-keyboard-response","266","484596","0.0-6.0-1.15","","<img src=""img/purple-r.png"">","null","trial","null","","0.2,0.8","4:nogo_d","1",""
"null","","html-keyboard-response","267","485599","0.0-6.0-2.15","","<div style=""font-size:60px;"">+</div>","null","","","","","","",""
"564.7900000039954","","image-keyboard-response","268","486167","0.0-6.0-0.16","","img/green.png","32","trial","32","true","0.8,0.2","3:go_c","",""
"null","","html-keyboard-response","269","487179","0.0-6.0-1.16","","<img src=""img/green-r.png"" border=""10"">","null","trial","32","","0.8,0.2","3:go_c","1",""
"null","","html-keyboard-response","270","488186","0.0-6.0-2.16","","<div style=""font-size:60px;"">+</div>","null","","","","","","",""
"573.4800000063842","","image-keyboard-response","271","488764","0.0-6.0-0.17","","img/red.png","32","trial","32","true","0.8,0.2","1:go_a","",""
"null","","html-keyboard-response","272","489771","0.0-6.0-1.17","","<img src=""img/red-r.png"" border=""10"">","null","trial","32","","0.8,0.2","1:go_a","1",""
"null","","html-keyboard-response","273","490776","0.0-6.0-2.17","","<div style=""font-size:60px;"">+</div>","null","","","","","","",""
"null","","image-keyboard-response","274","492280","0.0-6.0-0.18","","img/orange.png","null","trial","null","true","0.2,0.8","2:nogo_b","",""
"null","","html-keyboard-response","275","493287","0.0-6.0-1.18","","<img src=""img/orange-r.png"">","null","trial","null","","0.2,0.8","2:nogo_b","1",""
"null","","html-keyboard-response","276","494292","0.0-6.0-2.18","","<div style=""font-size:60px;"">+</div>","null","","","","","","",""
"null","","image-keyboard-response","277","495795","0.0-6.0-0.19","","img/purple.png","null","trial","null","true","0.2,0.8","4:nogo_d","",""
"null","","html-keyboard-response","278","496802","0.0-6.0-1.19","","<img src=""img/purple-r.png"">","null","trial","null","","0.2,0.8","4:nogo_d","1",""
"null","","html-keyboard-response","279","497807","0.0-6.0-2.19","","<div style=""font-size:60px;"">+</div>","null","","","","","","",""
"319.854999994277","","image-keyboard-response","280","498131","0.0-6.0-0.20","","img/green.png","32","trial","32","true","0.8,0.2","3:go_c","",""
"null","","html-keyboard-response","281","499138","0.0-6.0-1.20","","<img src=""img/green-r.png"" border=""10"">","null","trial","32","","0.8,0.2","3:go_c","1",""
"null","","html-keyboard-response","282","500142","0.0-6.0-2.20","","<div style=""font-size:60px;"">+</div>","null","","","","","","",""
"null","","image-keyboard-response","283","501645","0.0-6.0-0.21","","img/purple.png","null","trial","null","true","0.2,0.8","4:nogo_d","",""
"null","","html-keyboard-response","284","502652","0.0-6.0-1.21","","<img src=""img/purple-n.png"">","null","trial","null","","0.2,0.8","4:nogo_d","0",""
"null","","html-keyboard-response","285","503658","0.0-6.0-2.21","","<div style=""font-size:60px;"">+</div>","null","","","","","","",""
"530.7750000065425","","image-keyboard-response","286","504192","0.0-6.0-0.22","","img/red.png","32","trial","32","true","0.8,0.2","1:go_a","",""
"null","","html-keyboard-response","287","505199","0.0-6.0-1.22","","<img src=""img/red-r.png"" border=""10"">","null","trial","32","","0.8,0.2","1:go_a","1",""
"null","","html-keyboard-response","288","506203","0.0-6.0-2.22","","<div style=""font-size:60px;"">+</div>","null","","","","","","",""
"null","","image-keyboard-response","289","507710","0.0-6.0-0.23","","img/orange.png","null","trial","null","true","0.2,0.8","2:nogo_b","",""
"null","","html-keyboard-response","290","508716","0.0-6.0-1.23","","<img src=""img/orange-n.png"">","null","trial","null","","0.2,0.8","2:nogo_b","0",""
"null","","html-keyboard-response","291","509721","0.0-6.0-2.23","","<div style=""font-size:60px;"">+</div>","null","","","","","","",""
"521.3300000032177","","image-keyboard-response","292","510246","0.0-6.0-0.24","","img/green.png","32","trial","32","true","0.8,0.2","3:go_c","",""
"null","","html-keyboard-response","293","511255","0.0-6.0-1.24","","<img src=""img/green-r.png"" border=""10"">","null","trial","32","","0.8,0.2","3:go_c","1",""
"null","","html-keyboard-response","294","512262","0.0-6.0-2.24","","<div style=""font-size:60px;"">+</div>","null","","","","","","",""
"null","","image-keyboard-response","295","513768","0.0-6.0-0.25","","img/orange.png","null","trial","null","true","0.2,0.8","2:nogo_b","",""
"null","","html-keyboard-response","296","514775","0.0-6.0-1.25","","<img src=""img/orange-r.png"">","null","trial","null","","0.2,0.8","2:nogo_b","1",""
"null","","html-keyboard-response","297","515779","0.0-6.0-2.25","","<div style=""font-size:60px;"">+</div>","null","","","","","","",""
"353.57000000658445","","image-keyboard-response","298","516136","0.0-6.0-0.26","","img/red.png","32","trial","32","true","0.8,0.2","1:go_a","",""
"null","","html-keyboard-response","299","517142","0.0-6.0-1.26","","<img src=""img/red-n.png"" border=""10"">","null","trial","32","","0.8,0.2","1:go_a","0",""
"null","","html-keyboard-response","300","518147","0.0-6.0-2.26","","<div style=""font-size:60px;"">+</div>","null","","","","","","",""
"null","","image-keyboard-response","301","519651","0.0-6.0-0.27","","img/purple.png","null","trial","null","true","0.2,0.8","4:nogo_d","",""
"null","","html-keyboard-response","302","520658","0.0-6.0-1.27","","<img src=""img/purple-r.png"">","null","trial","null","","0.2,0.8","4:nogo_d","1",""
"null","","html-keyboard-response","303","521663","0.0-6.0-2.27","","<div style=""font-size:60px;"">+</div>","null","","","","","","",""
"null","","image-keyboard-response","304","523167","0.0-6.0-0.28","","img/orange.png","null","trial","null","true","0.2,0.8","2:nogo_b","",""
"null","","html-keyboard-response","305","524175","0.0-6.0-1.28","","<img src=""img/orange-r.png"">","null","trial","null","","0.2,0.8","2:nogo_b","1",""
"null","","html-keyboard-response","306","525179","0.0-6.0-2.28","","<div style=""font-size:60px;"">+</div>","null","","","","","","",""
"745.8800000022165","","image-keyboard-response","307","525929","0.0-6.0-0.29","","img/green.png","32","trial","32","true","0.8,0.2","3:go_c","",""
"null","","html-keyboard-response","308","526936","0.0-6.0-1.29","","<img src=""img/green-r.png"" border=""10"">","null","trial","32","","0.8,0.2","3:go_c","1",""
"null","","html-keyboard-response","309","527941","0.0-6.0-2.29","","<div style=""font-size:60px;"">+</div>","null","","","","","","",""
"686.4700000005541","","image-keyboard-response","310","528631","0.0-6.0-0.30","","img/red.png","32","trial","32","true","0.8,0.2","1:go_a","",""
"null","","html-keyboard-response","311","529641","0.0-6.0-1.30","","<img src=""img/red-r.png"" border=""10"">","null","trial","32","","0.8,0.2","1:go_a","1",""
"null","","html-keyboard-response","312","530647","0.0-6.0-2.30","","<div style=""font-size:60px;"">+</div>","null","","","","","","",""
"null","","image-keyboard-response","313","532151","0.0-6.0-0.31","","img/purple.png","null","trial","null","true","0.2,0.8","4:nogo_d","",""
"null","","html-keyboard-response","314","533159","0.0-6.0-1.31","","<img src=""img/purple-r.png"">","null","trial","null","","0.2,0.8","4:nogo_d","1",""
"null","","html-keyboard-response","315","534164","0.0-6.0-2.31","","<div style=""font-size:60px;"">+</div>","null","","","","","","",""
"null","","image-keyboard-response","316","535669","0.0-6.0-0.32","","img/orange.png","null","trial","null","true","0.2,0.8","2:nogo_b","",""
"null","","html-keyboard-response","317","536676","0.0-6.0-1.32","","<img src=""img/orange-r.png"">","null","trial","null","","0.2,0.8","2:nogo_b","1",""
"null","","html-keyboard-response","318","537681","0.0-6.0-2.32","","<div style=""font-size:60px;"">+</div>","null","","","","","","",""
"327.2349999897415","","image-keyboard-response","319","538011","0.0-6.0-0.33","","img/red.png","32","trial","32","true","0.8,0.2","1:go_a","",""
"null","","html-keyboard-response","320","539018","0.0-6.0-1.33","","<img src=""img/red-r.png"" border=""10"">","null","trial","32","","0.8,0.2","1:go_a","1",""
"null","","html-keyboard-response","321","540022","0.0-6.0-2.33","","<div style=""font-size:60px;"">+</div>","null","","","","","","",""
"null","","image-keyboard-response","322","541527","0.0-6.0-0.34","","img/purple.png","null","trial","null","true","0.2,0.8","4:nogo_d","",""
"null","","html-keyboard-response","323","542536","0.0-6.0-1.34","","<img src=""img/purple-n.png"">","null","trial","null","","0.2,0.8","4:nogo_d","0",""
"null","","html-keyboard-response","324","543540","0.0-6.0-2.34","","<div style=""font-size:60px;"">+</div>","null","","","","","","",""
"772.6300000067567","","image-keyboard-response","325","544316","0.0-6.0-0.35","","img/green.png","32","trial","32","true","0.8,0.2","3:go_c","",""
"null","","html-keyboard-response","326","545324","0.0-6.0-1.35","","<img src=""img/green-n.png"" border=""10"">","null","trial","32","","0.8,0.2","3:go_c","0",""
"null","","html-keyboard-response","327","546328","0.0-6.0-2.35","","<div style=""font-size:60px;"">+</div>","null","","","","","","",""
"700.9100000141189","","image-keyboard-response","328","547034","0.0-6.0-0.36","","img/green.png","32","trial","32","true","0.8,0.2","3:go_c","",""
"null","","html-keyboard-response","329","548044","0.0-6.0-1.36","","<img src=""img/green-r.png"" border=""10"">","null","trial","32","","0.8,0.2","3:go_c","1",""
"null","","html-keyboard-response","330","549049","0.0-6.0-2.36","","<div style=""font-size:60px;"">+</div>","null","","","","","","",""
"387.8100000001723","","image-keyboard-response","331","549440","0.0-6.0-0.37","","img/red.png","32","trial","32","true","0.8,0.2","1:go_a","",""
"null","","html-keyboard-response","332","550448","0.0-6.0-1.37","","<img src=""img/red-r.png"" border=""10"">","null","trial","32","","0.8,0.2","1:go_a","1",""
"null","","html-keyboard-response","333","551453","0.0-6.0-2.37","","<div style=""font-size:60px;"">+</div>","null","","","","","","",""
"null","","image-keyboard-response","334","552957","0.0-6.0-0.38","","img/orange.png","null","trial","null","true","0.2,0.8","2:nogo_b","",""
"null","","html-keyboard-response","335","553965","0.0-6.0-1.38","","<img src=""img/orange-r.png"">","null","trial","null","","0.2,0.8","2:nogo_b","1",""
"null","","html-keyboard-response","336","554970","0.0-6.0-2.38","","<div style=""font-size:60px;"">+</div>","null","","","","","","",""
"null","","image-keyboard-response","337","556474","0.0-6.0-0.39","","img/purple.png","null","trial","null","true","0.2,0.8","4:nogo_d","",""
"null","","html-keyboard-response","338","557482","0.0-6.0-1.39","","<img src=""img/purple-r.png"">","null","trial","null","","0.2,0.8","4:nogo_d","1",""
"null","","html-keyboard-response","339","558485","0.0-6.0-2.39","","<div style=""font-size:60px;"">+</div>","null","","","","","","",""
"384.7050000040326","","image-keyboard-response","340","558873","0.0-6.0-0.40","","img/orange.png","32","trial","null","false","0.2,0.8","2:nogo_b","",""
"null","","html-keyboard-response","341","559882","0.0-6.0-1.40","","<img src=""img/orange-n.png"" border=""10"">","null","trial","null","","0.2,0.8","2:nogo_b","0",""
"null","","html-keyboard-response","342","560886","0.0-6.0-2.40","","<div style=""font-size:60px;"">+</div>","null","","","","","","",""
"null","","image-keyboard-response","343","562390","0.0-6.0-0.41","","img/purple.png","null","trial","null","true","0.2,0.8","4:nogo_d","",""
"null","","html-keyboard-response","344","563398","0.0-6.0-1.41","","<img src=""img/purple-n.png"">","null","trial","null","","0.2,0.8","4:nogo_d","0",""
"null","","html-keyboard-response","345","564402","0.0-6.0-2.41","","<div style=""font-size:60px;"">+</div>","null","","","","","","",""
"475.23999999975786","","image-keyboard-response","346","564881","0.0-6.0-0.42","","img/green.png","32","trial","32","true","0.8,0.2","3:go_c","",""
"null","","html-keyboard-response","347","565888","0.0-6.0-1.42","","<img src=""img/green-r.png"" border=""10"">","null","trial","32","","0.8,0.2","3:go_c","1",""
"null","","html-keyboard-response","348","566894","0.0-6.0-2.42","","<div style=""font-size:60px;"">+</div>","null","","","","","","",""
"605.1799999986542","","image-keyboard-response","349","567502","0.0-6.0-0.43","","img/red.png","32","trial","32","true","0.8,0.2","1:go_a","",""
"null","","html-keyboard-response","350","568510","0.0-6.0-1.43","","<img src=""img/red-r.png"" border=""10"">","null","trial","32","","0.8,0.2","1:go_a","1",""
"null","","html-keyboard-response","351","569514","0.0-6.0-2.43","","<div style=""font-size:60px;"">+</div>","null","","","","","","",""
"821.1450000089826","","image-keyboard-response","352","570339","0.0-6.0-0.44","","img/green.png","32","trial","32","true","0.8,0.2","3:go_c","",""
"null","","html-keyboard-response","353","571348","0.0-6.0-1.44","","<img src=""img/green-r.png"" border=""10"">","null","trial","32","","0.8,0.2","3:go_c","1",""
"null","","html-keyboard-response","354","572352","0.0-6.0-2.44","","<div style=""font-size:60px;"">+</div>","null","","","","","","",""
"null","","image-keyboard-response","355","573856","0.0-6.0-0.45","","img/purple.png","null","trial","null","true","0.2,0.8","4:nogo_d","",""
"null","","html-keyboard-response","356","574864","0.0-6.0-1.45","","<img src=""img/purple-n.png"">","null","trial","null","","0.2,0.8","4:nogo_d","0",""
"null","","html-keyboard-response","357","575868","0.0-6.0-2.45","","<div style=""font-size:60px;"">+</div>","null","","","","","","",""
"null","","image-keyboard-response","358","577373","0.0-6.0-0.46","","img/orange.png","null","trial","null","true","0.2,0.8","2:nogo_b","",""
"null","","html-keyboard-response","359","578380","0.0-6.0-1.46","","<img src=""img/orange-r.png"">","null","trial","null","","0.2,0.8","2:nogo_b","1",""
"null","","html-keyboard-response","360","579384","0.0-6.0-2.46","","<div style=""font-size:60px;"">+</div>","null","","","","","","",""
"511.65499999478925","","image-keyboard-response","361","579900","0.0-6.0-0.47","","img/red.png","32","trial","32","true","0.8,0.2","1:go_a","",""
"null","","html-keyboard-response","362","580907","0.0-6.0-1.47","","<img src=""img/red-r.png"" border=""10"">","null","trial","32","","0.8,0.2","1:go_a","1",""
"null","","html-keyboard-response","363","581912","0.0-6.0-2.47","","<div style=""font-size:60px;"">+</div>","null","","","","","","",""
"null","","image-keyboard-response","364","583417","0.0-6.0-0.48","","img/orange.png","null","trial","null","true","0.2,0.8","2:nogo_b","",""
"null","","html-keyboard-response","365","584425","0.0-6.0-1.48","","<img src=""img/orange-r.png"">","null","trial","null","","0.2,0.8","2:nogo_b","1",""
"null","","html-keyboard-response","366","585428","0.0-6.0-2.48","","<div style=""font-size:60px;"">+</div>","null","","","","","","",""
"null","","image-keyboard-response","367","586933","0.0-6.0-0.49","","img/purple.png","null","trial","null","true","0.2,0.8","4:nogo_d","",""
"null","","html-keyboard-response","368","587940","0.0-6.0-1.49","","<img src=""img/purple-n.png"">","null","trial","null","","0.2,0.8","4:nogo_d","0",""
"null","","html-keyboard-response","369","588945","0.0-6.0-2.49","","<div style=""font-size:60px;"">+</div>","null","","","","","","",""
"953.9950000034878","","image-keyboard-response","370","589902","0.0-6.0-0.50","","img/green.png","32","trial","32","true","0.8,0.2","3:go_c","",""
"null","","html-keyboard-response","371","590910","0.0-6.0-1.50","","<img src=""img/green-n.png"" border=""10"">","null","trial","32","","0.8,0.2","3:go_c","0",""
"null","","html-keyboard-response","372","591915","0.0-6.0-2.50","","<div style=""font-size:60px;"">+</div>","null","","","","","","",""
"505.46500000928063","","image-keyboard-response","373","592425","0.0-6.0-0.51","","img/red.png","32","trial","32","true","0.8,0.2","1:go_a","",""
"null","","html-keyboard-response","374","593432","0.0-6.0-1.51","","<img src=""img/red-r.png"" border=""10"">","null","trial","32","","0.8,0.2","1:go_a","1",""
"null","","html-keyboard-response","375","594436","0.0-6.0-2.51","","<div style=""font-size:60px;"">+</div>","null","","","","","","",""
"null","","image-keyboard-response","376","595941","0.0-6.0-0.52","","img/orange.png","null","trial","null","true","0.2,0.8","2:nogo_b","",""
"null","","html-keyboard-response","377","596950","0.0-6.0-1.52","","<img src=""img/orange-r.png"">","null","trial","null","","0.2,0.8","2:nogo_b","1",""
"null","","html-keyboard-response","378","597954","0.0-6.0-2.52","","<div style=""font-size:60px;"">+</div>","null","","","","","","",""
"null","","image-keyboard-response","379","599459","0.0-6.0-0.53","","img/purple.png","null","trial","null","true","0.2,0.8","4:nogo_d","",""
"null","","html-keyboard-response","380","600468","0.0-6.0-1.53","","<img src=""img/purple-r.png"">","null","trial","null","","0.2,0.8","4:nogo_d","1",""
"null","","html-keyboard-response","381","601473","0.0-6.0-2.53","","<div style=""font-size:60px;"">+</div>","null","","","","","","",""
"966.3799999980256","","image-keyboard-response","382","602442","0.0-6.0-0.54","","img/green.png","32","trial","32","true","0.8,0.2","3:go_c","",""
"null","","html-keyboard-response","383","603452","0.0-6.0-1.54","","<img src=""img/green-n.png"" border=""10"">","null","trial","32","","0.8,0.2","3:go_c","0",""
"null","","html-keyboard-response","384","604456","0.0-6.0-2.54","","<div style=""font-size:60px;"">+</div>","null","","","","","","",""
"402.7899999928195","","image-keyboard-response","385","604863","0.0-6.0-0.55","","img/red.png","32","trial","32","true","0.8,0.2","1:go_a","",""
"null","","html-keyboard-response","386","605870","0.0-6.0-1.55","","<img src=""img/red-r.png"" border=""10"">","null","trial","32","","0.8,0.2","1:go_a","1",""
"null","","html-keyboard-response","387","606875","0.0-6.0-2.55","","<div style=""font-size:60px;"">+</div>","null","","","","","","",""
"669.6499999961816","","image-keyboard-response","388","607549","0.0-6.0-0.56","","img/red.png","32","trial","32","true","0.8,0.2","1:go_a","",""
"null","","html-keyboard-response","389","608563","0.0-6.0-1.56","","<img src=""img/red-r.png"" border=""10"">","null","trial","32","","0.8,0.2","1:go_a","1",""
"null","","html-keyboard-response","390","609568","0.0-6.0-2.56","","<div style=""font-size:60px;"">+</div>","null","","","","","","",""
"706.6049999993993","","image-keyboard-response","391","610278","0.0-6.0-0.57","","img/green.png","32","trial","32","true","0.8,0.2","3:go_c","",""
"null","","html-keyboard-response","392","611285","0.0-6.0-1.57","","<img src=""img/green-r.png"" border=""10"">","null","trial","32","","0.8,0.2","3:go_c","1",""
"null","","html-keyboard-response","393","612290","0.0-6.0-2.57","","<div style=""font-size:60px;"">+</div>","null","","","","","","",""
"null","","image-keyboard-response","394","613795","0.0-6.0-0.58","","img/orange.png","null","trial","null","true","0.2,0.8","2:nogo_b","",""
"null","","html-keyboard-response","395","614808","0.0-6.0-1.58","","<img src=""img/orange-r.png"">","null","trial","null","","0.2,0.8","2:nogo_b","1",""
"null","","html-keyboard-response","396","615812","0.0-6.0-2.58","","<div style=""font-size:60px;"">+</div>","null","","","","","","",""
"null","","image-keyboard-response","397","617316","0.0-6.0-0.59","","img/purple.png","null","trial","null","true","0.2,0.8","4:nogo_d","",""
"null","","html-keyboard-response","398","618323","0.0-6.0-1.59","","<img src=""img/purple-r.png"">","null","trial","null","","0.2,0.8","4:nogo_d","1",""
"null","","html-keyboard-response","399","619328","0.0-6.0-2.59","","<div style=""font-size:60px;"">+</div>","null","","","","","","",""
"null","","image-keyboard-response","400","620834","0.0-6.0-0.60","","img/orange.png","null","trial","null","true","0.2,0.8","2:nogo_b","",""
"null","","html-keyboard-response","401","621842","0.0-6.0-1.60","","<img src=""img/orange-r.png"">","null","trial","null","","0.2,0.8","2:nogo_b","1",""
"null","","html-keyboard-response","402","622846","0.0-6.0-2.60","","<div style=""font-size:60px;"">+</div>","null","","","","","","",""
"null","","image-keyboard-response","403","624350","0.0-6.0-0.61","","img/purple.png","null","trial","null","true","0.2,0.8","4:nogo_d","",""
"null","","html-keyboard-response","404","625358","0.0-6.0-1.61","","<img src=""img/purple-r.png"">","null","trial","null","","0.2,0.8","4:nogo_d","1",""
"null","","html-keyboard-response","405","626362","0.0-6.0-2.61","","<div style=""font-size:60px;"">+</div>","null","","","","","","",""
"476.75499999604654","","image-keyboard-response","406","626843","0.0-6.0-0.62","","img/red.png","32","trial","32","true","0.8,0.2","1:go_a","",""
"null","","html-keyboard-response","407","627849","0.0-6.0-1.62","","<img src=""img/red-r.png"" border=""10"">","null","trial","32","","0.8,0.2","1:go_a","1",""
"null","","html-keyboard-response","408","628854","0.0-6.0-2.62","","<div style=""font-size:60px;"">+</div>","null","","","","","","",""
"423.45499999646563","","image-keyboard-response","409","629282","0.0-6.0-0.63","","img/green.png","32","trial","32","true","0.8,0.2","3:go_c","",""
"null","","html-keyboard-response","410","630288","0.0-6.0-1.63","","<img src=""img/green-r.png"" border=""10"">","null","trial","32","","0.8,0.2","3:go_c","1",""
"null","","html-keyboard-response","411","631293","0.0-6.0-2.63","","<div style=""font-size:60px;"">+</div>","null","","","","","","",""
"null","","image-keyboard-response","412","632797","0.0-6.0-0.64","","img/orange.png","null","trial","null","true","0.2,0.8","2:nogo_b","",""
"null","","html-keyboard-response","413","633805","0.0-6.0-1.64","","<img src=""img/orange-r.png"">","null","trial","null","","0.2,0.8","2:nogo_b","1",""
"null","","html-keyboard-response","414","634809","0.0-6.0-2.64","","<div style=""font-size:60px;"">+</div>","null","","","","","","",""
"836.395000005723","","image-keyboard-response","415","635650","0.0-6.0-0.65","","img/green.png","32","trial","32","true","0.8,0.2","3:go_c","",""
"null","","html-keyboard-response","416","636657","0.0-6.0-1.65","","<img src=""img/green-r.png"" border=""10"">","null","trial","32","","0.8,0.2","3:go_c","1",""
"null","","html-keyboard-response","417","637663","0.0-6.0-2.65","","<div style=""font-size:60px;"">+</div>","null","","","","","","",""
"null","","image-keyboard-response","418","639167","0.0-6.0-0.66","","img/purple.png","null","trial","null","true","0.2,0.8","4:nogo_d","",""
"null","","html-keyboard-response","419","640176","0.0-6.0-1.66","","<img src=""img/purple-r.png"">","null","trial","null","","0.2,0.8","4:nogo_d","1",""
"null","","html-keyboard-response","420","641180","0.0-6.0-2.66","","<div style=""font-size:60px;"">+</div>","null","","","","","","",""
"438.63999999302905","","image-keyboard-response","421","641623","0.0-6.0-0.67","","img/red.png","32","trial","32","true","0.8,0.2","1:go_a","",""
"null","","html-keyboard-response","422","642631","0.0-6.0-1.67","","<img src=""img/red-n.png"" border=""10"">","null","trial","32","","0.8,0.2","1:go_a","0",""
"null","","html-keyboard-response","423","643635","0.0-6.0-2.67","","<div style=""font-size:60px;"">+</div>","null","","","","","","",""
"null","","image-keyboard-response","424","645139","0.0-6.0-0.68","","img/orange.png","null","trial","null","true","0.2,0.8","2:nogo_b","",""
"null","","html-keyboard-response","425","646147","0.0-6.0-1.68","","<img src=""img/orange-r.png"">","null","trial","null","","0.2,0.8","2:nogo_b","1",""
"null","","html-keyboard-response","426","647161","0.0-6.0-2.68","","<div style=""font-size:60px;"">+</div>","null","","","","","","",""
"601.8449999974109","","image-keyboard-response","427","647768","0.0-6.0-0.69","","img/green.png","32","trial","32","true","0.8,0.2","3:go_c","",""
"null","","html-keyboard-response","428","648774","0.0-6.0-1.69","","<img src=""img/green-n.png"" border=""10"">","null","trial","32","","0.8,0.2","3:go_c","0",""
"null","","html-keyboard-response","429","649779","0.0-6.0-2.69","","<div style=""font-size:60px;"">+</div>","null","","","","","","",""
"null","","image-keyboard-response","430","651285","0.0-6.0-0.70","","img/purple.png","null","trial","null","true","0.2,0.8","4:nogo_d","",""
"null","","html-keyboard-response","431","652292","0.0-6.0-1.70","","<img src=""img/purple-r.png"">","null","trial","null","","0.2,0.8","4:nogo_d","1",""
"null","","html-keyboard-response","432","653296","0.0-6.0-2.70","","<div style=""font-size:60px;"">+</div>","null","","","","","","",""
"484.4699999957811","","image-keyboard-response","433","653786","0.0-6.0-0.71","","img/red.png","32","trial","32","true","0.8,0.2","1:go_a","",""
"null","","html-keyboard-response","434","654792","0.0-6.0-1.71","","<img src=""img/red-r.png"" border=""10"">","null","trial","32","","0.8,0.2","1:go_a","1",""
"null","","html-keyboard-response","435","655797","0.0-6.0-2.71","","<div style=""font-size:60px;"">+</div>","null","","","","","","",""
"734.6850000030827","","image-keyboard-response","436","656536","0.0-6.0-0.72","","img/green.png","32","trial","32","true","0.8,0.2","3:go_c","",""
"null","","html-keyboard-response","437","657543","0.0-6.0-1.72","","<img src=""img/green-r.png"" border=""10"">","null","trial","32","","0.8,0.2","3:go_c","1",""
"null","","html-keyboard-response","438","658548","0.0-6.0-2.72","","<div style=""font-size:60px;"">+</div>","null","","","","","","",""
"726.8349999940256","","image-keyboard-response","439","659279","0.0-6.0-0.73","","img/red.png","32","trial","32","true","0.8,0.2","1:go_a","",""
"null","","html-keyboard-response","440","660285","0.0-6.0-1.73","","<img src=""img/red-r.png"" border=""10"">","null","trial","32","","0.8,0.2","1:go_a","1",""
"null","","html-keyboard-response","441","661289","0.0-6.0-2.73","","<div style=""font-size:60px;"">+</div>","null","","","","","","",""
"null","","image-keyboard-response","442","662793","0.0-6.0-0.74","","img/orange.png","null","trial","null","true","0.2,0.8","2:nogo_b","",""
"null","","html-keyboard-response","443","663801","0.0-6.0-1.74","","<img src=""img/orange-r.png"">","null","trial","null","","0.2,0.8","2:nogo_b","1",""
"null","","html-keyboard-response","444","664804","0.0-6.0-2.74","","<div style=""font-size:60px;"">+</div>","null","","","","","","",""
"null","","image-keyboard-response","445","666309","0.0-6.0-0.75","","img/purple.png","null","trial","null","true","0.2,0.8","4:nogo_d","",""
"null","","html-keyboard-response","446","667322","0.0-6.0-1.75","","<img src=""img/purple-r.png"">","null","trial","null","","0.2,0.8","4:nogo_d","1",""
"null","","html-keyboard-response","447","668327","0.0-6.0-2.75","","<div style=""font-size:60px;"">+</div>","null","","","","","","",""
"null","","image-keyboard-response","448","669835","0.0-6.0-0.76","","img/purple.png","null","trial","null","true","0.2,0.8","4:nogo_d","",""
"null","","html-keyboard-response","449","670843","0.0-6.0-1.76","","<img src=""img/purple-r.png"">","null","trial","null","","0.2,0.8","4:nogo_d","1",""
"null","","html-keyboard-response","450","671847","0.0-6.0-2.76","","<div style=""font-size:60px;"">+</div>","null","","","","","","",""
"755.8300000091549","","image-keyboard-response","451","672608","0.0-6.0-0.77","","img/red.png","32","trial","32","true","0.8,0.2","1:go_a","",""
"null","","html-keyboard-response","452","673615","0.0-6.0-1.77","","<img src=""img/red-r.png"" border=""10"">","null","trial","32","","0.8,0.2","1:go_a","1",""
"null","","html-keyboard-response","453","674620","0.0-6.0-2.77","","<div style=""font-size:60px;"">+</div>","null","","","","","","",""
"730.5650000052992","","image-keyboard-response","454","675355","0.0-6.0-0.78","","img/green.png","32","trial","32","true","0.8,0.2","3:go_c","",""
"null","","html-keyboard-response","455","676362","0.0-6.0-1.78","","<img src=""img/green-r.png"" border=""10"">","null","trial","32","","0.8,0.2","3:go_c","1",""
"null","","html-keyboard-response","456","677367","0.0-6.0-2.78","","<div style=""font-size:60px;"">+</div>","null","","","","","","",""
"null","","image-keyboard-response","457","678870","0.0-6.0-0.79","","img/orange.png","null","trial","null","true","0.2,0.8","2:nogo_b","",""
"null","","html-keyboard-response","458","679878","0.0-6.0-1.79","","<img src=""img/orange-r.png"">","null","trial","null","","0.2,0.8","2:nogo_b","1",""
"null","","html-keyboard-response","459","680882","0.0-6.0-2.79","","<div style=""font-size:60px;"">+</div>","null","","","","","","",""
"null","","image-keyboard-response","460","682388","0.0-6.0-0.80","","img/orange.png","null","trial","null","true","0.2,0.8","2:nogo_b","",""
"null","","html-keyboard-response","461","683395","0.0-6.0-1.80","","<img src=""img/orange-r.png"">","null","trial","null","","0.2,0.8","2:nogo_b","1",""
"null","","html-keyboard-response","462","684400","0.0-6.0-2.80","","<div style=""font-size:60px;"">+</div>","null","","","","","","",""
"null","","image-keyboard-response","463","685905","0.0-6.0-0.81","","img/purple.png","null","trial","null","true","0.2,0.8","4:nogo_d","",""
"null","","html-keyboard-response","464","686912","0.0-6.0-1.81","","<img src=""img/purple-n.png"">","null","trial","null","","0.2,0.8","4:nogo_d","0",""
"null","","html-keyboard-response","465","687917","0.0-6.0-2.81","","<div style=""font-size:60px;"">+</div>","null","","","","","","",""
"507.93000000703614","","image-keyboard-response","466","688429","0.0-6.0-0.82","","img/green.png","32","trial","32","true","0.8,0.2","3:go_c","",""
"null","","html-keyboard-response","467","689437","0.0-6.0-1.82","","<img src=""img/green-n.png"" border=""10"">","null","trial","32","","0.8,0.2","3:go_c","0",""
"null","","html-keyboard-response","468","690442","0.0-6.0-2.82","","<div style=""font-size:60px;"">+</div>","null","","","","","","",""
"412.7149999985704","","image-keyboard-response","469","690859","0.0-6.0-0.83","","img/red.png","32","trial","32","true","0.8,0.2","1:go_a","",""
"null","","html-keyboard-response","470","691866","0.0-6.0-1.83","","<img src=""img/red-n.png"" border=""10"">","null","trial","32","","0.8,0.2","1:go_a","0",""
"null","","html-keyboard-response","471","692872","0.0-6.0-2.83","","<div style=""font-size:60px;"">+</div>","null","","","","","","",""
"600.0300000014249","","image-keyboard-response","472","693475","0.0-6.0-0.84","","img/red.png","32","trial","32","true","0.8,0.2","1:go_a","",""
"null","","html-keyboard-response","473","694483","0.0-6.0-1.84","","<img src=""img/red-r.png"" border=""10"">","null","trial","32","","0.8,0.2","1:go_a","1",""
"null","","html-keyboard-response","474","695488","0.0-6.0-2.84","","<div style=""font-size:60px;"">+</div>","null","","","","","","",""
"361.45500000566244","","image-keyboard-response","475","695856","0.0-6.0-0.85","","img/green.png","32","trial","32","true","0.8,0.2","3:go_c","",""
"null","","html-keyboard-response","476","696863","0.0-6.0-1.85","","<img src=""img/green-r.png"" border=""10"">","null","trial","32","","0.8,0.2","3:go_c","1",""
"null","","html-keyboard-response","477","697868","0.0-6.0-2.85","","<div style=""font-size:60px;"">+</div>","null","","","","","","",""
"null","","image-keyboard-response","478","699371","0.0-6.0-0.86","","img/purple.png","null","trial","null","true","0.2,0.8","4:nogo_d","",""
"null","","html-keyboard-response","479","700379","0.0-6.0-1.86","","<img src=""img/purple-r.png"">","null","trial","null","","0.2,0.8","4:nogo_d","1",""
"null","","html-keyboard-response","480","701385","0.0-6.0-2.86","","<div style=""font-size:60px;"">+</div>","null","","","","","","",""
"null","","image-keyboard-response","481","702889","0.0-6.0-0.87","","img/orange.png","null","trial","null","true","0.2,0.8","2:nogo_b","",""
"null","","html-keyboard-response","482","703896","0.0-6.0-1.87","","<img src=""img/orange-n.png"">","null","trial","null","","0.2,0.8","2:nogo_b","0",""
"null","","html-keyboard-response","483","704901","0.0-6.0-2.87","","<div style=""font-size:60px;"">+</div>","null","","","","","","",""
"823.8449999917066","","image-keyboard-response","484","705730","0.0-6.0-0.88","","img/red.png","32","trial","32","true","0.8,0.2","1:go_a","",""
"null","","html-keyboard-response","485","706745","0.0-6.0-1.88","","<img src=""img/red-r.png"" border=""10"">","null","trial","32","","0.8,0.2","1:go_a","1",""
"null","","html-keyboard-response","486","707752","0.0-6.0-2.88","","<div style=""font-size:60px;"">+</div>","null","","","","","","",""
"748.4499999991385","","image-keyboard-response","487","708504","0.0-6.0-0.89","","img/green.png","32","trial","32","true","0.8,0.2","3:go_c","",""
"null","","html-keyboard-response","488","709512","0.0-6.0-1.89","","<img src=""img/green-n.png"" border=""10"">","null","trial","32","","0.8,0.2","3:go_c","0",""
"null","","html-keyboard-response","489","710517","0.0-6.0-2.89","","<div style=""font-size:60px;"">+</div>","null","","","","","","",""
"null","","image-keyboard-response","490","712022","0.0-6.0-0.90","","img/orange.png","null","trial","null","true","0.2,0.8","2:nogo_b","",""
"null","","html-keyboard-response","491","713029","0.0-6.0-1.90","","<img src=""img/orange-r.png"">","null","trial","null","","0.2,0.8","2:nogo_b","1",""
"null","","html-keyboard-response","492","714034","0.0-6.0-2.90","","<div style=""font-size:60px;"">+</div>","null","","","","","","",""
"null","","image-keyboard-response","493","715538","0.0-6.0-0.91","","img/purple.png","null","trial","null","true","0.2,0.8","4:nogo_d","",""
"null","","html-keyboard-response","494","716543","0.0-6.0-1.91","","<img src=""img/purple-n.png"">","null","trial","null","","0.2,0.8","4:nogo_d","0",""
"null","","html-keyboard-response","495","717548","0.0-6.0-2.91","","<div style=""font-size:60px;"">+</div>","null","","","","","","",""
"529.3300000048475","","image-keyboard-response","496","718081","0.0-6.0-0.92","","img/red.png","32","trial","32","true","0.8,0.2","1:go_a","",""
"null","","html-keyboard-response","497","719089","0.0-6.0-1.92","","<img src=""img/red-r.png"" border=""10"">","null","trial","32","","0.8,0.2","1:go_a","1",""
"null","","html-keyboard-response","498","720093","0.0-6.0-2.92","","<div style=""font-size:60px;"">+</div>","null","","","","","","",""
"null","","image-keyboard-response","499","721599","0.0-6.0-0.93","","img/orange.png","null","trial","null","true","0.2,0.8","2:nogo_b","",""
"null","","html-keyboard-response","500","722610","0.0-6.0-1.93","","<img src=""img/orange-n.png"">","null","trial","null","","0.2,0.8","2:nogo_b","0",""
"null","","html-keyboard-response","501","723614","0.0-6.0-2.93","","<div style=""font-size:60px;"">+</div>","null","","","","","","",""
"null","","image-keyboard-response","502","725118","0.0-6.0-0.94","","img/purple.png","null","trial","null","true","0.2,0.8","4:nogo_d","",""
"null","","html-keyboard-response","503","726127","0.0-6.0-1.94","","<img src=""img/purple-r.png"">","null","trial","null","","0.2,0.8","4:nogo_d","1",""
"null","","html-keyboard-response","504","727130","0.0-6.0-2.94","","<div style=""font-size:60px;"">+</div>","null","","","","","","",""
"434.6499999955995","","image-keyboard-response","505","727568","0.0-6.0-0.95","","img/green.png","32","trial","32","true","0.8,0.2","3:go_c","",""
"null","","html-keyboard-response","506","728574","0.0-6.0-1.95","","<img src=""img/green-r.png"" border=""10"">","null","trial","32","","0.8,0.2","3:go_c","1",""
"null","","html-keyboard-response","507","729578","0.0-6.0-2.95","","<div style=""font-size:60px;"">+</div>","null","","","","","","",""
"430.82999999751337","","image-keyboard-response","508","730013","0.0-6.0-0.96","","img/green.png","32","trial","32","true","0.8,0.2","3:go_c","",""
"null","","html-keyboard-response","509","731019","0.0-6.0-1.96","","<img src=""img/green-r.png"" border=""10"">","null","trial","32","","0.8,0.2","3:go_c","1",""
"null","","html-keyboard-response","510","732025","0.0-6.0-2.96","","<div style=""font-size:60px;"">+</div>","null","","","","","","",""
"null","","image-keyboard-response","511","733529","0.0-6.0-0.97","","img/purple.png","null","trial","null","true","0.2,0.8","4:nogo_d","",""
"null","","html-keyboard-response","512","734537","0.0-6.0-1.97","","<img src=""img/purple-r.png"">","null","trial","null","","0.2,0.8","4:nogo_d","1",""
"null","","html-keyboard-response","513","735541","0.0-6.0-2.97","","<div style=""font-size:60px;"">+</div>","null","","","","","","",""
"384.330000000773","","image-keyboard-response","514","735929","0.0-6.0-0.98","","img/red.png","32","trial","32","true","0.8,0.2","1:go_a","",""
"null","","html-keyboard-response","515","736936","0.0-6.0-1.98","","<img src=""img/red-r.png"" border=""10"">","null","trial","32","","0.8,0.2","1:go_a","1",""
"null","","html-keyboard-response","516","737942","0.0-6.0-2.98","","<div style=""font-size:60px;"">+</div>","null","","","","","","",""
"null","","image-keyboard-response","517","739446","0.0-6.0-0.99","","img/orange.png","null","trial","null","true","0.2,0.8","2:nogo_b","",""
"null","","html-keyboard-response","518","740455","0.0-6.0-1.99","","<img src=""img/orange-r.png"">","null","trial","null","","0.2,0.8","2:nogo_b","1",""
"null","","html-keyboard-response","519","741459","0.0-6.0-2.99","","<div style=""font-size:60px;"">+</div>","null","","","","","","",""
"429.4100000115577","","image-keyboard-response","520","741892","0.0-6.0-0.100","","img/red.png","32","trial","32","true","0.8,0.2","1:go_a","",""
"null","","html-keyboard-response","521","742899","0.0-6.0-1.100","","<img src=""img/red-r.png"" border=""10"">","null","trial","32","","0.8,0.2","1:go_a","1",""
"null","","html-keyboard-response","522","743905","0.0-6.0-2.100","","<div style=""font-size:60px;"">+</div>","null","","","","","","",""
"null","","image-keyboard-response","523","745423","0.0-6.0-0.101","","img/orange.png","null","trial","null","true","0.2,0.8","2:nogo_b","",""
"null","","html-keyboard-response","524","746429","0.0-6.0-1.101","","<img src=""img/orange-r.png"">","null","trial","null","","0.2,0.8","2:nogo_b","1",""
"null","","html-keyboard-response","525","747435","0.0-6.0-2.101","","<div style=""font-size:60px;"">+</div>","null","","","","","","",""
"401.29999999771826","","image-keyboard-response","526","747841","0.0-6.0-0.102","","img/green.png","32","trial","32","true","0.8,0.2","3:go_c","",""
"null","","html-keyboard-response","527","748847","0.0-6.0-1.102","","<img src=""img/green-r.png"" border=""10"">","null","trial","32","","0.8,0.2","3:go_c","1",""
"null","","html-keyboard-response","528","749851","0.0-6.0-2.102","","<div style=""font-size:60px;"">+</div>","null","","","","","","",""
"null","","image-keyboard-response","529","751356","0.0-6.0-0.103","","img/purple.png","null","trial","null","true","0.2,0.8","4:nogo_d","",""
"null","","html-keyboard-response","530","752364","0.0-6.0-1.103","","<img src=""img/purple-n.png"">","null","trial","null","","0.2,0.8","4:nogo_d","0",""
"null","","html-keyboard-response","531","753368","0.0-6.0-2.103","","<div style=""font-size:60px;"">+</div>","null","","","","","","",""
"null","","image-keyboard-response","532","754874","0.0-6.0-0.104","","img/purple.png","null","trial","null","true","0.2,0.8","4:nogo_d","",""
"null","","html-keyboard-response","533","755882","0.0-6.0-1.104","","<img src=""img/purple-r.png"">","null","trial","null","","0.2,0.8","4:nogo_d","1",""
"null","","html-keyboard-response","534","756887","0.0-6.0-2.104","","<div style=""font-size:60px;"">+</div>","null","","","","","","",""
"627.2599999938393","","image-keyboard-response","535","757519","0.0-6.0-0.105","","img/green.png","32","trial","32","true","0.8,0.2","3:go_c","",""
"null","","html-keyboard-response","536","758526","0.0-6.0-1.105","","<img src=""img/green-r.png"" border=""10"">","null","trial","32","","0.8,0.2","3:go_c","1",""
"null","","html-keyboard-response","537","759530","0.0-6.0-2.105","","<div style=""font-size:60px;"">+</div>","null","","","","","","",""
"413.18499999761116","","image-keyboard-response","538","759947","0.0-6.0-0.106","","img/red.png","32","trial","32","true","0.8,0.2","1:go_a","",""
"null","","html-keyboard-response","539","760955","0.0-6.0-1.106","","<img src=""img/red-r.png"" border=""10"">","null","trial","32","","0.8,0.2","1:go_a","1",""
"null","","html-keyboard-response","540","761960","0.0-6.0-2.106","","<div style=""font-size:60px;"">+</div>","null","","","","","","",""
"null","","image-keyboard-response","541","763465","0.0-6.0-0.107","","img/orange.png","null","trial","null","true","0.2,0.8","2:nogo_b","",""
"null","","html-keyboard-response","542","764472","0.0-6.0-1.107","","<img src=""img/orange-r.png"">","null","trial","null","","0.2,0.8","2:nogo_b","1",""
"null","","html-keyboard-response","543","765476","0.0-6.0-2.107","","<div style=""font-size:60px;"">+</div>","null","","","","","","",""
"null","","image-keyboard-response","544","766981","0.0-6.0-0.108","","img/orange.png","null","trial","null","true","0.2,0.8","2:nogo_b","",""
"null","","html-keyboard-response","545","767989","0.0-6.0-1.108","","<img src=""img/orange-r.png"">","null","trial","null","","0.2,0.8","2:nogo_b","1",""
"null","","html-keyboard-response","546","768993","0.0-6.0-2.108","","<div style=""font-size:60px;"">+</div>","null","","","","","","",""
"444.5149999955902","","image-keyboard-response","547","769441","0.0-6.0-0.109","","img/green.png","32","trial","32","true","0.8,0.2","3:go_c","",""
"null","","html-keyboard-response","548","770449","0.0-6.0-1.109","","<img src=""img/green-r.png"" border=""10"">","null","trial","32","","0.8,0.2","3:go_c","1",""
"null","","html-keyboard-response","549","771455","0.0-6.0-2.109","","<div style=""font-size:60px;"">+</div>","null","","","","","","",""
"585.5400000000373","","image-keyboard-response","550","772045","0.0-6.0-0.110","","img/red.png","32","trial","32","true","0.8,0.2","1:go_a","",""
"null","","html-keyboard-response","551","773054","0.0-6.0-1.110","","<img src=""img/red-r.png"" border=""10"">","null","trial","32","","0.8,0.2","1:go_a","1",""
"null","","html-keyboard-response","552","774058","0.0-6.0-2.110","","<div style=""font-size:60px;"">+</div>","null","","","","","","",""
"null","","image-keyboard-response","553","775562","0.0-6.0-0.111","","img/purple.png","null","trial","null","true","0.2,0.8","4:nogo_d","",""
"null","","html-keyboard-response","554","776569","0.0-6.0-1.111","","<img src=""img/purple-r.png"">","null","trial","null","","0.2,0.8","4:nogo_d","1",""
"null","","html-keyboard-response","555","777573","0.0-6.0-2.111","","<div style=""font-size:60px;"">+</div>","null","","","","","","",""
"null","","image-keyboard-response","556","779079","0.0-6.0-0.112","","img/orange.png","null","trial","null","true","0.2,0.8","2:nogo_b","",""
"null","","html-keyboard-response","557","780087","0.0-6.0-1.112","","<img src=""img/orange-n.png"">","null","trial","null","","0.2,0.8","2:nogo_b","0",""
"null","","html-keyboard-response","558","781091","0.0-6.0-2.112","","<div style=""font-size:60px;"">+</div>","null","","","","","","",""
"511.52500000898726","","image-keyboard-response","559","781606","0.0-6.0-0.113","","img/red.png","32","trial","32","true","0.8,0.2","1:go_a","",""
"null","","html-keyboard-response","560","782615","0.0-6.0-1.113","","<img src=""img/red-n.png"" border=""10"">","null","trial","32","","0.8,0.2","1:go_a","0",""
"null","","html-keyboard-response","561","783619","0.0-6.0-2.113","","<div style=""font-size:60px;"">+</div>","null","","","","","","",""
"null","","image-keyboard-response","562","785124","0.0-6.0-0.114","","img/purple.png","null","trial","null","true","0.2,0.8","4:nogo_d","",""
"null","","html-keyboard-response","563","786132","0.0-6.0-1.114","","<img src=""img/purple-n.png"">","null","trial","null","","0.2,0.8","4:nogo_d","0",""
"null","","html-keyboard-response","564","787136","0.0-6.0-2.114","","<div style=""font-size:60px;"">+</div>","null","","","","","","",""
"557.9250000009779","","image-keyboard-response","565","787698","0.0-6.0-0.115","","img/green.png","32","trial","32","true","0.8,0.2","3:go_c","",""
"null","","html-keyboard-response","566","788706","0.0-6.0-1.115","","<img src=""img/green-r.png"" border=""10"">","null","trial","32","","0.8,0.2","3:go_c","1",""
"null","","html-keyboard-response","567","789712","0.0-6.0-2.115","","<div style=""font-size:60px;"">+</div>","null","","","","","","",""
"404.66500000911765","","image-keyboard-response","568","790120","0.0-6.0-0.116","","img/green.png","32","trial","32","true","0.8,0.2","3:go_c","",""
"null","","html-keyboard-response","569","791130","0.0-6.0-1.116","","<img src=""img/green-r.png"" border=""10"">","null","trial","32","","0.8,0.2","3:go_c","1",""
"null","","html-keyboard-response","570","792135","0.0-6.0-2.116","","<div style=""font-size:60px;"">+</div>","null","","","","","","",""
"null","","image-keyboard-response","571","793642","0.0-6.0-0.117","","img/purple.png","null","trial","null","true","0.2,0.8","4:nogo_d","",""
"null","","html-keyboard-response","572","794649","0.0-6.0-1.117","","<img src=""img/purple-r.png"">","null","trial","null","","0.2,0.8","4:nogo_d","1",""
"null","","html-keyboard-response","573","795654","0.0-6.0-2.117","","<div style=""font-size:60px;"">+</div>","null","","","","","","",""
"null","","image-keyboard-response","574","797162","0.0-6.0-0.118","","img/orange.png","null","trial","null","true","0.2,0.8","2:nogo_b","",""
"null","","html-keyboard-response","575","798170","0.0-6.0-1.118","","<img src=""img/orange-r.png"">","null","trial","null","","0.2,0.8","2:nogo_b","1",""
"null","","html-keyboard-response","576","799175","0.0-6.0-2.118","","<div style=""font-size:60px;"">+</div>","null","","","","","","",""
"423.60999999800697","","image-keyboard-response","577","799603","0.0-6.0-0.119","","img/red.png","32","trial","32","true","0.8,0.2","1:go_a","",""
"null","","html-keyboard-response","578","800611","0.0-6.0-1.119","","<img src=""img/red-r.png"" border=""10"">","null","trial","32","","0.8,0.2","1:go_a","1",""
"null","","html-keyboard-response","579","801616","0.0-6.0-2.119","","<div style=""font-size:60px;"">+</div>","null","","","","","","",""
"5910.0800000014715","","instructions","580","807528","0.0-7.0","[{""page_index"":0,""viewing_time"":5908.145000008517}]","","","","","","","","",""
"836.4549999969313","","image-keyboard-response","581","808371","0.0-8.0-0.0","","img/blue.png","32","trial","null","false","0,1","4:nogo_d","",""
"null","","html-keyboard-response","582","809378","0.0-8.0-1.0","","<img src=""img/blue-n.png"" border=""10"">","null","trial","null","","0,1","4:nogo_d","0",""
"null","","html-keyboard-response","583","810384","0.0-8.0-2.0","","<div style=""font-size:60px;"">+</div>","null","","","","","","",""
"461.2300000007963","","image-keyboard-response","584","810848","0.0-8.0-0.1","","img/yellow.png","32","trial","null","false","0.2,0.8","2:nogo_b","",""
"null","","html-keyboard-response","585","811857","0.0-8.0-1.1","","<img src=""img/yellow-r.png"" border=""10"">","null","trial","null","","0.2,0.8","2:nogo_b","1",""
"null","","html-keyboard-response","586","812863","0.0-8.0-2.1","","<div style=""font-size:60px;"">+</div>","null","","","","","","",""
"483.07000000204425","","image-keyboard-response","587","813350","0.0-8.0-0.2","","img/green.png","32","trial","32","true","0.8,0.2","1:go_a","",""
"null","","html-keyboard-response","588","814358","0.0-8.0-1.2","","<img src=""img/green-r.png"" border=""10"">","null","trial","32","","0.8,0.2","1:go_a","1",""
"null","","html-keyboard-response","589","815366","0.0-8.0-2.2","","<div style=""font-size:60px;"">+</div>","null","","","","","","",""
"352.07500000251457","","image-keyboard-response","590","815722","0.0-8.0-0.3","","img/purple.png","32","trial","32","true","1,0","3:go_c","",""
"null","","html-keyboard-response","591","816729","0.0-8.0-1.3","","<img src=""img/purple-r.png"" border=""10"">","null","trial","32","","1,0","3:go_c","1",""
"null","","html-keyboard-response","592","817734","0.0-8.0-2.3","","<div style=""font-size:60px;"">+</div>","null","","","","","","",""
"590.0099999998929","","image-keyboard-response","593","818328","0.0-8.0-0.4","","img/green.png","32","trial","32","true","0.8,0.2","1:go_a","",""
"null","","html-keyboard-response","594","819336","0.0-8.0-1.4","","<img src=""img/green-r.png"" border=""10"">","null","trial","32","","0.8,0.2","1:go_a","1",""
"null","","html-keyboard-response","595","820339","0.0-8.0-2.4","","<div style=""font-size:60px;"">+</div>","null","","","","","","",""
"410.85000000020955","","image-keyboard-response","596","820755","0.0-8.0-0.5","","img/yellow.png","32","trial","null","false","0.2,0.8","2:nogo_b","",""
"null","","html-keyboard-response","597","821762","0.0-8.0-1.5","","<img src=""img/yellow-n.png"" border=""10"">","null","trial","null","","0.2,0.8","2:nogo_b","0",""
"null","","html-keyboard-response","598","822767","0.0-8.0-2.5","","<div style=""font-size:60px;"">+</div>","null","","","","","","",""
"435.0550000090152","","image-keyboard-response","599","823206","0.0-8.0-0.6","","img/purple.png","32","trial","32","true","1,0","3:go_c","",""
"null","","html-keyboard-response","600","824214","0.0-8.0-1.6","","<img src=""img/purple-r.png"" border=""10"">","null","trial","32","","1,0","3:go_c","1",""
"null","","html-keyboard-response","601","825219","0.0-8.0-2.6","","<div style=""font-size:60px;"">+</div>","null","","","","","","",""
"null","","image-keyboard-response","602","826724","0.0-8.0-0.7","","img/blue.png","null","trial","null","true","0,1","4:nogo_d","",""
"null","","html-keyboard-response","603","827732","0.0-8.0-1.7","","<img src=""img/blue-r.png"">","null","trial","null","","0,1","4:nogo_d","1",""
"null","","html-keyboard-response","604","828737","0.0-8.0-2.7","","<div style=""font-size:60px;"">+</div>","null","","","","","","",""
"464.09499998844694","","image-keyboard-response","605","829205","0.0-8.0-0.8","","img/purple.png","32","trial","32","true","1,0","3:go_c","",""
"null","","html-keyboard-response","606","830215","0.0-8.0-1.8","","<img src=""img/purple-r.png"" border=""10"">","null","trial","32","","1,0","3:go_c","1",""
"null","","html-keyboard-response","607","831220","0.0-8.0-2.8","","<div style=""font-size:60px;"">+</div>","null","","","","","","",""
"null","","image-keyboard-response","608","832725","0.0-8.0-0.9","","img/blue.png","null","trial","null","true","0,1","4:nogo_d","",""
"null","","html-keyboard-response","609","833733","0.0-8.0-1.9","","<img src=""img/blue-r.png"">","null","trial","null","","0,1","4:nogo_d","1",""
"null","","html-keyboard-response","610","834736","0.0-8.0-2.9","","<div style=""font-size:60px;"">+</div>","null","","","","","","",""
"617.4250000040047","","image-keyboard-response","611","835357","0.0-8.0-0.10","","img/green.png","32","trial","32","true","0.8,0.2","1:go_a","",""
"null","","html-keyboard-response","612","836369","0.0-8.0-1.10","","<img src=""img/green-r.png"" border=""10"">","null","trial","32","","0.8,0.2","1:go_a","1",""
"null","","html-keyboard-response","613","837374","0.0-8.0-2.10","","<div style=""font-size:60px;"">+</div>","null","","","","","","",""
"null","","image-keyboard-response","614","838880","0.0-8.0-0.11","","img/yellow.png","null","trial","null","true","0.2,0.8","2:nogo_b","",""
"null","","html-keyboard-response","615","839888","0.0-8.0-1.11","","<img src=""img/yellow-r.png"">","null","trial","null","","0.2,0.8","2:nogo_b","1",""
"null","","html-keyboard-response","616","840892","0.0-8.0-2.11","","<div style=""font-size:60px;"">+</div>","null","","","","","","",""
"null","","image-keyboard-response","617","842396","0.0-8.0-0.12","","img/blue.png","null","trial","null","true","0,1","4:nogo_d","",""
"null","","html-keyboard-response","618","843406","0.0-8.0-1.12","","<img src=""img/blue-r.png"">","null","trial","null","","0,1","4:nogo_d","1",""
"null","","html-keyboard-response","619","844411","0.0-8.0-2.12","","<div style=""font-size:60px;"">+</div>","null","","","","","","",""
"548.2049999991432","","image-keyboard-response","620","844963","0.0-8.0-0.13","","img/green.png","32","trial","32","true","0.8,0.2","1:go_a","",""
"null","","html-keyboard-response","621","845970","0.0-8.0-1.13","","<img src=""img/green-r.png"" border=""10"">","null","trial","32","","0.8,0.2","1:go_a","1",""
"null","","html-keyboard-response","622","846975","0.0-8.0-2.13","","<div style=""font-size:60px;"">+</div>","null","","","","","","",""
"null","","image-keyboard-response","623","848481","0.0-8.0-0.14","","img/yellow.png","null","trial","null","true","0.2,0.8","2:nogo_b","",""
"null","","html-keyboard-response","624","849490","0.0-8.0-1.14","","<img src=""img/yellow-r.png"">","null","trial","null","","0.2,0.8","2:nogo_b","1",""
"null","","html-keyboard-response","625","850495","0.0-8.0-2.14","","<div style=""font-size:60px;"">+</div>","null","","","","","","",""
"666.9149999943329","","image-keyboard-response","626","851165","0.0-8.0-0.15","","img/purple.png","32","trial","32","true","1,0","3:go_c","",""
"null","","html-keyboard-response","627","852174","0.0-8.0-1.15","","<img src=""img/purple-r.png"" border=""10"">","null","trial","32","","1,0","3:go_c","1",""
"null","","html-keyboard-response","628","853179","0.0-8.0-2.15","","<div style=""font-size:60px;"">+</div>","null","","","","","","",""
"481.2249999959022","","image-keyboard-response","629","853664","0.0-8.0-0.16","","img/purple.png","32","trial","32","true","1,0","3:go_c","",""
"null","","html-keyboard-response","630","854674","0.0-8.0-1.16","","<img src=""img/purple-r.png"" border=""10"">","null","trial","32","","1,0","3:go_c","1",""
"null","","html-keyboard-response","631","855677","0.0-8.0-2.16","","<div style=""font-size:60px;"">+</div>","null","","","","","","",""
"null","","image-keyboard-response","632","857182","0.0-8.0-0.17","","img/blue.png","null","trial","null","true","0,1","4:nogo_d","",""
"null","","html-keyboard-response","633","858189","0.0-8.0-1.17","","<img src=""img/blue-r.png"">","null","trial","null","","0,1","4:nogo_d","1",""
"null","","html-keyboard-response","634","859194","0.0-8.0-2.17","","<div style=""font-size:60px;"">+</div>","null","","","","","","",""
"null","","image-keyboard-response","635","860700","0.0-8.0-0.18","","img/yellow.png","null","trial","null","true","0.2,0.8","2:nogo_b","",""
"null","","html-keyboard-response","636","861708","0.0-8.0-1.18","","<img src=""img/yellow-r.png"">","null","trial","null","","0.2,0.8","2:nogo_b","1",""
"null","","html-keyboard-response","637","862712","0.0-8.0-2.18","","<div style=""font-size:60px;"">+</div>","null","","","","","","",""
"431.45499999809545","","image-keyboard-response","638","863146","0.0-8.0-0.19","","img/green.png","32","trial","32","true","0.8,0.2","1:go_a","",""
"null","","html-keyboard-response","639","864154","0.0-8.0-1.19","","<img src=""img/green-r.png"" border=""10"">","null","trial","32","","0.8,0.2","1:go_a","1",""
"null","","html-keyboard-response","640","865159","0.0-8.0-2.19","","<div style=""font-size:60px;"">+</div>","null","","","","","","",""
"485.84999999729916","","image-keyboard-response","641","865649","0.0-8.0-0.20","","img/purple.png","32","trial","32","true","1,0","3:go_c","",""
"null","","html-keyboard-response","642","866656","0.0-8.0-1.20","","<img src=""img/purple-r.png"" border=""10"">","null","trial","32","","1,0","3:go_c","1",""
"null","","html-keyboard-response","643","867660","0.0-8.0-2.20","","<div style=""font-size:60px;"">+</div>","null","","","","","","",""
"489.54500000400003","","image-keyboard-response","644","868154","0.0-8.0-0.21","","img/green.png","32","trial","32","true","0.8,0.2","1:go_a","",""
"null","","html-keyboard-response","645","869159","0.0-8.0-1.21","","<img src=""img/green-r.png"" border=""10"">","null","trial","32","","0.8,0.2","1:go_a","1",""
"null","","html-keyboard-response","646","870172","0.0-8.0-2.21","","<div style=""font-size:60px;"">+</div>","null","","","","","","",""
"null","","image-keyboard-response","647","871676","0.0-8.0-0.22","","img/blue.png","null","trial","null","true","0,1","4:nogo_d","",""
"null","","html-keyboard-response","648","872682","0.0-8.0-1.22","","<img src=""img/blue-r.png"">","null","trial","null","","0,1","4:nogo_d","1",""
"null","","html-keyboard-response","649","873685","0.0-8.0-2.22","","<div style=""font-size:60px;"">+</div>","null","","","","","","",""
"null","","image-keyboard-response","650","875188","0.0-8.0-0.23","","img/yellow.png","null","trial","null","true","0.2,0.8","2:nogo_b","",""
"null","","html-keyboard-response","651","876196","0.0-8.0-1.23","","<img src=""img/yellow-r.png"">","null","trial","null","","0.2,0.8","2:nogo_b","1",""
"null","","html-keyboard-response","652","877200","0.0-8.0-2.23","","<div style=""font-size:60px;"">+</div>","null","","","","","","",""
"null","","image-keyboard-response","653","878704","0.0-8.0-0.24","","img/blue.png","null","trial","null","true","0,1","4:nogo_d","",""
"null","","html-keyboard-response","654","879715","0.0-8.0-1.24","","<img src=""img/blue-r.png"">","null","trial","null","","0,1","4:nogo_d","1",""
"null","","html-keyboard-response","655","880719","0.0-8.0-2.24","","<div style=""font-size:60px;"">+</div>","null","","","","","","",""
"598.0450000060955","","image-keyboard-response","656","881322","0.0-8.0-0.25","","img/purple.png","32","trial","32","true","1,0","3:go_c","",""
"null","","html-keyboard-response","657","882329","0.0-8.0-1.25","","<img src=""img/purple-r.png"" border=""10"">","null","trial","32","","1,0","3:go_c","1",""
"null","","html-keyboard-response","658","883335","0.0-8.0-2.25","","<div style=""font-size:60px;"">+</div>","null","","","","","","",""
"388.98999999219086","","image-keyboard-response","659","883728","0.0-8.0-0.26","","img/green.png","32","trial","32","true","0.8,0.2","1:go_a","",""
"null","","html-keyboard-response","660","884737","0.0-8.0-1.26","","<img src=""img/green-r.png"" border=""10"">","null","trial","32","","0.8,0.2","1:go_a","1",""
"null","","html-keyboard-response","661","885742","0.0-8.0-2.26","","<div style=""font-size:60px;"">+</div>","null","","","","","","",""
"null","","image-keyboard-response","662","887247","0.0-8.0-0.27","","img/yellow.png","null","trial","null","true","0.2,0.8","2:nogo_b","",""
"null","","html-keyboard-response","663","888253","0.0-8.0-1.27","","<img src=""img/yellow-r.png"">","null","trial","null","","0.2,0.8","2:nogo_b","1",""
"null","","html-keyboard-response","664","889258","0.0-8.0-2.27","","<div style=""font-size:60px;"">+</div>","null","","","","","","",""
"null","","image-keyboard-response","665","890763","0.0-8.0-0.28","","img/yellow.png","null","trial","null","true","0.2,0.8","2:nogo_b","",""
"null","","html-keyboard-response","666","891772","0.0-8.0-1.28","","<img src=""img/yellow-r.png"">","null","trial","null","","0.2,0.8","2:nogo_b","1",""
"null","","html-keyboard-response","667","892777","0.0-8.0-2.28","","<div style=""font-size:60px;"">+</div>","null","","","","","","",""
"422.7649999957066","","image-keyboard-response","668","893204","0.0-8.0-0.29","","img/purple.png","32","trial","32","true","1,0","3:go_c","",""
"null","","html-keyboard-response","669","894212","0.0-8.0-1.29","","<img src=""img/purple-r.png"" border=""10"">","null","trial","32","","1,0","3:go_c","1",""
"null","","html-keyboard-response","670","895218","0.0-8.0-2.29","","<div style=""font-size:60px;"">+</div>","null","","","","","","",""
"717.08000000217","","image-keyboard-response","671","895939","0.0-8.0-0.30","","img/green.png","32","trial","32","true","0.8,0.2","1:go_a","",""
"null","","html-keyboard-response","672","896946","0.0-8.0-1.30","","<img src=""img/green-r.png"" border=""10"">","null","trial","32","","0.8,0.2","1:go_a","1",""
"null","","html-keyboard-response","673","897952","0.0-8.0-2.30","","<div style=""font-size:60px;"">+</div>","null","","","","","","",""
"null","","image-keyboard-response","674","899456","0.0-8.0-0.31","","img/blue.png","null","trial","null","true","0,1","4:nogo_d","",""
"null","","html-keyboard-response","675","900463","0.0-8.0-1.31","","<img src=""img/blue-r.png"">","null","trial","null","","0,1","4:nogo_d","1",""
"null","","html-keyboard-response","676","901468","0.0-8.0-2.31","","<div style=""font-size:60px;"">+</div>","null","","","","","","",""
"405.415000001085","","image-keyboard-response","677","901878","0.0-8.0-0.32","","img/green.png","32","trial","32","true","0.8,0.2","1:go_a","",""
"null","","html-keyboard-response","678","902886","0.0-8.0-1.32","","<img src=""img/green-r.png"" border=""10"">","null","trial","32","","0.8,0.2","1:go_a","1",""
"null","","html-keyboard-response","679","903891","0.0-8.0-2.32","","<div style=""font-size:60px;"">+</div>","null","","","","","","",""
"null","","image-keyboard-response","680","905394","0.0-8.0-0.33","","img/blue.png","null","trial","null","true","0,1","4:nogo_d","",""
"null","","html-keyboard-response","681","906406","0.0-8.0-1.33","","<img src=""img/blue-r.png"">","null","trial","null","","0,1","4:nogo_d","1",""
"null","","html-keyboard-response","682","907410","0.0-8.0-2.33","","<div style=""font-size:60px;"">+</div>","null","","","","","","",""
