"rt","url","trial_type","trial_index","time_elapsed","internal_node_id","view_history","stimulus","key_press","test_part","correct_response","correct","use_rew","which_stim","reward","responses"
"4815.5699998606","consent.html","external-html","0","4895","0.0-0.0","","","","","","","","","",""
"105642.92999985628","","instructions","1","110540","0.0-1.0","[{""page_index"":0,""viewing_time"":3430.2850000094622},{""page_index"":1,""viewing_time"":29767.864999826998},{""page_index"":2,""viewing_time"":4888.08499998413},{""page_index"":3,""viewing_time"":29134.280000114813},{""page_index"":4,""viewing_time"":13667.804999975488},{""page_index"":5,""viewing_time"":12175.999999977648},{""page_index"":6,""viewing_time"":12578.045000089332}]","","","","","","","","",""
"null","","image-keyboard-response","2","112042","0.0-2.0-0.0","","img/test3.PNG","null","practice","null","true","","","",""
"null","","html-keyboard-response","3","113058","0.0-2.0-1.0","","<img src=""img/test3-reward.PNG"">","null","","","","","","",""
"null","","html-keyboard-response","4","114059","0.0-2.0-2.0","","<div style=""font-size:60px;"">+</div>","null","","","","","","",""
"400.95499996095896","","image-keyboard-response","5","114461","0.0-2.0-0.1","","img/test1.PNG","32","practice","32","true","","","",""
"null","","html-keyboard-response","6","115463","0.0-2.0-1.1","","<img src=""img/test1-reward.PNG"" border=""10px; grey"">","null","","","","","","",""
"null","","html-keyboard-response","7","116464","0.0-2.0-2.1","","<div style=""font-size:60px;"">+</div>","null","","","","","","",""
"1028.3900001086295","","image-keyboard-response","8","117493","0.0-2.0-0.2","","img/test2.PNG","32","practice","null","false","","","",""
"null","","html-keyboard-response","9","118495","0.0-2.0-1.2","","<img src=""img/test2-neutral.PNG"" border=""10px; grey"">","null","","","","","","",""
"null","","html-keyboard-response","10","119495","0.0-2.0-2.2","","<div style=""font-size:60px;"">+</div>","null","","","","","","",""
"428.8900000974536","","image-keyboard-response","11","119925","0.0-2.0-0.3","","img/test1.PNG","32","practice","32","true","","","",""
"null","","html-keyboard-response","12","120926","0.0-2.0-1.3","","<img src=""img/test1-reward.PNG"" border=""10px; grey"">","null","","","","","","",""
"null","","html-keyboard-response","13","121928","0.0-2.0-2.3","","<div style=""font-size:60px;"">+</div>","null","","","","","","",""
"null","","image-keyboard-response","14","123429","0.0-2.0-0.4","","img/test3.PNG","null","practice","null","true","","","",""
"null","","html-keyboard-response","15","124430","0.0-2.0-1.4","","<img src=""img/test3-reward.PNG"">","null","","","","","","",""
"null","","html-keyboard-response","16","125432","0.0-2.0-2.4","","<div style=""font-size:60px;"">+</div>","null","","","","","","",""
"null","","image-keyboard-response","17","126934","0.0-2.0-0.5","","img/test2.PNG","null","practice","null","true","","","",""
"null","","html-keyboard-response","18","127935","0.0-2.0-1.5","","<img src=""img/test2-reward.PNG"">","null","","","","","","",""
"null","","html-keyboard-response","19","128937","0.0-2.0-2.5","","<div style=""font-size:60px;"">+</div>","null","","","","","","",""
"null","","image-keyboard-response","20","130439","0.0-2.0-0.6","","img/test3.PNG","null","practice","null","true","","","",""
"null","","html-keyboard-response","21","131440","0.0-2.0-1.6","","<img src=""img/test3-reward.PNG"">","null","","","","","","",""
"null","","html-keyboard-response","22","132441","0.0-2.0-2.6","","<div style=""font-size:60px;"">+</div>","null","","","","","","",""
"null","","image-keyboard-response","23","133942","0.0-2.0-0.7","","img/test2.PNG","null","practice","null","true","","","",""
"null","","html-keyboard-response","24","134943","0.0-2.0-1.7","","<img src=""img/test2-reward.PNG"">","null","","","","","","",""
"null","","html-keyboard-response","25","135944","0.0-2.0-2.7","","<div style=""font-size:60px;"">+</div>","null","","","","","","",""
"452.36500003375113","","image-keyboard-response","26","136398","0.0-2.0-0.8","","img/test1.PNG","32","practice","32","true","","","",""
"null","","html-keyboard-response","27","137399","0.0-2.0-1.8","","<img src=""img/test1-reward.PNG"" border=""10px; grey"">","null","","","","","","",""
"null","","html-keyboard-response","28","138401","0.0-2.0-2.8","","<div style=""font-size:60px;"">+</div>","null","","","","","","",""
"null","","image-keyboard-response","29","139901","0.0-2.0-0.9","","img/test2.PNG","null","practice","null","true","","","",""
"null","","html-keyboard-response","30","140902","0.0-2.0-1.9","","<img src=""img/test2-reward.PNG"">","null","","","","","","",""
"null","","html-keyboard-response","31","141904","0.0-2.0-2.9","","<div style=""font-size:60px;"">+</div>","null","","","","","","",""
"null","","image-keyboard-response","32","143405","0.0-2.0-0.10","","img/test3.PNG","null","practice","null","true","","","",""
"null","","html-keyboard-response","33","144407","0.0-2.0-1.10","","<img src=""img/test3-reward.PNG"">","null","","","","","","",""
"null","","html-keyboard-response","34","145407","0.0-2.0-2.10","","<div style=""font-size:60px;"">+</div>","null","","","","","","",""
"373.2499999459833","","image-keyboard-response","35","145781","0.0-2.0-0.11","","img/test1.PNG","32","practice","32","true","","","",""
"null","","html-keyboard-response","36","146782","0.0-2.0-1.11","","<img src=""img/test1-reward.PNG"" border=""10px; grey"">","null","","","","","","",""
"null","","html-keyboard-response","37","147784","0.0-2.0-2.11","","<div style=""font-size:60px;"">+</div>","null","","","","","","",""
"2138.255000114441","","instructions","38","149922","0.0-3.0","[{""page_index"":0,""viewing_time"":2138.10500013642}]","","","","","","","","",""
"858.3150000777096","","image-keyboard-response","39","150781","0.0-4.0-0.0","","img/blue.png","32","trial","32","true","0.8,0.2","1:go_a","",""
"null","","html-keyboard-response","40","151783","0.0-4.0-1.0","","<img src=""img/blue-r.png"" border=""10"">","null","trial","32","","0.8,0.2","1:go_a","1",""
"null","","html-keyboard-response","41","152784","0.0-4.0-2.0","","<div style=""font-size:60px;"">+</div>","null","","","","","","",""
"565.2600000612438","","image-keyboard-response","42","153349","0.0-4.0-0.1","","img/green.png","32","trial","null","false","0.2,0.8","2:nogo_b","",""
"null","","html-keyboard-response","43","154353","0.0-4.0-1.1","","<img src=""img/green-n.png"" border=""10"">","null","trial","null","","0.2,0.8","2:nogo_b","0",""
"null","","html-keyboard-response","44","155354","0.0-4.0-2.1","","<div style=""font-size:60px;"">+</div>","null","","","","","","",""
"null","","image-keyboard-response","45","156855","0.0-4.0-0.2","","img/green.png","null","trial","null","true","0.2,0.8","2:nogo_b","",""
"null","","html-keyboard-response","46","157856","0.0-4.0-1.2","","<img src=""img/green-r.png"">","null","trial","null","","0.2,0.8","2:nogo_b","1",""
"null","","html-keyboard-response","47","158858","0.0-4.0-2.2","","<div style=""font-size:60px;"">+</div>","null","","","","","","",""
"586.6199999582022","","image-keyboard-response","48","159446","0.0-4.0-0.3","","img/blue.png","32","trial","32","true","0.8,0.2","1:go_a","",""
"null","","html-keyboard-response","49","160448","0.0-4.0-1.3","","<img src=""img/blue-r.png"" border=""10"">","null","trial","32","","0.8,0.2","1:go_a","1",""
"null","","html-keyboard-response","50","161449","0.0-4.0-2.3","","<div style=""font-size:60px;"">+</div>","null","","","","","","",""
"null","","image-keyboard-response","51","162949","0.0-4.0-0.4","","img/green.png","null","trial","null","true","0.2,0.8","2:nogo_b","",""
"null","","html-keyboard-response","52","163951","0.0-4.0-1.4","","<img src=""img/green-r.png"">","null","trial","null","","0.2,0.8","2:nogo_b","1",""
"null","","html-keyboard-response","53","164952","0.0-4.0-2.4","","<div style=""font-size:60px;"">+</div>","null","","","","","","",""
"525.5599999800324","","image-keyboard-response","54","165478","0.0-4.0-0.5","","img/blue.png","32","trial","32","true","0.8,0.2","1:go_a","",""
"null","","html-keyboard-response","55","166480","0.0-4.0-1.5","","<img src=""img/blue-r.png"" border=""10"">","null","trial","32","","0.8,0.2","1:go_a","1",""
"null","","html-keyboard-response","56","167480","0.0-4.0-2.5","","<div style=""font-size:60px;"">+</div>","null","","","","","","",""
"597.0000000670552","","image-keyboard-response","57","168078","0.0-4.0-0.6","","img/blue.png","32","trial","32","true","0.8,0.2","1:go_a","",""
"null","","html-keyboard-response","58","169079","0.0-4.0-1.6","","<img src=""img/blue-r.png"" border=""10"">","null","trial","32","","0.8,0.2","1:go_a","1",""
"null","","html-keyboard-response","59","170081","0.0-4.0-2.6","","<div style=""font-size:60px;"">+</div>","null","","","","","","",""
"null","","image-keyboard-response","60","171582","0.0-4.0-0.7","","img/green.png","null","trial","null","true","0.2,0.8","2:nogo_b","",""
"null","","html-keyboard-response","61","172583","0.0-4.0-1.7","","<img src=""img/green-r.png"">","null","trial","null","","0.2,0.8","2:nogo_b","1",""
"null","","html-keyboard-response","62","173585","0.0-4.0-2.7","","<div style=""font-size:60px;"">+</div>","null","","","","","","",""
"468.36999990046024","","image-keyboard-response","63","174054","0.0-4.0-0.8","","img/blue.png","32","trial","32","true","0.8,0.2","1:go_a","",""
"null","","html-keyboard-response","64","175056","0.0-4.0-1.8","","<img src=""img/blue-r.png"" border=""10"">","null","trial","32","","0.8,0.2","1:go_a","1",""
"null","","html-keyboard-response","65","176057","0.0-4.0-2.8","","<div style=""font-size:60px;"">+</div>","null","","","","","","",""
"null","","image-keyboard-response","66","177558","0.0-4.0-0.9","","img/green.png","null","trial","null","true","0.2,0.8","2:nogo_b","",""
"null","","html-keyboard-response","67","178559","0.0-4.0-1.9","","<img src=""img/green-r.png"">","null","trial","null","","0.2,0.8","2:nogo_b","1",""
"null","","html-keyboard-response","68","179561","0.0-4.0-2.9","","<div style=""font-size:60px;"">+</div>","null","","","","","","",""
"null","","image-keyboard-response","69","181062","0.0-4.0-0.10","","img/green.png","null","trial","null","true","0.2,0.8","2:nogo_b","",""
"null","","html-keyboard-response","70","182064","0.0-4.0-1.10","","<img src=""img/green-r.png"">","null","trial","null","","0.2,0.8","2:nogo_b","1",""
"null","","html-keyboard-response","71","183065","0.0-4.0-2.10","","<div style=""font-size:60px;"">+</div>","null","","","","","","",""
"516.3350000511855","","image-keyboard-response","72","183582","0.0-4.0-0.11","","img/blue.png","32","trial","32","true","0.8,0.2","1:go_a","",""
"null","","html-keyboard-response","73","184584","0.0-4.0-1.11","","<img src=""img/blue-r.png"" border=""10"">","null","trial","32","","0.8,0.2","1:go_a","1",""
"null","","html-keyboard-response","74","185585","0.0-4.0-2.11","","<div style=""font-size:60px;"">+</div>","null","","","","","","",""
"null","","image-keyboard-response","75","187086","0.0-4.0-0.12","","img/green.png","null","trial","null","true","0.2,0.8","2:nogo_b","",""
"null","","html-keyboard-response","76","188088","0.0-4.0-1.12","","<img src=""img/green-n.png"">","null","trial","null","","0.2,0.8","2:nogo_b","0",""
"null","","html-keyboard-response","77","189089","0.0-4.0-2.12","","<div style=""font-size:60px;"">+</div>","null","","","","","","",""
"411.6250001825392","","image-keyboard-response","78","189502","0.0-4.0-0.13","","img/blue.png","32","trial","32","true","0.8,0.2","1:go_a","",""
"null","","html-keyboard-response","79","190511","0.0-4.0-1.13","","<img src=""img/blue-r.png"" border=""10"">","null","trial","32","","0.8,0.2","1:go_a","1",""
"null","","html-keyboard-response","80","191512","0.0-4.0-2.13","","<div style=""font-size:60px;"">+</div>","null","","","","","","",""
"476.49999987334013","","image-keyboard-response","81","191989","0.0-4.0-0.14","","img/blue.png","32","trial","32","true","0.8,0.2","1:go_a","",""
"null","","html-keyboard-response","82","192991","0.0-4.0-1.14","","<img src=""img/blue-r.png"" border=""10"">","null","trial","32","","0.8,0.2","1:go_a","1",""
"null","","html-keyboard-response","83","193998","0.0-4.0-2.14","","<div style=""font-size:60px;"">+</div>","null","","","","","","",""
"null","","image-keyboard-response","84","195500","0.0-4.0-0.15","","img/green.png","null","trial","null","true","0.2,0.8","2:nogo_b","",""
"null","","html-keyboard-response","85","196501","0.0-4.0-1.15","","<img src=""img/green-n.png"">","null","trial","null","","0.2,0.8","2:nogo_b","0",""
"null","","html-keyboard-response","86","197503","0.0-4.0-2.15","","<div style=""font-size:60px;"">+</div>","null","","","","","","",""
"469.9600001331419","","image-keyboard-response","87","197973","0.0-4.0-0.16","","img/green.png","32","trial","null","false","0.2,0.8","2:nogo_b","",""
"null","","html-keyboard-response","88","198976","0.0-4.0-1.16","","<img src=""img/green-n.png"" border=""10"">","null","trial","null","","0.2,0.8","2:nogo_b","0",""
"null","","html-keyboard-response","89","199977","0.0-4.0-2.16","","<div style=""font-size:60px;"">+</div>","null","","","","","","",""
"411.88000002875924","","image-keyboard-response","90","200389","0.0-4.0-0.17","","img/blue.png","32","trial","32","true","0.8,0.2","1:go_a","",""
"null","","html-keyboard-response","91","201392","0.0-4.0-1.17","","<img src=""img/blue-r.png"" border=""10"">","null","trial","32","","0.8,0.2","1:go_a","1",""
"null","","html-keyboard-response","92","202393","0.0-4.0-2.17","","<div style=""font-size:60px;"">+</div>","null","","","","","","",""
"707.9050000756979","","image-keyboard-response","93","203101","0.0-4.0-0.18","","img/green.png","32","trial","null","false","0.2,0.8","2:nogo_b","",""
"null","","html-keyboard-response","94","204103","0.0-4.0-1.18","","<img src=""img/green-n.png"" border=""10"">","null","trial","null","","0.2,0.8","2:nogo_b","0",""
"null","","html-keyboard-response","95","205104","0.0-4.0-2.18","","<div style=""font-size:60px;"">+</div>","null","","","","","","",""
"420.42499990202487","","image-keyboard-response","96","205525","0.0-4.0-0.19","","img/blue.png","32","trial","32","true","0.8,0.2","1:go_a","",""
"null","","html-keyboard-response","97","206526","0.0-4.0-1.19","","<img src=""img/blue-r.png"" border=""10"">","null","trial","32","","0.8,0.2","1:go_a","1",""
"null","","html-keyboard-response","98","207528","0.0-4.0-2.19","","<div style=""font-size:60px;"">+</div>","null","","","","","","",""
"null","","image-keyboard-response","99","209032","0.0-4.0-0.20","","img/green.png","null","trial","null","true","0.2,0.8","2:nogo_b","",""
"null","","html-keyboard-response","100","210034","0.0-4.0-1.20","","<img src=""img/green-r.png"">","null","trial","null","","0.2,0.8","2:nogo_b","1",""
"null","","html-keyboard-response","101","211044","0.0-4.0-2.20","","<div style=""font-size:60px;"">+</div>","null","","","","","","",""
"433.43500001356006","","image-keyboard-response","102","211478","0.0-4.0-0.21","","img/blue.png","32","trial","32","true","0.8,0.2","1:go_a","",""
"null","","html-keyboard-response","103","212479","0.0-4.0-1.21","","<img src=""img/blue-r.png"" border=""10"">","null","trial","32","","0.8,0.2","1:go_a","1",""
"null","","html-keyboard-response","104","213487","0.0-4.0-2.21","","<div style=""font-size:60px;"">+</div>","null","","","","","","",""
"478.15999994054437","","image-keyboard-response","105","213965","0.0-4.0-0.22","","img/blue.png","32","trial","32","true","0.8,0.2","1:go_a","",""
"null","","html-keyboard-response","106","214978","0.0-4.0-1.22","","<img src=""img/blue-r.png"" border=""10"">","null","trial","32","","0.8,0.2","1:go_a","1",""
"null","","html-keyboard-response","107","215980","0.0-4.0-2.22","","<div style=""font-size:60px;"">+</div>","null","","","","","","",""
"null","","image-keyboard-response","108","217482","0.0-4.0-0.23","","img/green.png","null","trial","null","true","0.2,0.8","2:nogo_b","",""
"null","","html-keyboard-response","109","218483","0.0-4.0-1.23","","<img src=""img/green-r.png"">","null","trial","null","","0.2,0.8","2:nogo_b","1",""
"null","","html-keyboard-response","110","219485","0.0-4.0-2.23","","<div style=""font-size:60px;"">+</div>","null","","","","","","",""
"368.52499982342124","","image-keyboard-response","111","219854","0.0-4.0-0.24","","img/blue.png","32","trial","32","true","0.8,0.2","1:go_a","",""
"null","","html-keyboard-response","112","220856","0.0-4.0-1.24","","<img src=""img/blue-r.png"" border=""10"">","null","trial","32","","0.8,0.2","1:go_a","1",""
"null","","html-keyboard-response","113","221857","0.0-4.0-2.24","","<div style=""font-size:60px;"">+</div>","null","","","","","","",""
"null","","image-keyboard-response","114","223359","0.0-4.0-0.25","","img/green.png","null","trial","null","true","0.2,0.8","2:nogo_b","",""
"null","","html-keyboard-response","115","224361","0.0-4.0-1.25","","<img src=""img/green-n.png"">","null","trial","null","","0.2,0.8","2:nogo_b","0",""
"null","","html-keyboard-response","116","225362","0.0-4.0-2.25","","<div style=""font-size:60px;"">+</div>","null","","","","","","",""
"null","","image-keyboard-response","117","226863","0.0-4.0-0.26","","img/green.png","null","trial","null","true","0.2,0.8","2:nogo_b","",""
"null","","html-keyboard-response","118","227864","0.0-4.0-1.26","","<img src=""img/green-r.png"">","null","trial","null","","0.2,0.8","2:nogo_b","1",""
"null","","html-keyboard-response","119","228866","0.0-4.0-2.26","","<div style=""font-size:60px;"">+</div>","null","","","","","","",""
"418.83000009693205","","image-keyboard-response","120","229286","0.0-4.0-0.27","","img/blue.png","32","trial","32","true","0.8,0.2","1:go_a","",""
"null","","html-keyboard-response","121","230288","0.0-4.0-1.27","","<img src=""img/blue-r.png"" border=""10"">","null","trial","32","","0.8,0.2","1:go_a","1",""
"null","","html-keyboard-response","122","231289","0.0-4.0-2.27","","<div style=""font-size:60px;"">+</div>","null","","","","","","",""
"452.00999989174306","","image-keyboard-response","123","231741","0.0-4.0-0.28","","img/blue.png","32","trial","32","true","0.8,0.2","1:go_a","",""
"null","","html-keyboard-response","124","232743","0.0-4.0-1.28","","<img src=""img/blue-r.png"" border=""10"">","null","trial","32","","0.8,0.2","1:go_a","1",""
"null","","html-keyboard-response","125","233743","0.0-4.0-2.28","","<div style=""font-size:60px;"">+</div>","null","","","","","","",""
"null","","image-keyboard-response","126","235244","0.0-4.0-0.29","","img/green.png","null","trial","null","true","0.2,0.8","2:nogo_b","",""
"null","","html-keyboard-response","127","236246","0.0-4.0-1.29","","<img src=""img/green-r.png"">","null","trial","null","","0.2,0.8","2:nogo_b","1",""
"null","","html-keyboard-response","128","237247","0.0-4.0-2.29","","<div style=""font-size:60px;"">+</div>","null","","","","","","",""
"373.46000014804304","","image-keyboard-response","129","237621","0.0-4.0-0.30","","img/blue.png","32","trial","32","true","0.8,0.2","1:go_a","",""
"null","","html-keyboard-response","130","238635","0.0-4.0-1.30","","<img src=""img/blue-r.png"" border=""10"">","null","trial","32","","0.8,0.2","1:go_a","1",""
"null","","html-keyboard-response","131","239636","0.0-4.0-2.30","","<div style=""font-size:60px;"">+</div>","null","","","","","","",""
"null","","image-keyboard-response","132","241137","0.0-4.0-0.31","","img/green.png","null","trial","null","true","0.2,0.8","2:nogo_b","",""
"null","","html-keyboard-response","133","242139","0.0-4.0-1.31","","<img src=""img/green-r.png"">","null","trial","null","","0.2,0.8","2:nogo_b","1",""
"null","","html-keyboard-response","134","243140","0.0-4.0-2.31","","<div style=""font-size:60px;"">+</div>","null","","","","","","",""
"null","","image-keyboard-response","135","244641","0.0-4.0-0.32","","img/green.png","null","trial","null","true","0.2,0.8","2:nogo_b","",""
"null","","html-keyboard-response","136","245643","0.0-4.0-1.32","","<img src=""img/green-r.png"">","null","trial","null","","0.2,0.8","2:nogo_b","1",""
"null","","html-keyboard-response","137","246644","0.0-4.0-2.32","","<div style=""font-size:60px;"">+</div>","null","","","","","","",""
"417.4600001424551","","image-keyboard-response","138","247062","0.0-4.0-0.33","","img/blue.png","32","trial","32","true","0.8,0.2","1:go_a","",""
"null","","html-keyboard-response","139","248064","0.0-4.0-1.33","","<img src=""img/blue-r.png"" border=""10"">","null","trial","32","","0.8,0.2","1:go_a","1",""
"null","","html-keyboard-response","140","249065","0.0-4.0-2.33","","<div style=""font-size:60px;"">+</div>","null","","","","","","",""
"null","","image-keyboard-response","141","250567","0.0-4.0-0.34","","img/green.png","null","trial","null","true","0.2,0.8","2:nogo_b","",""
"null","","html-keyboard-response","142","251569","0.0-4.0-1.34","","<img src=""img/green-n.png"">","null","trial","null","","0.2,0.8","2:nogo_b","0",""
"null","","html-keyboard-response","143","252569","0.0-4.0-2.34","","<div style=""font-size:60px;"">+</div>","null","","","","","","",""
"452.21500005573034","","image-keyboard-response","144","253022","0.0-4.0-0.35","","img/blue.png","32","trial","32","true","0.8,0.2","1:go_a","",""
"null","","html-keyboard-response","145","254024","0.0-4.0-1.35","","<img src=""img/blue-r.png"" border=""10"">","null","trial","32","","0.8,0.2","1:go_a","1",""
"null","","html-keyboard-response","146","255025","0.0-4.0-2.35","","<div style=""font-size:60px;"">+</div>","null","","","","","","",""
"396.4450000785291","","image-keyboard-response","147","255422","0.0-4.0-0.36","","img/blue.png","32","trial","32","true","0.8,0.2","1:go_a","",""
"null","","html-keyboard-response","148","256424","0.0-4.0-1.36","","<img src=""img/blue-r.png"" border=""10"">","null","trial","32","","0.8,0.2","1:go_a","1",""
"null","","html-keyboard-response","149","257426","0.0-4.0-2.36","","<div style=""font-size:60px;"">+</div>","null","","","","","","",""
"null","","image-keyboard-response","150","258926","0.0-4.0-0.37","","img/green.png","null","trial","null","true","0.2,0.8","2:nogo_b","",""
"null","","html-keyboard-response","151","259928","0.0-4.0-1.37","","<img src=""img/green-n.png"">","null","trial","null","","0.2,0.8","2:nogo_b","0",""
"null","","html-keyboard-response","152","260929","0.0-4.0-2.37","","<div style=""font-size:60px;"">+</div>","null","","","","","","",""
"476.75000014714897","","image-keyboard-response","153","261406","0.0-4.0-0.38","","img/blue.png","32","trial","32","true","0.8,0.2","1:go_a","",""
"null","","html-keyboard-response","154","262408","0.0-4.0-1.38","","<img src=""img/blue-n.png"" border=""10"">","null","trial","32","","0.8,0.2","1:go_a","0",""
"null","","html-keyboard-response","155","263409","0.0-4.0-2.38","","<div style=""font-size:60px;"">+</div>","null","","","","","","",""
"null","","image-keyboard-response","156","264911","0.0-4.0-0.39","","img/green.png","null","trial","null","true","0.2,0.8","2:nogo_b","",""
"null","","html-keyboard-response","157","265913","0.0-4.0-1.39","","<img src=""img/green-r.png"">","null","trial","null","","0.2,0.8","2:nogo_b","1",""
"null","","html-keyboard-response","158","266913","0.0-4.0-2.39","","<div style=""font-size:60px;"">+</div>","null","","","","","","",""
"395.869999891147","","image-keyboard-response","159","267310","0.0-4.0-0.40","","img/blue.png","32","trial","32","true","0.8,0.2","1:go_a","",""
"null","","html-keyboard-response","160","268312","0.0-4.0-1.40","","<img src=""img/blue-r.png"" border=""10"">","null","trial","32","","0.8,0.2","1:go_a","1",""
"null","","html-keyboard-response","161","269314","0.0-4.0-2.40","","<div style=""font-size:60px;"">+</div>","null","","","","","","",""
"null","","image-keyboard-response","162","270815","0.0-4.0-0.41","","img/green.png","null","trial","null","true","0.2,0.8","2:nogo_b","",""
"null","","html-keyboard-response","163","271816","0.0-4.0-1.41","","<img src=""img/green-r.png"">","null","trial","null","","0.2,0.8","2:nogo_b","1",""
"null","","html-keyboard-response","164","272817","0.0-4.0-2.41","","<div style=""font-size:60px;"">+</div>","null","","","","","","",""
"443.9999999012798","","image-keyboard-response","165","273262","0.0-4.0-0.42","","img/blue.png","32","trial","32","true","0.8,0.2","1:go_a","",""
"null","","html-keyboard-response","166","274263","0.0-4.0-1.42","","<img src=""img/blue-r.png"" border=""10"">","null","trial","32","","0.8,0.2","1:go_a","1",""
"null","","html-keyboard-response","167","275265","0.0-4.0-2.42","","<div style=""font-size:60px;"">+</div>","null","","","","","","",""
"null","","image-keyboard-response","168","276767","0.0-4.0-0.43","","img/green.png","null","trial","null","true","0.2,0.8","2:nogo_b","",""
"null","","html-keyboard-response","169","277771","0.0-4.0-1.43","","<img src=""img/green-r.png"">","null","trial","null","","0.2,0.8","2:nogo_b","1",""
"null","","html-keyboard-response","170","278771","0.0-4.0-2.43","","<div style=""font-size:60px;"">+</div>","null","","","","","","",""
"489.83000009320676","","image-keyboard-response","171","279262","0.0-4.0-0.44","","img/blue.png","32","trial","32","true","0.8,0.2","1:go_a","",""
"null","","html-keyboard-response","172","280265","0.0-4.0-1.44","","<img src=""img/blue-r.png"" border=""10"">","null","trial","32","","0.8,0.2","1:go_a","1",""
"null","","html-keyboard-response","173","281265","0.0-4.0-2.44","","<div style=""font-size:60px;"">+</div>","null","","","","","","",""
"null","","image-keyboard-response","174","282766","0.0-4.0-0.45","","img/green.png","null","trial","null","true","0.2,0.8","2:nogo_b","",""
"null","","html-keyboard-response","175","283768","0.0-4.0-1.45","","<img src=""img/green-r.png"">","null","trial","null","","0.2,0.8","2:nogo_b","1",""
"null","","html-keyboard-response","176","284769","0.0-4.0-2.45","","<div style=""font-size:60px;"">+</div>","null","","","","","","",""
"null","","image-keyboard-response","177","286270","0.0-4.0-0.46","","img/green.png","null","trial","null","true","0.2,0.8","2:nogo_b","",""
"null","","html-keyboard-response","178","287272","0.0-4.0-1.46","","<img src=""img/green-r.png"">","null","trial","null","","0.2,0.8","2:nogo_b","1",""
"null","","html-keyboard-response","179","288273","0.0-4.0-2.46","","<div style=""font-size:60px;"">+</div>","null","","","","","","",""
"676.9199999980628","","image-keyboard-response","180","288950","0.0-4.0-0.47","","img/blue.png","32","trial","32","true","0.8,0.2","1:go_a","",""
"null","","html-keyboard-response","181","289952","0.0-4.0-1.47","","<img src=""img/blue-r.png"" border=""10"">","null","trial","32","","0.8,0.2","1:go_a","1",""
"null","","html-keyboard-response","182","290953","0.0-4.0-2.47","","<div style=""font-size:60px;"">+</div>","null","","","","","","",""
"603.9399998262525","","image-keyboard-response","183","291558","0.0-4.0-0.48","","img/blue.png","32","trial","32","true","0.8,0.2","1:go_a","",""
"null","","html-keyboard-response","184","292560","0.0-4.0-1.48","","<img src=""img/blue-r.png"" border=""10"">","null","trial","32","","0.8,0.2","1:go_a","1",""
"null","","html-keyboard-response","185","293560","0.0-4.0-2.48","","<div style=""font-size:60px;"">+</div>","null","","","","","","",""
"null","","image-keyboard-response","186","295063","0.0-4.0-0.49","","img/green.png","null","trial","null","true","0.2,0.8","2:nogo_b","",""
"null","","html-keyboard-response","187","296064","0.0-4.0-1.49","","<img src=""img/green-n.png"">","null","trial","null","","0.2,0.8","2:nogo_b","0",""
"null","","html-keyboard-response","188","297065","0.0-4.0-2.49","","<div style=""font-size:60px;"">+</div>","null","","","","","","",""
"556.3250000122935","","image-keyboard-response","189","297622","0.0-4.0-0.50","","img/blue.png","32","trial","32","true","0.8,0.2","1:go_a","",""
"null","","html-keyboard-response","190","298624","0.0-4.0-1.50","","<img src=""img/blue-r.png"" border=""10"">","null","trial","32","","0.8,0.2","1:go_a","1",""
"null","","html-keyboard-response","191","299625","0.0-4.0-2.50","","<div style=""font-size:60px;"">+</div>","null","","","","","","",""
"null","","image-keyboard-response","192","301127","0.0-4.0-0.51","","img/green.png","null","trial","null","true","0.2,0.8","2:nogo_b","",""
"null","","html-keyboard-response","193","302128","0.0-4.0-1.51","","<img src=""img/green-r.png"">","null","trial","null","","0.2,0.8","2:nogo_b","1",""
"null","","html-keyboard-response","194","303130","0.0-4.0-2.51","","<div style=""font-size:60px;"">+</div>","null","","","","","","",""
"587.2250001411885","","image-keyboard-response","195","303718","0.0-4.0-0.52","","img/blue.png","32","trial","32","true","0.8,0.2","1:go_a","",""
"null","","html-keyboard-response","196","304719","0.0-4.0-1.52","","<img src=""img/blue-r.png"" border=""10"">","null","trial","32","","0.8,0.2","1:go_a","1",""
"null","","html-keyboard-response","197","305721","0.0-4.0-2.52","","<div style=""font-size:60px;"">+</div>","null","","","","","","",""
"null","","image-keyboard-response","198","307223","0.0-4.0-0.53","","img/green.png","null","trial","null","true","0.2,0.8","2:nogo_b","",""
"null","","html-keyboard-response","199","308225","0.0-4.0-1.53","","<img src=""img/green-n.png"">","null","trial","null","","0.2,0.8","2:nogo_b","0",""
"null","","html-keyboard-response","200","309226","0.0-4.0-2.53","","<div style=""font-size:60px;"">+</div>","null","","","","","","",""
"null","","image-keyboard-response","201","310727","0.0-4.0-0.54","","img/green.png","null","trial","null","true","0.2,0.8","2:nogo_b","",""
"null","","html-keyboard-response","202","311729","0.0-4.0-1.54","","<img src=""img/green-n.png"">","null","trial","null","","0.2,0.8","2:nogo_b","0",""
"null","","html-keyboard-response","203","312731","0.0-4.0-2.54","","<div style=""font-size:60px;"">+</div>","null","","","","","","",""
"442.75499996729195","","image-keyboard-response","204","313174","0.0-4.0-0.55","","img/blue.png","32","trial","32","true","0.8,0.2","1:go_a","",""
"null","","html-keyboard-response","205","314175","0.0-4.0-1.55","","<img src=""img/blue-n.png"" border=""10"">","null","trial","32","","0.8,0.2","1:go_a","0",""
"null","","html-keyboard-response","206","315177","0.0-4.0-2.55","","<div style=""font-size:60px;"">+</div>","null","","","","","","",""
"null","","image-keyboard-response","207","316678","0.0-4.0-0.56","","img/green.png","null","trial","null","true","0.2,0.8","2:nogo_b","",""
"null","","html-keyboard-response","208","317679","0.0-4.0-1.56","","<img src=""img/green-n.png"">","null","trial","null","","0.2,0.8","2:nogo_b","0",""
"null","","html-keyboard-response","209","318680","0.0-4.0-2.56","","<div style=""font-size:60px;"">+</div>","null","","","","","","",""
"413.8700000476092","","image-keyboard-response","210","319094","0.0-4.0-0.57","","img/blue.png","32","trial","32","true","0.8,0.2","1:go_a","",""
"null","","html-keyboard-response","211","320096","0.0-4.0-1.57","","<img src=""img/blue-r.png"" border=""10"">","null","trial","32","","0.8,0.2","1:go_a","1",""
"null","","html-keyboard-response","212","321098","0.0-4.0-2.57","","<div style=""font-size:60px;"">+</div>","null","","","","","","",""
"595.7600001711398","","image-keyboard-response","213","321694","0.0-4.0-0.58","","img/blue.png","32","trial","32","true","0.8,0.2","1:go_a","",""
"null","","html-keyboard-response","214","322696","0.0-4.0-1.58","","<img src=""img/blue-r.png"" border=""10"">","null","trial","32","","0.8,0.2","1:go_a","1",""
"null","","html-keyboard-response","215","323697","0.0-4.0-2.58","","<div style=""font-size:60px;"">+</div>","null","","","","","","",""
"null","","image-keyboard-response","216","325199","0.0-4.0-0.59","","img/green.png","null","trial","null","true","0.2,0.8","2:nogo_b","",""
"null","","html-keyboard-response","217","326201","0.0-4.0-1.59","","<img src=""img/green-n.png"">","null","trial","null","","0.2,0.8","2:nogo_b","0",""
"null","","html-keyboard-response","218","327202","0.0-4.0-2.59","","<div style=""font-size:60px;"">+</div>","null","","","","","","",""
"585672.6899999194","","instructions","219","912874","0.0-5.0","[{""page_index"":0,""viewing_time"":585672.4399998784}]","","","","","","","","",""
"980.0099998246878","","image-keyboard-response","220","913855","0.0-6.0-0.0","","img/red.png","32","trial","null","false","0.2,0.8","2:nogo_b","",""
"null","","html-keyboard-response","221","914857","0.0-6.0-1.0","","<img src=""img/red-n.png"" border=""10"">","null","trial","null","","0.2,0.8","2:nogo_b","0",""
"null","","html-keyboard-response","222","915858","0.0-6.0-2.0","","<div style=""font-size:60px;"">+</div>","null","","","","","","",""
"628.7000000011176","","image-keyboard-response","223","916487","0.0-6.0-0.1","","img/grey.png","32","trial","null","false","0.2,0.8","4:nogo_d","",""
"null","","html-keyboard-response","224","917488","0.0-6.0-1.1","","<img src=""img/grey-r.png"" border=""10"">","null","trial","null","","0.2,0.8","4:nogo_d","1",""
"null","","html-keyboard-response","225","918490","0.0-6.0-2.1","","<div style=""font-size:60px;"">+</div>","null","","","","","","",""
"892.6750000100583","","image-keyboard-response","226","919383","0.0-6.0-0.2","","img/orange.png","32","trial","32","true","0.8,0.2","3:go_c","",""
"null","","html-keyboard-response","227","920385","0.0-6.0-1.2","","<img src=""img/orange-r.png"" border=""10"">","null","trial","32","","0.8,0.2","3:go_c","1",""
"null","","html-keyboard-response","228","921386","0.0-6.0-2.2","","<div style=""font-size:60px;"">+</div>","null","","","","","","",""
"940.7500000670552","","image-keyboard-response","229","922327","0.0-6.0-0.3","","img/green.png","32","trial","32","true","0.8,0.2","1:go_a","",""
"null","","html-keyboard-response","230","923329","0.0-6.0-1.3","","<img src=""img/green-r.png"" border=""10"">","null","trial","32","","0.8,0.2","1:go_a","1",""
"null","","html-keyboard-response","231","924331","0.0-6.0-2.3","","<div style=""font-size:60px;"">+</div>","null","","","","","","",""
"595.8899999968708","","image-keyboard-response","232","924927","0.0-6.0-0.4","","img/green.png","32","trial","32","true","0.8,0.2","1:go_a","",""
"null","","html-keyboard-response","233","925929","0.0-6.0-1.4","","<img src=""img/green-n.png"" border=""10"">","null","trial","32","","0.8,0.2","1:go_a","0",""
"null","","html-keyboard-response","234","926931","0.0-6.0-2.4","","<div style=""font-size:60px;"">+</div>","null","","","","","","",""
"null","","image-keyboard-response","235","928432","0.0-6.0-0.5","","img/red.png","null","trial","null","true","0.2,0.8","2:nogo_b","",""
"null","","html-keyboard-response","236","929434","0.0-6.0-1.5","","<img src=""img/red-r.png"">","null","trial","null","","0.2,0.8","2:nogo_b","1",""
"null","","html-keyboard-response","237","930436","0.0-6.0-2.5","","<div style=""font-size:60px;"">+</div>","null","","","","","","",""
"635.1950000971556","","image-keyboard-response","238","931071","0.0-6.0-0.6","","img/grey.png","32","trial","null","false","0.2,0.8","4:nogo_d","",""
"null","","html-keyboard-response","239","932073","0.0-6.0-1.6","","<img src=""img/grey-n.png"" border=""10"">","null","trial","null","","0.2,0.8","4:nogo_d","0",""
"null","","html-keyboard-response","240","933074","0.0-6.0-2.6","","<div style=""font-size:60px;"">+</div>","null","","","","","","",""
"860.1900001522154","","image-keyboard-response","241","933935","0.0-6.0-0.7","","img/orange.png","32","trial","32","true","0.8,0.2","3:go_c","",""
"null","","html-keyboard-response","242","934937","0.0-6.0-1.7","","<img src=""img/orange-r.png"" border=""10"">","null","trial","32","","0.8,0.2","3:go_c","1",""
"null","","html-keyboard-response","243","935938","0.0-6.0-2.7","","<div style=""font-size:60px;"">+</div>","null","","","","","","",""
"676.6250000800937","","image-keyboard-response","244","936615","0.0-6.0-0.8","","img/green.png","32","trial","32","true","0.8,0.2","1:go_a","",""
"null","","html-keyboard-response","245","937616","0.0-6.0-1.8","","<img src=""img/green-r.png"" border=""10"">","null","trial","32","","0.8,0.2","1:go_a","1",""
"null","","html-keyboard-response","246","938617","0.0-6.0-2.8","","<div style=""font-size:60px;"">+</div>","null","","","","","","",""
"597.4649998825043","","image-keyboard-response","247","939215","0.0-6.0-0.9","","img/grey.png","32","trial","null","false","0.2,0.8","4:nogo_d","",""
"null","","html-keyboard-response","248","940217","0.0-6.0-1.9","","<img src=""img/grey-n.png"" border=""10"">","null","trial","null","","0.2,0.8","4:nogo_d","0",""
"null","","html-keyboard-response","249","941218","0.0-6.0-2.9","","<div style=""font-size:60px;"">+</div>","null","","","","","","",""
"null","","image-keyboard-response","250","942719","0.0-6.0-0.10","","img/red.png","null","trial","null","true","0.2,0.8","2:nogo_b","",""
"null","","html-keyboard-response","251","943721","0.0-6.0-1.10","","<img src=""img/red-r.png"">","null","trial","null","","0.2,0.8","2:nogo_b","1",""
"null","","html-keyboard-response","252","944722","0.0-6.0-2.10","","<div style=""font-size:60px;"">+</div>","null","","","","","","",""
"636.7649999447167","","image-keyboard-response","253","945359","0.0-6.0-0.11","","img/orange.png","32","trial","32","true","0.8,0.2","3:go_c","",""
"null","","html-keyboard-response","254","946361","0.0-6.0-1.11","","<img src=""img/orange-r.png"" border=""10"">","null","trial","32","","0.8,0.2","3:go_c","1",""
"null","","html-keyboard-response","255","947363","0.0-6.0-2.11","","<div style=""font-size:60px;"">+</div>","null","","","","","","",""
"683.6949998978525","","image-keyboard-response","256","948047","0.0-6.0-0.12","","img/green.png","32","trial","32","true","0.8,0.2","1:go_a","",""
"null","","html-keyboard-response","257","949049","0.0-6.0-1.12","","<img src=""img/green-r.png"" border=""10"">","null","trial","32","","0.8,0.2","1:go_a","1",""
"null","","html-keyboard-response","258","950050","0.0-6.0-2.12","","<div style=""font-size:60px;"">+</div>","null","","","","","","",""
"null","","image-keyboard-response","259","951552","0.0-6.0-0.13","","img/red.png","null","trial","null","true","0.2,0.8","2:nogo_b","",""
"null","","html-keyboard-response","260","952554","0.0-6.0-1.13","","<img src=""img/red-r.png"">","null","trial","null","","0.2,0.8","2:nogo_b","1",""
"null","","html-keyboard-response","261","953556","0.0-6.0-2.13","","<div style=""font-size:60px;"">+</div>","null","","","","","","",""
"null","","image-keyboard-response","262","955057","0.0-6.0-0.14","","img/grey.png","null","trial","null","true","0.2,0.8","4:nogo_d","",""
"null","","html-keyboard-response","263","956059","0.0-6.0-1.14","","<img src=""img/grey-r.png"">","null","trial","null","","0.2,0.8","4:nogo_d","1",""
"null","","html-keyboard-response","264","957062","0.0-6.0-2.14","","<div style=""font-size:60px;"">+</div>","null","","","","","","",""
"360.57500005699694","","image-keyboard-response","265","957423","0.0-6.0-0.15","","img/orange.png","32","trial","32","true","0.8,0.2","3:go_c","",""
"null","","html-keyboard-response","266","958425","0.0-6.0-1.15","","<img src=""img/orange-r.png"" border=""10"">","null","trial","32","","0.8,0.2","3:go_c","1",""
"null","","html-keyboard-response","267","959427","0.0-6.0-2.15","","<div style=""font-size:60px;"">+</div>","null","","","","","","",""
"524.0950000006706","","image-keyboard-response","268","959951","0.0-6.0-0.16","","img/orange.png","32","trial","32","true","0.8,0.2","3:go_c","",""
"null","","html-keyboard-response","269","960953","0.0-6.0-1.16","","<img src=""img/orange-r.png"" border=""10"">","null","trial","32","","0.8,0.2","3:go_c","1",""
"null","","html-keyboard-response","270","961954","0.0-6.0-2.16","","<div style=""font-size:60px;"">+</div>","null","","","","","","",""
"null","","image-keyboard-response","271","963456","0.0-6.0-0.17","","img/grey.png","null","trial","null","true","0.2,0.8","4:nogo_d","",""
"null","","html-keyboard-response","272","964458","0.0-6.0-1.17","","<img src=""img/grey-r.png"">","null","trial","null","","0.2,0.8","4:nogo_d","1",""
"null","","html-keyboard-response","273","965458","0.0-6.0-2.17","","<div style=""font-size:60px;"">+</div>","null","","","","","","",""
"460.3549998719245","","image-keyboard-response","274","965919","0.0-6.0-0.18","","img/green.png","32","trial","32","true","0.8,0.2","1:go_a","",""
"null","","html-keyboard-response","275","966921","0.0-6.0-1.18","","<img src=""img/green-r.png"" border=""10"">","null","trial","32","","0.8,0.2","1:go_a","1",""
"null","","html-keyboard-response","276","967922","0.0-6.0-2.18","","<div style=""font-size:60px;"">+</div>","null","","","","","","",""
"null","","image-keyboard-response","277","969424","0.0-6.0-0.19","","img/red.png","null","trial","null","true","0.2,0.8","2:nogo_b","",""
"null","","html-keyboard-response","278","970425","0.0-6.0-1.19","","<img src=""img/red-n.png"">","null","trial","null","","0.2,0.8","2:nogo_b","0",""
"null","","html-keyboard-response","279","971427","0.0-6.0-2.19","","<div style=""font-size:60px;"">+</div>","null","","","","","","",""
"null","","image-keyboard-response","280","972928","0.0-6.0-0.20","","img/grey.png","null","trial","null","true","0.2,0.8","4:nogo_d","",""
"null","","html-keyboard-response","281","973929","0.0-6.0-1.20","","<img src=""img/grey-n.png"">","null","trial","null","","0.2,0.8","4:nogo_d","0",""
"null","","html-keyboard-response","282","974930","0.0-6.0-2.20","","<div style=""font-size:60px;"">+</div>","null","","","","","","",""
"677.5499999057502","","image-keyboard-response","283","975608","0.0-6.0-0.21","","img/orange.png","32","trial","32","true","0.8,0.2","3:go_c","",""
"null","","html-keyboard-response","284","976609","0.0-6.0-1.21","","<img src=""img/orange-r.png"" border=""10"">","null","trial","32","","0.8,0.2","3:go_c","1",""
"null","","html-keyboard-response","285","977611","0.0-6.0-2.21","","<div style=""font-size:60px;"">+</div>","null","","","","","","",""
"null","","image-keyboard-response","286","979112","0.0-6.0-0.22","","img/red.png","null","trial","null","true","0.2,0.8","2:nogo_b","",""
"null","","html-keyboard-response","287","980114","0.0-6.0-1.22","","<img src=""img/red-n.png"">","null","trial","null","","0.2,0.8","2:nogo_b","0",""
"null","","html-keyboard-response","288","981115","0.0-6.0-2.22","","<div style=""font-size:60px;"">+</div>","null","","","","","","",""
"932.2099999990314","","image-keyboard-response","289","982048","0.0-6.0-0.23","","img/green.png","32","trial","32","true","0.8,0.2","1:go_a","",""
"null","","html-keyboard-response","290","983050","0.0-6.0-1.23","","<img src=""img/green-n.png"" border=""10"">","null","trial","32","","0.8,0.2","1:go_a","0",""
"null","","html-keyboard-response","291","984051","0.0-6.0-2.23","","<div style=""font-size:60px;"">+</div>","null","","","","","","",""
"620.2000000048429","","image-keyboard-response","292","984672","0.0-6.0-0.24","","img/green.png","32","trial","32","true","0.8,0.2","1:go_a","",""
"null","","html-keyboard-response","293","985674","0.0-6.0-1.24","","<img src=""img/green-r.png"" border=""10"">","null","trial","32","","0.8,0.2","1:go_a","1",""
"null","","html-keyboard-response","294","986675","0.0-6.0-2.24","","<div style=""font-size:60px;"">+</div>","null","","","","","","",""
"564.1000000759959","","image-keyboard-response","295","987240","0.0-6.0-0.25","","img/orange.png","32","trial","32","true","0.8,0.2","3:go_c","",""
"null","","html-keyboard-response","296","988241","0.0-6.0-1.25","","<img src=""img/orange-r.png"" border=""10"">","null","trial","32","","0.8,0.2","3:go_c","1",""
"null","","html-keyboard-response","297","989242","0.0-6.0-2.25","","<div style=""font-size:60px;"">+</div>","null","","","","","","",""
"null","","image-keyboard-response","298","990744","0.0-6.0-0.26","","img/red.png","null","trial","null","true","0.2,0.8","2:nogo_b","",""
"null","","html-keyboard-response","299","991754","0.0-6.0-1.26","","<img src=""img/red-r.png"">","null","trial","null","","0.2,0.8","2:nogo_b","1",""
"null","","html-keyboard-response","300","992756","0.0-6.0-2.26","","<div style=""font-size:60px;"">+</div>","null","","","","","","",""
"null","","image-keyboard-response","301","994257","0.0-6.0-0.27","","img/grey.png","null","trial","null","true","0.2,0.8","4:nogo_d","",""
"null","","html-keyboard-response","302","995259","0.0-6.0-1.27","","<img src=""img/grey-r.png"">","null","trial","null","","0.2,0.8","4:nogo_d","1",""
"null","","html-keyboard-response","303","996260","0.0-6.0-2.27","","<div style=""font-size:60px;"">+</div>","null","","","","","","",""
"null","","image-keyboard-response","304","997762","0.0-6.0-0.28","","img/red.png","null","trial","null","true","0.2,0.8","2:nogo_b","",""
"null","","html-keyboard-response","305","998766","0.0-6.0-1.28","","<img src=""img/red-r.png"">","null","trial","null","","0.2,0.8","2:nogo_b","1",""
"null","","html-keyboard-response","306","999776","0.0-6.0-2.28","","<div style=""font-size:60px;"">+</div>","null","","","","","","",""
"423.2300000730902","","image-keyboard-response","307","1000200","0.0-6.0-0.29","","img/green.png","32","trial","32","true","0.8,0.2","1:go_a","",""
"null","","html-keyboard-response","308","1001201","0.0-6.0-1.29","","<img src=""img/green-r.png"" border=""10"">","null","trial","32","","0.8,0.2","1:go_a","1",""
"null","","html-keyboard-response","309","1002202","0.0-6.0-2.29","","<div style=""font-size:60px;"">+</div>","null","","","","","","",""
"null","","image-keyboard-response","310","1003703","0.0-6.0-0.30","","img/grey.png","null","trial","null","true","0.2,0.8","4:nogo_d","",""
"null","","html-keyboard-response","311","1004705","0.0-6.0-1.30","","<img src=""img/grey-r.png"">","null","trial","null","","0.2,0.8","4:nogo_d","1",""
"null","","html-keyboard-response","312","1005707","0.0-6.0-2.30","","<div style=""font-size:60px;"">+</div>","null","","","","","","",""
"476.3599999714643","","image-keyboard-response","313","1006184","0.0-6.0-0.31","","img/orange.png","32","trial","32","true","0.8,0.2","3:go_c","",""
"null","","html-keyboard-response","314","1007194","0.0-6.0-1.31","","<img src=""img/orange-r.png"" border=""10"">","null","trial","32","","0.8,0.2","3:go_c","1",""
"null","","html-keyboard-response","315","1008195","0.0-6.0-2.31","","<div style=""font-size:60px;"">+</div>","null","","","","","","",""
"null","","image-keyboard-response","316","1009696","0.0-6.0-0.32","","img/red.png","null","trial","null","true","0.2,0.8","2:nogo_b","",""
"null","","html-keyboard-response","317","1010698","0.0-6.0-1.32","","<img src=""img/red-r.png"">","null","trial","null","","0.2,0.8","2:nogo_b","1",""
"null","","html-keyboard-response","318","1011699","0.0-6.0-2.32","","<div style=""font-size:60px;"">+</div>","null","","","","","","",""
"null","","image-keyboard-response","319","1013201","0.0-6.0-0.33","","img/grey.png","null","trial","null","true","0.2,0.8","4:nogo_d","",""
"null","","html-keyboard-response","320","1014202","0.0-6.0-1.33","","<img src=""img/grey-r.png"">","null","trial","null","","0.2,0.8","4:nogo_d","1",""
"null","","html-keyboard-response","321","1015203","0.0-6.0-2.33","","<div style=""font-size:60px;"">+</div>","null","","","","","","",""
"508.4300001617521","","image-keyboard-response","322","1015712","0.0-6.0-0.34","","img/green.png","32","trial","32","true","0.8,0.2","1:go_a","",""
"null","","html-keyboard-response","323","1016713","0.0-6.0-1.34","","<img src=""img/green-r.png"" border=""10"">","null","trial","32","","0.8,0.2","1:go_a","1",""
"null","","html-keyboard-response","324","1017715","0.0-6.0-2.34","","<div style=""font-size:60px;"">+</div>","null","","","","","","",""
"348.204999929294","","image-keyboard-response","325","1018064","0.0-6.0-0.35","","img/orange.png","32","trial","32","true","0.8,0.2","3:go_c","",""
"null","","html-keyboard-response","326","1019065","0.0-6.0-1.35","","<img src=""img/orange-r.png"" border=""10"">","null","trial","32","","0.8,0.2","3:go_c","1",""
"null","","html-keyboard-response","327","1020067","0.0-6.0-2.35","","<div style=""font-size:60px;"">+</div>","null","","","","","","",""
"556.4999999478459","","image-keyboard-response","328","1020624","0.0-6.0-0.36","","img/orange.png","32","trial","32","true","0.8,0.2","3:go_c","",""
"null","","html-keyboard-response","329","1021625","0.0-6.0-1.36","","<img src=""img/orange-r.png"" border=""10"">","null","trial","32","","0.8,0.2","3:go_c","1",""
"null","","html-keyboard-response","330","1022626","0.0-6.0-2.36","","<div style=""font-size:60px;"">+</div>","null","","","","","","",""
"null","","image-keyboard-response","331","1024128","0.0-6.0-0.37","","img/red.png","null","trial","null","true","0.2,0.8","2:nogo_b","",""
"null","","html-keyboard-response","332","1025130","0.0-6.0-1.37","","<img src=""img/red-r.png"">","null","trial","null","","0.2,0.8","2:nogo_b","1",""
"null","","html-keyboard-response","333","1026136","0.0-6.0-2.37","","<div style=""font-size:60px;"">+</div>","null","","","","","","",""
"463.64500001072884","","image-keyboard-response","334","1026600","0.0-6.0-0.38","","img/green.png","32","trial","32","true","0.8,0.2","1:go_a","",""
"null","","html-keyboard-response","335","1027602","0.0-6.0-1.38","","<img src=""img/green-r.png"" border=""10"">","null","trial","32","","0.8,0.2","1:go_a","1",""
"null","","html-keyboard-response","336","1028604","0.0-6.0-2.38","","<div style=""font-size:60px;"">+</div>","null","","","","","","",""
"null","","image-keyboard-response","337","1030105","0.0-6.0-0.39","","img/grey.png","null","trial","null","true","0.2,0.8","4:nogo_d","",""
"null","","html-keyboard-response","338","1031106","0.0-6.0-1.39","","<img src=""img/grey-r.png"">","null","trial","null","","0.2,0.8","4:nogo_d","1",""
"null","","html-keyboard-response","339","1032108","0.0-6.0-2.39","","<div style=""font-size:60px;"">+</div>","null","","","","","","",""
"null","","image-keyboard-response","340","1033610","0.0-6.0-0.40","","img/red.png","null","trial","null","true","0.2,0.8","2:nogo_b","",""
"null","","html-keyboard-response","341","1034611","0.0-6.0-1.40","","<img src=""img/red-r.png"">","null","trial","null","","0.2,0.8","2:nogo_b","1",""
"null","","html-keyboard-response","342","1035619","0.0-6.0-2.40","","<div style=""font-size:60px;"">+</div>","null","","","","","","",""
"692.574999993667","","image-keyboard-response","343","1036312","0.0-6.0-0.41","","img/green.png","32","trial","32","true","0.8,0.2","1:go_a","",""
"null","","html-keyboard-response","344","1037314","0.0-6.0-1.41","","<img src=""img/green-r.png"" border=""10"">","null","trial","32","","0.8,0.2","1:go_a","1",""
"null","","html-keyboard-response","345","1038315","0.0-6.0-2.41","","<div style=""font-size:60px;"">+</div>","null","","","","","","",""
"484.57999993115664","","image-keyboard-response","346","1038800","0.0-6.0-0.42","","img/orange.png","32","trial","32","true","0.8,0.2","3:go_c","",""
"null","","html-keyboard-response","347","1039802","0.0-6.0-1.42","","<img src=""img/orange-r.png"" border=""10"">","null","trial","32","","0.8,0.2","3:go_c","1",""
"null","","html-keyboard-response","348","1040804","0.0-6.0-2.42","","<div style=""font-size:60px;"">+</div>","null","","","","","","",""
"null","","image-keyboard-response","349","1042306","0.0-6.0-0.43","","img/grey.png","null","trial","null","true","0.2,0.8","4:nogo_d","",""
"null","","html-keyboard-response","350","1043308","0.0-6.0-1.43","","<img src=""img/grey-n.png"">","null","trial","null","","0.2,0.8","4:nogo_d","0",""
"null","","html-keyboard-response","351","1044310","0.0-6.0-2.43","","<div style=""font-size:60px;"">+</div>","null","","","","","","",""
"null","","image-keyboard-response","352","1045811","0.0-6.0-0.44","","img/red.png","null","trial","null","true","0.2,0.8","2:nogo_b","",""
"null","","html-keyboard-response","353","1046813","0.0-6.0-1.44","","<img src=""img/red-r.png"">","null","trial","null","","0.2,0.8","2:nogo_b","1",""
"null","","html-keyboard-response","354","1047814","0.0-6.0-2.44","","<div style=""font-size:60px;"">+</div>","null","","","","","","",""
"457.3649999219924","","image-keyboard-response","355","1048272","0.0-6.0-0.45","","img/green.png","32","trial","32","true","0.8,0.2","1:go_a","",""
"null","","html-keyboard-response","356","1049274","0.0-6.0-1.45","","<img src=""img/green-r.png"" border=""10"">","null","trial","32","","0.8,0.2","1:go_a","1",""
"null","","html-keyboard-response","357","1050275","0.0-6.0-2.45","","<div style=""font-size:60px;"">+</div>","null","","","","","","",""
"null","","image-keyboard-response","358","1051776","0.0-6.0-0.46","","img/grey.png","null","trial","null","true","0.2,0.8","4:nogo_d","",""
"null","","html-keyboard-response","359","1052778","0.0-6.0-1.46","","<img src=""img/grey-r.png"">","null","trial","null","","0.2,0.8","4:nogo_d","1",""
"null","","html-keyboard-response","360","1053779","0.0-6.0-2.46","","<div style=""font-size:60px;"">+</div>","null","","","","","","",""
"507.99000007100403","","image-keyboard-response","361","1054288","0.0-6.0-0.47","","img/orange.png","32","trial","32","true","0.8,0.2","3:go_c","",""
"null","","html-keyboard-response","362","1055290","0.0-6.0-1.47","","<img src=""img/orange-r.png"" border=""10"">","null","trial","32","","0.8,0.2","3:go_c","1",""
"null","","html-keyboard-response","363","1056291","0.0-6.0-2.47","","<div style=""font-size:60px;"">+</div>","null","","","","","","",""
"604.7450001351535","","image-keyboard-response","364","1056896","0.0-6.0-0.48","","img/orange.png","32","trial","32","true","0.8,0.2","3:go_c","",""
"null","","html-keyboard-response","365","1057897","0.0-6.0-1.48","","<img src=""img/orange-n.png"" border=""10"">","null","trial","32","","0.8,0.2","3:go_c","0",""
"null","","html-keyboard-response","366","1058898","0.0-6.0-2.48","","<div style=""font-size:60px;"">+</div>","null","","","","","","",""
"509.64000006206334","","image-keyboard-response","367","1059408","0.0-6.0-0.49","","img/green.png","32","trial","32","true","0.8,0.2","1:go_a","",""
"null","","html-keyboard-response","368","1060410","0.0-6.0-1.49","","<img src=""img/green-r.png"" border=""10"">","null","trial","32","","0.8,0.2","1:go_a","1",""
"null","","html-keyboard-response","369","1061411","0.0-6.0-2.49","","<div style=""font-size:60px;"">+</div>","null","","","","","","",""
"null","","image-keyboard-response","370","1062912","0.0-6.0-0.50","","img/grey.png","null","trial","null","true","0.2,0.8","4:nogo_d","",""
"null","","html-keyboard-response","371","1063913","0.0-6.0-1.50","","<img src=""img/grey-r.png"">","null","trial","null","","0.2,0.8","4:nogo_d","1",""
"null","","html-keyboard-response","372","1064916","0.0-6.0-2.50","","<div style=""font-size:60px;"">+</div>","null","","","","","","",""
"null","","image-keyboard-response","373","1066417","0.0-6.0-0.51","","img/red.png","null","trial","null","true","0.2,0.8","2:nogo_b","",""
"null","","html-keyboard-response","374","1067419","0.0-6.0-1.51","","<img src=""img/red-n.png"">","null","trial","null","","0.2,0.8","2:nogo_b","0",""
"null","","html-keyboard-response","375","1068421","0.0-6.0-2.51","","<div style=""font-size:60px;"">+</div>","null","","","","","","",""
"null","","image-keyboard-response","376","1069922","0.0-6.0-0.52","","img/grey.png","null","trial","null","true","0.2,0.8","4:nogo_d","",""
"null","","html-keyboard-response","377","1070924","0.0-6.0-1.52","","<img src=""img/grey-r.png"">","null","trial","null","","0.2,0.8","4:nogo_d","1",""
"null","","html-keyboard-response","378","1071925","0.0-6.0-2.52","","<div style=""font-size:60px;"">+</div>","null","","","","","","",""
"602.5300000328571","","image-keyboard-response","379","1072528","0.0-6.0-0.53","","img/orange.png","32","trial","32","true","0.8,0.2","3:go_c","",""
"null","","html-keyboard-response","380","1073530","0.0-6.0-1.53","","<img src=""img/orange-r.png"" border=""10"">","null","trial","32","","0.8,0.2","3:go_c","1",""
"null","","html-keyboard-response","381","1074531","0.0-6.0-2.53","","<div style=""font-size:60px;"">+</div>","null","","","","","","",""
"596.0549998562783","","image-keyboard-response","382","1075128","0.0-6.0-0.54","","img/green.png","32","trial","32","true","0.8,0.2","1:go_a","",""
"null","","html-keyboard-response","383","1076130","0.0-6.0-1.54","","<img src=""img/green-r.png"" border=""10"">","null","trial","32","","0.8,0.2","1:go_a","1",""
"null","","html-keyboard-response","384","1077131","0.0-6.0-2.54","","<div style=""font-size:60px;"">+</div>","null","","","","","","",""
"null","","image-keyboard-response","385","1078632","0.0-6.0-0.55","","img/red.png","null","trial","null","true","0.2,0.8","2:nogo_b","",""
"null","","html-keyboard-response","386","1079634","0.0-6.0-1.55","","<img src=""img/red-r.png"">","null","trial","null","","0.2,0.8","2:nogo_b","1",""
"null","","html-keyboard-response","387","1080635","0.0-6.0-2.55","","<div style=""font-size:60px;"">+</div>","null","","","","","","",""
"620.714999968186","","image-keyboard-response","388","1081256","0.0-6.0-0.56","","img/orange.png","32","trial","32","true","0.8,0.2","3:go_c","",""
"null","","html-keyboard-response","389","1082258","0.0-6.0-1.56","","<img src=""img/orange-r.png"" border=""10"">","null","trial","32","","0.8,0.2","3:go_c","1",""
"null","","html-keyboard-response","390","1083259","0.0-6.0-2.56","","<div style=""font-size:60px;"">+</div>","null","","","","","","",""
"460.63000010326505","","image-keyboard-response","391","1083720","0.0-6.0-0.57","","img/green.png","32","trial","32","true","0.8,0.2","1:go_a","",""
"null","","html-keyboard-response","392","1084722","0.0-6.0-1.57","","<img src=""img/green-n.png"" border=""10"">","null","trial","32","","0.8,0.2","1:go_a","0",""
"null","","html-keyboard-response","393","1085724","0.0-6.0-2.57","","<div style=""font-size:60px;"">+</div>","null","","","","","","",""
"null","","image-keyboard-response","394","1087225","0.0-6.0-0.58","","img/red.png","null","trial","null","true","0.2,0.8","2:nogo_b","",""
"null","","html-keyboard-response","395","1088226","0.0-6.0-1.58","","<img src=""img/red-r.png"">","null","trial","null","","0.2,0.8","2:nogo_b","1",""
"null","","html-keyboard-response","396","1089226","0.0-6.0-2.58","","<div style=""font-size:60px;"">+</div>","null","","","","","","",""
"null","","image-keyboard-response","397","1090727","0.0-6.0-0.59","","img/grey.png","null","trial","null","true","0.2,0.8","4:nogo_d","",""
"null","","html-keyboard-response","398","1091728","0.0-6.0-1.59","","<img src=""img/grey-r.png"">","null","trial","null","","0.2,0.8","4:nogo_d","1",""
"null","","html-keyboard-response","399","1092729","0.0-6.0-2.59","","<div style=""font-size:60px;"">+</div>","null","","","","","","",""
"542.2449999023229","","image-keyboard-response","400","1093272","0.0-6.0-0.60","","img/green.png","32","trial","32","true","0.8,0.2","1:go_a","",""
"null","","html-keyboard-response","401","1094274","0.0-6.0-1.60","","<img src=""img/green-n.png"" border=""10"">","null","trial","32","","0.8,0.2","1:go_a","0",""
"null","","html-keyboard-response","402","1095275","0.0-6.0-2.60","","<div style=""font-size:60px;"">+</div>","null","","","","","","",""
"428.4749999642372","","image-keyboard-response","403","1095704","0.0-6.0-0.61","","img/orange.png","32","trial","32","true","0.8,0.2","3:go_c","",""
"null","","html-keyboard-response","404","1096706","0.0-6.0-1.61","","<img src=""img/orange-r.png"" border=""10"">","null","trial","32","","0.8,0.2","3:go_c","1",""
"null","","html-keyboard-response","405","1097708","0.0-6.0-2.61","","<div style=""font-size:60px;"">+</div>","null","","","","","","",""
"null","","image-keyboard-response","406","1099209","0.0-6.0-0.62","","img/grey.png","null","trial","null","true","0.2,0.8","4:nogo_d","",""
"null","","html-keyboard-response","407","1100211","0.0-6.0-1.62","","<img src=""img/grey-r.png"">","null","trial","null","","0.2,0.8","4:nogo_d","1",""
"null","","html-keyboard-response","408","1101212","0.0-6.0-2.62","","<div style=""font-size:60px;"">+</div>","null","","","","","","",""
"null","","image-keyboard-response","409","1102713","0.0-6.0-0.63","","img/red.png","null","trial","null","true","0.2,0.8","2:nogo_b","",""
"null","","html-keyboard-response","410","1103714","0.0-6.0-1.63","","<img src=""img/red-r.png"">","null","trial","null","","0.2,0.8","2:nogo_b","1",""
"null","","html-keyboard-response","411","1104716","0.0-6.0-2.63","","<div style=""font-size:60px;"">+</div>","null","","","","","","",""
"675.5500000435859","","image-keyboard-response","412","1105392","0.0-6.0-0.64","","img/orange.png","32","trial","32","true","0.8,0.2","3:go_c","",""
"null","","html-keyboard-response","413","1106393","0.0-6.0-1.64","","<img src=""img/orange-r.png"" border=""10"">","null","trial","32","","0.8,0.2","3:go_c","1",""
"null","","html-keyboard-response","414","1107395","0.0-6.0-2.64","","<div style=""font-size:60px;"">+</div>","null","","","","","","",""
"500.9449999779463","","image-keyboard-response","415","1107896","0.0-6.0-0.65","","img/green.png","32","trial","32","true","0.8,0.2","1:go_a","",""
"null","","html-keyboard-response","416","1108898","0.0-6.0-1.65","","<img src=""img/green-r.png"" border=""10"">","null","trial","32","","0.8,0.2","1:go_a","1",""
"null","","html-keyboard-response","417","1109899","0.0-6.0-2.65","","<div style=""font-size:60px;"">+</div>","null","","","","","","",""
"null","","image-keyboard-response","418","1111400","0.0-6.0-0.66","","img/red.png","null","trial","null","true","0.2,0.8","2:nogo_b","",""
"null","","html-keyboard-response","419","1112402","0.0-6.0-1.66","","<img src=""img/red-r.png"">","null","trial","null","","0.2,0.8","2:nogo_b","1",""
"null","","html-keyboard-response","420","1113403","0.0-6.0-2.66","","<div style=""font-size:60px;"">+</div>","null","","","","","","",""
"null","","image-keyboard-response","421","1114904","0.0-6.0-0.67","","img/grey.png","null","trial","null","true","0.2,0.8","4:nogo_d","",""
"null","","html-keyboard-response","422","1115906","0.0-6.0-1.67","","<img src=""img/grey-r.png"">","null","trial","null","","0.2,0.8","4:nogo_d","1",""
"null","","html-keyboard-response","423","1116907","0.0-6.0-2.67","","<div style=""font-size:60px;"">+</div>","null","","","","","","",""
"563.9849998988211","","image-keyboard-response","424","1117472","0.0-6.0-0.68","","img/orange.png","32","trial","32","true","0.8,0.2","3:go_c","",""
"null","","html-keyboard-response","425","1118473","0.0-6.0-1.68","","<img src=""img/orange-n.png"" border=""10"">","null","trial","32","","0.8,0.2","3:go_c","0",""
"null","","html-keyboard-response","426","1119474","0.0-6.0-2.68","","<div style=""font-size:60px;"">+</div>","null","","","","","","",""
"null","","image-keyboard-response","427","1120975","0.0-6.0-0.69","","img/grey.png","null","trial","null","true","0.2,0.8","4:nogo_d","",""
"null","","html-keyboard-response","428","1121977","0.0-6.0-1.69","","<img src=""img/grey-r.png"">","null","trial","null","","0.2,0.8","4:nogo_d","1",""
"null","","html-keyboard-response","429","1122978","0.0-6.0-2.69","","<div style=""font-size:60px;"">+</div>","null","","","","","","",""
"null","","image-keyboard-response","430","1124479","0.0-6.0-0.70","","img/red.png","null","trial","null","true","0.2,0.8","2:nogo_b","",""
"null","","html-keyboard-response","431","1125494","0.0-6.0-1.70","","<img src=""img/red-r.png"">","null","trial","null","","0.2,0.8","2:nogo_b","1",""
"null","","html-keyboard-response","432","1126496","0.0-6.0-2.70","","<div style=""font-size:60px;"">+</div>","null","","","","","","",""
"512.0200000237674","","image-keyboard-response","433","1127008","0.0-6.0-0.71","","img/green.png","32","trial","32","true","0.8,0.2","1:go_a","",""
"null","","html-keyboard-response","434","1128010","0.0-6.0-1.71","","<img src=""img/green-r.png"" border=""10"">","null","trial","32","","0.8,0.2","1:go_a","1",""
"null","","html-keyboard-response","435","1129011","0.0-6.0-2.71","","<div style=""font-size:60px;"">+</div>","null","","","","","","",""
"556.8099999800324","","image-keyboard-response","436","1129568","0.0-6.0-0.72","","img/green.png","32","trial","32","true","0.8,0.2","1:go_a","",""
"null","","html-keyboard-response","437","1130570","0.0-6.0-1.72","","<img src=""img/green-r.png"" border=""10"">","null","trial","32","","0.8,0.2","1:go_a","1",""
"null","","html-keyboard-response","438","1131572","0.0-6.0-2.72","","<div style=""font-size:60px;"">+</div>","null","","","","","","",""
"null","","image-keyboard-response","439","1133072","0.0-6.0-0.73","","img/red.png","null","trial","null","true","0.2,0.8","2:nogo_b","",""
"null","","html-keyboard-response","440","1134074","0.0-6.0-1.73","","<img src=""img/red-r.png"">","null","trial","null","","0.2,0.8","2:nogo_b","1",""
"null","","html-keyboard-response","441","1135075","0.0-6.0-2.73","","<div style=""font-size:60px;"">+</div>","null","","","","","","",""
"null","","image-keyboard-response","442","1136576","0.0-6.0-0.74","","img/grey.png","null","trial","null","true","0.2,0.8","4:nogo_d","",""
"null","","html-keyboard-response","443","1137577","0.0-6.0-1.74","","<img src=""img/grey-r.png"">","null","trial","null","","0.2,0.8","4:nogo_d","1",""
"null","","html-keyboard-response","444","1138578","0.0-6.0-2.74","","<div style=""font-size:60px;"">+</div>","null","","","","","","",""
"526.1099999770522","","image-keyboard-response","445","1139104","0.0-6.0-0.75","","img/orange.png","32","trial","32","true","0.8,0.2","3:go_c","",""
"null","","html-keyboard-response","446","1140106","0.0-6.0-1.75","","<img src=""img/orange-r.png"" border=""10"">","null","trial","32","","0.8,0.2","3:go_c","1",""
"null","","html-keyboard-response","447","1141107","0.0-6.0-2.75","","<div style=""font-size:60px;"">+</div>","null","","","","","","",""
"484.1149998828769","","image-keyboard-response","448","1141592","0.0-6.0-0.76","","img/green.png","32","trial","32","true","0.8,0.2","1:go_a","",""
"null","","html-keyboard-response","449","1142594","0.0-6.0-1.76","","<img src=""img/green-r.png"" border=""10"">","null","trial","32","","0.8,0.2","1:go_a","1",""
"null","","html-keyboard-response","450","1143595","0.0-6.0-2.76","","<div style=""font-size:60px;"">+</div>","null","","","","","","",""
"null","","image-keyboard-response","451","1145096","0.0-6.0-0.77","","img/red.png","null","trial","null","true","0.2,0.8","2:nogo_b","",""
"null","","html-keyboard-response","452","1146098","0.0-6.0-1.77","","<img src=""img/red-r.png"">","null","trial","null","","0.2,0.8","2:nogo_b","1",""
"null","","html-keyboard-response","453","1147099","0.0-6.0-2.77","","<div style=""font-size:60px;"">+</div>","null","","","","","","",""
"564.8449999280274","","image-keyboard-response","454","1147664","0.0-6.0-0.78","","img/orange.png","32","trial","32","true","0.8,0.2","3:go_c","",""
"null","","html-keyboard-response","455","1148666","0.0-6.0-1.78","","<img src=""img/orange-r.png"" border=""10"">","null","trial","32","","0.8,0.2","3:go_c","1",""
"null","","html-keyboard-response","456","1149668","0.0-6.0-2.78","","<div style=""font-size:60px;"">+</div>","null","","","","","","",""
"null","","image-keyboard-response","457","1151169","0.0-6.0-0.79","","img/grey.png","null","trial","null","true","0.2,0.8","4:nogo_d","",""
"null","","html-keyboard-response","458","1152170","0.0-6.0-1.79","","<img src=""img/grey-n.png"">","null","trial","null","","0.2,0.8","4:nogo_d","0",""
"null","","html-keyboard-response","459","1153171","0.0-6.0-2.79","","<div style=""font-size:60px;"">+</div>","null","","","","","","",""
"null","","image-keyboard-response","460","1154672","0.0-6.0-0.80","","img/red.png","null","trial","null","true","0.2,0.8","2:nogo_b","",""
"null","","html-keyboard-response","461","1155673","0.0-6.0-1.80","","<img src=""img/red-r.png"">","null","trial","null","","0.2,0.8","2:nogo_b","1",""
"null","","html-keyboard-response","462","1156674","0.0-6.0-2.80","","<div style=""font-size:60px;"">+</div>","null","","","","","","",""
"549.4399999734014","","image-keyboard-response","463","1157224","0.0-6.0-0.81","","img/orange.png","32","trial","32","true","0.8,0.2","3:go_c","",""
"null","","html-keyboard-response","464","1158226","0.0-6.0-1.81","","<img src=""img/orange-r.png"" border=""10"">","null","trial","32","","0.8,0.2","3:go_c","1",""
"null","","html-keyboard-response","465","1159227","0.0-6.0-2.81","","<div style=""font-size:60px;"">+</div>","null","","","","","","",""
"null","","image-keyboard-response","466","1160728","0.0-6.0-0.82","","img/grey.png","null","trial","null","true","0.2,0.8","4:nogo_d","",""
"null","","html-keyboard-response","467","1161729","0.0-6.0-1.82","","<img src=""img/grey-r.png"">","null","trial","null","","0.2,0.8","4:nogo_d","1",""
"null","","html-keyboard-response","468","1162731","0.0-6.0-2.82","","<div style=""font-size:60px;"">+</div>","null","","","","","","",""
"452.92999991215765","","image-keyboard-response","469","1163184","0.0-6.0-0.83","","img/green.png","32","trial","32","true","0.8,0.2","1:go_a","",""
"null","","html-keyboard-response","470","1164186","0.0-6.0-1.83","","<img src=""img/green-r.png"" border=""10"">","null","trial","32","","0.8,0.2","1:go_a","1",""
"null","","html-keyboard-response","471","1165187","0.0-6.0-2.83","","<div style=""font-size:60px;"">+</div>","null","","","","","","",""
"437.0050001889467","","image-keyboard-response","472","1165624","0.0-6.0-0.84","","img/green.png","32","trial","32","true","0.8,0.2","1:go_a","",""
"null","","html-keyboard-response","473","1166626","0.0-6.0-1.84","","<img src=""img/green-n.png"" border=""10"">","null","trial","32","","0.8,0.2","1:go_a","0",""
"null","","html-keyboard-response","474","1167627","0.0-6.0-2.84","","<div style=""font-size:60px;"">+</div>","null","","","","","","",""
"null","","image-keyboard-response","475","1169128","0.0-6.0-0.85","","img/red.png","null","trial","null","true","0.2,0.8","2:nogo_b","",""
"null","","html-keyboard-response","476","1170129","0.0-6.0-1.85","","<img src=""img/red-r.png"">","null","trial","null","","0.2,0.8","2:nogo_b","1",""
"null","","html-keyboard-response","477","1171130","0.0-6.0-2.85","","<div style=""font-size:60px;"">+</div>","null","","","","","","",""
"365.9149999730289","","image-keyboard-response","478","1171496","0.0-6.0-0.86","","img/orange.png","32","trial","32","true","0.8,0.2","3:go_c","",""
"null","","html-keyboard-response","479","1172499","0.0-6.0-1.86","","<img src=""img/orange-r.png"" border=""10"">","null","trial","32","","0.8,0.2","3:go_c","1",""
"null","","html-keyboard-response","480","1173500","0.0-6.0-2.86","","<div style=""font-size:60px;"">+</div>","null","","","","","","",""
"null","","image-keyboard-response","481","1175001","0.0-6.0-0.87","","img/grey.png","null","trial","null","true","0.2,0.8","4:nogo_d","",""
"null","","html-keyboard-response","482","1176002","0.0-6.0-1.87","","<img src=""img/grey-r.png"">","null","trial","null","","0.2,0.8","4:nogo_d","1",""
"null","","html-keyboard-response","483","1177004","0.0-6.0-2.87","","<div style=""font-size:60px;"">+</div>","null","","","","","","",""
"420.14500009827316","","image-keyboard-response","484","1177424","0.0-6.0-0.88","","img/orange.png","32","trial","32","true","0.8,0.2","3:go_c","",""
"null","","html-keyboard-response","485","1178426","0.0-6.0-1.88","","<img src=""img/orange-r.png"" border=""10"">","null","trial","32","","0.8,0.2","3:go_c","1",""
"null","","html-keyboard-response","486","1179428","0.0-6.0-2.88","","<div style=""font-size:60px;"">+</div>","null","","","","","","",""
"372.0949999988079","","image-keyboard-response","487","1179800","0.0-6.0-0.89","","img/green.png","32","trial","32","true","0.8,0.2","1:go_a","",""
"null","","html-keyboard-response","488","1180802","0.0-6.0-1.89","","<img src=""img/green-r.png"" border=""10"">","null","trial","32","","0.8,0.2","1:go_a","1",""
"null","","html-keyboard-response","489","1181804","0.0-6.0-2.89","","<div style=""font-size:60px;"">+</div>","null","","","","","","",""
"null","","image-keyboard-response","490","1183305","0.0-6.0-0.90","","img/grey.png","null","trial","null","true","0.2,0.8","4:nogo_d","",""
"null","","html-keyboard-response","491","1184308","0.0-6.0-1.90","","<img src=""img/grey-r.png"">","null","trial","null","","0.2,0.8","4:nogo_d","1",""
"null","","html-keyboard-response","492","1185309","0.0-6.0-2.90","","<div style=""font-size:60px;"">+</div>","null","","","","","","",""
"null","","image-keyboard-response","493","1186812","0.0-6.0-0.91","","img/red.png","null","trial","null","true","0.2,0.8","2:nogo_b","",""
"null","","html-keyboard-response","494","1187813","0.0-6.0-1.91","","<img src=""img/red-r.png"">","null","trial","null","","0.2,0.8","2:nogo_b","1",""
"null","","html-keyboard-response","495","1188815","0.0-6.0-2.91","","<div style=""font-size:60px;"">+</div>","null","","","","","","",""
"null","","image-keyboard-response","496","1190316","0.0-6.0-0.92","","img/red.png","null","trial","null","true","0.2,0.8","2:nogo_b","",""
"null","","html-keyboard-response","497","1191318","0.0-6.0-1.92","","<img src=""img/red-r.png"">","null","trial","null","","0.2,0.8","2:nogo_b","1",""
"null","","html-keyboard-response","498","1192319","0.0-6.0-2.92","","<div style=""font-size:60px;"">+</div>","null","","","","","","",""
"null","","image-keyboard-response","499","1193821","0.0-6.0-0.93","","img/grey.png","null","trial","null","true","0.2,0.8","4:nogo_d","",""
"null","","html-keyboard-response","500","1194822","0.0-6.0-1.93","","<img src=""img/grey-r.png"">","null","trial","null","","0.2,0.8","4:nogo_d","1",""
"null","","html-keyboard-response","501","1195823","0.0-6.0-2.93","","<div style=""font-size:60px;"">+</div>","null","","","","","","",""
"496.98499985970557","","image-keyboard-response","502","1196320","0.0-6.0-0.94","","img/orange.png","32","trial","32","true","0.8,0.2","3:go_c","",""
"null","","html-keyboard-response","503","1197322","0.0-6.0-1.94","","<img src=""img/orange-r.png"" border=""10"">","null","trial","32","","0.8,0.2","3:go_c","1",""
"null","","html-keyboard-response","504","1198323","0.0-6.0-2.94","","<div style=""font-size:60px;"">+</div>","null","","","","","","",""
"372.8499999269843","","image-keyboard-response","505","1198696","0.0-6.0-0.95","","img/green.png","32","trial","32","true","0.8,0.2","1:go_a","",""
"null","","html-keyboard-response","506","1199698","0.0-6.0-1.95","","<img src=""img/green-r.png"" border=""10"">","null","trial","32","","0.8,0.2","1:go_a","1",""
"null","","html-keyboard-response","507","1200699","0.0-6.0-2.95","","<div style=""font-size:60px;"">+</div>","null","","","","","","",""
"436.84499990195036","","image-keyboard-response","508","1201136","0.0-6.0-0.96","","img/green.png","32","trial","32","true","0.8,0.2","1:go_a","",""
"null","","html-keyboard-response","509","1202138","0.0-6.0-1.96","","<img src=""img/green-n.png"" border=""10"">","null","trial","32","","0.8,0.2","1:go_a","0",""
"null","","html-keyboard-response","510","1203139","0.0-6.0-2.96","","<div style=""font-size:60px;"">+</div>","null","","","","","","",""
"389.1449999064207","","image-keyboard-response","511","1203528","0.0-6.0-0.97","","img/orange.png","32","trial","32","true","0.8,0.2","3:go_c","",""
"null","","html-keyboard-response","512","1204530","0.0-6.0-1.97","","<img src=""img/orange-r.png"" border=""10"">","null","trial","32","","0.8,0.2","3:go_c","1",""
"null","","html-keyboard-response","513","1205532","0.0-6.0-2.97","","<div style=""font-size:60px;"">+</div>","null","","","","","","",""
"null","","image-keyboard-response","514","1207034","0.0-6.0-0.98","","img/grey.png","null","trial","null","true","0.2,0.8","4:nogo_d","",""
"null","","html-keyboard-response","515","1208037","0.0-6.0-1.98","","<img src=""img/grey-n.png"">","null","trial","null","","0.2,0.8","4:nogo_d","0",""
"null","","html-keyboard-response","516","1209039","0.0-6.0-2.98","","<div style=""font-size:60px;"">+</div>","null","","","","","","",""
"null","","image-keyboard-response","517","1210540","0.0-6.0-0.99","","img/red.png","null","trial","null","true","0.2,0.8","2:nogo_b","",""
"null","","html-keyboard-response","518","1211542","0.0-6.0-1.99","","<img src=""img/red-r.png"">","null","trial","null","","0.2,0.8","2:nogo_b","1",""
"null","","html-keyboard-response","519","1212543","0.0-6.0-2.99","","<div style=""font-size:60px;"">+</div>","null","","","","","","",""
"441.37000013142824","","image-keyboard-response","520","1212984","0.0-6.0-0.100","","img/green.png","32","trial","32","true","0.8,0.2","1:go_a","",""
"null","","html-keyboard-response","521","1213986","0.0-6.0-1.100","","<img src=""img/green-r.png"" border=""10"">","null","trial","32","","0.8,0.2","1:go_a","1",""
"null","","html-keyboard-response","522","1215002","0.0-6.0-2.100","","<div style=""font-size:60px;"">+</div>","null","","","","","","",""
"469.7300000116229","","image-keyboard-response","523","1215472","0.0-6.0-0.101","","img/orange.png","32","trial","32","true","0.8,0.2","3:go_c","",""
"null","","html-keyboard-response","524","1216474","0.0-6.0-1.101","","<img src=""img/orange-r.png"" border=""10"">","null","trial","32","","0.8,0.2","3:go_c","1",""
"null","","html-keyboard-response","525","1217474","0.0-6.0-2.101","","<div style=""font-size:60px;"">+</div>","null","","","","","","",""
"null","","image-keyboard-response","526","1218976","0.0-6.0-0.102","","img/red.png","null","trial","null","true","0.2,0.8","2:nogo_b","",""
"null","","html-keyboard-response","527","1219979","0.0-6.0-1.102","","<img src=""img/red-r.png"">","null","trial","null","","0.2,0.8","2:nogo_b","1",""
"null","","html-keyboard-response","528","1220981","0.0-6.0-2.102","","<div style=""font-size:60px;"">+</div>","null","","","","","","",""
"null","","image-keyboard-response","529","1222482","0.0-6.0-0.103","","img/grey.png","null","trial","null","true","0.2,0.8","4:nogo_d","",""
"null","","html-keyboard-response","530","1223484","0.0-6.0-1.103","","<img src=""img/grey-n.png"">","null","trial","null","","0.2,0.8","4:nogo_d","0",""
"null","","html-keyboard-response","531","1224485","0.0-6.0-2.103","","<div style=""font-size:60px;"">+</div>","null","","","","","","",""
"490.8900000154972","","image-keyboard-response","532","1224976","0.0-6.0-0.104","","img/green.png","32","trial","32","true","0.8,0.2","1:go_a","",""
"null","","html-keyboard-response","533","1225978","0.0-6.0-1.104","","<img src=""img/green-r.png"" border=""10"">","null","trial","32","","0.8,0.2","1:go_a","1",""
"null","","html-keyboard-response","534","1226980","0.0-6.0-2.104","","<div style=""font-size:60px;"">+</div>","null","","","","","","",""
"364.1049999278039","","image-keyboard-response","535","1227344","0.0-6.0-0.105","","img/orange.png","32","trial","32","true","0.8,0.2","3:go_c","",""
"null","","html-keyboard-response","536","1228346","0.0-6.0-1.105","","<img src=""img/orange-n.png"" border=""10"">","null","trial","32","","0.8,0.2","3:go_c","0",""
"null","","html-keyboard-response","537","1229348","0.0-6.0-2.105","","<div style=""font-size:60px;"">+</div>","null","","","","","","",""
"null","","image-keyboard-response","538","1230850","0.0-6.0-0.106","","img/red.png","null","trial","null","true","0.2,0.8","2:nogo_b","",""
"null","","html-keyboard-response","539","1231851","0.0-6.0-1.106","","<img src=""img/red-n.png"">","null","trial","null","","0.2,0.8","2:nogo_b","0",""
"null","","html-keyboard-response","540","1232852","0.0-6.0-2.106","","<div style=""font-size:60px;"">+</div>","null","","","","","","",""
"null","","image-keyboard-response","541","1234354","0.0-6.0-0.107","","img/grey.png","null","trial","null","true","0.2,0.8","4:nogo_d","",""
"null","","html-keyboard-response","542","1235355","0.0-6.0-1.107","","<img src=""img/grey-r.png"">","null","trial","null","","0.2,0.8","4:nogo_d","1",""
"null","","html-keyboard-response","543","1236357","0.0-6.0-2.107","","<div style=""font-size:60px;"">+</div>","null","","","","","","",""
"null","","image-keyboard-response","544","1237858","0.0-6.0-0.108","","img/red.png","null","trial","null","true","0.2,0.8","2:nogo_b","",""
"null","","html-keyboard-response","545","1238859","0.0-6.0-1.108","","<img src=""img/red-n.png"">","null","trial","null","","0.2,0.8","2:nogo_b","0",""
"null","","html-keyboard-response","546","1239860","0.0-6.0-2.108","","<div style=""font-size:60px;"">+</div>","null","","","","","","",""
"435.62500015832484","","image-keyboard-response","547","1240297","0.0-6.0-0.109","","img/green.png","32","trial","32","true","0.8,0.2","1:go_a","",""
"null","","html-keyboard-response","548","1241298","0.0-6.0-1.109","","<img src=""img/green-r.png"" border=""10"">","null","trial","32","","0.8,0.2","1:go_a","1",""
"null","","html-keyboard-response","549","1242299","0.0-6.0-2.109","","<div style=""font-size:60px;"">+</div>","null","","","","","","",""
"null","","image-keyboard-response","550","1243800","0.0-6.0-0.110","","img/grey.png","null","trial","null","true","0.2,0.8","4:nogo_d","",""
"null","","html-keyboard-response","551","1244801","0.0-6.0-1.110","","<img src=""img/grey-r.png"">","null","trial","null","","0.2,0.8","4:nogo_d","1",""
"null","","html-keyboard-response","552","1245803","0.0-6.0-2.110","","<div style=""font-size:60px;"">+</div>","null","","","","","","",""
"412.8499999642372","","image-keyboard-response","553","1246216","0.0-6.0-0.111","","img/orange.png","32","trial","32","true","0.8,0.2","3:go_c","",""
"null","","html-keyboard-response","554","1247218","0.0-6.0-1.111","","<img src=""img/orange-r.png"" border=""10"">","null","trial","32","","0.8,0.2","3:go_c","1",""
"null","","html-keyboard-response","555","1248219","0.0-6.0-2.111","","<div style=""font-size:60px;"">+</div>","null","","","","","","",""
"564.2949999310076","","image-keyboard-response","556","1248784","0.0-6.0-0.112","","img/orange.png","32","trial","32","true","0.8,0.2","3:go_c","",""
"null","","html-keyboard-response","557","1249786","0.0-6.0-1.112","","<img src=""img/orange-r.png"" border=""10"">","null","trial","32","","0.8,0.2","3:go_c","1",""
"null","","html-keyboard-response","558","1250787","0.0-6.0-2.112","","<div style=""font-size:60px;"">+</div>","null","","","","","","",""
"452.69499998539686","","image-keyboard-response","559","1251240","0.0-6.0-0.113","","img/green.png","32","trial","32","true","0.8,0.2","1:go_a","",""
"null","","html-keyboard-response","560","1252243","0.0-6.0-1.113","","<img src=""img/green-r.png"" border=""10"">","null","trial","32","","0.8,0.2","1:go_a","1",""
"null","","html-keyboard-response","561","1253244","0.0-6.0-2.113","","<div style=""font-size:60px;"">+</div>","null","","","","","","",""
"null","","image-keyboard-response","562","1254745","0.0-6.0-0.114","","img/grey.png","null","trial","null","true","0.2,0.8","4:nogo_d","",""
"null","","html-keyboard-response","563","1255747","0.0-6.0-1.114","","<img src=""img/grey-r.png"">","null","trial","null","","0.2,0.8","4:nogo_d","1",""
"null","","html-keyboard-response","564","1256748","0.0-6.0-2.114","","<div style=""font-size:60px;"">+</div>","null","","","","","","",""
"null","","image-keyboard-response","565","1258249","0.0-6.0-0.115","","img/red.png","null","trial","null","true","0.2,0.8","2:nogo_b","",""
"null","","html-keyboard-response","566","1259251","0.0-6.0-1.115","","<img src=""img/red-r.png"">","null","trial","null","","0.2,0.8","2:nogo_b","1",""
"null","","html-keyboard-response","567","1260253","0.0-6.0-2.115","","<div style=""font-size:60px;"">+</div>","null","","","","","","",""
"null","","image-keyboard-response","568","1261754","0.0-6.0-0.116","","img/red.png","null","trial","null","true","0.2,0.8","2:nogo_b","",""
"null","","html-keyboard-response","569","1262755","0.0-6.0-1.116","","<img src=""img/red-r.png"">","null","trial","null","","0.2,0.8","2:nogo_b","1",""
"null","","html-keyboard-response","570","1263757","0.0-6.0-2.116","","<div style=""font-size:60px;"">+</div>","null","","","","","","",""
"562.6950000878423","","image-keyboard-response","571","1264321","0.0-6.0-0.117","","img/green.png","32","trial","32","true","0.8,0.2","1:go_a","",""
"null","","html-keyboard-response","572","1265322","0.0-6.0-1.117","","<img src=""img/green-r.png"" border=""10"">","null","trial","32","","0.8,0.2","1:go_a","1",""
"null","","html-keyboard-response","573","1266323","0.0-6.0-2.117","","<div style=""font-size:60px;"">+</div>","null","","","","","","",""
"null","","image-keyboard-response","574","1267824","0.0-6.0-0.118","","img/grey.png","null","trial","null","true","0.2,0.8","4:nogo_d","",""
"null","","html-keyboard-response","575","1268826","0.0-6.0-1.118","","<img src=""img/grey-r.png"">","null","trial","null","","0.2,0.8","4:nogo_d","1",""
"null","","html-keyboard-response","576","1269828","0.0-6.0-2.118","","<div style=""font-size:60px;"">+</div>","null","","","","","","",""
"492.3050000797957","","image-keyboard-response","577","1270320","0.0-6.0-0.119","","img/orange.png","32","trial","32","true","0.8,0.2","3:go_c","",""
"null","","html-keyboard-response","578","1271322","0.0-6.0-1.119","","<img src=""img/orange-r.png"" border=""10"">","null","trial","32","","0.8,0.2","3:go_c","1",""
"null","","html-keyboard-response","579","1272323","0.0-6.0-2.119","","<div style=""font-size:60px;"">+</div>","null","","","","","","",""
"4186333.905000007","","instructions","580","5458658","0.0-7.0","[{""page_index"":0,""viewing_time"":4186333.7299998384}]","","","","","","","","",""
"682.2349999565631","","image-keyboard-response","581","5459341","0.0-8.0-0.0","","img/green.png","32","trial","null","false","0.4,0.6","2:nogo_b","",""
"null","","html-keyboard-response","582","5460342","0.0-8.0-1.0","","<img src=""img/green-n.png"" border=""10"">","null","trial","null","","0.4,0.6","2:nogo_b","0",""
"null","","html-keyboard-response","583","5461354","0.0-8.0-2.0","","<div style=""font-size:60px;"">+</div>","null","","","","","","",""
"673.8799999002367","","image-keyboard-response","584","5462029","0.0-8.0-0.1","","img/grey.png","32","trial","32","true","0.6,0.4","1:go_a","",""
"null","","html-keyboard-response","585","5463031","0.0-8.0-1.1","","<img src=""img/grey-r.png"" border=""10"">","null","trial","32","","0.6,0.4","1:go_a","1",""
"null","","html-keyboard-response","586","5464032","0.0-8.0-2.1","","<div style=""font-size:60px;"">+</div>","null","","","","","","",""
"468.20000000298023","","image-keyboard-response","587","5464501","0.0-8.0-0.2","","img/blue.png","32","trial","32","true","0.6,0.4","3:go_c","",""
"null","","html-keyboard-response","588","5465503","0.0-8.0-1.2","","<img src=""img/blue-r.png"" border=""10"">","null","trial","32","","0.6,0.4","3:go_c","1",""
"null","","html-keyboard-response","589","5466503","0.0-8.0-2.2","","<div style=""font-size:60px;"">+</div>","null","","","","","","",""
"444.71499999053776","","image-keyboard-response","590","5466949","0.0-8.0-0.3","","img/yellow.png","32","trial","null","false","0.4,0.6","4:nogo_d","",""
"null","","html-keyboard-response","591","5467951","0.0-8.0-1.3","","<img src=""img/yellow-r.png"" border=""10"">","null","trial","null","","0.4,0.6","4:nogo_d","1",""
"null","","html-keyboard-response","592","5468952","0.0-8.0-2.3","","<div style=""font-size:60px;"">+</div>","null","","","","","","",""
"572.0450000371784","","image-keyboard-response","593","5469525","0.0-8.0-0.4","","img/yellow.png","32","trial","null","false","0.4,0.6","4:nogo_d","",""
"null","","html-keyboard-response","594","5470527","0.0-8.0-1.4","","<img src=""img/yellow-r.png"" border=""10"">","null","trial","null","","0.4,0.6","4:nogo_d","1",""
"null","","html-keyboard-response","595","5471528","0.0-8.0-2.4","","<div style=""font-size:60px;"">+</div>","null","","","","","","",""
"452.2549998946488","","image-keyboard-response","596","5471981","0.0-8.0-0.5","","img/blue.png","32","trial","32","true","0.6,0.4","3:go_c","",""
"null","","html-keyboard-response","597","5472983","0.0-8.0-1.5","","<img src=""img/blue-n.png"" border=""10"">","null","trial","32","","0.6,0.4","3:go_c","0",""
"null","","html-keyboard-response","598","5473983","0.0-8.0-2.5","","<div style=""font-size:60px;"">+</div>","null","","","","","","",""
"null","","image-keyboard-response","599","5475485","0.0-8.0-0.6","","img/green.png","null","trial","null","true","0.4,0.6","2:nogo_b","",""
"null","","html-keyboard-response","600","5476486","0.0-8.0-1.6","","<img src=""img/green-r.png"">","null","trial","null","","0.4,0.6","2:nogo_b","1",""
"null","","html-keyboard-response","601","5477488","0.0-8.0-2.6","","<div style=""font-size:60px;"">+</div>","null","","","","","","",""
"604.1199997998774","","image-keyboard-response","602","5478093","0.0-8.0-0.7","","img/grey.png","32","trial","32","true","0.6,0.4","1:go_a","",""
"null","","html-keyboard-response","603","5479095","0.0-8.0-1.7","","<img src=""img/grey-n.png"" border=""10"">","null","trial","32","","0.6,0.4","1:go_a","0",""
"null","","html-keyboard-response","604","5480096","0.0-8.0-2.7","","<div style=""font-size:60px;"">+</div>","null","","","","","","",""
"620.2650000341237","","image-keyboard-response","605","5480717","0.0-8.0-0.8","","img/grey.png","32","trial","32","true","0.6,0.4","1:go_a","",""
"null","","html-keyboard-response","606","5481719","0.0-8.0-1.8","","<img src=""img/grey-n.png"" border=""10"">","null","trial","32","","0.6,0.4","1:go_a","0",""
"null","","html-keyboard-response","607","5482719","0.0-8.0-2.8","","<div style=""font-size:60px;"">+</div>","null","","","","","","",""
"null","","image-keyboard-response","608","5484220","0.0-8.0-0.9","","img/green.png","null","trial","null","true","0.4,0.6","2:nogo_b","",""
"null","","html-keyboard-response","609","5485221","0.0-8.0-1.9","","<img src=""img/green-n.png"">","null","trial","null","","0.4,0.6","2:nogo_b","0",""
"null","","html-keyboard-response","610","5486222","0.0-8.0-2.9","","<div style=""font-size:60px;"">+</div>","null","","","","","","",""
"405.7850001845509","","image-keyboard-response","611","5486629","0.0-8.0-0.10","","img/blue.png","32","trial","32","true","0.6,0.4","3:go_c","",""
"null","","html-keyboard-response","612","5487630","0.0-8.0-1.10","","<img src=""img/blue-n.png"" border=""10"">","null","trial","32","","0.6,0.4","3:go_c","0",""
"null","","html-keyboard-response","613","5488630","0.0-8.0-2.10","","<div style=""font-size:60px;"">+</div>","null","","","","","","",""
"421.90000019036233","","image-keyboard-response","614","5489053","0.0-8.0-0.11","","img/yellow.png","32","trial","null","false","0.4,0.6","4:nogo_d","",""
"null","","html-keyboard-response","615","5490055","0.0-8.0-1.11","","<img src=""img/yellow-n.png"" border=""10"">","null","trial","null","","0.4,0.6","4:nogo_d","0",""
"null","","html-keyboard-response","616","5491056","0.0-8.0-2.11","","<div style=""font-size:60px;"">+</div>","null","","","","","","",""
"427.9899999964982","","image-keyboard-response","617","5491485","0.0-8.0-0.12","","img/yellow.png","32","trial","null","false","0.4,0.6","4:nogo_d","",""
"null","","html-keyboard-response","618","5492486","0.0-8.0-1.12","","<img src=""img/yellow-r.png"" border=""10"">","null","trial","null","","0.4,0.6","4:nogo_d","1",""
"null","","html-keyboard-response","619","5493488","0.0-8.0-2.12","","<div style=""font-size:60px;"">+</div>","null","","","","","","",""
"null","","image-keyboard-response","620","5494989","0.0-8.0-0.13","","img/grey.png","null","trial","32","false","0.6,0.4","1:go_a","",""
"null","","html-keyboard-response","621","5495990","0.0-8.0-1.13","","<img src=""img/grey-r.png"">","null","trial","32","","0.6,0.4","1:go_a","1",""
"null","","html-keyboard-response","622","5496991","0.0-8.0-2.13","","<div style=""font-size:60px;"">+</div>","null","","","","","","",""
"381.10000011511147","","image-keyboard-response","623","5497373","0.0-8.0-0.14","","img/blue.png","32","trial","32","true","0.6,0.4","3:go_c","",""
"null","","html-keyboard-response","624","5498374","0.0-8.0-1.14","","<img src=""img/blue-n.png"" border=""10"">","null","trial","32","","0.6,0.4","3:go_c","0",""
"null","","html-keyboard-response","625","5499376","0.0-8.0-2.14","","<div style=""font-size:60px;"">+</div>","null","","","","","","",""
"null","","image-keyboard-response","626","5500877","0.0-8.0-0.15","","img/green.png","null","trial","null","true","0.4,0.6","2:nogo_b","",""
"null","","html-keyboard-response","627","5501879","0.0-8.0-1.15","","<img src=""img/green-r.png"">","null","trial","null","","0.4,0.6","2:nogo_b","1",""
"null","","html-keyboard-response","628","5502880","0.0-8.0-2.15","","<div style=""font-size:60px;"">+</div>","null","","","","","","",""
"null","","image-keyboard-response","629","5504382","0.0-8.0-0.16","","img/blue.png","null","trial","32","false","0.6,0.4","3:go_c","",""
"null","","html-keyboard-response","630","5505383","0.0-8.0-1.16","","<img src=""img/blue-n.png"">","null","trial","32","","0.6,0.4","3:go_c","0",""
"null","","html-keyboard-response","631","5506384","0.0-8.0-2.16","","<div style=""font-size:60px;"">+</div>","null","","","","","","",""
"null","","image-keyboard-response","632","5507885","0.0-8.0-0.17","","img/green.png","null","trial","null","true","0.4,0.6","2:nogo_b","",""
"null","","html-keyboard-response","633","5508887","0.0-8.0-1.17","","<img src=""img/green-r.png"">","null","trial","null","","0.4,0.6","2:nogo_b","1",""
"null","","html-keyboard-response","634","5509888","0.0-8.0-2.17","","<div style=""font-size:60px;"">+</div>","null","","","","","","",""
"null","","image-keyboard-response","635","5511390","0.0-8.0-0.18","","img/grey.png","null","trial","32","false","0.6,0.4","1:go_a","",""
"null","","html-keyboard-response","636","5512391","0.0-8.0-1.18","","<img src=""img/grey-r.png"">","null","trial","32","","0.6,0.4","1:go_a","1",""
"null","","html-keyboard-response","637","5513392","0.0-8.0-2.18","","<div style=""font-size:60px;"">+</div>","null","","","","","","",""
"516.099999891594","","image-keyboard-response","638","5513909","0.0-8.0-0.19","","img/yellow.png","32","trial","null","false","0.4,0.6","4:nogo_d","",""
"null","","html-keyboard-response","639","5514910","0.0-8.0-1.19","","<img src=""img/yellow-r.png"" border=""10"">","null","trial","null","","0.4,0.6","4:nogo_d","1",""
"null","","html-keyboard-response","640","5515912","0.0-8.0-2.19","","<div style=""font-size:60px;"">+</div>","null","","","","","","",""
"508.2599997986108","","image-keyboard-response","641","5516421","0.0-8.0-0.20","","img/yellow.png","32","trial","null","false","0.4,0.6","4:nogo_d","",""
"null","","html-keyboard-response","642","5517423","0.0-8.0-1.20","","<img src=""img/yellow-r.png"" border=""10"">","null","trial","null","","0.4,0.6","4:nogo_d","1",""
"null","","html-keyboard-response","643","5518424","0.0-8.0-2.20","","<div style=""font-size:60px;"">+</div>","null","","","","","","",""
"null","","image-keyboard-response","644","5519926","0.0-8.0-0.21","","img/grey.png","null","trial","32","false","0.6,0.4","1:go_a","",""
"null","","html-keyboard-response","645","5520927","0.0-8.0-1.21","","<img src=""img/grey-n.png"">","null","trial","32","","0.6,0.4","1:go_a","0",""
"null","","html-keyboard-response","646","5521928","0.0-8.0-2.21","","<div style=""font-size:60px;"">+</div>","null","","","","","","",""
"null","","image-keyboard-response","647","5523429","0.0-8.0-0.22","","img/green.png","null","trial","null","true","0.4,0.6","2:nogo_b","",""
"null","","html-keyboard-response","648","5524431","0.0-8.0-1.22","","<img src=""img/green-n.png"">","null","trial","null","","0.4,0.6","2:nogo_b","0",""
"null","","html-keyboard-response","649","5525432","0.0-8.0-2.22","","<div style=""font-size:60px;"">+</div>","null","","","","","","",""
"null","","image-keyboard-response","650","5526933","0.0-8.0-0.23","","img/blue.png","null","trial","32","false","0.6,0.4","3:go_c","",""
"null","","html-keyboard-response","651","5527934","0.0-8.0-1.23","","<img src=""img/blue-r.png"">","null","trial","32","","0.6,0.4","3:go_c","1",""
"null","","html-keyboard-response","652","5528936","0.0-8.0-2.23","","<div style=""font-size:60px;"">+</div>","null","","","","","","",""
"null","","image-keyboard-response","653","5530436","0.0-8.0-0.24","","img/blue.png","null","trial","32","false","0.6,0.4","3:go_c","",""
"null","","html-keyboard-response","654","5531438","0.0-8.0-1.24","","<img src=""img/blue-r.png"">","null","trial","32","","0.6,0.4","3:go_c","1",""
"null","","html-keyboard-response","655","5532440","0.0-8.0-2.24","","<div style=""font-size:60px;"">+</div>","null","","","","","","",""
"null","","image-keyboard-response","656","5533942","0.0-8.0-0.25","","img/grey.png","null","trial","32","false","0.6,0.4","1:go_a","",""
"null","","html-keyboard-response","657","5534944","0.0-8.0-1.25","","<img src=""img/grey-r.png"">","null","trial","32","","0.6,0.4","1:go_a","1",""
"null","","html-keyboard-response","658","5535946","0.0-8.0-2.25","","<div style=""font-size:60px;"">+</div>","null","","","","","","",""
"null","","image-keyboard-response","659","5537446","0.0-8.0-0.26","","img/green.png","null","trial","null","true","0.4,0.6","2:nogo_b","",""
"null","","html-keyboard-response","660","5538448","0.0-8.0-1.26","","<img src=""img/green-r.png"">","null","trial","null","","0.4,0.6","2:nogo_b","1",""
"null","","html-keyboard-response","661","5539449","0.0-8.0-2.26","","<div style=""font-size:60px;"">+</div>","null","","","","","","",""
"395.3249999321997","","image-keyboard-response","662","5539845","0.0-8.0-0.27","","img/yellow.png","32","trial","null","false","0.4,0.6","4:nogo_d","",""
"null","","html-keyboard-response","663","5540847","0.0-8.0-1.27","","<img src=""img/yellow-n.png"" border=""10"">","null","trial","null","","0.4,0.6","4:nogo_d","0",""
"null","","html-keyboard-response","664","5541849","0.0-8.0-2.27","","<div style=""font-size:60px;"">+</div>","null","","","","","","",""
"null","","image-keyboard-response","665","5543350","0.0-8.0-0.28","","img/blue.png","null","trial","32","false","0.6,0.4","3:go_c","",""
"null","","html-keyboard-response","666","5544351","0.0-8.0-1.28","","<img src=""img/blue-n.png"">","null","trial","32","","0.6,0.4","3:go_c","0",""
"null","","html-keyboard-response","667","5545353","0.0-8.0-2.28","","<div style=""font-size:60px;"">+</div>","null","","","","","","",""
"null","","image-keyboard-response","668","5546854","0.0-8.0-0.29","","img/green.png","null","trial","null","true","0.4,0.6","2:nogo_b","",""
"null","","html-keyboard-response","669","5547856","0.0-8.0-1.29","","<img src=""img/green-n.png"">","null","trial","null","","0.4,0.6","2:nogo_b","0",""
"null","","html-keyboard-response","670","5548857","0.0-8.0-2.29","","<div style=""font-size:60px;"">+</div>","null","","","","","","",""
"null","","image-keyboard-response","671","5550358","0.0-8.0-0.30","","img/grey.png","null","trial","32","false","0.6,0.4","1:go_a","",""
"null","","html-keyboard-response","672","5551360","0.0-8.0-1.30","","<img src=""img/grey-n.png"">","null","trial","32","","0.6,0.4","1:go_a","0",""
"null","","html-keyboard-response","673","5552374","0.0-8.0-2.30","","<div style=""font-size:60px;"">+</div>","null","","","","","","",""
"414.335000095889","","image-keyboard-response","674","5552789","0.0-8.0-0.31","","img/yellow.png","32","trial","null","false","0.4,0.6","4:nogo_d","",""
"null","","html-keyboard-response","675","5553791","0.0-8.0-1.31","","<img src=""img/yellow-r.png"" border=""10"">","null","trial","null","","0.4,0.6","4:nogo_d","1",""
"null","","html-keyboard-response","676","5554792","0.0-8.0-2.31","","<div style=""font-size:60px;"">+</div>","null","","","","","","",""
"null","","image-keyboard-response","677","5556293","0.0-8.0-0.32","","img/blue.png","null","trial","32","false","0.6,0.4","3:go_c","",""
"null","","html-keyboard-response","678","5557294","0.0-8.0-1.32","","<img src=""img/blue-n.png"">","null","trial","32","","0.6,0.4","3:go_c","0",""
"null","","html-keyboard-response","679","5558296","0.0-8.0-2.32","","<div style=""font-size:60px;"">+</div>","null","","","","","","",""
