"rt","url","trial_type","trial_index","time_elapsed","internal_node_id","view_history","stimulus","key_press","test_part","correct_response","correct","use_rew","which_stim","reward","responses"
"11084.470000001602","consent.html","external-html","0","11158","0.0-0.0","","","","","","","","","",""
"86575.47999999952","","instructions","1","97738","0.0-1.0","[{""page_index"":0,""viewing_time"":3848.760000000766},{""page_index"":1,""viewing_time"":24616.3349999988},{""page_index"":2,""viewing_time"":4079.054999998334},{""page_index"":3,""viewing_time"":22322.065000000293},{""page_index"":4,""viewing_time"":12425.269999999728},{""page_index"":5,""viewing_time"":7650.455000002694},{""page_index"":6,""viewing_time"":11632.92999999976}]","","","","","","","","",""
"517.6449999999022","","image-keyboard-response","2","98257","0.0-2.0-0.0","","img/test1.PNG","32","practice","32","true","","","",""
"null","","html-keyboard-response","3","99263","0.0-2.0-1.0","","<img src=""img/test1-reward.PNG"" border=""10px; grey"">","null","","","","","","",""
"null","","html-keyboard-response","4","100268","0.0-2.0-2.0","","<div style=""font-size:60px;"">+</div>","null","","","","","","",""
"null","","image-keyboard-response","5","101773","0.0-2.0-0.1","","img/test2.PNG","null","practice","null","true","","","",""
"null","","html-keyboard-response","6","102779","0.0-2.0-1.1","","<img src=""img/test2-reward.PNG"">","null","","","","","","",""
"null","","html-keyboard-response","7","103783","0.0-2.0-2.1","","<div style=""font-size:60px;"">+</div>","null","","","","","","",""
"null","","image-keyboard-response","8","105288","0.0-2.0-0.2","","img/test3.PNG","null","practice","null","true","","","",""
"null","","html-keyboard-response","9","106291","0.0-2.0-1.2","","<img src=""img/test3-reward.PNG"">","null","","","","","","",""
"null","","html-keyboard-response","10","107295","0.0-2.0-2.2","","<div style=""font-size:60px;"">+</div>","null","","","","","","",""
"null","","image-keyboard-response","11","108796","0.0-2.0-0.3","","img/test2.PNG","null","practice","null","true","","","",""
"null","","html-keyboard-response","12","109797","0.0-2.0-1.3","","<img src=""img/test2-reward.PNG"">","null","","","","","","",""
"null","","html-keyboard-response","13","110798","0.0-2.0-2.3","","<div style=""font-size:60px;"">+</div>","null","","","","","","",""
"null","","image-keyboard-response","14","112300","0.0-2.0-0.4","","img/test3.PNG","null","practice","null","true","","","",""
"null","","html-keyboard-response","15","113301","0.0-2.0-1.4","","<img src=""img/test3-reward.PNG"">","null","","","","","","",""
"null","","html-keyboard-response","16","114304","0.0-2.0-2.4","","<div style=""font-size:60px;"">+</div>","null","","","","","","",""
"413.9400000021851","","image-keyboard-response","17","114719","0.0-2.0-0.5","","img/test1.PNG","32","practice","32","true","","","",""
"null","","html-keyboard-response","18","115723","0.0-2.0-1.5","","<img src=""img/test1-reward.PNG"" border=""10px; grey"">","null","","","","","","",""
"null","","html-keyboard-response","19","116728","0.0-2.0-2.5","","<div style=""font-size:60px;"">+</div>","null","","","","","","",""
"null","","image-keyboard-response","20","118234","0.0-2.0-0.6","","img/test3.PNG","null","practice","null","true","","","",""
"null","","html-keyboard-response","21","119239","0.0-2.0-1.6","","<img src=""img/test3-reward.PNG"">","null","","","","","","",""
"null","","html-keyboard-response","22","120240","0.0-2.0-2.6","","<div style=""font-size:60px;"">+</div>","null","","","","","","",""
"622.7550000003248","","image-keyboard-response","23","120864","0.0-2.0-0.7","","img/test1.PNG","32","practice","32","true","","","",""
"null","","html-keyboard-response","24","121867","0.0-2.0-1.7","","<img src=""img/test1-reward.PNG"" border=""10px; grey"">","null","","","","","","",""
"null","","html-keyboard-response","25","122870","0.0-2.0-2.7","","<div style=""font-size:60px;"">+</div>","null","","","","","","",""
"null","","image-keyboard-response","26","124376","0.0-2.0-0.8","","img/test2.PNG","null","practice","null","true","","","",""
"null","","html-keyboard-response","27","125379","0.0-2.0-1.8","","<img src=""img/test2-reward.PNG"">","null","","","","","","",""
"null","","html-keyboard-response","28","126383","0.0-2.0-2.8","","<div style=""font-size:60px;"">+</div>","null","","","","","","",""
"782.4399999990419","","image-keyboard-response","29","127167","0.0-2.0-0.9","","img/test1.PNG","32","practice","32","true","","","",""
"null","","html-keyboard-response","30","128171","0.0-2.0-1.9","","<img src=""img/test1-reward.PNG"" border=""10px; grey"">","null","","","","","","",""
"null","","html-keyboard-response","31","129175","0.0-2.0-2.9","","<div style=""font-size:60px;"">+</div>","null","","","","","","",""
"null","","image-keyboard-response","32","130679","0.0-2.0-0.10","","img/test3.PNG","null","practice","null","true","","","",""
"null","","html-keyboard-response","33","131683","0.0-2.0-1.10","","<img src=""img/test3-reward.PNG"">","null","","","","","","",""
"null","","html-keyboard-response","34","132687","0.0-2.0-2.10","","<div style=""font-size:60px;"">+</div>","null","","","","","","",""
"null","","image-keyboard-response","35","134193","0.0-2.0-0.11","","img/test2.PNG","null","practice","null","true","","","",""
"null","","html-keyboard-response","36","135195","0.0-2.0-1.11","","<img src=""img/test2-reward.PNG"">","null","","","","","","",""
"null","","html-keyboard-response","37","136196","0.0-2.0-2.11","","<div style=""font-size:60px;"">+</div>","null","","","","","","",""
"3415.6349999975646","","instructions","38","139612","0.0-3.0","[{""page_index"":0,""viewing_time"":3415.4600000001665}]","","","","","","","","",""
"676.0400000021036","","image-keyboard-response","39","140289","0.0-4.0-0.0","","img/pink.png","32","trial","32","true","0.8,0.2","1:go_a","",""
"null","","html-keyboard-response","40","141295","0.0-4.0-1.0","","<img src=""img/pink-r.png"" border=""10"">","null","trial","32","","0.8,0.2","1:go_a","1",""
"null","","html-keyboard-response","41","142296","0.0-4.0-2.0","","<div style=""font-size:60px;"">+</div>","null","","","","","","",""
"364.0049999994517","","image-keyboard-response","42","142660","0.0-4.0-0.1","","img/purple.png","32","trial","null","false","0.2,0.8","2:nogo_b","",""
"null","","html-keyboard-response","43","143667","0.0-4.0-1.1","","<img src=""img/purple-r.png"" border=""10"">","null","trial","null","","0.2,0.8","2:nogo_b","1",""
"null","","html-keyboard-response","44","144669","0.0-4.0-2.1","","<div style=""font-size:60px;"">+</div>","null","","","","","","",""
"461.780000001454","","image-keyboard-response","45","145132","0.0-4.0-0.2","","img/pink.png","32","trial","32","true","0.8,0.2","1:go_a","",""
"null","","html-keyboard-response","46","146138","0.0-4.0-1.2","","<img src=""img/pink-n.png"" border=""10"">","null","trial","32","","0.8,0.2","1:go_a","0",""
"null","","html-keyboard-response","47","147143","0.0-4.0-2.2","","<div style=""font-size:60px;"">+</div>","null","","","","","","",""
"522.834999999759","","image-keyboard-response","48","147666","0.0-4.0-0.3","","img/purple.png","32","trial","null","false","0.2,0.8","2:nogo_b","",""
"null","","html-keyboard-response","49","148671","0.0-4.0-1.3","","<img src=""img/purple-n.png"" border=""10"">","null","trial","null","","0.2,0.8","2:nogo_b","0",""
"null","","html-keyboard-response","50","149675","0.0-4.0-2.3","","<div style=""font-size:60px;"">+</div>","null","","","","","","",""
"638.5249999984808","","image-keyboard-response","51","150315","0.0-4.0-0.4","","img/purple.png","32","trial","null","false","0.2,0.8","2:nogo_b","",""
"null","","html-keyboard-response","52","151320","0.0-4.0-1.4","","<img src=""img/purple-r.png"" border=""10"">","null","trial","null","","0.2,0.8","2:nogo_b","1",""
"null","","html-keyboard-response","53","152325","0.0-4.0-2.4","","<div style=""font-size:60px;"">+</div>","null","","","","","","",""
"464.4399999997404","","image-keyboard-response","54","152790","0.0-4.0-0.5","","img/pink.png","32","trial","32","true","0.8,0.2","1:go_a","",""
"null","","html-keyboard-response","55","153795","0.0-4.0-1.5","","<img src=""img/pink-r.png"" border=""10"">","null","trial","32","","0.8,0.2","1:go_a","1",""
"null","","html-keyboard-response","56","154797","0.0-4.0-2.5","","<div style=""font-size:60px;"">+</div>","null","","","","","","",""
"510.3750000016589","","image-keyboard-response","57","155308","0.0-4.0-0.6","","img/pink.png","32","trial","32","true","0.8,0.2","1:go_a","",""
"null","","html-keyboard-response","58","156313","0.0-4.0-1.6","","<img src=""img/pink-r.png"" border=""10"">","null","trial","32","","0.8,0.2","1:go_a","1",""
"null","","html-keyboard-response","59","157317","0.0-4.0-2.6","","<div style=""font-size:60px;"">+</div>","null","","","","","","",""
"null","","image-keyboard-response","60","158823","0.0-4.0-0.7","","img/purple.png","null","trial","null","true","0.2,0.8","2:nogo_b","",""
"null","","html-keyboard-response","61","159828","0.0-4.0-1.7","","<img src=""img/purple-r.png"">","null","trial","null","","0.2,0.8","2:nogo_b","1",""
"null","","html-keyboard-response","62","160833","0.0-4.0-2.7","","<div style=""font-size:60px;"">+</div>","null","","","","","","",""
"null","","image-keyboard-response","63","162339","0.0-4.0-0.8","","img/purple.png","null","trial","null","true","0.2,0.8","2:nogo_b","",""
"null","","html-keyboard-response","64","163343","0.0-4.0-1.8","","<img src=""img/purple-r.png"">","null","trial","null","","0.2,0.8","2:nogo_b","1",""
"null","","html-keyboard-response","65","164347","0.0-4.0-2.8","","<div style=""font-size:60px;"">+</div>","null","","","","","","",""
"409.53499999886844","","image-keyboard-response","66","164758","0.0-4.0-0.9","","img/pink.png","32","trial","32","true","0.8,0.2","1:go_a","",""
"null","","html-keyboard-response","67","165763","0.0-4.0-1.9","","<img src=""img/pink-r.png"" border=""10"">","null","trial","32","","0.8,0.2","1:go_a","1",""
"null","","html-keyboard-response","68","166767","0.0-4.0-2.9","","<div style=""font-size:60px;"">+</div>","null","","","","","","",""
"416.97000000203843","","image-keyboard-response","69","167185","0.0-4.0-0.10","","img/pink.png","32","trial","32","true","0.8,0.2","1:go_a","",""
"null","","html-keyboard-response","70","168191","0.0-4.0-1.10","","<img src=""img/pink-r.png"" border=""10"">","null","trial","32","","0.8,0.2","1:go_a","1",""
"null","","html-keyboard-response","71","169195","0.0-4.0-2.10","","<div style=""font-size:60px;"">+</div>","null","","","","","","",""
"null","","image-keyboard-response","72","170697","0.0-4.0-0.11","","img/purple.png","null","trial","null","true","0.2,0.8","2:nogo_b","",""
"null","","html-keyboard-response","73","171699","0.0-4.0-1.11","","<img src=""img/purple-r.png"">","null","trial","null","","0.2,0.8","2:nogo_b","1",""
"null","","html-keyboard-response","74","172700","0.0-4.0-2.11","","<div style=""font-size:60px;"">+</div>","null","","","","","","",""
"null","","image-keyboard-response","75","174201","0.0-4.0-0.12","","img/purple.png","null","trial","null","true","0.2,0.8","2:nogo_b","",""
"null","","html-keyboard-response","76","175203","0.0-4.0-1.12","","<img src=""img/purple-r.png"">","null","trial","null","","0.2,0.8","2:nogo_b","1",""
"null","","html-keyboard-response","77","176204","0.0-4.0-2.12","","<div style=""font-size:60px;"">+</div>","null","","","","","","",""
"341.1099999975704","","image-keyboard-response","78","176546","0.0-4.0-0.13","","img/pink.png","32","trial","32","true","0.8,0.2","1:go_a","",""
"null","","html-keyboard-response","79","177552","0.0-4.0-1.13","","<img src=""img/pink-r.png"" border=""10"">","null","trial","32","","0.8,0.2","1:go_a","1",""
"null","","html-keyboard-response","80","178558","0.0-4.0-2.13","","<div style=""font-size:60px;"">+</div>","null","","","","","","",""
"333.68999999947846","","image-keyboard-response","81","178892","0.0-4.0-0.14","","img/pink.png","32","trial","32","true","0.8,0.2","1:go_a","",""
"null","","html-keyboard-response","82","179894","0.0-4.0-1.14","","<img src=""img/pink-r.png"" border=""10"">","null","trial","32","","0.8,0.2","1:go_a","1",""
"null","","html-keyboard-response","83","180895","0.0-4.0-2.14","","<div style=""font-size:60px;"">+</div>","null","","","","","","",""
"null","","image-keyboard-response","84","182396","0.0-4.0-0.15","","img/purple.png","null","trial","null","true","0.2,0.8","2:nogo_b","",""
"null","","html-keyboard-response","85","183398","0.0-4.0-1.15","","<img src=""img/purple-r.png"">","null","trial","null","","0.2,0.8","2:nogo_b","1",""
"null","","html-keyboard-response","86","184400","0.0-4.0-2.15","","<div style=""font-size:60px;"">+</div>","null","","","","","","",""
"null","","image-keyboard-response","87","185901","0.0-4.0-0.16","","img/purple.png","null","trial","null","true","0.2,0.8","2:nogo_b","",""
"null","","html-keyboard-response","88","186903","0.0-4.0-1.16","","<img src=""img/purple-r.png"">","null","trial","null","","0.2,0.8","2:nogo_b","1",""
"null","","html-keyboard-response","89","187904","0.0-4.0-2.16","","<div style=""font-size:60px;"">+</div>","null","","","","","","",""
"412.4950000004901","","image-keyboard-response","90","188317","0.0-4.0-0.17","","img/pink.png","32","trial","32","true","0.8,0.2","1:go_a","",""
"null","","html-keyboard-response","91","189323","0.0-4.0-1.17","","<img src=""img/pink-r.png"" border=""10"">","null","trial","32","","0.8,0.2","1:go_a","1",""
"null","","html-keyboard-response","92","190327","0.0-4.0-2.17","","<div style=""font-size:60px;"">+</div>","null","","","","","","",""
"null","","image-keyboard-response","93","191832","0.0-4.0-0.18","","img/purple.png","null","trial","null","true","0.2,0.8","2:nogo_b","",""
"null","","html-keyboard-response","94","192838","0.0-4.0-1.18","","<img src=""img/purple-r.png"">","null","trial","null","","0.2,0.8","2:nogo_b","1",""
"null","","html-keyboard-response","95","193844","0.0-4.0-2.18","","<div style=""font-size:60px;"">+</div>","null","","","","","","",""
"396.23000000210595","","image-keyboard-response","96","194241","0.0-4.0-0.19","","img/pink.png","32","trial","32","true","0.8,0.2","1:go_a","",""
"null","","html-keyboard-response","97","195246","0.0-4.0-1.19","","<img src=""img/pink-r.png"" border=""10"">","null","trial","32","","0.8,0.2","1:go_a","1",""
"null","","html-keyboard-response","98","196251","0.0-4.0-2.19","","<div style=""font-size:60px;"">+</div>","null","","","","","","",""
"554.984999998851","","image-keyboard-response","99","196807","0.0-4.0-0.20","","img/pink.png","32","trial","32","true","0.8,0.2","1:go_a","",""
"null","","html-keyboard-response","100","197812","0.0-4.0-1.20","","<img src=""img/pink-r.png"" border=""10"">","null","trial","32","","0.8,0.2","1:go_a","1",""
"null","","html-keyboard-response","101","198814","0.0-4.0-2.20","","<div style=""font-size:60px;"">+</div>","null","","","","","","",""
"null","","image-keyboard-response","102","200318","0.0-4.0-0.21","","img/purple.png","null","trial","null","true","0.2,0.8","2:nogo_b","",""
"null","","html-keyboard-response","103","201323","0.0-4.0-1.21","","<img src=""img/purple-r.png"">","null","trial","null","","0.2,0.8","2:nogo_b","1",""
"null","","html-keyboard-response","104","202323","0.0-4.0-2.21","","<div style=""font-size:60px;"">+</div>","null","","","","","","",""
"521.0800000022573","","image-keyboard-response","105","202845","0.0-4.0-0.22","","img/pink.png","32","trial","32","true","0.8,0.2","1:go_a","",""
"null","","html-keyboard-response","106","203850","0.0-4.0-1.22","","<img src=""img/pink-r.png"" border=""10"">","null","trial","32","","0.8,0.2","1:go_a","1",""
"null","","html-keyboard-response","107","204855","0.0-4.0-2.22","","<div style=""font-size:60px;"">+</div>","null","","","","","","",""
"null","","image-keyboard-response","108","206358","0.0-4.0-0.23","","img/purple.png","null","trial","null","true","0.2,0.8","2:nogo_b","",""
"null","","html-keyboard-response","109","207364","0.0-4.0-1.23","","<img src=""img/purple-r.png"">","null","trial","null","","0.2,0.8","2:nogo_b","1",""
"null","","html-keyboard-response","110","208368","0.0-4.0-2.23","","<div style=""font-size:60px;"">+</div>","null","","","","","","",""
"null","","image-keyboard-response","111","209871","0.0-4.0-0.24","","img/purple.png","null","trial","null","true","0.2,0.8","2:nogo_b","",""
"null","","html-keyboard-response","112","210874","0.0-4.0-1.24","","<img src=""img/purple-r.png"">","null","trial","null","","0.2,0.8","2:nogo_b","1",""
"null","","html-keyboard-response","113","211875","0.0-4.0-2.24","","<div style=""font-size:60px;"">+</div>","null","","","","","","",""
"437.4649999990652","","image-keyboard-response","114","212313","0.0-4.0-0.25","","img/pink.png","32","trial","32","true","0.8,0.2","1:go_a","",""
"null","","html-keyboard-response","115","213318","0.0-4.0-1.25","","<img src=""img/pink-r.png"" border=""10"">","null","trial","32","","0.8,0.2","1:go_a","1",""
"null","","html-keyboard-response","116","214322","0.0-4.0-2.25","","<div style=""font-size:60px;"">+</div>","null","","","","","","",""
"393.6549999998533","","image-keyboard-response","117","214717","0.0-4.0-0.26","","img/pink.png","32","trial","32","true","0.8,0.2","1:go_a","",""
"null","","html-keyboard-response","118","215722","0.0-4.0-1.26","","<img src=""img/pink-r.png"" border=""10"">","null","trial","32","","0.8,0.2","1:go_a","1",""
"null","","html-keyboard-response","119","216726","0.0-4.0-2.26","","<div style=""font-size:60px;"">+</div>","null","","","","","","",""
"null","","image-keyboard-response","120","218231","0.0-4.0-0.27","","img/purple.png","null","trial","null","true","0.2,0.8","2:nogo_b","",""
"null","","html-keyboard-response","121","219236","0.0-4.0-1.27","","<img src=""img/purple-r.png"">","null","trial","null","","0.2,0.8","2:nogo_b","1",""
"null","","html-keyboard-response","122","220240","0.0-4.0-2.27","","<div style=""font-size:60px;"">+</div>","null","","","","","","",""
"null","","image-keyboard-response","123","221744","0.0-4.0-0.28","","img/purple.png","null","trial","null","true","0.2,0.8","2:nogo_b","",""
"null","","html-keyboard-response","124","222750","0.0-4.0-1.28","","<img src=""img/purple-n.png"">","null","trial","null","","0.2,0.8","2:nogo_b","0",""
"null","","html-keyboard-response","125","223753","0.0-4.0-2.28","","<div style=""font-size:60px;"">+</div>","null","","","","","","",""
"439.9550000016461","","image-keyboard-response","126","224194","0.0-4.0-0.29","","img/pink.png","32","trial","32","true","0.8,0.2","1:go_a","",""
"null","","html-keyboard-response","127","225196","0.0-4.0-1.29","","<img src=""img/pink-r.png"" border=""10"">","null","trial","32","","0.8,0.2","1:go_a","1",""
"null","","html-keyboard-response","128","226197","0.0-4.0-2.29","","<div style=""font-size:60px;"">+</div>","null","","","","","","",""
"394.83499999914784","","image-keyboard-response","129","226592","0.0-4.0-0.30","","img/pink.png","32","trial","32","true","0.8,0.2","1:go_a","",""
"null","","html-keyboard-response","130","227595","0.0-4.0-1.30","","<img src=""img/pink-n.png"" border=""10"">","null","trial","32","","0.8,0.2","1:go_a","0",""
"null","","html-keyboard-response","131","228596","0.0-4.0-2.30","","<div style=""font-size:60px;"">+</div>","null","","","","","","",""
"457.1299999988696","","image-keyboard-response","132","229054","0.0-4.0-0.31","","img/purple.png","32","trial","null","false","0.2,0.8","2:nogo_b","",""
"null","","html-keyboard-response","133","230059","0.0-4.0-1.31","","<img src=""img/purple-n.png"" border=""10"">","null","trial","null","","0.2,0.8","2:nogo_b","0",""
"null","","html-keyboard-response","134","231064","0.0-4.0-2.31","","<div style=""font-size:60px;"">+</div>","null","","","","","","",""
"386.9249999988824","","image-keyboard-response","135","231452","0.0-4.0-0.32","","img/purple.png","32","trial","null","false","0.2,0.8","2:nogo_b","",""
"null","","html-keyboard-response","136","232453","0.0-4.0-1.32","","<img src=""img/purple-r.png"" border=""10"">","null","trial","null","","0.2,0.8","2:nogo_b","1",""
"null","","html-keyboard-response","137","233454","0.0-4.0-2.32","","<div style=""font-size:60px;"">+</div>","null","","","","","","",""
"365.7899999998335","","image-keyboard-response","138","233820","0.0-4.0-0.33","","img/pink.png","32","trial","32","true","0.8,0.2","1:go_a","",""
"null","","html-keyboard-response","139","234826","0.0-4.0-1.33","","<img src=""img/pink-r.png"" border=""10"">","null","trial","32","","0.8,0.2","1:go_a","1",""
"null","","html-keyboard-response","140","235831","0.0-4.0-2.33","","<div style=""font-size:60px;"">+</div>","null","","","","","","",""
"null","","image-keyboard-response","141","237336","0.0-4.0-0.34","","img/purple.png","null","trial","null","true","0.2,0.8","2:nogo_b","",""
"null","","html-keyboard-response","142","238340","0.0-4.0-1.34","","<img src=""img/purple-r.png"">","null","trial","null","","0.2,0.8","2:nogo_b","1",""
"null","","html-keyboard-response","143","239344","0.0-4.0-2.34","","<div style=""font-size:60px;"">+</div>","null","","","","","","",""
"427.4750000004133","","image-keyboard-response","144","239773","0.0-4.0-0.35","","img/pink.png","32","trial","32","true","0.8,0.2","1:go_a","",""
"null","","html-keyboard-response","145","240776","0.0-4.0-1.35","","<img src=""img/pink-n.png"" border=""10"">","null","trial","32","","0.8,0.2","1:go_a","0",""
"null","","html-keyboard-response","146","241780","0.0-4.0-2.35","","<div style=""font-size:60px;"">+</div>","null","","","","","","",""
"347.6550000013958","","image-keyboard-response","147","242129","0.0-4.0-0.36","","img/purple.png","32","trial","null","false","0.2,0.8","2:nogo_b","",""
"null","","html-keyboard-response","148","243135","0.0-4.0-1.36","","<img src=""img/purple-n.png"" border=""10"">","null","trial","null","","0.2,0.8","2:nogo_b","0",""
"null","","html-keyboard-response","149","244139","0.0-4.0-2.36","","<div style=""font-size:60px;"">+</div>","null","","","","","","",""
"610.8549999989918","","image-keyboard-response","150","244751","0.0-4.0-0.37","","img/pink.png","32","trial","32","true","0.8,0.2","1:go_a","",""
"null","","html-keyboard-response","151","245756","0.0-4.0-1.37","","<img src=""img/pink-r.png"" border=""10"">","null","trial","32","","0.8,0.2","1:go_a","1",""
"null","","html-keyboard-response","152","246761","0.0-4.0-2.37","","<div style=""font-size:60px;"">+</div>","null","","","","","","",""
"431.0750000004191","","image-keyboard-response","153","247193","0.0-4.0-0.38","","img/purple.png","32","trial","null","false","0.2,0.8","2:nogo_b","",""
"null","","html-keyboard-response","154","248196","0.0-4.0-1.38","","<img src=""img/purple-n.png"" border=""10"">","null","trial","null","","0.2,0.8","2:nogo_b","0",""
"null","","html-keyboard-response","155","249199","0.0-4.0-2.38","","<div style=""font-size:60px;"">+</div>","null","","","","","","",""
"407.15999999883934","","image-keyboard-response","156","249607","0.0-4.0-0.39","","img/pink.png","32","trial","32","true","0.8,0.2","1:go_a","",""
"null","","html-keyboard-response","157","250609","0.0-4.0-1.39","","<img src=""img/pink-r.png"" border=""10"">","null","trial","32","","0.8,0.2","1:go_a","1",""
"null","","html-keyboard-response","158","251613","0.0-4.0-2.39","","<div style=""font-size:60px;"">+</div>","null","","","","","","",""
"434.70499999966705","","image-keyboard-response","159","252049","0.0-4.0-0.40","","img/pink.png","32","trial","32","true","0.8,0.2","1:go_a","",""
"null","","html-keyboard-response","160","253054","0.0-4.0-1.40","","<img src=""img/pink-n.png"" border=""10"">","null","trial","32","","0.8,0.2","1:go_a","0",""
"null","","html-keyboard-response","161","254058","0.0-4.0-2.40","","<div style=""font-size:60px;"">+</div>","null","","","","","","",""
"825.5299999982526","","image-keyboard-response","162","254884","0.0-4.0-0.41","","img/purple.png","32","trial","null","false","0.2,0.8","2:nogo_b","",""
"null","","html-keyboard-response","163","255888","0.0-4.0-1.41","","<img src=""img/purple-n.png"" border=""10"">","null","trial","null","","0.2,0.8","2:nogo_b","0",""
"null","","html-keyboard-response","164","256892","0.0-4.0-2.41","","<div style=""font-size:60px;"">+</div>","null","","","","","","",""
"null","","image-keyboard-response","165","258396","0.0-4.0-0.42","","img/purple.png","null","trial","null","true","0.2,0.8","2:nogo_b","",""
"null","","html-keyboard-response","166","259398","0.0-4.0-1.42","","<img src=""img/purple-n.png"">","null","trial","null","","0.2,0.8","2:nogo_b","0",""
"null","","html-keyboard-response","167","260399","0.0-4.0-2.42","","<div style=""font-size:60px;"">+</div>","null","","","","","","",""
"432.5300000018615","","image-keyboard-response","168","260833","0.0-4.0-0.43","","img/pink.png","32","trial","32","true","0.8,0.2","1:go_a","",""
"null","","html-keyboard-response","169","261834","0.0-4.0-1.43","","<img src=""img/pink-n.png"" border=""10"">","null","trial","32","","0.8,0.2","1:go_a","0",""
"null","","html-keyboard-response","170","262836","0.0-4.0-2.43","","<div style=""font-size:60px;"">+</div>","null","","","","","","",""
"354.29999999905704","","image-keyboard-response","171","263191","0.0-4.0-0.44","","img/purple.png","32","trial","null","false","0.2,0.8","2:nogo_b","",""
"null","","html-keyboard-response","172","264196","0.0-4.0-1.44","","<img src=""img/purple-r.png"" border=""10"">","null","trial","null","","0.2,0.8","2:nogo_b","1",""
"null","","html-keyboard-response","173","265197","0.0-4.0-2.44","","<div style=""font-size:60px;"">+</div>","null","","","","","","",""
"535.5000000017462","","image-keyboard-response","174","265734","0.0-4.0-0.45","","img/pink.png","32","trial","32","true","0.8,0.2","1:go_a","",""
"null","","html-keyboard-response","175","266737","0.0-4.0-1.45","","<img src=""img/pink-r.png"" border=""10"">","null","trial","32","","0.8,0.2","1:go_a","1",""
"null","","html-keyboard-response","176","267740","0.0-4.0-2.45","","<div style=""font-size:60px;"">+</div>","null","","","","","","",""
"514.790000001085","","image-keyboard-response","177","268256","0.0-4.0-0.46","","img/purple.png","32","trial","null","false","0.2,0.8","2:nogo_b","",""
"null","","html-keyboard-response","178","269261","0.0-4.0-1.46","","<img src=""img/purple-r.png"" border=""10"">","null","trial","null","","0.2,0.8","2:nogo_b","1",""
"null","","html-keyboard-response","179","270266","0.0-4.0-2.46","","<div style=""font-size:60px;"">+</div>","null","","","","","","",""
"490.69000000238884","","image-keyboard-response","180","270758","0.0-4.0-0.47","","img/pink.png","32","trial","32","true","0.8,0.2","1:go_a","",""
"null","","html-keyboard-response","181","271763","0.0-4.0-1.47","","<img src=""img/pink-r.png"" border=""10"">","null","trial","32","","0.8,0.2","1:go_a","1",""
"null","","html-keyboard-response","182","272769","0.0-4.0-2.47","","<div style=""font-size:60px;"">+</div>","null","","","","","","",""
"291.84000000171363","","image-keyboard-response","183","273062","0.0-4.0-0.48","","img/pink.png","32","trial","32","true","0.8,0.2","1:go_a","",""
"null","","html-keyboard-response","184","274066","0.0-4.0-1.48","","<img src=""img/pink-r.png"" border=""10"">","null","trial","32","","0.8,0.2","1:go_a","1",""
"null","","html-keyboard-response","185","275068","0.0-4.0-2.48","","<div style=""font-size:60px;"">+</div>","null","","","","","","",""
"310.01499999908265","","image-keyboard-response","186","275378","0.0-4.0-0.49","","img/purple.png","32","trial","null","false","0.2,0.8","2:nogo_b","",""
"null","","html-keyboard-response","187","276384","0.0-4.0-1.49","","<img src=""img/purple-n.png"" border=""10"">","null","trial","null","","0.2,0.8","2:nogo_b","0",""
"null","","html-keyboard-response","188","277388","0.0-4.0-2.49","","<div style=""font-size:60px;"">+</div>","null","","","","","","",""
"610.1249999991851","","image-keyboard-response","189","277999","0.0-4.0-0.50","","img/pink.png","32","trial","32","true","0.8,0.2","1:go_a","",""
"null","","html-keyboard-response","190","279000","0.0-4.0-1.50","","<img src=""img/pink-n.png"" border=""10"">","null","trial","32","","0.8,0.2","1:go_a","0",""
"null","","html-keyboard-response","191","280001","0.0-4.0-2.50","","<div style=""font-size:60px;"">+</div>","null","","","","","","",""
"225.7400000016787","","image-keyboard-response","192","280227","0.0-4.0-0.51","","img/purple.png","32","trial","null","false","0.2,0.8","2:nogo_b","",""
"null","","html-keyboard-response","193","281232","0.0-4.0-1.51","","<img src=""img/purple-r.png"" border=""10"">","null","trial","null","","0.2,0.8","2:nogo_b","1",""
"null","","html-keyboard-response","194","282236","0.0-4.0-2.51","","<div style=""font-size:60px;"">+</div>","null","","","","","","",""
"388.4699999980512","","image-keyboard-response","195","282626","0.0-4.0-0.52","","img/purple.png","32","trial","null","false","0.2,0.8","2:nogo_b","",""
"null","","html-keyboard-response","196","283630","0.0-4.0-1.52","","<img src=""img/purple-n.png"" border=""10"">","null","trial","null","","0.2,0.8","2:nogo_b","0",""
"null","","html-keyboard-response","197","284633","0.0-4.0-2.52","","<div style=""font-size:60px;"">+</div>","null","","","","","","",""
"345.91999999975087","","image-keyboard-response","198","284980","0.0-4.0-0.53","","img/pink.png","32","trial","32","true","0.8,0.2","1:go_a","",""
"null","","html-keyboard-response","199","285986","0.0-4.0-1.53","","<img src=""img/pink-n.png"" border=""10"">","null","trial","32","","0.8,0.2","1:go_a","0",""
"null","","html-keyboard-response","200","286992","0.0-4.0-2.53","","<div style=""font-size:60px;"">+</div>","null","","","","","","",""
"395.22000000212574","","image-keyboard-response","201","287388","0.0-4.0-0.54","","img/pink.png","32","trial","32","true","0.8,0.2","1:go_a","",""
"null","","html-keyboard-response","202","288393","0.0-4.0-1.54","","<img src=""img/pink-r.png"" border=""10"">","null","trial","32","","0.8,0.2","1:go_a","1",""
"null","","html-keyboard-response","203","289394","0.0-4.0-2.54","","<div style=""font-size:60px;"">+</div>","null","","","","","","",""
"431.01000000024214","","image-keyboard-response","204","289826","0.0-4.0-0.55","","img/purple.png","32","trial","null","false","0.2,0.8","2:nogo_b","",""
"null","","html-keyboard-response","205","290830","0.0-4.0-1.55","","<img src=""img/purple-r.png"" border=""10"">","null","trial","null","","0.2,0.8","2:nogo_b","1",""
"null","","html-keyboard-response","206","291835","0.0-4.0-2.55","","<div style=""font-size:60px;"">+</div>","null","","","","","","",""
"365.7950000014971","","image-keyboard-response","207","292201","0.0-4.0-0.56","","img/purple.png","32","trial","null","false","0.2,0.8","2:nogo_b","",""
"null","","html-keyboard-response","208","293204","0.0-4.0-1.56","","<img src=""img/purple-n.png"" border=""10"">","null","trial","null","","0.2,0.8","2:nogo_b","0",""
"null","","html-keyboard-response","209","294206","0.0-4.0-2.56","","<div style=""font-size:60px;"">+</div>","null","","","","","","",""
"359.26499999914085","","image-keyboard-response","210","294566","0.0-4.0-0.57","","img/pink.png","32","trial","32","true","0.8,0.2","1:go_a","",""
"null","","html-keyboard-response","211","295572","0.0-4.0-1.57","","<img src=""img/pink-r.png"" border=""10"">","null","trial","32","","0.8,0.2","1:go_a","1",""
"null","","html-keyboard-response","212","296577","0.0-4.0-2.57","","<div style=""font-size:60px;"">+</div>","null","","","","","","",""
"null","","image-keyboard-response","213","298080","0.0-4.0-0.58","","img/purple.png","null","trial","null","true","0.2,0.8","2:nogo_b","",""
"null","","html-keyboard-response","214","299082","0.0-4.0-1.58","","<img src=""img/purple-r.png"">","null","trial","null","","0.2,0.8","2:nogo_b","1",""
"null","","html-keyboard-response","215","300084","0.0-4.0-2.58","","<div style=""font-size:60px;"">+</div>","null","","","","","","",""
"428.4250000019092","","image-keyboard-response","216","300513","0.0-4.0-0.59","","img/pink.png","32","trial","32","true","0.8,0.2","1:go_a","",""
"null","","html-keyboard-response","217","301516","0.0-4.0-1.59","","<img src=""img/pink-r.png"" border=""10"">","null","trial","32","","0.8,0.2","1:go_a","1",""
"null","","html-keyboard-response","218","302520","0.0-4.0-2.59","","<div style=""font-size:60px;"">+</div>","null","","","","","","",""
"4587.139999999665","","instructions","219","307107","0.0-5.0","[{""page_index"":0,""viewing_time"":4586.96499999857}]","","","","","","","","",""
"608.9400000019232","","image-keyboard-response","220","307718","0.0-6.0-0.0","","img/pink.png","32","trial","null","false","0.4,0.6","4:nogo_d","",""
"null","","html-keyboard-response","221","308721","0.0-6.0-1.0","","<img src=""img/pink-n.png"" border=""10"">","null","trial","null","","0.4,0.6","4:nogo_d","0",""
"null","","html-keyboard-response","222","309724","0.0-6.0-2.0","","<div style=""font-size:60px;"">+</div>","null","","","","","","",""
"411.6649999996298","","image-keyboard-response","223","310136","0.0-6.0-0.1","","img/purple.png","32","trial","32","true","0.6,0.4","3:go_c","",""
"null","","html-keyboard-response","224","311141","0.0-6.0-1.1","","<img src=""img/purple-r.png"" border=""10"">","null","trial","32","","0.6,0.4","3:go_c","1",""
"null","","html-keyboard-response","225","312145","0.0-6.0-2.1","","<div style=""font-size:60px;"">+</div>","null","","","","","","",""
"274.32499999849824","","image-keyboard-response","226","312420","0.0-6.0-0.2","","img/grey.png","32","trial","null","false","0.4,0.6","2:nogo_b","",""
"null","","html-keyboard-response","227","313423","0.0-6.0-1.2","","<img src=""img/grey-n.png"" border=""10"">","null","trial","null","","0.4,0.6","2:nogo_b","0",""
"null","","html-keyboard-response","228","314429","0.0-6.0-2.2","","<div style=""font-size:60px;"">+</div>","null","","","","","","",""
"545.960000003106","","image-keyboard-response","229","314976","0.0-6.0-0.3","","img/orange.png","32","trial","32","true","0.6,0.4","1:go_a","",""
"null","","html-keyboard-response","230","315981","0.0-6.0-1.3","","<img src=""img/orange-n.png"" border=""10"">","null","trial","32","","0.6,0.4","1:go_a","0",""
"null","","html-keyboard-response","231","316985","0.0-6.0-2.3","","<div style=""font-size:60px;"">+</div>","null","","","","","","",""
"null","","image-keyboard-response","232","318490","0.0-6.0-0.4","","img/orange.png","null","trial","32","false","0.6,0.4","1:go_a","",""
"null","","html-keyboard-response","233","319493","0.0-6.0-1.4","","<img src=""img/orange-r.png"">","null","trial","32","","0.6,0.4","1:go_a","1",""
"null","","html-keyboard-response","234","320497","0.0-6.0-2.4","","<div style=""font-size:60px;"">+</div>","null","","","","","","",""
"428.00999999966007","","image-keyboard-response","235","320926","0.0-6.0-0.5","","img/grey.png","32","trial","null","false","0.4,0.6","2:nogo_b","",""
"null","","html-keyboard-response","236","321931","0.0-6.0-1.5","","<img src=""img/grey-n.png"" border=""10"">","null","trial","null","","0.4,0.6","2:nogo_b","0",""
"null","","html-keyboard-response","237","322935","0.0-6.0-2.5","","<div style=""font-size:60px;"">+</div>","null","","","","","","",""
"610.1799999996438","","image-keyboard-response","238","323546","0.0-6.0-0.6","","img/purple.png","32","trial","32","true","0.6,0.4","3:go_c","",""
"null","","html-keyboard-response","239","324550","0.0-6.0-1.6","","<img src=""img/purple-n.png"" border=""10"">","null","trial","32","","0.6,0.4","3:go_c","0",""
"null","","html-keyboard-response","240","325555","0.0-6.0-2.6","","<div style=""font-size:60px;"">+</div>","null","","","","","","",""
"379.8149999966263","","image-keyboard-response","241","325935","0.0-6.0-0.7","","img/pink.png","32","trial","null","false","0.4,0.6","4:nogo_d","",""
"null","","html-keyboard-response","242","326941","0.0-6.0-1.7","","<img src=""img/pink-n.png"" border=""10"">","null","trial","null","","0.4,0.6","4:nogo_d","0",""
"null","","html-keyboard-response","243","327947","0.0-6.0-2.7","","<div style=""font-size:60px;"">+</div>","null","","","","","","",""
"null","","image-keyboard-response","244","329450","0.0-6.0-0.8","","img/grey.png","null","trial","null","true","0.4,0.6","2:nogo_b","",""
"null","","html-keyboard-response","245","330453","0.0-6.0-1.8","","<img src=""img/grey-n.png"">","null","trial","null","","0.4,0.6","2:nogo_b","0",""
"null","","html-keyboard-response","246","331454","0.0-6.0-2.8","","<div style=""font-size:60px;"">+</div>","null","","","","","","",""
"510.6850000011036","","image-keyboard-response","247","331965","0.0-6.0-0.9","","img/pink.png","32","trial","null","false","0.4,0.6","4:nogo_d","",""
"null","","html-keyboard-response","248","332969","0.0-6.0-1.9","","<img src=""img/pink-r.png"" border=""10"">","null","trial","null","","0.4,0.6","4:nogo_d","1",""
"null","","html-keyboard-response","249","333973","0.0-6.0-2.9","","<div style=""font-size:60px;"">+</div>","null","","","","","","",""
"563.1099999991711","","image-keyboard-response","250","334537","0.0-6.0-0.10","","img/purple.png","32","trial","32","true","0.6,0.4","3:go_c","",""
"null","","html-keyboard-response","251","335541","0.0-6.0-1.10","","<img src=""img/purple-r.png"" border=""10"">","null","trial","32","","0.6,0.4","3:go_c","1",""
"null","","html-keyboard-response","252","336545","0.0-6.0-2.10","","<div style=""font-size:60px;"">+</div>","null","","","","","","",""
"null","","image-keyboard-response","253","338049","0.0-6.0-0.11","","img/orange.png","null","trial","32","false","0.6,0.4","1:go_a","",""
"null","","html-keyboard-response","254","339053","0.0-6.0-1.11","","<img src=""img/orange-r.png"">","null","trial","32","","0.6,0.4","1:go_a","1",""
"null","","html-keyboard-response","255","340055","0.0-6.0-2.11","","<div style=""font-size:60px;"">+</div>","null","","","","","","",""
"705.3249999989639","","image-keyboard-response","256","340762","0.0-6.0-0.12","","img/grey.png","32","trial","null","false","0.4,0.6","2:nogo_b","",""
"null","","html-keyboard-response","257","341766","0.0-6.0-1.12","","<img src=""img/grey-r.png"" border=""10"">","null","trial","null","","0.4,0.6","2:nogo_b","1",""
"null","","html-keyboard-response","258","342771","0.0-6.0-2.12","","<div style=""font-size:60px;"">+</div>","null","","","","","","",""
"677.3299999986193","","image-keyboard-response","259","343449","0.0-6.0-0.13","","img/purple.png","32","trial","32","true","0.6,0.4","3:go_c","",""
"null","","html-keyboard-response","260","344451","0.0-6.0-1.13","","<img src=""img/purple-n.png"" border=""10"">","null","trial","32","","0.6,0.4","3:go_c","0",""
"null","","html-keyboard-response","261","345453","0.0-6.0-2.13","","<div style=""font-size:60px;"">+</div>","null","","","","","","",""
"413.88999999983935","","image-keyboard-response","262","345868","0.0-6.0-0.14","","img/pink.png","32","trial","null","false","0.4,0.6","4:nogo_d","",""
"null","","html-keyboard-response","263","346874","0.0-6.0-1.14","","<img src=""img/pink-n.png"" border=""10"">","null","trial","null","","0.4,0.6","4:nogo_d","0",""
"null","","html-keyboard-response","264","347880","0.0-6.0-2.14","","<div style=""font-size:60px;"">+</div>","null","","","","","","",""
"null","","image-keyboard-response","265","349385","0.0-6.0-0.15","","img/orange.png","null","trial","32","false","0.6,0.4","1:go_a","",""
"null","","html-keyboard-response","266","350388","0.0-6.0-1.15","","<img src=""img/orange-n.png"">","null","trial","32","","0.6,0.4","1:go_a","0",""
"null","","html-keyboard-response","267","351393","0.0-6.0-2.15","","<div style=""font-size:60px;"">+</div>","null","","","","","","",""
"557.6749999999884","","image-keyboard-response","268","351952","0.0-6.0-0.16","","img/purple.png","32","trial","32","true","0.6,0.4","3:go_c","",""
"null","","html-keyboard-response","269","352953","0.0-6.0-1.16","","<img src=""img/purple-n.png"" border=""10"">","null","trial","32","","0.6,0.4","3:go_c","0",""
"null","","html-keyboard-response","270","353954","0.0-6.0-2.16","","<div style=""font-size:60px;"">+</div>","null","","","","","","",""
"400.15499999932945","","image-keyboard-response","271","354355","0.0-6.0-0.17","","img/pink.png","32","trial","null","false","0.4,0.6","4:nogo_d","",""
"null","","html-keyboard-response","272","355359","0.0-6.0-1.17","","<img src=""img/pink-n.png"" border=""10"">","null","trial","null","","0.4,0.6","4:nogo_d","0",""
"null","","html-keyboard-response","273","356361","0.0-6.0-2.17","","<div style=""font-size:60px;"">+</div>","null","","","","","","",""
"726.3249999996042","","image-keyboard-response","274","357088","0.0-6.0-0.18","","img/grey.png","32","trial","null","false","0.4,0.6","2:nogo_b","",""
"null","","html-keyboard-response","275","358093","0.0-6.0-1.18","","<img src=""img/grey-n.png"" border=""10"">","null","trial","null","","0.4,0.6","2:nogo_b","0",""
"null","","html-keyboard-response","276","359097","0.0-6.0-2.18","","<div style=""font-size:60px;"">+</div>","null","","","","","","",""
"null","","image-keyboard-response","277","360598","0.0-6.0-0.19","","img/orange.png","null","trial","32","false","0.6,0.4","1:go_a","",""
"null","","html-keyboard-response","278","361599","0.0-6.0-1.19","","<img src=""img/orange-r.png"">","null","trial","32","","0.6,0.4","1:go_a","1",""
"null","","html-keyboard-response","279","362600","0.0-6.0-2.19","","<div style=""font-size:60px;"">+</div>","null","","","","","","",""
"null","","image-keyboard-response","280","364102","0.0-6.0-0.20","","img/orange.png","null","trial","32","false","0.6,0.4","1:go_a","",""
"null","","html-keyboard-response","281","365104","0.0-6.0-1.20","","<img src=""img/orange-n.png"">","null","trial","32","","0.6,0.4","1:go_a","0",""
"null","","html-keyboard-response","282","366106","0.0-6.0-2.20","","<div style=""font-size:60px;"">+</div>","null","","","","","","",""
"795.0850000015926","","image-keyboard-response","283","366902","0.0-6.0-0.21","","img/pink.png","32","trial","null","false","0.4,0.6","4:nogo_d","",""
"null","","html-keyboard-response","284","367904","0.0-6.0-1.21","","<img src=""img/pink-r.png"" border=""10"">","null","trial","null","","0.4,0.6","4:nogo_d","1",""
"null","","html-keyboard-response","285","368905","0.0-6.0-2.21","","<div style=""font-size:60px;"">+</div>","null","","","","","","",""
"null","","image-keyboard-response","286","370408","0.0-6.0-0.22","","img/grey.png","null","trial","null","true","0.4,0.6","2:nogo_b","",""
"null","","html-keyboard-response","287","371412","0.0-6.0-1.22","","<img src=""img/grey-r.png"">","null","trial","null","","0.4,0.6","2:nogo_b","1",""
"null","","html-keyboard-response","288","372414","0.0-6.0-2.22","","<div style=""font-size:60px;"">+</div>","null","","","","","","",""
"662.0650000004098","","image-keyboard-response","289","373077","0.0-6.0-0.23","","img/purple.png","32","trial","32","true","0.6,0.4","3:go_c","",""
"null","","html-keyboard-response","290","374078","0.0-6.0-1.23","","<img src=""img/purple-n.png"" border=""10"">","null","trial","32","","0.6,0.4","3:go_c","0",""
"null","","html-keyboard-response","291","375079","0.0-6.0-2.23","","<div style=""font-size:60px;"">+</div>","null","","","","","","",""
"null","","image-keyboard-response","292","376584","0.0-6.0-0.24","","img/grey.png","null","trial","null","true","0.4,0.6","2:nogo_b","",""
"null","","html-keyboard-response","293","377589","0.0-6.0-1.24","","<img src=""img/grey-r.png"">","null","trial","null","","0.4,0.6","2:nogo_b","1",""
"null","","html-keyboard-response","294","378593","0.0-6.0-2.24","","<div style=""font-size:60px;"">+</div>","null","","","","","","",""
"624.6150000006892","","image-keyboard-response","295","379219","0.0-6.0-0.25","","img/pink.png","32","trial","null","false","0.4,0.6","4:nogo_d","",""
"null","","html-keyboard-response","296","380225","0.0-6.0-1.25","","<img src=""img/pink-n.png"" border=""10"">","null","trial","null","","0.4,0.6","4:nogo_d","0",""
"null","","html-keyboard-response","297","381229","0.0-6.0-2.25","","<div style=""font-size:60px;"">+</div>","null","","","","","","",""
"891.8949999969918","","image-keyboard-response","298","382122","0.0-6.0-0.26","","img/orange.png","32","trial","32","true","0.6,0.4","1:go_a","",""
"null","","html-keyboard-response","299","383128","0.0-6.0-1.26","","<img src=""img/orange-r.png"" border=""10"">","null","trial","32","","0.6,0.4","1:go_a","1",""
"null","","html-keyboard-response","300","384133","0.0-6.0-2.26","","<div style=""font-size:60px;"">+</div>","null","","","","","","",""
"651.68999999878","","image-keyboard-response","301","384786","0.0-6.0-0.27","","img/purple.png","32","trial","32","true","0.6,0.4","3:go_c","",""
"null","","html-keyboard-response","302","385791","0.0-6.0-1.27","","<img src=""img/purple-r.png"" border=""10"">","null","trial","32","","0.6,0.4","3:go_c","1",""
"null","","html-keyboard-response","303","386797","0.0-6.0-2.27","","<div style=""font-size:60px;"">+</div>","null","","","","","","",""
"420.18000000098255","","image-keyboard-response","304","387218","0.0-6.0-0.28","","img/pink.png","32","trial","null","false","0.4,0.6","4:nogo_d","",""
"null","","html-keyboard-response","305","388222","0.0-6.0-1.28","","<img src=""img/pink-n.png"" border=""10"">","null","trial","null","","0.4,0.6","4:nogo_d","0",""
"null","","html-keyboard-response","306","389225","0.0-6.0-2.28","","<div style=""font-size:60px;"">+</div>","null","","","","","","",""
"null","","image-keyboard-response","307","390730","0.0-6.0-0.29","","img/grey.png","null","trial","null","true","0.4,0.6","2:nogo_b","",""
"null","","html-keyboard-response","308","391733","0.0-6.0-1.29","","<img src=""img/grey-r.png"">","null","trial","null","","0.4,0.6","2:nogo_b","1",""
"null","","html-keyboard-response","309","392737","0.0-6.0-2.29","","<div style=""font-size:60px;"">+</div>","null","","","","","","",""
"540.0799999988521","","image-keyboard-response","310","393278","0.0-6.0-0.30","","img/purple.png","32","trial","32","true","0.6,0.4","3:go_c","",""
"null","","html-keyboard-response","311","394281","0.0-6.0-1.30","","<img src=""img/purple-r.png"" border=""10"">","null","trial","32","","0.6,0.4","3:go_c","1",""
"null","","html-keyboard-response","312","395285","0.0-6.0-2.30","","<div style=""font-size:60px;"">+</div>","null","","","","","","",""
"547.5200000000186","","image-keyboard-response","313","395833","0.0-6.0-0.31","","img/orange.png","32","trial","32","true","0.6,0.4","1:go_a","",""
"null","","html-keyboard-response","314","396839","0.0-6.0-1.31","","<img src=""img/orange-n.png"" border=""10"">","null","trial","32","","0.6,0.4","1:go_a","0",""
"null","","html-keyboard-response","315","397844","0.0-6.0-2.31","","<div style=""font-size:60px;"">+</div>","null","","","","","","",""
"null","","image-keyboard-response","316","399349","0.0-6.0-0.32","","img/orange.png","null","trial","32","false","0.6,0.4","1:go_a","",""
"null","","html-keyboard-response","317","400356","0.0-6.0-1.32","","<img src=""img/orange-n.png"">","null","trial","32","","0.6,0.4","1:go_a","0",""
"null","","html-keyboard-response","318","401360","0.0-6.0-2.32","","<div style=""font-size:60px;"">+</div>","null","","","","","","",""
"633.5949999993318","","image-keyboard-response","319","401994","0.0-6.0-0.33","","img/grey.png","32","trial","null","false","0.4,0.6","2:nogo_b","",""
"null","","html-keyboard-response","320","402997","0.0-6.0-1.33","","<img src=""img/grey-n.png"" border=""10"">","null","trial","null","","0.4,0.6","2:nogo_b","0",""
"null","","html-keyboard-response","321","403998","0.0-6.0-2.33","","<div style=""font-size:60px;"">+</div>","null","","","","","","",""
"398.78999999928055","","image-keyboard-response","322","404398","0.0-6.0-0.34","","img/pink.png","32","trial","null","false","0.4,0.6","4:nogo_d","",""
"null","","html-keyboard-response","323","405400","0.0-6.0-1.34","","<img src=""img/pink-n.png"" border=""10"">","null","trial","null","","0.4,0.6","4:nogo_d","0",""
"null","","html-keyboard-response","324","406400","0.0-6.0-2.34","","<div style=""font-size:60px;"">+</div>","null","","","","","","",""
"362.64999999915017","","image-keyboard-response","325","406764","0.0-6.0-0.35","","img/purple.png","32","trial","32","true","0.6,0.4","3:go_c","",""
"null","","html-keyboard-response","326","407770","0.0-6.0-1.35","","<img src=""img/purple-r.png"" border=""10"">","null","trial","32","","0.6,0.4","3:go_c","1",""
"null","","html-keyboard-response","327","408775","0.0-6.0-2.35","","<div style=""font-size:60px;"">+</div>","null","","","","","","",""
"null","","image-keyboard-response","328","410277","0.0-6.0-0.36","","img/grey.png","null","trial","null","true","0.4,0.6","2:nogo_b","",""
"null","","html-keyboard-response","329","411283","0.0-6.0-1.36","","<img src=""img/grey-r.png"">","null","trial","null","","0.4,0.6","2:nogo_b","1",""
"null","","html-keyboard-response","330","412286","0.0-6.0-2.36","","<div style=""font-size:60px;"">+</div>","null","","","","","","",""
"467.67499999987194","","image-keyboard-response","331","412755","0.0-6.0-0.37","","img/pink.png","32","trial","null","false","0.4,0.6","4:nogo_d","",""
"null","","html-keyboard-response","332","413761","0.0-6.0-1.37","","<img src=""img/pink-r.png"" border=""10"">","null","trial","null","","0.4,0.6","4:nogo_d","1",""
"null","","html-keyboard-response","333","414766","0.0-6.0-2.37","","<div style=""font-size:60px;"">+</div>","null","","","","","","",""
"602.6199999978417","","image-keyboard-response","334","415369","0.0-6.0-0.38","","img/purple.png","32","trial","32","true","0.6,0.4","3:go_c","",""
"null","","html-keyboard-response","335","416375","0.0-6.0-1.38","","<img src=""img/purple-r.png"" border=""10"">","null","trial","32","","0.6,0.4","3:go_c","1",""
"null","","html-keyboard-response","336","417378","0.0-6.0-2.38","","<div style=""font-size:60px;"">+</div>","null","","","","","","",""
"null","","image-keyboard-response","337","418882","0.0-6.0-0.39","","img/orange.png","null","trial","32","false","0.6,0.4","1:go_a","",""
"null","","html-keyboard-response","338","419886","0.0-6.0-1.39","","<img src=""img/orange-n.png"">","null","trial","32","","0.6,0.4","1:go_a","0",""
"null","","html-keyboard-response","339","420890","0.0-6.0-2.39","","<div style=""font-size:60px;"">+</div>","null","","","","","","",""
"632.4099999983446","","image-keyboard-response","340","421523","0.0-6.0-0.40","","img/purple.png","32","trial","32","true","0.6,0.4","3:go_c","",""
"null","","html-keyboard-response","341","422526","0.0-6.0-1.40","","<img src=""img/purple-n.png"" border=""10"">","null","trial","32","","0.6,0.4","3:go_c","0",""
"null","","html-keyboard-response","342","423530","0.0-6.0-2.40","","<div style=""font-size:60px;"">+</div>","null","","","","","","",""
"456.08500000159256","","image-keyboard-response","343","423987","0.0-6.0-0.41","","img/orange.png","32","trial","32","true","0.6,0.4","1:go_a","",""
"null","","html-keyboard-response","344","424990","0.0-6.0-1.41","","<img src=""img/orange-n.png"" border=""10"">","null","trial","32","","0.6,0.4","1:go_a","0",""
"null","","html-keyboard-response","345","425994","0.0-6.0-2.41","","<div style=""font-size:60px;"">+</div>","null","","","","","","",""
"558.935000000929","","image-keyboard-response","346","426554","0.0-6.0-0.42","","img/pink.png","32","trial","null","false","0.4,0.6","4:nogo_d","",""
"null","","html-keyboard-response","347","427560","0.0-6.0-1.42","","<img src=""img/pink-r.png"" border=""10"">","null","trial","null","","0.4,0.6","4:nogo_d","1",""
"null","","html-keyboard-response","348","428563","0.0-6.0-2.42","","<div style=""font-size:60px;"">+</div>","null","","","","","","",""
"null","","image-keyboard-response","349","430067","0.0-6.0-0.43","","img/grey.png","null","trial","null","true","0.4,0.6","2:nogo_b","",""
"null","","html-keyboard-response","350","431071","0.0-6.0-1.43","","<img src=""img/grey-r.png"">","null","trial","null","","0.4,0.6","2:nogo_b","1",""
"null","","html-keyboard-response","351","432074","0.0-6.0-2.43","","<div style=""font-size:60px;"">+</div>","null","","","","","","",""
"480.2049999998417","","image-keyboard-response","352","432555","0.0-6.0-0.44","","img/pink.png","32","trial","null","false","0.4,0.6","4:nogo_d","",""
"null","","html-keyboard-response","353","433559","0.0-6.0-1.44","","<img src=""img/pink-r.png"" border=""10"">","null","trial","null","","0.4,0.6","4:nogo_d","1",""
"null","","html-keyboard-response","354","434564","0.0-6.0-2.44","","<div style=""font-size:60px;"">+</div>","null","","","","","","",""
"457.4250000005122","","image-keyboard-response","355","435023","0.0-6.0-0.45","","img/purple.png","32","trial","32","true","0.6,0.4","3:go_c","",""
"null","","html-keyboard-response","356","436028","0.0-6.0-1.45","","<img src=""img/purple-n.png"" border=""10"">","null","trial","32","","0.6,0.4","3:go_c","0",""
"null","","html-keyboard-response","357","437033","0.0-6.0-2.45","","<div style=""font-size:60px;"">+</div>","null","","","","","","",""
"452.8949999985052","","image-keyboard-response","358","437487","0.0-6.0-0.46","","img/grey.png","32","trial","null","false","0.4,0.6","2:nogo_b","",""
"null","","html-keyboard-response","359","438490","0.0-6.0-1.46","","<img src=""img/grey-r.png"" border=""10"">","null","trial","null","","0.4,0.6","2:nogo_b","1",""
"null","","html-keyboard-response","360","439495","0.0-6.0-2.46","","<div style=""font-size:60px;"">+</div>","null","","","","","","",""
"361.0500000031316","","image-keyboard-response","361","439856","0.0-6.0-0.47","","img/orange.png","32","trial","32","true","0.6,0.4","1:go_a","",""
"null","","html-keyboard-response","362","440862","0.0-6.0-1.47","","<img src=""img/orange-r.png"" border=""10"">","null","trial","32","","0.6,0.4","1:go_a","1",""
"null","","html-keyboard-response","363","441865","0.0-6.0-2.47","","<div style=""font-size:60px;"">+</div>","null","","","","","","",""
"497.4149999980582","","image-keyboard-response","364","442363","0.0-6.0-0.48","","img/pink.png","32","trial","null","false","0.4,0.6","4:nogo_d","",""
"null","","html-keyboard-response","365","443368","0.0-6.0-1.48","","<img src=""img/pink-r.png"" border=""10"">","null","trial","null","","0.4,0.6","4:nogo_d","1",""
"null","","html-keyboard-response","366","444372","0.0-6.0-2.48","","<div style=""font-size:60px;"">+</div>","null","","","","","","",""
"null","","image-keyboard-response","367","445874","0.0-6.0-0.49","","img/grey.png","null","trial","null","true","0.4,0.6","2:nogo_b","",""
"null","","html-keyboard-response","368","446879","0.0-6.0-1.49","","<img src=""img/grey-r.png"">","null","trial","null","","0.4,0.6","2:nogo_b","1",""
"null","","html-keyboard-response","369","447883","0.0-6.0-2.49","","<div style=""font-size:60px;"">+</div>","null","","","","","","",""
"476.1800000014482","","image-keyboard-response","370","448360","0.0-6.0-0.50","","img/orange.png","32","trial","32","true","0.6,0.4","1:go_a","",""
"null","","html-keyboard-response","371","449366","0.0-6.0-1.50","","<img src=""img/orange-r.png"" border=""10"">","null","trial","32","","0.6,0.4","1:go_a","1",""
"null","","html-keyboard-response","372","450370","0.0-6.0-2.50","","<div style=""font-size:60px;"">+</div>","null","","","","","","",""
"560.8249999968684","","image-keyboard-response","373","450932","0.0-6.0-0.51","","img/purple.png","32","trial","32","true","0.6,0.4","3:go_c","",""
"null","","html-keyboard-response","374","451936","0.0-6.0-1.51","","<img src=""img/purple-r.png"" border=""10"">","null","trial","32","","0.6,0.4","3:go_c","1",""
"null","","html-keyboard-response","375","452942","0.0-6.0-2.51","","<div style=""font-size:60px;"">+</div>","null","","","","","","",""
"539.9400000023888","","image-keyboard-response","376","453483","0.0-6.0-0.52","","img/pink.png","32","trial","null","false","0.4,0.6","4:nogo_d","",""
"null","","html-keyboard-response","377","454486","0.0-6.0-1.52","","<img src=""img/pink-r.png"" border=""10"">","null","trial","null","","0.4,0.6","4:nogo_d","1",""
"null","","html-keyboard-response","378","455491","0.0-6.0-2.52","","<div style=""font-size:60px;"">+</div>","null","","","","","","",""
"352.0150000004214","","image-keyboard-response","379","455844","0.0-6.0-0.53","","img/orange.png","32","trial","32","true","0.6,0.4","1:go_a","",""
"null","","html-keyboard-response","380","456848","0.0-6.0-1.53","","<img src=""img/orange-n.png"" border=""10"">","null","trial","32","","0.6,0.4","1:go_a","0",""
"null","","html-keyboard-response","381","457851","0.0-6.0-2.53","","<div style=""font-size:60px;"">+</div>","null","","","","","","",""
"558.6800000019139","","image-keyboard-response","382","458411","0.0-6.0-0.54","","img/purple.png","32","trial","32","true","0.6,0.4","3:go_c","",""
"null","","html-keyboard-response","383","459415","0.0-6.0-1.54","","<img src=""img/purple-r.png"" border=""10"">","null","trial","32","","0.6,0.4","3:go_c","1",""
"null","","html-keyboard-response","384","460419","0.0-6.0-2.54","","<div style=""font-size:60px;"">+</div>","null","","","","","","",""
"null","","image-keyboard-response","385","461922","0.0-6.0-0.55","","img/grey.png","null","trial","null","true","0.4,0.6","2:nogo_b","",""
"null","","html-keyboard-response","386","462927","0.0-6.0-1.55","","<img src=""img/grey-r.png"">","null","trial","null","","0.4,0.6","2:nogo_b","1",""
"null","","html-keyboard-response","387","463931","0.0-6.0-2.55","","<div style=""font-size:60px;"">+</div>","null","","","","","","",""
"515.5400000003865","","image-keyboard-response","388","464447","0.0-6.0-0.56","","img/orange.png","32","trial","32","true","0.6,0.4","1:go_a","",""
"null","","html-keyboard-response","389","465453","0.0-6.0-1.56","","<img src=""img/orange-r.png"" border=""10"">","null","trial","32","","0.6,0.4","1:go_a","1",""
"null","","html-keyboard-response","390","466454","0.0-6.0-2.56","","<div style=""font-size:60px;"">+</div>","null","","","","","","",""
"427.92999999807216","","image-keyboard-response","391","466883","0.0-6.0-0.57","","img/purple.png","32","trial","32","true","0.6,0.4","3:go_c","",""
"null","","html-keyboard-response","392","467888","0.0-6.0-1.57","","<img src=""img/purple-n.png"" border=""10"">","null","trial","32","","0.6,0.4","3:go_c","0",""
"null","","html-keyboard-response","393","468894","0.0-6.0-2.57","","<div style=""font-size:60px;"">+</div>","null","","","","","","",""
"384.280000002007","","image-keyboard-response","394","469279","0.0-6.0-0.58","","img/grey.png","32","trial","null","false","0.4,0.6","2:nogo_b","",""
"null","","html-keyboard-response","395","470285","0.0-6.0-1.58","","<img src=""img/grey-r.png"" border=""10"">","null","trial","null","","0.4,0.6","2:nogo_b","1",""
"null","","html-keyboard-response","396","471290","0.0-6.0-2.58","","<div style=""font-size:60px;"">+</div>","null","","","","","","",""
"488.2949999991688","","image-keyboard-response","397","471780","0.0-6.0-0.59","","img/pink.png","32","trial","null","false","0.4,0.6","4:nogo_d","",""
"null","","html-keyboard-response","398","472785","0.0-6.0-1.59","","<img src=""img/pink-n.png"" border=""10"">","null","trial","null","","0.4,0.6","4:nogo_d","0",""
"null","","html-keyboard-response","399","473790","0.0-6.0-2.59","","<div style=""font-size:60px;"">+</div>","null","","","","","","",""
"518.5700000001816","","image-keyboard-response","400","474310","0.0-6.0-0.60","","img/purple.png","32","trial","32","true","0.6,0.4","3:go_c","",""
"null","","html-keyboard-response","401","475313","0.0-6.0-1.60","","<img src=""img/purple-n.png"" border=""10"">","null","trial","32","","0.6,0.4","3:go_c","0",""
"null","","html-keyboard-response","402","476315","0.0-6.0-2.60","","<div style=""font-size:60px;"">+</div>","null","","","","","","",""
"573.7349999981234","","image-keyboard-response","403","476890","0.0-6.0-0.61","","img/orange.png","32","trial","32","true","0.6,0.4","1:go_a","",""
"null","","html-keyboard-response","404","477895","0.0-6.0-1.61","","<img src=""img/orange-r.png"" border=""10"">","null","trial","32","","0.6,0.4","1:go_a","1",""
"null","","html-keyboard-response","405","478896","0.0-6.0-2.61","","<div style=""font-size:60px;"">+</div>","null","","","","","","",""
"413.53000000165775","","image-keyboard-response","406","479310","0.0-6.0-0.62","","img/grey.png","32","trial","null","false","0.4,0.6","2:nogo_b","",""
"null","","html-keyboard-response","407","480314","0.0-6.0-1.62","","<img src=""img/grey-n.png"" border=""10"">","null","trial","null","","0.4,0.6","2:nogo_b","0",""
"null","","html-keyboard-response","408","481315","0.0-6.0-2.62","","<div style=""font-size:60px;"">+</div>","null","","","","","","",""
"395.6849999994738","","image-keyboard-response","409","481711","0.0-6.0-0.63","","img/pink.png","32","trial","null","false","0.4,0.6","4:nogo_d","",""
"null","","html-keyboard-response","410","482716","0.0-6.0-1.63","","<img src=""img/pink-n.png"" border=""10"">","null","trial","null","","0.4,0.6","4:nogo_d","0",""
"null","","html-keyboard-response","411","483719","0.0-6.0-2.63","","<div style=""font-size:60px;"">+</div>","null","","","","","","",""
"464.95499999949243","","image-keyboard-response","412","484185","0.0-6.0-0.64","","img/purple.png","32","trial","32","true","0.6,0.4","3:go_c","",""
"null","","html-keyboard-response","413","485186","0.0-6.0-1.64","","<img src=""img/purple-r.png"" border=""10"">","null","trial","32","","0.6,0.4","3:go_c","1",""
"null","","html-keyboard-response","414","486191","0.0-6.0-2.64","","<div style=""font-size:60px;"">+</div>","null","","","","","","",""
"414.1700000000419","","image-keyboard-response","415","486606","0.0-6.0-0.65","","img/orange.png","32","trial","32","true","0.6,0.4","1:go_a","",""
"null","","html-keyboard-response","416","487609","0.0-6.0-1.65","","<img src=""img/orange-n.png"" border=""10"">","null","trial","32","","0.6,0.4","1:go_a","0",""
"null","","html-keyboard-response","417","488611","0.0-6.0-2.65","","<div style=""font-size:60px;"">+</div>","null","","","","","","",""
"435.1299999980256","","image-keyboard-response","418","489047","0.0-6.0-0.66","","img/pink.png","32","trial","null","false","0.4,0.6","4:nogo_d","",""
"null","","html-keyboard-response","419","490053","0.0-6.0-1.66","","<img src=""img/pink-r.png"" border=""10"">","null","trial","null","","0.4,0.6","4:nogo_d","1",""
"null","","html-keyboard-response","420","491057","0.0-6.0-2.66","","<div style=""font-size:60px;"">+</div>","null","","","","","","",""
"null","","image-keyboard-response","421","492559","0.0-6.0-0.67","","img/grey.png","null","trial","null","true","0.4,0.6","2:nogo_b","",""
"null","","html-keyboard-response","422","493563","0.0-6.0-1.67","","<img src=""img/grey-n.png"">","null","trial","null","","0.4,0.6","2:nogo_b","0",""
"null","","html-keyboard-response","423","494567","0.0-6.0-2.67","","<div style=""font-size:60px;"">+</div>","null","","","","","","",""
"528.8650000002235","","image-keyboard-response","424","495096","0.0-6.0-0.68","","img/orange.png","32","trial","32","true","0.6,0.4","1:go_a","",""
"null","","html-keyboard-response","425","496099","0.0-6.0-1.68","","<img src=""img/orange-r.png"" border=""10"">","null","trial","32","","0.6,0.4","1:go_a","1",""
"null","","html-keyboard-response","426","497100","0.0-6.0-2.68","","<div style=""font-size:60px;"">+</div>","null","","","","","","",""
"465.7499999993597","","image-keyboard-response","427","497566","0.0-6.0-0.69","","img/grey.png","32","trial","null","false","0.4,0.6","2:nogo_b","",""
"null","","html-keyboard-response","428","498572","0.0-6.0-1.69","","<img src=""img/grey-r.png"" border=""10"">","null","trial","null","","0.4,0.6","2:nogo_b","1",""
"null","","html-keyboard-response","429","499577","0.0-6.0-2.69","","<div style=""font-size:60px;"">+</div>","null","","","","","","",""
"646.6250000012224","","image-keyboard-response","430","500225","0.0-6.0-0.70","","img/pink.png","32","trial","null","false","0.4,0.6","4:nogo_d","",""
"null","","html-keyboard-response","431","501230","0.0-6.0-1.70","","<img src=""img/pink-r.png"" border=""10"">","null","trial","null","","0.4,0.6","4:nogo_d","1",""
"null","","html-keyboard-response","432","502235","0.0-6.0-2.70","","<div style=""font-size:60px;"">+</div>","null","","","","","","",""
"null","","image-keyboard-response","433","503740","0.0-6.0-0.71","","img/purple.png","null","trial","32","false","0.6,0.4","3:go_c","",""
"null","","html-keyboard-response","434","504743","0.0-6.0-1.71","","<img src=""img/purple-n.png"">","null","trial","32","","0.6,0.4","3:go_c","0",""
"null","","html-keyboard-response","435","505748","0.0-6.0-2.71","","<div style=""font-size:60px;"">+</div>","null","","","","","","",""
"null","","image-keyboard-response","436","507251","0.0-6.0-0.72","","img/orange.png","null","trial","32","false","0.6,0.4","1:go_a","",""
"null","","html-keyboard-response","437","508255","0.0-6.0-1.72","","<img src=""img/orange-n.png"">","null","trial","32","","0.6,0.4","1:go_a","0",""
"null","","html-keyboard-response","438","509260","0.0-6.0-2.72","","<div style=""font-size:60px;"">+</div>","null","","","","","","",""
"536.3699999980163","","image-keyboard-response","439","509797","0.0-6.0-0.73","","img/grey.png","32","trial","null","false","0.4,0.6","2:nogo_b","",""
"null","","html-keyboard-response","440","510799","0.0-6.0-1.73","","<img src=""img/grey-n.png"" border=""10"">","null","trial","null","","0.4,0.6","2:nogo_b","0",""
"null","","html-keyboard-response","441","511801","0.0-6.0-2.73","","<div style=""font-size:60px;"">+</div>","null","","","","","","",""
"309.79000000300584","","image-keyboard-response","442","512111","0.0-6.0-0.74","","img/purple.png","32","trial","32","true","0.6,0.4","3:go_c","",""
"null","","html-keyboard-response","443","513114","0.0-6.0-1.74","","<img src=""img/purple-r.png"" border=""10"">","null","trial","32","","0.6,0.4","3:go_c","1",""
"null","","html-keyboard-response","444","514118","0.0-6.0-2.74","","<div style=""font-size:60px;"">+</div>","null","","","","","","",""
"459.67499999824213","","image-keyboard-response","445","514579","0.0-6.0-0.75","","img/pink.png","32","trial","null","false","0.4,0.6","4:nogo_d","",""
"null","","html-keyboard-response","446","515585","0.0-6.0-1.75","","<img src=""img/pink-r.png"" border=""10"">","null","trial","null","","0.4,0.6","4:nogo_d","1",""
"null","","html-keyboard-response","447","516590","0.0-6.0-2.75","","<div style=""font-size:60px;"">+</div>","null","","","","","","",""
"368.0300000014249","","image-keyboard-response","448","516959","0.0-6.0-0.76","","img/pink.png","32","trial","null","false","0.4,0.6","4:nogo_d","",""
"null","","html-keyboard-response","449","517961","0.0-6.0-1.76","","<img src=""img/pink-n.png"" border=""10"">","null","trial","null","","0.4,0.6","4:nogo_d","0",""
"null","","html-keyboard-response","450","518963","0.0-6.0-2.76","","<div style=""font-size:60px;"">+</div>","null","","","","","","",""
"418.14000000152737","","image-keyboard-response","451","519382","0.0-6.0-0.77","","img/grey.png","32","trial","null","false","0.4,0.6","2:nogo_b","",""
"null","","html-keyboard-response","452","520388","0.0-6.0-1.77","","<img src=""img/grey-n.png"" border=""10"">","null","trial","null","","0.4,0.6","2:nogo_b","0",""
"null","","html-keyboard-response","453","521392","0.0-6.0-2.77","","<div style=""font-size:60px;"">+</div>","null","","","","","","",""
"361.8700000005774","","image-keyboard-response","454","521755","0.0-6.0-0.78","","img/orange.png","32","trial","32","true","0.6,0.4","1:go_a","",""
"null","","html-keyboard-response","455","522757","0.0-6.0-1.78","","<img src=""img/orange-r.png"" border=""10"">","null","trial","32","","0.6,0.4","1:go_a","1",""
"null","","html-keyboard-response","456","523763","0.0-6.0-2.78","","<div style=""font-size:60px;"">+</div>","null","","","","","","",""
"512.0400000014342","","image-keyboard-response","457","524276","0.0-6.0-0.79","","img/purple.png","32","trial","32","true","0.6,0.4","3:go_c","",""
"null","","html-keyboard-response","458","525282","0.0-6.0-1.79","","<img src=""img/purple-r.png"" border=""10"">","null","trial","32","","0.6,0.4","3:go_c","1",""
"null","","html-keyboard-response","459","526287","0.0-6.0-2.79","","<div style=""font-size:60px;"">+</div>","null","","","","","","",""
"366.83499999705236","","image-keyboard-response","460","526654","0.0-6.0-0.80","","img/purple.png","32","trial","32","true","0.6,0.4","3:go_c","",""
"null","","html-keyboard-response","461","527659","0.0-6.0-1.80","","<img src=""img/purple-r.png"" border=""10"">","null","trial","32","","0.6,0.4","3:go_c","1",""
"null","","html-keyboard-response","462","528663","0.0-6.0-2.80","","<div style=""font-size:60px;"">+</div>","null","","","","","","",""
"486.6099999998696","","image-keyboard-response","463","529151","0.0-6.0-0.81","","img/orange.png","32","trial","32","true","0.6,0.4","1:go_a","",""
"null","","html-keyboard-response","464","530157","0.0-6.0-1.81","","<img src=""img/orange-r.png"" border=""10"">","null","trial","32","","0.6,0.4","1:go_a","1",""
"null","","html-keyboard-response","465","531162","0.0-6.0-2.81","","<div style=""font-size:60px;"">+</div>","null","","","","","","",""
"419.25500000081956","","image-keyboard-response","466","531582","0.0-6.0-0.82","","img/pink.png","32","trial","null","false","0.4,0.6","4:nogo_d","",""
"null","","html-keyboard-response","467","532586","0.0-6.0-1.82","","<img src=""img/pink-n.png"" border=""10"">","null","trial","null","","0.4,0.6","4:nogo_d","0",""
"null","","html-keyboard-response","468","533591","0.0-6.0-2.82","","<div style=""font-size:60px;"">+</div>","null","","","","","","",""
"null","","image-keyboard-response","469","535095","0.0-6.0-0.83","","img/grey.png","null","trial","null","true","0.4,0.6","2:nogo_b","",""
"null","","html-keyboard-response","470","536099","0.0-6.0-1.83","","<img src=""img/grey-n.png"">","null","trial","null","","0.4,0.6","2:nogo_b","0",""
"null","","html-keyboard-response","471","537100","0.0-6.0-2.83","","<div style=""font-size:60px;"">+</div>","null","","","","","","",""
"376.7200000002049","","image-keyboard-response","472","537477","0.0-6.0-0.84","","img/pink.png","32","trial","null","false","0.4,0.6","4:nogo_d","",""
"null","","html-keyboard-response","473","538482","0.0-6.0-1.84","","<img src=""img/pink-n.png"" border=""10"">","null","trial","null","","0.4,0.6","4:nogo_d","0",""
"null","","html-keyboard-response","474","539486","0.0-6.0-2.84","","<div style=""font-size:60px;"">+</div>","null","","","","","","",""
"433.4100000014296","","image-keyboard-response","475","539921","0.0-6.0-0.85","","img/purple.png","32","trial","32","true","0.6,0.4","3:go_c","",""
"null","","html-keyboard-response","476","540926","0.0-6.0-1.85","","<img src=""img/purple-r.png"" border=""10"">","null","trial","32","","0.6,0.4","3:go_c","1",""
"null","","html-keyboard-response","477","541931","0.0-6.0-2.85","","<div style=""font-size:60px;"">+</div>","null","","","","","","",""
"340.3949999992037","","image-keyboard-response","478","542272","0.0-6.0-0.86","","img/grey.png","32","trial","null","false","0.4,0.6","2:nogo_b","",""
"null","","html-keyboard-response","479","543278","0.0-6.0-1.86","","<img src=""img/grey-n.png"" border=""10"">","null","trial","null","","0.4,0.6","2:nogo_b","0",""
"null","","html-keyboard-response","480","544283","0.0-6.0-2.86","","<div style=""font-size:60px;"">+</div>","null","","","","","","",""
"385.44999999785796","","image-keyboard-response","481","544670","0.0-6.0-0.87","","img/orange.png","32","trial","32","true","0.6,0.4","1:go_a","",""
"null","","html-keyboard-response","482","545675","0.0-6.0-1.87","","<img src=""img/orange-r.png"" border=""10"">","null","trial","32","","0.6,0.4","1:go_a","1",""
"null","","html-keyboard-response","483","546679","0.0-6.0-2.87","","<div style=""font-size:60px;"">+</div>","null","","","","","","",""
"null","","image-keyboard-response","484","548183","0.0-6.0-0.88","","img/orange.png","null","trial","32","false","0.6,0.4","1:go_a","",""
"null","","html-keyboard-response","485","549187","0.0-6.0-1.88","","<img src=""img/orange-r.png"">","null","trial","32","","0.6,0.4","1:go_a","1",""
"null","","html-keyboard-response","486","550192","0.0-6.0-2.88","","<div style=""font-size:60px;"">+</div>","null","","","","","","",""
"483.43000000028405","","image-keyboard-response","487","550676","0.0-6.0-0.89","","img/pink.png","32","trial","null","false","0.4,0.6","4:nogo_d","",""
"null","","html-keyboard-response","488","551680","0.0-6.0-1.89","","<img src=""img/pink-n.png"" border=""10"">","null","trial","null","","0.4,0.6","4:nogo_d","0",""
"null","","html-keyboard-response","489","552684","0.0-6.0-2.89","","<div style=""font-size:60px;"">+</div>","null","","","","","","",""
"null","","image-keyboard-response","490","554186","0.0-6.0-0.90","","img/grey.png","null","trial","null","true","0.4,0.6","2:nogo_b","",""
"null","","html-keyboard-response","491","555191","0.0-6.0-1.90","","<img src=""img/grey-r.png"">","null","trial","null","","0.4,0.6","2:nogo_b","1",""
"null","","html-keyboard-response","492","556194","0.0-6.0-2.90","","<div style=""font-size:60px;"">+</div>","null","","","","","","",""
"512.0800000004238","","image-keyboard-response","493","556707","0.0-6.0-0.91","","img/purple.png","32","trial","32","true","0.6,0.4","3:go_c","",""
"null","","html-keyboard-response","494","557709","0.0-6.0-1.91","","<img src=""img/purple-n.png"" border=""10"">","null","trial","32","","0.6,0.4","3:go_c","0",""
"null","","html-keyboard-response","495","558711","0.0-6.0-2.91","","<div style=""font-size:60px;"">+</div>","null","","","","","","",""
"469.6750000002794","","image-keyboard-response","496","559181","0.0-6.0-0.92","","img/purple.png","32","trial","32","true","0.6,0.4","3:go_c","",""
"null","","html-keyboard-response","497","560186","0.0-6.0-1.92","","<img src=""img/purple-n.png"" border=""10"">","null","trial","32","","0.6,0.4","3:go_c","0",""
"null","","html-keyboard-response","498","561192","0.0-6.0-2.92","","<div style=""font-size:60px;"">+</div>","null","","","","","","",""
"632.3899999987334","","image-keyboard-response","499","561825","0.0-6.0-0.93","","img/pink.png","32","trial","null","false","0.4,0.6","4:nogo_d","",""
"null","","html-keyboard-response","500","562829","0.0-6.0-1.93","","<img src=""img/pink-n.png"" border=""10"">","null","trial","null","","0.4,0.6","4:nogo_d","0",""
"null","","html-keyboard-response","501","563833","0.0-6.0-2.93","","<div style=""font-size:60px;"">+</div>","null","","","","","","",""
"639.6700000005076","","image-keyboard-response","502","564474","0.0-6.0-0.94","","img/orange.png","32","trial","32","true","0.6,0.4","1:go_a","",""
"null","","html-keyboard-response","503","565477","0.0-6.0-1.94","","<img src=""img/orange-r.png"" border=""10"">","null","trial","32","","0.6,0.4","1:go_a","1",""
"null","","html-keyboard-response","504","566482","0.0-6.0-2.94","","<div style=""font-size:60px;"">+</div>","null","","","","","","",""
"375.05999999842606","","image-keyboard-response","505","566858","0.0-6.0-0.95","","img/grey.png","32","trial","null","false","0.4,0.6","2:nogo_b","",""
"null","","html-keyboard-response","506","567864","0.0-6.0-1.95","","<img src=""img/grey-r.png"" border=""10"">","null","trial","null","","0.4,0.6","2:nogo_b","1",""
"null","","html-keyboard-response","507","568868","0.0-6.0-2.95","","<div style=""font-size:60px;"">+</div>","null","","","","","","",""
"345.79500000108965","","image-keyboard-response","508","569214","0.0-6.0-0.96","","img/orange.png","32","trial","32","true","0.6,0.4","1:go_a","",""
"null","","html-keyboard-response","509","570216","0.0-6.0-1.96","","<img src=""img/orange-r.png"" border=""10"">","null","trial","32","","0.6,0.4","1:go_a","1",""
"null","","html-keyboard-response","510","571217","0.0-6.0-2.96","","<div style=""font-size:60px;"">+</div>","null","","","","","","",""
"null","","image-keyboard-response","511","572721","0.0-6.0-0.97","","img/grey.png","null","trial","null","true","0.4,0.6","2:nogo_b","",""
"null","","html-keyboard-response","512","573724","0.0-6.0-1.97","","<img src=""img/grey-r.png"">","null","trial","null","","0.4,0.6","2:nogo_b","1",""
"null","","html-keyboard-response","513","574730","0.0-6.0-2.97","","<div style=""font-size:60px;"">+</div>","null","","","","","","",""
"null","","image-keyboard-response","514","576235","0.0-6.0-0.98","","img/pink.png","null","trial","null","true","0.4,0.6","4:nogo_d","",""
"null","","html-keyboard-response","515","577240","0.0-6.0-1.98","","<img src=""img/pink-r.png"">","null","trial","null","","0.4,0.6","4:nogo_d","1",""
"null","","html-keyboard-response","516","578241","0.0-6.0-2.98","","<div style=""font-size:60px;"">+</div>","null","","","","","","",""
"null","","image-keyboard-response","517","579744","0.0-6.0-0.99","","img/purple.png","null","trial","32","false","0.6,0.4","3:go_c","",""
"null","","html-keyboard-response","518","580749","0.0-6.0-1.99","","<img src=""img/purple-n.png"">","null","trial","32","","0.6,0.4","3:go_c","0",""
"null","","html-keyboard-response","519","581753","0.0-6.0-2.99","","<div style=""font-size:60px;"">+</div>","null","","","","","","",""
"415.24999999825377","","image-keyboard-response","520","582169","0.0-6.0-0.100","","img/orange.png","32","trial","32","true","0.6,0.4","1:go_a","",""
"null","","html-keyboard-response","521","583175","0.0-6.0-1.100","","<img src=""img/orange-n.png"" border=""10"">","null","trial","32","","0.6,0.4","1:go_a","0",""
"null","","html-keyboard-response","522","584180","0.0-6.0-2.100","","<div style=""font-size:60px;"">+</div>","null","","","","","","",""
"413.519999998156","","image-keyboard-response","523","584594","0.0-6.0-0.101","","img/pink.png","32","trial","null","false","0.4,0.6","4:nogo_d","",""
"null","","html-keyboard-response","524","585600","0.0-6.0-1.101","","<img src=""img/pink-r.png"" border=""10"">","null","trial","null","","0.4,0.6","4:nogo_d","1",""
"null","","html-keyboard-response","525","586601","0.0-6.0-2.101","","<div style=""font-size:60px;"">+</div>","null","","","","","","",""
"460.81999999657273","","image-keyboard-response","526","587063","0.0-6.0-0.102","","img/purple.png","32","trial","32","true","0.6,0.4","3:go_c","",""
"null","","html-keyboard-response","527","588068","0.0-6.0-1.102","","<img src=""img/purple-r.png"" border=""10"">","null","trial","32","","0.6,0.4","3:go_c","1",""
"null","","html-keyboard-response","528","589073","0.0-6.0-2.102","","<div style=""font-size:60px;"">+</div>","null","","","","","","",""
"null","","image-keyboard-response","529","590578","0.0-6.0-0.103","","img/grey.png","null","trial","null","true","0.4,0.6","2:nogo_b","",""
"null","","html-keyboard-response","530","591584","0.0-6.0-1.103","","<img src=""img/grey-n.png"">","null","trial","null","","0.4,0.6","2:nogo_b","0",""
"null","","html-keyboard-response","531","592587","0.0-6.0-2.103","","<div style=""font-size:60px;"">+</div>","null","","","","","","",""
"417.4349999993574","","image-keyboard-response","532","593005","0.0-6.0-0.104","","img/purple.png","32","trial","32","true","0.6,0.4","3:go_c","",""
"null","","html-keyboard-response","533","594007","0.0-6.0-1.104","","<img src=""img/purple-r.png"" border=""10"">","null","trial","32","","0.6,0.4","3:go_c","1",""
"null","","html-keyboard-response","534","595010","0.0-6.0-2.104","","<div style=""font-size:60px;"">+</div>","null","","","","","","",""
"406.7399999985937","","image-keyboard-response","535","595417","0.0-6.0-0.105","","img/grey.png","32","trial","null","false","0.4,0.6","2:nogo_b","",""
"null","","html-keyboard-response","536","596423","0.0-6.0-1.105","","<img src=""img/grey-n.png"" border=""10"">","null","trial","null","","0.4,0.6","2:nogo_b","0",""
"null","","html-keyboard-response","537","597426","0.0-6.0-2.105","","<div style=""font-size:60px;"">+</div>","null","","","","","","",""
"579.8699999977835","","image-keyboard-response","538","598007","0.0-6.0-0.106","","img/orange.png","32","trial","32","true","0.6,0.4","1:go_a","",""
"null","","html-keyboard-response","539","599009","0.0-6.0-1.106","","<img src=""img/orange-r.png"" border=""10"">","null","trial","32","","0.6,0.4","1:go_a","1",""
"null","","html-keyboard-response","540","600009","0.0-6.0-2.106","","<div style=""font-size:60px;"">+</div>","null","","","","","","",""
"412.90500000095926","","image-keyboard-response","541","600423","0.0-6.0-0.107","","img/pink.png","32","trial","null","false","0.4,0.6","4:nogo_d","",""
"null","","html-keyboard-response","542","601428","0.0-6.0-1.107","","<img src=""img/pink-r.png"" border=""10"">","null","trial","null","","0.4,0.6","4:nogo_d","1",""
"null","","html-keyboard-response","543","602432","0.0-6.0-2.107","","<div style=""font-size:60px;"">+</div>","null","","","","","","",""
"323.9450000000652","","image-keyboard-response","544","602757","0.0-6.0-0.108","","img/grey.png","32","trial","null","false","0.4,0.6","2:nogo_b","",""
"null","","html-keyboard-response","545","603759","0.0-6.0-1.108","","<img src=""img/grey-n.png"" border=""10"">","null","trial","null","","0.4,0.6","2:nogo_b","0",""
"null","","html-keyboard-response","546","604764","0.0-6.0-2.108","","<div style=""font-size:60px;"">+</div>","null","","","","","","",""
"441.26500000129454","","image-keyboard-response","547","605206","0.0-6.0-0.109","","img/purple.png","32","trial","32","true","0.6,0.4","3:go_c","",""
"null","","html-keyboard-response","548","606209","0.0-6.0-1.109","","<img src=""img/purple-n.png"" border=""10"">","null","trial","32","","0.6,0.4","3:go_c","0",""
"null","","html-keyboard-response","549","607212","0.0-6.0-2.109","","<div style=""font-size:60px;"">+</div>","null","","","","","","",""
"615.3349999986822","","image-keyboard-response","550","607829","0.0-6.0-0.110","","img/orange.png","32","trial","32","true","0.6,0.4","1:go_a","",""
"null","","html-keyboard-response","551","608834","0.0-6.0-1.110","","<img src=""img/orange-r.png"" border=""10"">","null","trial","32","","0.6,0.4","1:go_a","1",""
"null","","html-keyboard-response","552","609838","0.0-6.0-2.110","","<div style=""font-size:60px;"">+</div>","null","","","","","","",""
"603.720000002766","","image-keyboard-response","553","610443","0.0-6.0-0.111","","img/pink.png","32","trial","null","false","0.4,0.6","4:nogo_d","",""
"null","","html-keyboard-response","554","611448","0.0-6.0-1.111","","<img src=""img/pink-r.png"" border=""10"">","null","trial","null","","0.4,0.6","4:nogo_d","1",""
"null","","html-keyboard-response","555","612452","0.0-6.0-2.111","","<div style=""font-size:60px;"">+</div>","null","","","","","","",""
"null","","image-keyboard-response","556","613956","0.0-6.0-0.112","","img/grey.png","null","trial","null","true","0.4,0.6","2:nogo_b","",""
"null","","html-keyboard-response","557","614958","0.0-6.0-1.112","","<img src=""img/grey-r.png"">","null","trial","null","","0.4,0.6","2:nogo_b","1",""
"null","","html-keyboard-response","558","615959","0.0-6.0-2.112","","<div style=""font-size:60px;"">+</div>","null","","","","","","",""
"null","","image-keyboard-response","559","617461","0.0-6.0-0.113","","img/pink.png","null","trial","null","true","0.4,0.6","4:nogo_d","",""
"null","","html-keyboard-response","560","618463","0.0-6.0-1.113","","<img src=""img/pink-r.png"">","null","trial","null","","0.4,0.6","4:nogo_d","1",""
"null","","html-keyboard-response","561","619464","0.0-6.0-2.113","","<div style=""font-size:60px;"">+</div>","null","","","","","","",""
"391.975000002305","","image-keyboard-response","562","619857","0.0-6.0-0.114","","img/orange.png","32","trial","32","true","0.6,0.4","1:go_a","",""
"null","","html-keyboard-response","563","620861","0.0-6.0-1.114","","<img src=""img/orange-r.png"" border=""10"">","null","trial","32","","0.6,0.4","1:go_a","1",""
"null","","html-keyboard-response","564","621866","0.0-6.0-2.114","","<div style=""font-size:60px;"">+</div>","null","","","","","","",""
"null","","image-keyboard-response","565","623371","0.0-6.0-0.115","","img/purple.png","null","trial","32","false","0.6,0.4","3:go_c","",""
"null","","html-keyboard-response","566","624374","0.0-6.0-1.115","","<img src=""img/purple-r.png"">","null","trial","32","","0.6,0.4","3:go_c","1",""
"null","","html-keyboard-response","567","625379","0.0-6.0-2.115","","<div style=""font-size:60px;"">+</div>","null","","","","","","",""
"473.8249999972759","","image-keyboard-response","568","625854","0.0-6.0-0.116","","img/orange.png","32","trial","32","true","0.6,0.4","1:go_a","",""
"null","","html-keyboard-response","569","626856","0.0-6.0-1.116","","<img src=""img/orange-r.png"" border=""10"">","null","trial","32","","0.6,0.4","1:go_a","1",""
"null","","html-keyboard-response","570","627860","0.0-6.0-2.116","","<div style=""font-size:60px;"">+</div>","null","","","","","","",""
"847.764999998617","","image-keyboard-response","571","628709","0.0-6.0-0.117","","img/grey.png","32","trial","null","false","0.4,0.6","2:nogo_b","",""
"null","","html-keyboard-response","572","629712","0.0-6.0-1.117","","<img src=""img/grey-r.png"" border=""10"">","null","trial","null","","0.4,0.6","2:nogo_b","1",""
"null","","html-keyboard-response","573","630716","0.0-6.0-2.117","","<div style=""font-size:60px;"">+</div>","null","","","","","","",""
"468.3199999999488","","image-keyboard-response","574","631186","0.0-6.0-0.118","","img/purple.png","32","trial","32","true","0.6,0.4","3:go_c","",""
"null","","html-keyboard-response","575","632190","0.0-6.0-1.118","","<img src=""img/purple-r.png"" border=""10"">","null","trial","32","","0.6,0.4","3:go_c","1",""
"null","","html-keyboard-response","576","633193","0.0-6.0-2.118","","<div style=""font-size:60px;"">+</div>","null","","","","","","",""
"null","","image-keyboard-response","577","634695","0.0-6.0-0.119","","img/pink.png","null","trial","null","true","0.4,0.6","4:nogo_d","",""
"null","","html-keyboard-response","578","635700","0.0-6.0-1.119","","<img src=""img/pink-r.png"">","null","trial","null","","0.4,0.6","4:nogo_d","1",""
"null","","html-keyboard-response","579","636701","0.0-6.0-2.119","","<div style=""font-size:60px;"">+</div>","null","","","","","","",""
"4581.019999997807","","instructions","580","641282","0.0-7.0","[{""page_index"":0,""viewing_time"":4580.85999999824}]","","","","","","","","",""
"null","","image-keyboard-response","581","642788","0.0-8.0-0.0","","img/red.png","null","trial","32","false","0.8,0.2","1:go_a","",""
"null","","html-keyboard-response","582","643791","0.0-8.0-1.0","","<img src=""img/red-n.png"">","null","trial","32","","0.8,0.2","1:go_a","0",""
"null","","html-keyboard-response","583","644796","0.0-8.0-2.0","","<div style=""font-size:60px;"">+</div>","null","","","","","","",""
"592.3550000006799","","image-keyboard-response","584","645389","0.0-8.0-0.1","","img/green.png","32","trial","null","false","0.4,0.6","4:nogo_d","",""
"null","","html-keyboard-response","585","646395","0.0-8.0-1.1","","<img src=""img/green-r.png"" border=""10"">","null","trial","null","","0.4,0.6","4:nogo_d","1",""
"null","","html-keyboard-response","586","647400","0.0-8.0-2.1","","<div style=""font-size:60px;"">+</div>","null","","","","","","",""
"687.4900000002235","","image-keyboard-response","587","648089","0.0-8.0-0.2","","img/orange.png","32","trial","null","false","0.2,0.8","2:nogo_b","",""
"null","","html-keyboard-response","588","649092","0.0-8.0-1.2","","<img src=""img/orange-n.png"" border=""10"">","null","trial","null","","0.2,0.8","2:nogo_b","0",""
"null","","html-keyboard-response","589","650096","0.0-8.0-2.2","","<div style=""font-size:60px;"">+</div>","null","","","","","","",""
"537.5299999976996","","image-keyboard-response","590","650634","0.0-8.0-0.3","","img/purple.png","32","trial","32","true","0.6,0.4","3:go_c","",""
"null","","html-keyboard-response","591","651640","0.0-8.0-1.3","","<img src=""img/purple-n.png"" border=""10"">","null","trial","32","","0.6,0.4","3:go_c","0",""
"null","","html-keyboard-response","592","652644","0.0-8.0-2.3","","<div style=""font-size:60px;"">+</div>","null","","","","","","",""
"null","","image-keyboard-response","593","654148","0.0-8.0-0.4","","img/purple.png","null","trial","32","false","0.6,0.4","3:go_c","",""
"null","","html-keyboard-response","594","655152","0.0-8.0-1.4","","<img src=""img/purple-n.png"">","null","trial","32","","0.6,0.4","3:go_c","0",""
"null","","html-keyboard-response","595","656156","0.0-8.0-2.4","","<div style=""font-size:60px;"">+</div>","null","","","","","","",""
"392.66000000131316","","image-keyboard-response","596","656549","0.0-8.0-0.5","","img/red.png","32","trial","32","true","0.8,0.2","1:go_a","",""
"null","","html-keyboard-response","597","657556","0.0-8.0-1.5","","<img src=""img/red-n.png"" border=""10"">","null","trial","32","","0.8,0.2","1:go_a","0",""
"null","","html-keyboard-response","598","658560","0.0-8.0-2.5","","<div style=""font-size:60px;"">+</div>","null","","","","","","",""
"424.5950000004377","","image-keyboard-response","599","658985","0.0-8.0-0.6","","img/green.png","32","trial","null","false","0.4,0.6","4:nogo_d","",""
"null","","html-keyboard-response","600","659991","0.0-8.0-1.6","","<img src=""img/green-n.png"" border=""10"">","null","trial","null","","0.4,0.6","4:nogo_d","0",""
"null","","html-keyboard-response","601","660992","0.0-8.0-2.6","","<div style=""font-size:60px;"">+</div>","null","","","","","","",""
"401.8150000011083","","image-keyboard-response","602","661395","0.0-8.0-0.7","","img/orange.png","32","trial","null","false","0.2,0.8","2:nogo_b","",""
"null","","html-keyboard-response","603","662400","0.0-8.0-1.7","","<img src=""img/orange-n.png"" border=""10"">","null","trial","null","","0.2,0.8","2:nogo_b","0",""
"null","","html-keyboard-response","604","663400","0.0-8.0-2.7","","<div style=""font-size:60px;"">+</div>","null","","","","","","",""
"null","","image-keyboard-response","605","664902","0.0-8.0-0.8","","img/purple.png","null","trial","32","false","0.6,0.4","3:go_c","",""
"null","","html-keyboard-response","606","665904","0.0-8.0-1.8","","<img src=""img/purple-r.png"">","null","trial","32","","0.6,0.4","3:go_c","1",""
"null","","html-keyboard-response","607","666905","0.0-8.0-2.8","","<div style=""font-size:60px;"">+</div>","null","","","","","","",""
"491.6500000000233","","image-keyboard-response","608","667397","0.0-8.0-0.9","","img/red.png","32","trial","32","true","0.8,0.2","1:go_a","",""
"null","","html-keyboard-response","609","668400","0.0-8.0-1.9","","<img src=""img/red-r.png"" border=""10"">","null","trial","32","","0.8,0.2","1:go_a","1",""
"null","","html-keyboard-response","610","669401","0.0-8.0-2.9","","<div style=""font-size:60px;"">+</div>","null","","","","","","",""
"375.8699999998789","","image-keyboard-response","611","669778","0.0-8.0-0.10","","img/green.png","32","trial","null","false","0.4,0.6","4:nogo_d","",""
"null","","html-keyboard-response","612","670781","0.0-8.0-1.10","","<img src=""img/green-n.png"" border=""10"">","null","trial","null","","0.4,0.6","4:nogo_d","0",""
"null","","html-keyboard-response","613","671785","0.0-8.0-2.10","","<div style=""font-size:60px;"">+</div>","null","","","","","","",""
"null","","image-keyboard-response","614","673289","0.0-8.0-0.11","","img/orange.png","null","trial","null","true","0.2,0.8","2:nogo_b","",""
"null","","html-keyboard-response","615","674294","0.0-8.0-1.11","","<img src=""img/orange-r.png"">","null","trial","null","","0.2,0.8","2:nogo_b","1",""
"null","","html-keyboard-response","616","675296","0.0-8.0-2.11","","<div style=""font-size:60px;"">+</div>","null","","","","","","",""
"545.7199999982258","","image-keyboard-response","617","675842","0.0-8.0-0.12","","img/red.png","32","trial","32","true","0.8,0.2","1:go_a","",""
"null","","html-keyboard-response","618","676848","0.0-8.0-1.12","","<img src=""img/red-r.png"" border=""10"">","null","trial","32","","0.8,0.2","1:go_a","1",""
"null","","html-keyboard-response","619","677852","0.0-8.0-2.12","","<div style=""font-size:60px;"">+</div>","null","","","","","","",""
"459.79000000085216","","image-keyboard-response","620","678313","0.0-8.0-0.13","","img/orange.png","32","trial","null","false","0.2,0.8","2:nogo_b","",""
"null","","html-keyboard-response","621","679318","0.0-8.0-1.13","","<img src=""img/orange-r.png"" border=""10"">","null","trial","null","","0.2,0.8","2:nogo_b","1",""
"null","","html-keyboard-response","622","680321","0.0-8.0-2.13","","<div style=""font-size:60px;"">+</div>","null","","","","","","",""
"null","","image-keyboard-response","623","681826","0.0-8.0-0.14","","img/purple.png","null","trial","32","false","0.6,0.4","3:go_c","",""
"null","","html-keyboard-response","624","682831","0.0-8.0-1.14","","<img src=""img/purple-r.png"">","null","trial","32","","0.6,0.4","3:go_c","1",""
"null","","html-keyboard-response","625","683837","0.0-8.0-2.14","","<div style=""font-size:60px;"">+</div>","null","","","","","","",""
"521.8100000019185","","image-keyboard-response","626","684360","0.0-8.0-0.15","","img/green.png","32","trial","null","false","0.4,0.6","4:nogo_d","",""
"null","","html-keyboard-response","627","685365","0.0-8.0-1.15","","<img src=""img/green-n.png"" border=""10"">","null","trial","null","","0.4,0.6","4:nogo_d","0",""
"null","","html-keyboard-response","628","686368","0.0-8.0-2.15","","<div style=""font-size:60px;"">+</div>","null","","","","","","",""
"416.04999999981374","","image-keyboard-response","629","686785","0.0-8.0-0.16","","img/red.png","32","trial","32","true","0.8,0.2","1:go_a","",""
"null","","html-keyboard-response","630","687788","0.0-8.0-1.16","","<img src=""img/red-r.png"" border=""10"">","null","trial","32","","0.8,0.2","1:go_a","1",""
"null","","html-keyboard-response","631","688792","0.0-8.0-2.16","","<div style=""font-size:60px;"">+</div>","null","","","","","","",""
"810.8250000005355","","image-keyboard-response","632","689604","0.0-8.0-0.17","","img/green.png","32","trial","null","false","0.4,0.6","4:nogo_d","",""
"null","","html-keyboard-response","633","690607","0.0-8.0-1.17","","<img src=""img/green-r.png"" border=""10"">","null","trial","null","","0.4,0.6","4:nogo_d","1",""
"null","","html-keyboard-response","634","691609","0.0-8.0-2.17","","<div style=""font-size:60px;"">+</div>","null","","","","","","",""
"372.2200000010198","","image-keyboard-response","635","691982","0.0-8.0-0.18","","img/orange.png","32","trial","null","false","0.2,0.8","2:nogo_b","",""
"null","","html-keyboard-response","636","692984","0.0-8.0-1.18","","<img src=""img/orange-n.png"" border=""10"">","null","trial","null","","0.2,0.8","2:nogo_b","0",""
"null","","html-keyboard-response","637","693988","0.0-8.0-2.18","","<div style=""font-size:60px;"">+</div>","null","","","","","","",""
"520.6550000002608","","image-keyboard-response","638","694510","0.0-8.0-0.19","","img/purple.png","32","trial","32","true","0.6,0.4","3:go_c","",""
"null","","html-keyboard-response","639","695512","0.0-8.0-1.19","","<img src=""img/purple-r.png"" border=""10"">","null","trial","32","","0.6,0.4","3:go_c","1",""
"null","","html-keyboard-response","640","696513","0.0-8.0-2.19","","<div style=""font-size:60px;"">+</div>","null","","","","","","",""
"335.24499999836553","","image-keyboard-response","641","696849","0.0-8.0-0.20","","img/red.png","32","trial","32","true","0.8,0.2","1:go_a","",""
"null","","html-keyboard-response","642","697853","0.0-8.0-1.20","","<img src=""img/red-r.png"" border=""10"">","null","trial","32","","0.8,0.2","1:go_a","1",""
"null","","html-keyboard-response","643","698858","0.0-8.0-2.20","","<div style=""font-size:60px;"">+</div>","null","","","","","","",""
"472.87499999953434","","image-keyboard-response","644","699332","0.0-8.0-0.21","","img/green.png","32","trial","null","false","0.4,0.6","4:nogo_d","",""
"null","","html-keyboard-response","645","700336","0.0-8.0-1.21","","<img src=""img/green-r.png"" border=""10"">","null","trial","null","","0.4,0.6","4:nogo_d","1",""
"null","","html-keyboard-response","646","701338","0.0-8.0-2.21","","<div style=""font-size:60px;"">+</div>","null","","","","","","",""
"null","","image-keyboard-response","647","702843","0.0-8.0-0.22","","img/orange.png","null","trial","null","true","0.2,0.8","2:nogo_b","",""
"null","","html-keyboard-response","648","703847","0.0-8.0-1.22","","<img src=""img/orange-r.png"">","null","trial","null","","0.2,0.8","2:nogo_b","1",""
"null","","html-keyboard-response","649","704849","0.0-8.0-2.22","","<div style=""font-size:60px;"">+</div>","null","","","","","","",""
"687.1700000010896","","image-keyboard-response","650","705537","0.0-8.0-0.23","","img/purple.png","32","trial","32","true","0.6,0.4","3:go_c","",""
"null","","html-keyboard-response","651","706543","0.0-8.0-1.23","","<img src=""img/purple-n.png"" border=""10"">","null","trial","32","","0.6,0.4","3:go_c","0",""
"null","","html-keyboard-response","652","707548","0.0-8.0-2.23","","<div style=""font-size:60px;"">+</div>","null","","","","","","",""
"382.67999999877065","","image-keyboard-response","653","707932","0.0-8.0-0.24","","img/red.png","32","trial","32","true","0.8,0.2","1:go_a","",""
"null","","html-keyboard-response","654","708936","0.0-8.0-1.24","","<img src=""img/red-r.png"" border=""10"">","null","trial","32","","0.8,0.2","1:go_a","1",""
"null","","html-keyboard-response","655","709940","0.0-8.0-2.24","","<div style=""font-size:60px;"">+</div>","null","","","","","","",""
"691.5549999976065","","image-keyboard-response","656","710632","0.0-8.0-0.25","","img/orange.png","32","trial","null","false","0.2,0.8","2:nogo_b","",""
"null","","html-keyboard-response","657","711637","0.0-8.0-1.25","","<img src=""img/orange-n.png"" border=""10"">","null","trial","null","","0.2,0.8","2:nogo_b","0",""
"null","","html-keyboard-response","658","712641","0.0-8.0-2.25","","<div style=""font-size:60px;"">+</div>","null","","","","","","",""
"391.7600000023376","","image-keyboard-response","659","713034","0.0-8.0-0.26","","img/green.png","32","trial","null","false","0.4,0.6","4:nogo_d","",""
"null","","html-keyboard-response","660","714038","0.0-8.0-1.26","","<img src=""img/green-r.png"" border=""10"">","null","trial","null","","0.4,0.6","4:nogo_d","1",""
"null","","html-keyboard-response","661","715044","0.0-8.0-2.26","","<div style=""font-size:60px;"">+</div>","null","","","","","","",""
"465.6799999974901","","image-keyboard-response","662","715510","0.0-8.0-0.27","","img/purple.png","32","trial","32","true","0.6,0.4","3:go_c","",""
"null","","html-keyboard-response","663","716513","0.0-8.0-1.27","","<img src=""img/purple-n.png"" border=""10"">","null","trial","32","","0.6,0.4","3:go_c","0",""
"null","","html-keyboard-response","664","717516","0.0-8.0-2.27","","<div style=""font-size:60px;"">+</div>","null","","","","","","",""
"464.60499999742024","","image-keyboard-response","665","717981","0.0-8.0-0.28","","img/red.png","32","trial","32","true","0.8,0.2","1:go_a","",""
"null","","html-keyboard-response","666","718985","0.0-8.0-1.28","","<img src=""img/red-r.png"" border=""10"">","null","trial","32","","0.8,0.2","1:go_a","1",""
"null","","html-keyboard-response","667","719989","0.0-8.0-2.28","","<div style=""font-size:60px;"">+</div>","null","","","","","","",""
"392.22000000148546","","image-keyboard-response","668","720382","0.0-8.0-0.29","","img/green.png","32","trial","null","false","0.4,0.6","4:nogo_d","",""
"null","","html-keyboard-response","669","721387","0.0-8.0-1.29","","<img src=""img/green-r.png"" border=""10"">","null","trial","null","","0.4,0.6","4:nogo_d","1",""
"null","","html-keyboard-response","670","722388","0.0-8.0-2.29","","<div style=""font-size:60px;"">+</div>","null","","","","","","",""
"588.3350000004284","","image-keyboard-response","671","722978","0.0-8.0-0.30","","img/orange.png","32","trial","null","false","0.2,0.8","2:nogo_b","",""
