"rt","url","trial_type","trial_index","time_elapsed","internal_node_id","view_history","stimulus","key_press","test_part","correct_response","correct","use_rew","which_stim","reward","responses"
"49387","consent.html","external-html","0","49440","0.0-0.0","","","","","","","","","",""
"146263","","instructions","1","195704","0.0-1.0","[{""page_index"":0,""viewing_time"":2784},{""page_index"":1,""viewing_time"":61321},{""page_index"":2,""viewing_time"":7299},{""page_index"":3,""viewing_time"":34906},{""page_index"":4,""viewing_time"":10902},{""page_index"":5,""viewing_time"":1788},{""page_index"":4,""viewing_time"":6839},{""page_index"":5,""viewing_time"":7723},{""page_index"":6,""viewing_time"":12701}]","","","","","","","","",""
"null","","image-keyboard-response","2","197220","0.0-2.0-0.0","","img/test2.PNG","null","practice","null","true","","","",""
"null","","html-keyboard-response","3","198228","0.0-2.0-1.0","","<img src=""img/test2-reward.PNG"">","null","","","","","","",""
"null","","html-keyboard-response","4","199239","0.0-2.0-2.0","","<div style=""font-size:60px;"">+</div>","null","","","","","","",""
"562","","image-keyboard-response","5","199801","0.0-2.0-0.1","","img/test1.PNG","32","practice","32","true","","","",""
"null","","html-keyboard-response","6","200808","0.0-2.0-1.1","","<img src=""img/test1-reward.PNG"" border=""10px; grey"">","null","","","","","","",""
"null","","html-keyboard-response","7","201815","0.0-2.0-2.1","","<div style=""font-size:60px;"">+</div>","null","","","","","","",""
"null","","image-keyboard-response","8","203317","0.0-2.0-0.2","","img/test3.PNG","null","practice","null","true","","","",""
"null","","html-keyboard-response","9","204325","0.0-2.0-1.2","","<img src=""img/test3-reward.PNG"">","null","","","","","","",""
"null","","html-keyboard-response","10","205336","0.0-2.0-2.2","","<div style=""font-size:60px;"">+</div>","null","","","","","","",""
"393","","image-keyboard-response","11","205729","0.0-2.0-0.3","","img/test1.PNG","32","practice","32","true","","","",""
"null","","html-keyboard-response","12","206743","0.0-2.0-1.3","","<img src=""img/test1-reward.PNG"" border=""10px; grey"">","null","","","","","","",""
"null","","html-keyboard-response","13","207751","0.0-2.0-2.3","","<div style=""font-size:60px;"">+</div>","null","","","","","","",""
"null","","image-keyboard-response","14","209254","0.0-2.0-0.4","","img/test2.PNG","null","practice","null","true","","","",""
"null","","html-keyboard-response","15","210260","0.0-2.0-1.4","","<img src=""img/test2-reward.PNG"">","null","","","","","","",""
"null","","html-keyboard-response","16","211270","0.0-2.0-2.4","","<div style=""font-size:60px;"">+</div>","null","","","","","","",""
"null","","image-keyboard-response","17","212777","0.0-2.0-0.5","","img/test3.PNG","null","practice","null","true","","","",""
"null","","html-keyboard-response","18","213786","0.0-2.0-1.5","","<img src=""img/test3-reward.PNG"">","null","","","","","","",""
"null","","html-keyboard-response","19","214796","0.0-2.0-2.5","","<div style=""font-size:60px;"">+</div>","null","","","","","","",""
"428","","image-keyboard-response","20","215225","0.0-2.0-0.6","","img/test1.PNG","32","practice","32","true","","","",""
"null","","html-keyboard-response","21","216232","0.0-2.0-1.6","","<img src=""img/test1-reward.PNG"" border=""10px; grey"">","null","","","","","","",""
"null","","html-keyboard-response","22","217241","0.0-2.0-2.6","","<div style=""font-size:60px;"">+</div>","null","","","","","","",""
"null","","image-keyboard-response","23","218747","0.0-2.0-0.7","","img/test2.PNG","null","practice","null","true","","","",""
"null","","html-keyboard-response","24","219756","0.0-2.0-1.7","","<img src=""img/test2-reward.PNG"">","null","","","","","","",""
"null","","html-keyboard-response","25","220769","0.0-2.0-2.7","","<div style=""font-size:60px;"">+</div>","null","","","","","","",""
"null","","image-keyboard-response","26","222277","0.0-2.0-0.8","","img/test3.PNG","null","practice","null","true","","","",""
"null","","html-keyboard-response","27","223286","0.0-2.0-1.8","","<img src=""img/test3-reward.PNG"">","null","","","","","","",""
"null","","html-keyboard-response","28","224294","0.0-2.0-2.8","","<div style=""font-size:60px;"">+</div>","null","","","","","","",""
"null","","image-keyboard-response","29","225799","0.0-2.0-0.9","","img/test3.PNG","null","practice","null","true","","","",""
"null","","html-keyboard-response","30","226810","0.0-2.0-1.9","","<img src=""img/test3-reward.PNG"">","null","","","","","","",""
"null","","html-keyboard-response","31","227819","0.0-2.0-2.9","","<div style=""font-size:60px;"">+</div>","null","","","","","","",""
"null","","image-keyboard-response","32","229328","0.0-2.0-0.10","","img/test2.PNG","null","practice","null","true","","","",""
"null","","html-keyboard-response","33","230338","0.0-2.0-1.10","","<img src=""img/test2-reward.PNG"">","null","","","","","","",""
"null","","html-keyboard-response","34","231343","0.0-2.0-2.10","","<div style=""font-size:60px;"">+</div>","null","","","","","","",""
"513","","image-keyboard-response","35","231856","0.0-2.0-0.11","","img/test1.PNG","32","practice","32","true","","","",""
"null","","html-keyboard-response","36","232860","0.0-2.0-1.11","","<img src=""img/test1-reward.PNG"" border=""10px; grey"">","null","","","","","","",""
"null","","html-keyboard-response","37","233867","0.0-2.0-2.11","","<div style=""font-size:60px;"">+</div>","null","","","","","","",""
"5210","","instructions","38","239078","0.0-3.0","[{""page_index"":0,""viewing_time"":5210}]","","","","","","","","",""
"890","","image-keyboard-response","39","239969","0.0-4.0-0.0","","img/pink.png","32","trial","32","true","0.8,0.2","1:go_a","",""
"null","","html-keyboard-response","40","240970","0.0-4.0-1.0","","<img src=""img/pink-r.png"" border=""10"">","null","trial","32","","0.8,0.2","1:go_a","1",""
"null","","html-keyboard-response","41","241978","0.0-4.0-2.0","","<div style=""font-size:60px;"">+</div>","null","","","","","","",""
"791","","image-keyboard-response","42","242770","0.0-4.0-0.1","","img/purple.png","32","trial","null","false","0.2,0.8","2:nogo_b","",""
"null","","html-keyboard-response","43","243773","0.0-4.0-1.1","","<img src=""img/purple-n.png"" border=""10"">","null","trial","null","","0.2,0.8","2:nogo_b","0",""
"null","","html-keyboard-response","44","244782","0.0-4.0-2.1","","<div style=""font-size:60px;"">+</div>","null","","","","","","",""
"554","","image-keyboard-response","45","245337","0.0-4.0-0.2","","img/pink.png","32","trial","32","true","0.8,0.2","1:go_a","",""
"null","","html-keyboard-response","46","246346","0.0-4.0-1.2","","<img src=""img/pink-r.png"" border=""10"">","null","trial","32","","0.8,0.2","1:go_a","1",""
"null","","html-keyboard-response","47","247351","0.0-4.0-2.2","","<div style=""font-size:60px;"">+</div>","null","","","","","","",""
"null","","image-keyboard-response","48","248857","0.0-4.0-0.3","","img/purple.png","null","trial","null","true","0.2,0.8","2:nogo_b","",""
"null","","html-keyboard-response","49","249867","0.0-4.0-1.3","","<img src=""img/purple-r.png"">","null","trial","null","","0.2,0.8","2:nogo_b","1",""
"null","","html-keyboard-response","50","250874","0.0-4.0-2.3","","<div style=""font-size:60px;"">+</div>","null","","","","","","",""
"null","","image-keyboard-response","51","252375","0.0-4.0-0.4","","img/purple.png","null","trial","null","true","0.2,0.8","2:nogo_b","",""
"null","","html-keyboard-response","52","253383","0.0-4.0-1.4","","<img src=""img/purple-n.png"">","null","trial","null","","0.2,0.8","2:nogo_b","0",""
"null","","html-keyboard-response","53","254393","0.0-4.0-2.4","","<div style=""font-size:60px;"">+</div>","null","","","","","","",""
"406","","image-keyboard-response","54","254801","0.0-4.0-0.5","","img/pink.png","32","trial","32","true","0.8,0.2","1:go_a","",""
"null","","html-keyboard-response","55","255816","0.0-4.0-1.5","","<img src=""img/pink-r.png"" border=""10"">","null","trial","32","","0.8,0.2","1:go_a","1",""
"null","","html-keyboard-response","56","256816","0.0-4.0-2.5","","<div style=""font-size:60px;"">+</div>","null","","","","","","",""
"537","","image-keyboard-response","57","257353","0.0-4.0-0.6","","img/pink.png","32","trial","32","true","0.8,0.2","1:go_a","",""
"null","","html-keyboard-response","58","258367","0.0-4.0-1.6","","<img src=""img/pink-r.png"" border=""10"">","null","trial","32","","0.8,0.2","1:go_a","1",""
"null","","html-keyboard-response","59","259375","0.0-4.0-2.6","","<div style=""font-size:60px;"">+</div>","null","","","","","","",""
"null","","image-keyboard-response","60","260889","0.0-4.0-0.7","","img/purple.png","null","trial","null","true","0.2,0.8","2:nogo_b","",""
"null","","html-keyboard-response","61","261901","0.0-4.0-1.7","","<img src=""img/purple-r.png"">","null","trial","null","","0.2,0.8","2:nogo_b","1",""
"null","","html-keyboard-response","62","262911","0.0-4.0-2.7","","<div style=""font-size:60px;"">+</div>","null","","","","","","",""
"425","","image-keyboard-response","63","263337","0.0-4.0-0.8","","img/pink.png","32","trial","32","true","0.8,0.2","1:go_a","",""
"null","","html-keyboard-response","64","264342","0.0-4.0-1.8","","<img src=""img/pink-r.png"" border=""10"">","null","trial","32","","0.8,0.2","1:go_a","1",""
"null","","html-keyboard-response","65","265354","0.0-4.0-2.8","","<div style=""font-size:60px;"">+</div>","null","","","","","","",""
"null","","image-keyboard-response","66","266860","0.0-4.0-0.9","","img/purple.png","null","trial","null","true","0.2,0.8","2:nogo_b","",""
"null","","html-keyboard-response","67","267863","0.0-4.0-1.9","","<img src=""img/purple-r.png"">","null","trial","null","","0.2,0.8","2:nogo_b","1",""
"null","","html-keyboard-response","68","268866","0.0-4.0-2.9","","<div style=""font-size:60px;"">+</div>","null","","","","","","",""
"null","","image-keyboard-response","69","270372","0.0-4.0-0.10","","img/purple.png","null","trial","null","true","0.2,0.8","2:nogo_b","",""
"null","","html-keyboard-response","70","271379","0.0-4.0-1.10","","<img src=""img/purple-r.png"">","null","trial","null","","0.2,0.8","2:nogo_b","1",""
"null","","html-keyboard-response","71","272384","0.0-4.0-2.10","","<div style=""font-size:60px;"">+</div>","null","","","","","","",""
"450","","image-keyboard-response","72","272834","0.0-4.0-0.11","","img/pink.png","32","trial","32","true","0.8,0.2","1:go_a","",""
"null","","html-keyboard-response","73","273843","0.0-4.0-1.11","","<img src=""img/pink-r.png"" border=""10"">","null","trial","32","","0.8,0.2","1:go_a","1",""
"null","","html-keyboard-response","74","274847","0.0-4.0-2.11","","<div style=""font-size:60px;"">+</div>","null","","","","","","",""
"null","","image-keyboard-response","75","276350","0.0-4.0-0.12","","img/purple.png","null","trial","null","true","0.2,0.8","2:nogo_b","",""
"null","","html-keyboard-response","76","277357","0.0-4.0-1.12","","<img src=""img/purple-n.png"">","null","trial","null","","0.2,0.8","2:nogo_b","0",""
"null","","html-keyboard-response","77","278365","0.0-4.0-2.12","","<div style=""font-size:60px;"">+</div>","null","","","","","","",""
"492","","image-keyboard-response","78","278857","0.0-4.0-0.13","","img/pink.png","32","trial","32","true","0.8,0.2","1:go_a","",""
"null","","html-keyboard-response","79","279858","0.0-4.0-1.13","","<img src=""img/pink-r.png"" border=""10"">","null","trial","32","","0.8,0.2","1:go_a","1",""
"null","","html-keyboard-response","80","280863","0.0-4.0-2.13","","<div style=""font-size:60px;"">+</div>","null","","","","","","",""
"731","","image-keyboard-response","81","281593","0.0-4.0-0.14","","img/pink.png","32","trial","32","true","0.8,0.2","1:go_a","",""
"null","","html-keyboard-response","82","282598","0.0-4.0-1.14","","<img src=""img/pink-r.png"" border=""10"">","null","trial","32","","0.8,0.2","1:go_a","1",""
"null","","html-keyboard-response","83","283604","0.0-4.0-2.14","","<div style=""font-size:60px;"">+</div>","null","","","","","","",""
"null","","image-keyboard-response","84","285108","0.0-4.0-0.15","","img/purple.png","null","trial","null","true","0.2,0.8","2:nogo_b","",""
"null","","html-keyboard-response","85","286116","0.0-4.0-1.15","","<img src=""img/purple-r.png"">","null","trial","null","","0.2,0.8","2:nogo_b","1",""
"null","","html-keyboard-response","86","287123","0.0-4.0-2.15","","<div style=""font-size:60px;"">+</div>","null","","","","","","",""
"572","","image-keyboard-response","87","287696","0.0-4.0-0.16","","img/pink.png","32","trial","32","true","0.8,0.2","1:go_a","",""
"null","","html-keyboard-response","88","288705","0.0-4.0-1.16","","<img src=""img/pink-r.png"" border=""10"">","null","trial","32","","0.8,0.2","1:go_a","1",""
"null","","html-keyboard-response","89","289713","0.0-4.0-2.16","","<div style=""font-size:60px;"">+</div>","null","","","","","","",""
"null","","image-keyboard-response","90","291214","0.0-4.0-0.17","","img/purple.png","null","trial","null","true","0.2,0.8","2:nogo_b","",""
"null","","html-keyboard-response","91","292219","0.0-4.0-1.17","","<img src=""img/purple-r.png"">","null","trial","null","","0.2,0.8","2:nogo_b","1",""
"null","","html-keyboard-response","92","293228","0.0-4.0-2.17","","<div style=""font-size:60px;"">+</div>","null","","","","","","",""
"428","","image-keyboard-response","93","293658","0.0-4.0-0.18","","img/pink.png","32","trial","32","true","0.8,0.2","1:go_a","",""
"null","","html-keyboard-response","94","294661","0.0-4.0-1.18","","<img src=""img/pink-r.png"" border=""10"">","null","trial","32","","0.8,0.2","1:go_a","1",""
"null","","html-keyboard-response","95","295675","0.0-4.0-2.18","","<div style=""font-size:60px;"">+</div>","null","","","","","","",""
"null","","image-keyboard-response","96","297180","0.0-4.0-0.19","","img/purple.png","null","trial","null","true","0.2,0.8","2:nogo_b","",""
"null","","html-keyboard-response","97","298185","0.0-4.0-1.19","","<img src=""img/purple-r.png"">","null","trial","null","","0.2,0.8","2:nogo_b","1",""
"null","","html-keyboard-response","98","299192","0.0-4.0-2.19","","<div style=""font-size:60px;"">+</div>","null","","","","","","",""
"424","","image-keyboard-response","99","299617","0.0-4.0-0.20","","img/pink.png","32","trial","32","true","0.8,0.2","1:go_a","",""
"null","","html-keyboard-response","100","300632","0.0-4.0-1.20","","<img src=""img/pink-r.png"" border=""10"">","null","trial","32","","0.8,0.2","1:go_a","1",""
"null","","html-keyboard-response","101","301635","0.0-4.0-2.20","","<div style=""font-size:60px;"">+</div>","null","","","","","","",""
"null","","image-keyboard-response","102","303139","0.0-4.0-0.21","","img/purple.png","null","trial","null","true","0.2,0.8","2:nogo_b","",""
"null","","html-keyboard-response","103","304147","0.0-4.0-1.21","","<img src=""img/purple-r.png"">","null","trial","null","","0.2,0.8","2:nogo_b","1",""
"null","","html-keyboard-response","104","305154","0.0-4.0-2.21","","<div style=""font-size:60px;"">+</div>","null","","","","","","",""
"null","","image-keyboard-response","105","306657","0.0-4.0-0.22","","img/purple.png","null","trial","null","true","0.2,0.8","2:nogo_b","",""
"null","","html-keyboard-response","106","307662","0.0-4.0-1.22","","<img src=""img/purple-r.png"">","null","trial","null","","0.2,0.8","2:nogo_b","1",""
"null","","html-keyboard-response","107","308674","0.0-4.0-2.22","","<div style=""font-size:60px;"">+</div>","null","","","","","","",""
"455","","image-keyboard-response","108","309128","0.0-4.0-0.23","","img/pink.png","32","trial","32","true","0.8,0.2","1:go_a","",""
"null","","html-keyboard-response","109","310134","0.0-4.0-1.23","","<img src=""img/pink-n.png"" border=""10"">","null","trial","32","","0.8,0.2","1:go_a","0",""
"null","","html-keyboard-response","110","311143","0.0-4.0-2.23","","<div style=""font-size:60px;"">+</div>","null","","","","","","",""
"545","","image-keyboard-response","111","311688","0.0-4.0-0.24","","img/pink.png","32","trial","32","true","0.8,0.2","1:go_a","",""
"null","","html-keyboard-response","112","312691","0.0-4.0-1.24","","<img src=""img/pink-r.png"" border=""10"">","null","trial","32","","0.8,0.2","1:go_a","1",""
"null","","html-keyboard-response","113","313702","0.0-4.0-2.24","","<div style=""font-size:60px;"">+</div>","null","","","","","","",""
"null","","image-keyboard-response","114","315206","0.0-4.0-0.25","","img/purple.png","null","trial","null","true","0.2,0.8","2:nogo_b","",""
"null","","html-keyboard-response","115","316221","0.0-4.0-1.25","","<img src=""img/purple-n.png"">","null","trial","null","","0.2,0.8","2:nogo_b","0",""
"null","","html-keyboard-response","116","317227","0.0-4.0-2.25","","<div style=""font-size:60px;"">+</div>","null","","","","","","",""
"null","","image-keyboard-response","117","318738","0.0-4.0-0.26","","img/purple.png","null","trial","null","true","0.2,0.8","2:nogo_b","",""
"null","","html-keyboard-response","118","319742","0.0-4.0-1.26","","<img src=""img/purple-r.png"">","null","trial","null","","0.2,0.8","2:nogo_b","1",""
"null","","html-keyboard-response","119","320753","0.0-4.0-2.26","","<div style=""font-size:60px;"">+</div>","null","","","","","","",""
"407","","image-keyboard-response","120","321160","0.0-4.0-0.27","","img/pink.png","32","trial","32","true","0.8,0.2","1:go_a","",""
"null","","html-keyboard-response","121","322167","0.0-4.0-1.27","","<img src=""img/pink-r.png"" border=""10"">","null","trial","32","","0.8,0.2","1:go_a","1",""
"null","","html-keyboard-response","122","323173","0.0-4.0-2.27","","<div style=""font-size:60px;"">+</div>","null","","","","","","",""
"676","","image-keyboard-response","123","323849","0.0-4.0-0.28","","img/pink.png","32","trial","32","true","0.8,0.2","1:go_a","",""
"null","","html-keyboard-response","124","324851","0.0-4.0-1.28","","<img src=""img/pink-r.png"" border=""10"">","null","trial","32","","0.8,0.2","1:go_a","1",""
"null","","html-keyboard-response","125","325856","0.0-4.0-2.28","","<div style=""font-size:60px;"">+</div>","null","","","","","","",""
"null","","image-keyboard-response","126","327360","0.0-4.0-0.29","","img/purple.png","null","trial","null","true","0.2,0.8","2:nogo_b","",""
"null","","html-keyboard-response","127","328363","0.0-4.0-1.29","","<img src=""img/purple-r.png"">","null","trial","null","","0.2,0.8","2:nogo_b","1",""
"null","","html-keyboard-response","128","329374","0.0-4.0-2.29","","<div style=""font-size:60px;"">+</div>","null","","","","","","",""
"498","","image-keyboard-response","129","329872","0.0-4.0-0.30","","img/pink.png","32","trial","32","true","0.8,0.2","1:go_a","",""
"null","","html-keyboard-response","130","330878","0.0-4.0-1.30","","<img src=""img/pink-r.png"" border=""10"">","null","trial","32","","0.8,0.2","1:go_a","1",""
"null","","html-keyboard-response","131","331882","0.0-4.0-2.30","","<div style=""font-size:60px;"">+</div>","null","","","","","","",""
"null","","image-keyboard-response","132","333391","0.0-4.0-0.31","","img/purple.png","null","trial","null","true","0.2,0.8","2:nogo_b","",""
"null","","html-keyboard-response","133","334398","0.0-4.0-1.31","","<img src=""img/purple-r.png"">","null","trial","null","","0.2,0.8","2:nogo_b","1",""
"null","","html-keyboard-response","134","335404","0.0-4.0-2.31","","<div style=""font-size:60px;"">+</div>","null","","","","","","",""
"null","","image-keyboard-response","135","336905","0.0-4.0-0.32","","img/purple.png","null","trial","null","true","0.2,0.8","2:nogo_b","",""
"null","","html-keyboard-response","136","337913","0.0-4.0-1.32","","<img src=""img/purple-r.png"">","null","trial","null","","0.2,0.8","2:nogo_b","1",""
"null","","html-keyboard-response","137","338918","0.0-4.0-2.32","","<div style=""font-size:60px;"">+</div>","null","","","","","","",""
"434","","image-keyboard-response","138","339353","0.0-4.0-0.33","","img/pink.png","32","trial","32","true","0.8,0.2","1:go_a","",""
"null","","html-keyboard-response","139","340368","0.0-4.0-1.33","","<img src=""img/pink-r.png"" border=""10"">","null","trial","32","","0.8,0.2","1:go_a","1",""
"null","","html-keyboard-response","140","341375","0.0-4.0-2.33","","<div style=""font-size:60px;"">+</div>","null","","","","","","",""
"null","","image-keyboard-response","141","342878","0.0-4.0-0.34","","img/purple.png","null","trial","null","true","0.2,0.8","2:nogo_b","",""
"null","","html-keyboard-response","142","343886","0.0-4.0-1.34","","<img src=""img/purple-r.png"">","null","trial","null","","0.2,0.8","2:nogo_b","1",""
"null","","html-keyboard-response","143","344886","0.0-4.0-2.34","","<div style=""font-size:60px;"">+</div>","null","","","","","","",""
"426","","image-keyboard-response","144","345313","0.0-4.0-0.35","","img/pink.png","32","trial","32","true","0.8,0.2","1:go_a","",""
"null","","html-keyboard-response","145","346314","0.0-4.0-1.35","","<img src=""img/pink-r.png"" border=""10"">","null","trial","32","","0.8,0.2","1:go_a","1",""
"null","","html-keyboard-response","146","347322","0.0-4.0-2.35","","<div style=""font-size:60px;"">+</div>","null","","","","","","",""
"null","","image-keyboard-response","147","348825","0.0-4.0-0.36","","img/purple.png","null","trial","null","true","0.2,0.8","2:nogo_b","",""
"null","","html-keyboard-response","148","349833","0.0-4.0-1.36","","<img src=""img/purple-r.png"">","null","trial","null","","0.2,0.8","2:nogo_b","1",""
"null","","html-keyboard-response","149","350839","0.0-4.0-2.36","","<div style=""font-size:60px;"">+</div>","null","","","","","","",""
"393","","image-keyboard-response","150","351233","0.0-4.0-0.37","","img/pink.png","32","trial","32","true","0.8,0.2","1:go_a","",""
"null","","html-keyboard-response","151","352244","0.0-4.0-1.37","","<img src=""img/pink-r.png"" border=""10"">","null","trial","32","","0.8,0.2","1:go_a","1",""
"null","","html-keyboard-response","152","353251","0.0-4.0-2.37","","<div style=""font-size:60px;"">+</div>","null","","","","","","",""
"605","","image-keyboard-response","153","353857","0.0-4.0-0.38","","img/pink.png","32","trial","32","true","0.8,0.2","1:go_a","",""
"null","","html-keyboard-response","154","354868","0.0-4.0-1.38","","<img src=""img/pink-r.png"" border=""10"">","null","trial","32","","0.8,0.2","1:go_a","1",""
"null","","html-keyboard-response","155","355875","0.0-4.0-2.38","","<div style=""font-size:60px;"">+</div>","null","","","","","","",""
"null","","image-keyboard-response","156","357378","0.0-4.0-0.39","","img/purple.png","null","trial","null","true","0.2,0.8","2:nogo_b","",""
"null","","html-keyboard-response","157","358388","0.0-4.0-1.39","","<img src=""img/purple-n.png"">","null","trial","null","","0.2,0.8","2:nogo_b","0",""
"null","","html-keyboard-response","158","359398","0.0-4.0-2.39","","<div style=""font-size:60px;"">+</div>","null","","","","","","",""
"395","","image-keyboard-response","159","359793","0.0-4.0-0.40","","img/pink.png","32","trial","32","true","0.8,0.2","1:go_a","",""
"null","","html-keyboard-response","160","360803","0.0-4.0-1.40","","<img src=""img/pink-r.png"" border=""10"">","null","trial","32","","0.8,0.2","1:go_a","1",""
"null","","html-keyboard-response","161","361816","0.0-4.0-2.40","","<div style=""font-size:60px;"">+</div>","null","","","","","","",""
"null","","image-keyboard-response","162","363330","0.0-4.0-0.41","","img/purple.png","null","trial","null","true","0.2,0.8","2:nogo_b","",""
"null","","html-keyboard-response","163","364337","0.0-4.0-1.41","","<img src=""img/purple-r.png"">","null","trial","null","","0.2,0.8","2:nogo_b","1",""
"null","","html-keyboard-response","164","365341","0.0-4.0-2.41","","<div style=""font-size:60px;"">+</div>","null","","","","","","",""
"411","","image-keyboard-response","165","365753","0.0-4.0-0.42","","img/pink.png","32","trial","32","true","0.8,0.2","1:go_a","",""
"null","","html-keyboard-response","166","366766","0.0-4.0-1.42","","<img src=""img/pink-r.png"" border=""10"">","null","trial","32","","0.8,0.2","1:go_a","1",""
"null","","html-keyboard-response","167","367775","0.0-4.0-2.42","","<div style=""font-size:60px;"">+</div>","null","","","","","","",""
"null","","image-keyboard-response","168","369282","0.0-4.0-0.43","","img/purple.png","null","trial","null","true","0.2,0.8","2:nogo_b","",""
"null","","html-keyboard-response","169","370288","0.0-4.0-1.43","","<img src=""img/purple-r.png"">","null","trial","null","","0.2,0.8","2:nogo_b","1",""
"null","","html-keyboard-response","170","371298","0.0-4.0-2.43","","<div style=""font-size:60px;"">+</div>","null","","","","","","",""
"null","","image-keyboard-response","171","372808","0.0-4.0-0.44","","img/purple.png","null","trial","null","true","0.2,0.8","2:nogo_b","",""
"null","","html-keyboard-response","172","373816","0.0-4.0-1.44","","<img src=""img/purple-r.png"">","null","trial","null","","0.2,0.8","2:nogo_b","1",""
"null","","html-keyboard-response","173","374826","0.0-4.0-2.44","","<div style=""font-size:60px;"">+</div>","null","","","","","","",""
"431","","image-keyboard-response","174","375257","0.0-4.0-0.45","","img/pink.png","32","trial","32","true","0.8,0.2","1:go_a","",""
"null","","html-keyboard-response","175","376271","0.0-4.0-1.45","","<img src=""img/pink-r.png"" border=""10"">","null","trial","32","","0.8,0.2","1:go_a","1",""
"null","","html-keyboard-response","176","377280","0.0-4.0-2.45","","<div style=""font-size:60px;"">+</div>","null","","","","","","",""
"601","","image-keyboard-response","177","377881","0.0-4.0-0.46","","img/pink.png","32","trial","32","true","0.8,0.2","1:go_a","",""
"null","","html-keyboard-response","178","378895","0.0-4.0-1.46","","<img src=""img/pink-r.png"" border=""10"">","null","trial","32","","0.8,0.2","1:go_a","1",""
"null","","html-keyboard-response","179","379903","0.0-4.0-2.46","","<div style=""font-size:60px;"">+</div>","null","","","","","","",""
"null","","image-keyboard-response","180","381413","0.0-4.0-0.47","","img/purple.png","null","trial","null","true","0.2,0.8","2:nogo_b","",""
"null","","html-keyboard-response","181","382419","0.0-4.0-1.47","","<img src=""img/purple-r.png"">","null","trial","null","","0.2,0.8","2:nogo_b","1",""
"null","","html-keyboard-response","182","383427","0.0-4.0-2.47","","<div style=""font-size:60px;"">+</div>","null","","","","","","",""
"null","","image-keyboard-response","183","384931","0.0-4.0-0.48","","img/purple.png","null","trial","null","true","0.2,0.8","2:nogo_b","",""
"null","","html-keyboard-response","184","385938","0.0-4.0-1.48","","<img src=""img/purple-r.png"">","null","trial","null","","0.2,0.8","2:nogo_b","1",""
"null","","html-keyboard-response","185","386944","0.0-4.0-2.48","","<div style=""font-size:60px;"">+</div>","null","","","","","","",""
"456","","image-keyboard-response","186","387401","0.0-4.0-0.49","","img/pink.png","32","trial","32","true","0.8,0.2","1:go_a","",""
"null","","html-keyboard-response","187","388412","0.0-4.0-1.49","","<img src=""img/pink-r.png"" border=""10"">","null","trial","32","","0.8,0.2","1:go_a","1",""
"null","","html-keyboard-response","188","389418","0.0-4.0-2.49","","<div style=""font-size:60px;"">+</div>","null","","","","","","",""
"470","","image-keyboard-response","189","389889","0.0-4.0-0.50","","img/pink.png","32","trial","32","true","0.8,0.2","1:go_a","",""
"null","","html-keyboard-response","190","390891","0.0-4.0-1.50","","<img src=""img/pink-r.png"" border=""10"">","null","trial","32","","0.8,0.2","1:go_a","1",""
"null","","html-keyboard-response","191","391899","0.0-4.0-2.50","","<div style=""font-size:60px;"">+</div>","null","","","","","","",""
"null","","image-keyboard-response","192","393413","0.0-4.0-0.51","","img/purple.png","null","trial","null","true","0.2,0.8","2:nogo_b","",""
"null","","html-keyboard-response","193","394427","0.0-4.0-1.51","","<img src=""img/purple-n.png"">","null","trial","null","","0.2,0.8","2:nogo_b","0",""
"null","","html-keyboard-response","194","395438","0.0-4.0-2.51","","<div style=""font-size:60px;"">+</div>","null","","","","","","",""
"null","","image-keyboard-response","195","396943","0.0-4.0-0.52","","img/purple.png","null","trial","null","true","0.2,0.8","2:nogo_b","",""
"null","","html-keyboard-response","196","397950","0.0-4.0-1.52","","<img src=""img/purple-n.png"">","null","trial","null","","0.2,0.8","2:nogo_b","0",""
"null","","html-keyboard-response","197","398959","0.0-4.0-2.52","","<div style=""font-size:60px;"">+</div>","null","","","","","","",""
"441","","image-keyboard-response","198","399401","0.0-4.0-0.53","","img/pink.png","32","trial","32","true","0.8,0.2","1:go_a","",""
"null","","html-keyboard-response","199","400413","0.0-4.0-1.53","","<img src=""img/pink-r.png"" border=""10"">","null","trial","32","","0.8,0.2","1:go_a","1",""
"null","","html-keyboard-response","200","401418","0.0-4.0-2.53","","<div style=""font-size:60px;"">+</div>","null","","","","","","",""
"502","","image-keyboard-response","201","401921","0.0-4.0-0.54","","img/pink.png","32","trial","32","true","0.8,0.2","1:go_a","",""
"null","","html-keyboard-response","202","402931","0.0-4.0-1.54","","<img src=""img/pink-n.png"" border=""10"">","null","trial","32","","0.8,0.2","1:go_a","0",""
"null","","html-keyboard-response","203","403937","0.0-4.0-2.54","","<div style=""font-size:60px;"">+</div>","null","","","","","","",""
"null","","image-keyboard-response","204","405443","0.0-4.0-0.55","","img/purple.png","null","trial","null","true","0.2,0.8","2:nogo_b","",""
"null","","html-keyboard-response","205","406450","0.0-4.0-1.55","","<img src=""img/purple-r.png"">","null","trial","null","","0.2,0.8","2:nogo_b","1",""
"null","","html-keyboard-response","206","407461","0.0-4.0-2.55","","<div style=""font-size:60px;"">+</div>","null","","","","","","",""
"null","","image-keyboard-response","207","408965","0.0-4.0-0.56","","img/purple.png","null","trial","null","true","0.2,0.8","2:nogo_b","",""
"null","","html-keyboard-response","208","409968","0.0-4.0-1.56","","<img src=""img/purple-r.png"">","null","trial","null","","0.2,0.8","2:nogo_b","1",""
"null","","html-keyboard-response","209","410975","0.0-4.0-2.56","","<div style=""font-size:60px;"">+</div>","null","","","","","","",""
"457","","image-keyboard-response","210","411432","0.0-4.0-0.57","","img/pink.png","32","trial","32","true","0.8,0.2","1:go_a","",""
"null","","html-keyboard-response","211","412448","0.0-4.0-1.57","","<img src=""img/pink-r.png"" border=""10"">","null","trial","32","","0.8,0.2","1:go_a","1",""
"null","","html-keyboard-response","212","413452","0.0-4.0-2.57","","<div style=""font-size:60px;"">+</div>","null","","","","","","",""
"524","","image-keyboard-response","213","413977","0.0-4.0-0.58","","img/pink.png","32","trial","32","true","0.8,0.2","1:go_a","",""
"null","","html-keyboard-response","214","414987","0.0-4.0-1.58","","<img src=""img/pink-r.png"" border=""10"">","null","trial","32","","0.8,0.2","1:go_a","1",""
"null","","html-keyboard-response","215","415996","0.0-4.0-2.58","","<div style=""font-size:60px;"">+</div>","null","","","","","","",""
"null","","image-keyboard-response","216","417499","0.0-4.0-0.59","","img/purple.png","null","trial","null","true","0.2,0.8","2:nogo_b","",""
"null","","html-keyboard-response","217","418507","0.0-4.0-1.59","","<img src=""img/purple-n.png"">","null","trial","null","","0.2,0.8","2:nogo_b","0",""
"null","","html-keyboard-response","218","419518","0.0-4.0-2.59","","<div style=""font-size:60px;"">+</div>","null","","","","","","",""
"14108","","instructions","219","433627","0.0-5.0","[{""page_index"":0,""viewing_time"":14108}]","","","","","","","","",""
"925","","image-keyboard-response","220","434553","0.0-6.0-0.0","","img/orange.png","32","trial","null","false","0.2,0.8","2:nogo_b","",""
"null","","html-keyboard-response","221","435567","0.0-6.0-1.0","","<img src=""img/orange-n.png"" border=""10"">","null","trial","null","","0.2,0.8","2:nogo_b","0",""
"null","","html-keyboard-response","222","436571","0.0-6.0-2.0","","<div style=""font-size:60px;"">+</div>","null","","","","","","",""
"565","","image-keyboard-response","223","437137","0.0-6.0-0.1","","img/yellow.png","32","trial","32","true","0.8,0.2","1:go_a","",""
"null","","html-keyboard-response","224","438138","0.0-6.0-1.1","","<img src=""img/yellow-r.png"" border=""10"">","null","trial","32","","0.8,0.2","1:go_a","1",""
"null","","html-keyboard-response","225","439145","0.0-6.0-2.1","","<div style=""font-size:60px;"">+</div>","null","","","","","","",""
"849","","image-keyboard-response","226","439994","0.0-6.0-0.2","","img/green.png","32","trial","32","true","1,0","3:go_c","",""
"null","","html-keyboard-response","227","441007","0.0-6.0-1.2","","<img src=""img/green-r.png"" border=""10"">","null","trial","32","","1,0","3:go_c","1",""
"null","","html-keyboard-response","228","442018","0.0-6.0-2.2","","<div style=""font-size:60px;"">+</div>","null","","","","","","",""
"767","","image-keyboard-response","229","442784","0.0-6.0-0.3","","img/red.png","32","trial","null","false","0,1","4:nogo_d","",""
"null","","html-keyboard-response","230","443798","0.0-6.0-1.3","","<img src=""img/red-n.png"" border=""10"">","null","trial","null","","0,1","4:nogo_d","0",""
"null","","html-keyboard-response","231","444807","0.0-6.0-2.3","","<div style=""font-size:60px;"">+</div>","null","","","","","","",""
"null","","image-keyboard-response","232","446322","0.0-6.0-0.4","","img/orange.png","null","trial","null","true","0.2,0.8","2:nogo_b","",""
"null","","html-keyboard-response","233","447331","0.0-6.0-1.4","","<img src=""img/orange-n.png"">","null","trial","null","","0.2,0.8","2:nogo_b","0",""
"null","","html-keyboard-response","234","448335","0.0-6.0-2.4","","<div style=""font-size:60px;"">+</div>","null","","","","","","",""
"939","","image-keyboard-response","235","449273","0.0-6.0-0.5","","img/red.png","32","trial","null","false","0,1","4:nogo_d","",""
"null","","html-keyboard-response","236","450282","0.0-6.0-1.5","","<img src=""img/red-n.png"" border=""10"">","null","trial","null","","0,1","4:nogo_d","0",""
"null","","html-keyboard-response","237","451292","0.0-6.0-2.5","","<div style=""font-size:60px;"">+</div>","null","","","","","","",""
"877","","image-keyboard-response","238","452169","0.0-6.0-0.6","","img/yellow.png","32","trial","32","true","0.8,0.2","1:go_a","",""
"null","","html-keyboard-response","239","453179","0.0-6.0-1.6","","<img src=""img/yellow-r.png"" border=""10"">","null","trial","32","","0.8,0.2","1:go_a","1",""
"null","","html-keyboard-response","240","454186","0.0-6.0-2.6","","<div style=""font-size:60px;"">+</div>","null","","","","","","",""
"797","","image-keyboard-response","241","454985","0.0-6.0-0.7","","img/green.png","32","trial","32","true","1,0","3:go_c","",""
"null","","html-keyboard-response","242","455988","0.0-6.0-1.7","","<img src=""img/green-r.png"" border=""10"">","null","trial","32","","1,0","3:go_c","1",""
"null","","html-keyboard-response","243","456996","0.0-6.0-2.7","","<div style=""font-size:60px;"">+</div>","null","","","","","","",""
"null","","image-keyboard-response","244","458501","0.0-6.0-0.8","","img/orange.png","null","trial","null","true","0.2,0.8","2:nogo_b","",""
"null","","html-keyboard-response","245","459512","0.0-6.0-1.8","","<img src=""img/orange-r.png"">","null","trial","null","","0.2,0.8","2:nogo_b","1",""
"null","","html-keyboard-response","246","460519","0.0-6.0-2.8","","<div style=""font-size:60px;"">+</div>","null","","","","","","",""
"800","","image-keyboard-response","247","461320","0.0-6.0-0.9","","img/green.png","32","trial","32","true","1,0","3:go_c","",""
"null","","html-keyboard-response","248","462329","0.0-6.0-1.9","","<img src=""img/green-r.png"" border=""10"">","null","trial","32","","1,0","3:go_c","1",""
"null","","html-keyboard-response","249","463339","0.0-6.0-2.9","","<div style=""font-size:60px;"">+</div>","null","","","","","","",""
"null","","image-keyboard-response","250","464852","0.0-6.0-0.10","","img/red.png","null","trial","null","true","0,1","4:nogo_d","",""
"null","","html-keyboard-response","251","465865","0.0-6.0-1.10","","<img src=""img/red-r.png"">","null","trial","null","","0,1","4:nogo_d","1",""
"null","","html-keyboard-response","252","466876","0.0-6.0-2.10","","<div style=""font-size:60px;"">+</div>","null","","","","","","",""
"484","","image-keyboard-response","253","467361","0.0-6.0-0.11","","img/yellow.png","32","trial","32","true","0.8,0.2","1:go_a","",""
"null","","html-keyboard-response","254","468367","0.0-6.0-1.11","","<img src=""img/yellow-n.png"" border=""10"">","null","trial","32","","0.8,0.2","1:go_a","0",""
"null","","html-keyboard-response","255","469375","0.0-6.0-2.11","","<div style=""font-size:60px;"">+</div>","null","","","","","","",""
"null","","image-keyboard-response","256","470879","0.0-6.0-0.12","","img/orange.png","null","trial","null","true","0.2,0.8","2:nogo_b","",""
"null","","html-keyboard-response","257","471891","0.0-6.0-1.12","","<img src=""img/orange-r.png"">","null","trial","null","","0.2,0.8","2:nogo_b","1",""
"null","","html-keyboard-response","258","472901","0.0-6.0-2.12","","<div style=""font-size:60px;"">+</div>","null","","","","","","",""
"null","","image-keyboard-response","259","474406","0.0-6.0-0.13","","img/red.png","null","trial","null","true","0,1","4:nogo_d","",""
"null","","html-keyboard-response","260","475411","0.0-6.0-1.13","","<img src=""img/red-r.png"">","null","trial","null","","0,1","4:nogo_d","1",""
"null","","html-keyboard-response","261","476419","0.0-6.0-2.13","","<div style=""font-size:60px;"">+</div>","null","","","","","","",""
"469","","image-keyboard-response","262","476889","0.0-6.0-0.14","","img/yellow.png","32","trial","32","true","0.8,0.2","1:go_a","",""
"null","","html-keyboard-response","263","477894","0.0-6.0-1.14","","<img src=""img/yellow-r.png"" border=""10"">","null","trial","32","","0.8,0.2","1:go_a","1",""
"null","","html-keyboard-response","264","478899","0.0-6.0-2.14","","<div style=""font-size:60px;"">+</div>","null","","","","","","",""
"445","","image-keyboard-response","265","479345","0.0-6.0-0.15","","img/green.png","32","trial","32","true","1,0","3:go_c","",""
"null","","html-keyboard-response","266","480356","0.0-6.0-1.15","","<img src=""img/green-r.png"" border=""10"">","null","trial","32","","1,0","3:go_c","1",""
"null","","html-keyboard-response","267","481368","0.0-6.0-2.15","","<div style=""font-size:60px;"">+</div>","null","","","","","","",""
"null","","image-keyboard-response","268","482872","0.0-6.0-0.16","","img/red.png","null","trial","null","true","0,1","4:nogo_d","",""
"null","","html-keyboard-response","269","483878","0.0-6.0-1.16","","<img src=""img/red-r.png"">","null","trial","null","","0,1","4:nogo_d","1",""
"null","","html-keyboard-response","270","484889","0.0-6.0-2.16","","<div style=""font-size:60px;"">+</div>","null","","","","","","",""
"null","","image-keyboard-response","271","486394","0.0-6.0-0.17","","img/orange.png","null","trial","null","true","0.2,0.8","2:nogo_b","",""
"null","","html-keyboard-response","272","487400","0.0-6.0-1.17","","<img src=""img/orange-n.png"">","null","trial","null","","0.2,0.8","2:nogo_b","0",""
"null","","html-keyboard-response","273","488410","0.0-6.0-2.17","","<div style=""font-size:60px;"">+</div>","null","","","","","","",""
"414","","image-keyboard-response","274","488826","0.0-6.0-0.18","","img/yellow.png","32","trial","32","true","0.8,0.2","1:go_a","",""
"null","","html-keyboard-response","275","489840","0.0-6.0-1.18","","<img src=""img/yellow-n.png"" border=""10"">","null","trial","32","","0.8,0.2","1:go_a","0",""
"null","","html-keyboard-response","276","490847","0.0-6.0-2.18","","<div style=""font-size:60px;"">+</div>","null","","","","","","",""
"506","","image-keyboard-response","277","491353","0.0-6.0-0.19","","img/green.png","32","trial","32","true","1,0","3:go_c","",""
"null","","html-keyboard-response","278","492360","0.0-6.0-1.19","","<img src=""img/green-r.png"" border=""10"">","null","trial","32","","1,0","3:go_c","1",""
"null","","html-keyboard-response","279","493375","0.0-6.0-2.19","","<div style=""font-size:60px;"">+</div>","null","","","","","","",""
"null","","image-keyboard-response","280","494886","0.0-6.0-0.20","","img/orange.png","null","trial","null","true","0.2,0.8","2:nogo_b","",""
"null","","html-keyboard-response","281","495897","0.0-6.0-1.20","","<img src=""img/orange-r.png"">","null","trial","null","","0.2,0.8","2:nogo_b","1",""
"null","","html-keyboard-response","282","496907","0.0-6.0-2.20","","<div style=""font-size:60px;"">+</div>","null","","","","","","",""
"542","","image-keyboard-response","283","497449","0.0-6.0-0.21","","img/green.png","32","trial","32","true","1,0","3:go_c","",""
"null","","html-keyboard-response","284","498457","0.0-6.0-1.21","","<img src=""img/green-r.png"" border=""10"">","null","trial","32","","1,0","3:go_c","1",""
"null","","html-keyboard-response","285","499465","0.0-6.0-2.21","","<div style=""font-size:60px;"">+</div>","null","","","","","","",""
"null","","image-keyboard-response","286","500971","0.0-6.0-0.22","","img/yellow.png","null","trial","32","false","0.8,0.2","1:go_a","",""
"null","","html-keyboard-response","287","501978","0.0-6.0-1.22","","<img src=""img/yellow-n.png"">","null","trial","32","","0.8,0.2","1:go_a","0",""
"null","","html-keyboard-response","288","502986","0.0-6.0-2.22","","<div style=""font-size:60px;"">+</div>","null","","","","","","",""
"null","","image-keyboard-response","289","504494","0.0-6.0-0.23","","img/red.png","null","trial","null","true","0,1","4:nogo_d","",""
"null","","html-keyboard-response","290","505500","0.0-6.0-1.23","","<img src=""img/red-r.png"">","null","trial","null","","0,1","4:nogo_d","1",""
"null","","html-keyboard-response","291","506509","0.0-6.0-2.23","","<div style=""font-size:60px;"">+</div>","null","","","","","","",""
"547","","image-keyboard-response","292","507057","0.0-6.0-0.24","","img/green.png","32","trial","32","true","1,0","3:go_c","",""
"null","","html-keyboard-response","293","508059","0.0-6.0-1.24","","<img src=""img/green-r.png"" border=""10"">","null","trial","32","","1,0","3:go_c","1",""
"null","","html-keyboard-response","294","509063","0.0-6.0-2.24","","<div style=""font-size:60px;"">+</div>","null","","","","","","",""
"null","","image-keyboard-response","295","510569","0.0-6.0-0.25","","img/orange.png","null","trial","null","true","0.2,0.8","2:nogo_b","",""
"null","","html-keyboard-response","296","511577","0.0-6.0-1.25","","<img src=""img/orange-r.png"">","null","trial","null","","0.2,0.8","2:nogo_b","1",""
"null","","html-keyboard-response","297","512585","0.0-6.0-2.25","","<div style=""font-size:60px;"">+</div>","null","","","","","","",""
"null","","image-keyboard-response","298","514093","0.0-6.0-0.26","","img/red.png","null","trial","null","true","0,1","4:nogo_d","",""
"null","","html-keyboard-response","299","515100","0.0-6.0-1.26","","<img src=""img/red-r.png"">","null","trial","null","","0,1","4:nogo_d","1",""
"null","","html-keyboard-response","300","516111","0.0-6.0-2.26","","<div style=""font-size:60px;"">+</div>","null","","","","","","",""
"null","","image-keyboard-response","301","517615","0.0-6.0-0.27","","img/yellow.png","null","trial","32","false","0.8,0.2","1:go_a","",""
"null","","html-keyboard-response","302","518623","0.0-6.0-1.27","","<img src=""img/yellow-n.png"">","null","trial","32","","0.8,0.2","1:go_a","0",""
"null","","html-keyboard-response","303","519630","0.0-6.0-2.27","","<div style=""font-size:60px;"">+</div>","null","","","","","","",""
"771","","image-keyboard-response","304","520401","0.0-6.0-0.28","","img/yellow.png","32","trial","32","true","0.8,0.2","1:go_a","",""
"null","","html-keyboard-response","305","521411","0.0-6.0-1.28","","<img src=""img/yellow-n.png"" border=""10"">","null","trial","32","","0.8,0.2","1:go_a","0",""
"null","","html-keyboard-response","306","522419","0.0-6.0-2.28","","<div style=""font-size:60px;"">+</div>","null","","","","","","",""
"null","","image-keyboard-response","307","523922","0.0-6.0-0.29","","img/red.png","null","trial","null","true","0,1","4:nogo_d","",""
"null","","html-keyboard-response","308","524930","0.0-6.0-1.29","","<img src=""img/red-r.png"">","null","trial","null","","0,1","4:nogo_d","1",""
"null","","html-keyboard-response","309","525942","0.0-6.0-2.29","","<div style=""font-size:60px;"">+</div>","null","","","","","","",""
"538","","image-keyboard-response","310","526481","0.0-6.0-0.30","","img/green.png","32","trial","32","true","1,0","3:go_c","",""
"null","","html-keyboard-response","311","527483","0.0-6.0-1.30","","<img src=""img/green-r.png"" border=""10"">","null","trial","32","","1,0","3:go_c","1",""
"null","","html-keyboard-response","312","528497","0.0-6.0-2.30","","<div style=""font-size:60px;"">+</div>","null","","","","","","",""
"null","","image-keyboard-response","313","530006","0.0-6.0-0.31","","img/orange.png","null","trial","null","true","0.2,0.8","2:nogo_b","",""
"null","","html-keyboard-response","314","531016","0.0-6.0-1.31","","<img src=""img/orange-r.png"">","null","trial","null","","0.2,0.8","2:nogo_b","1",""
"null","","html-keyboard-response","315","532023","0.0-6.0-2.31","","<div style=""font-size:60px;"">+</div>","null","","","","","","",""
"null","","image-keyboard-response","316","533528","0.0-6.0-0.32","","img/orange.png","null","trial","null","true","0.2,0.8","2:nogo_b","",""
"null","","html-keyboard-response","317","534539","0.0-6.0-1.32","","<img src=""img/orange-n.png"">","null","trial","null","","0.2,0.8","2:nogo_b","0",""
"null","","html-keyboard-response","318","535549","0.0-6.0-2.32","","<div style=""font-size:60px;"">+</div>","null","","","","","","",""
"491","","image-keyboard-response","319","536041","0.0-6.0-0.33","","img/yellow.png","32","trial","32","true","0.8,0.2","1:go_a","",""
"null","","html-keyboard-response","320","537055","0.0-6.0-1.33","","<img src=""img/yellow-r.png"" border=""10"">","null","trial","32","","0.8,0.2","1:go_a","1",""
"null","","html-keyboard-response","321","538062","0.0-6.0-2.33","","<div style=""font-size:60px;"">+</div>","null","","","","","","",""
"null","","image-keyboard-response","322","539565","0.0-6.0-0.34","","img/red.png","null","trial","null","true","0,1","4:nogo_d","",""
"null","","html-keyboard-response","323","540571","0.0-6.0-1.34","","<img src=""img/red-r.png"">","null","trial","null","","0,1","4:nogo_d","1",""
"null","","html-keyboard-response","324","541580","0.0-6.0-2.34","","<div style=""font-size:60px;"">+</div>","null","","","","","","",""
"691","","image-keyboard-response","325","542273","0.0-6.0-0.35","","img/green.png","32","trial","32","true","1,0","3:go_c","",""
"null","","html-keyboard-response","326","543287","0.0-6.0-1.35","","<img src=""img/green-r.png"" border=""10"">","null","trial","32","","1,0","3:go_c","1",""
"null","","html-keyboard-response","327","544296","0.0-6.0-2.35","","<div style=""font-size:60px;"">+</div>","null","","","","","","",""
"null","","image-keyboard-response","328","545804","0.0-6.0-0.36","","img/orange.png","null","trial","null","true","0.2,0.8","2:nogo_b","",""
"null","","html-keyboard-response","329","546814","0.0-6.0-1.36","","<img src=""img/orange-n.png"">","null","trial","null","","0.2,0.8","2:nogo_b","0",""
"null","","html-keyboard-response","330","547819","0.0-6.0-2.36","","<div style=""font-size:60px;"">+</div>","null","","","","","","",""
"726","","image-keyboard-response","331","548545","0.0-6.0-0.37","","img/green.png","32","trial","32","true","1,0","3:go_c","",""
"null","","html-keyboard-response","332","549554","0.0-6.0-1.37","","<img src=""img/green-r.png"" border=""10"">","null","trial","32","","1,0","3:go_c","1",""
"null","","html-keyboard-response","333","550559","0.0-6.0-2.37","","<div style=""font-size:60px;"">+</div>","null","","","","","","",""
"null","","image-keyboard-response","334","552063","0.0-6.0-0.38","","img/yellow.png","null","trial","32","false","0.8,0.2","1:go_a","",""
"null","","html-keyboard-response","335","553072","0.0-6.0-1.38","","<img src=""img/yellow-n.png"">","null","trial","32","","0.8,0.2","1:go_a","0",""
"null","","html-keyboard-response","336","554081","0.0-6.0-2.38","","<div style=""font-size:60px;"">+</div>","null","","","","","","",""
"null","","image-keyboard-response","337","555584","0.0-6.0-0.39","","img/red.png","null","trial","null","true","0,1","4:nogo_d","",""
"null","","html-keyboard-response","338","556595","0.0-6.0-1.39","","<img src=""img/red-r.png"">","null","trial","null","","0,1","4:nogo_d","1",""
"null","","html-keyboard-response","339","557606","0.0-6.0-2.39","","<div style=""font-size:60px;"">+</div>","null","","","","","","",""
"null","","image-keyboard-response","340","559119","0.0-6.0-0.40","","img/orange.png","null","trial","null","true","0.2,0.8","2:nogo_b","",""
"null","","html-keyboard-response","341","560128","0.0-6.0-1.40","","<img src=""img/orange-n.png"">","null","trial","null","","0.2,0.8","2:nogo_b","0",""
"null","","html-keyboard-response","342","561138","0.0-6.0-2.40","","<div style=""font-size:60px;"">+</div>","null","","","","","","",""
"null","","image-keyboard-response","343","562651","0.0-6.0-0.41","","img/red.png","null","trial","null","true","0,1","4:nogo_d","",""
"null","","html-keyboard-response","344","563656","0.0-6.0-1.41","","<img src=""img/red-r.png"">","null","trial","null","","0,1","4:nogo_d","1",""
"null","","html-keyboard-response","345","564665","0.0-6.0-2.41","","<div style=""font-size:60px;"">+</div>","null","","","","","","",""
"487","","image-keyboard-response","346","565153","0.0-6.0-0.42","","img/green.png","32","trial","32","true","1,0","3:go_c","",""
"null","","html-keyboard-response","347","566168","0.0-6.0-1.42","","<img src=""img/green-r.png"" border=""10"">","null","trial","32","","1,0","3:go_c","1",""
"null","","html-keyboard-response","348","567177","0.0-6.0-2.42","","<div style=""font-size:60px;"">+</div>","null","","","","","","",""
"1111","","image-keyboard-response","349","568289","0.0-6.0-0.43","","img/yellow.png","32","trial","32","true","0.8,0.2","1:go_a","",""
"null","","html-keyboard-response","350","569290","0.0-6.0-1.43","","<img src=""img/yellow-r.png"" border=""10"">","null","trial","32","","0.8,0.2","1:go_a","1",""
"null","","html-keyboard-response","351","570299","0.0-6.0-2.43","","<div style=""font-size:60px;"">+</div>","null","","","","","","",""
"null","","image-keyboard-response","352","571808","0.0-6.0-0.44","","img/yellow.png","null","trial","32","false","0.8,0.2","1:go_a","",""
"null","","html-keyboard-response","353","572816","0.0-6.0-1.44","","<img src=""img/yellow-n.png"">","null","trial","32","","0.8,0.2","1:go_a","0",""
"null","","html-keyboard-response","354","573816","0.0-6.0-2.44","","<div style=""font-size:60px;"">+</div>","null","","","","","","",""
"null","","image-keyboard-response","355","575324","0.0-6.0-0.45","","img/green.png","null","trial","32","false","1,0","3:go_c","",""
"null","","html-keyboard-response","356","576333","0.0-6.0-1.45","","<img src=""img/green-n.png"">","null","trial","32","","1,0","3:go_c","0",""
"null","","html-keyboard-response","357","577342","0.0-6.0-2.45","","<div style=""font-size:60px;"">+</div>","null","","","","","","",""
"null","","image-keyboard-response","358","578845","0.0-6.0-0.46","","img/orange.png","null","trial","null","true","0.2,0.8","2:nogo_b","",""
"null","","html-keyboard-response","359","579853","0.0-6.0-1.46","","<img src=""img/orange-r.png"">","null","trial","null","","0.2,0.8","2:nogo_b","1",""
"null","","html-keyboard-response","360","580862","0.0-6.0-2.46","","<div style=""font-size:60px;"">+</div>","null","","","","","","",""
"null","","image-keyboard-response","361","582363","0.0-6.0-0.47","","img/red.png","null","trial","null","true","0,1","4:nogo_d","",""
"null","","html-keyboard-response","362","583371","0.0-6.0-1.47","","<img src=""img/red-r.png"">","null","trial","null","","0,1","4:nogo_d","1",""
"null","","html-keyboard-response","363","584380","0.0-6.0-2.47","","<div style=""font-size:60px;"">+</div>","null","","","","","","",""
"388","","image-keyboard-response","364","584769","0.0-6.0-0.48","","img/green.png","32","trial","32","true","1,0","3:go_c","",""
"null","","html-keyboard-response","365","585778","0.0-6.0-1.48","","<img src=""img/green-r.png"" border=""10"">","null","trial","32","","1,0","3:go_c","1",""
"null","","html-keyboard-response","366","586786","0.0-6.0-2.48","","<div style=""font-size:60px;"">+</div>","null","","","","","","",""
"null","","image-keyboard-response","367","588290","0.0-6.0-0.49","","img/red.png","null","trial","null","true","0,1","4:nogo_d","",""
"null","","html-keyboard-response","368","589298","0.0-6.0-1.49","","<img src=""img/red-r.png"">","null","trial","null","","0,1","4:nogo_d","1",""
"null","","html-keyboard-response","369","590307","0.0-6.0-2.49","","<div style=""font-size:60px;"">+</div>","null","","","","","","",""
"533","","image-keyboard-response","370","590841","0.0-6.0-0.50","","img/yellow.png","32","trial","32","true","0.8,0.2","1:go_a","",""
"null","","html-keyboard-response","371","591852","0.0-6.0-1.50","","<img src=""img/yellow-r.png"" border=""10"">","null","trial","32","","0.8,0.2","1:go_a","1",""
"null","","html-keyboard-response","372","592861","0.0-6.0-2.50","","<div style=""font-size:60px;"">+</div>","null","","","","","","",""
"1132","","image-keyboard-response","373","593993","0.0-6.0-0.51","","img/orange.png","32","trial","null","false","0.2,0.8","2:nogo_b","",""
"null","","html-keyboard-response","374","594994","0.0-6.0-1.51","","<img src=""img/orange-n.png"" border=""10"">","null","trial","null","","0.2,0.8","2:nogo_b","0",""
"null","","html-keyboard-response","375","596011","0.0-6.0-2.51","","<div style=""font-size:60px;"">+</div>","null","","","","","","",""
"934","","image-keyboard-response","376","596945","0.0-6.0-0.52","","img/orange.png","32","trial","null","false","0.2,0.8","2:nogo_b","",""
"null","","html-keyboard-response","377","597961","0.0-6.0-1.52","","<img src=""img/orange-r.png"" border=""10"">","null","trial","null","","0.2,0.8","2:nogo_b","1",""
"null","","html-keyboard-response","378","598969","0.0-6.0-2.52","","<div style=""font-size:60px;"">+</div>","null","","","","","","",""
"null","","image-keyboard-response","379","600474","0.0-6.0-0.53","","img/red.png","null","trial","null","true","0,1","4:nogo_d","",""
"null","","html-keyboard-response","380","601481","0.0-6.0-1.53","","<img src=""img/red-r.png"">","null","trial","null","","0,1","4:nogo_d","1",""
"null","","html-keyboard-response","381","602488","0.0-6.0-2.53","","<div style=""font-size:60px;"">+</div>","null","","","","","","",""
"760","","image-keyboard-response","382","603249","0.0-6.0-0.54","","img/yellow.png","32","trial","32","true","0.8,0.2","1:go_a","",""
"null","","html-keyboard-response","383","604255","0.0-6.0-1.54","","<img src=""img/yellow-r.png"" border=""10"">","null","trial","32","","0.8,0.2","1:go_a","1",""
"null","","html-keyboard-response","384","605267","0.0-6.0-2.54","","<div style=""font-size:60px;"">+</div>","null","","","","","","",""
"669","","image-keyboard-response","385","605937","0.0-6.0-0.55","","img/green.png","32","trial","32","true","1,0","3:go_c","",""
"null","","html-keyboard-response","386","606943","0.0-6.0-1.55","","<img src=""img/green-r.png"" border=""10"">","null","trial","32","","1,0","3:go_c","1",""
"null","","html-keyboard-response","387","607951","0.0-6.0-2.55","","<div style=""font-size:60px;"">+</div>","null","","","","","","",""
"778","","image-keyboard-response","388","608729","0.0-6.0-0.56","","img/green.png","32","trial","32","true","1,0","3:go_c","",""
"null","","html-keyboard-response","389","609732","0.0-6.0-1.56","","<img src=""img/green-r.png"" border=""10"">","null","trial","32","","1,0","3:go_c","1",""
"null","","html-keyboard-response","390","610746","0.0-6.0-2.56","","<div style=""font-size:60px;"">+</div>","null","","","","","","",""
"null","","image-keyboard-response","391","612249","0.0-6.0-0.57","","img/yellow.png","null","trial","32","false","0.8,0.2","1:go_a","",""
"null","","html-keyboard-response","392","613257","0.0-6.0-1.57","","<img src=""img/yellow-n.png"">","null","trial","32","","0.8,0.2","1:go_a","0",""
"null","","html-keyboard-response","393","614265","0.0-6.0-2.57","","<div style=""font-size:60px;"">+</div>","null","","","","","","",""
"null","","image-keyboard-response","394","615780","0.0-6.0-0.58","","img/red.png","null","trial","null","true","0,1","4:nogo_d","",""
"null","","html-keyboard-response","395","616789","0.0-6.0-1.58","","<img src=""img/red-r.png"">","null","trial","null","","0,1","4:nogo_d","1",""
"null","","html-keyboard-response","396","617794","0.0-6.0-2.58","","<div style=""font-size:60px;"">+</div>","null","","","","","","",""
"null","","image-keyboard-response","397","619297","0.0-6.0-0.59","","img/orange.png","null","trial","null","true","0.2,0.8","2:nogo_b","",""
"null","","html-keyboard-response","398","620304","0.0-6.0-1.59","","<img src=""img/orange-r.png"">","null","trial","null","","0.2,0.8","2:nogo_b","1",""
"null","","html-keyboard-response","399","621311","0.0-6.0-2.59","","<div style=""font-size:60px;"">+</div>","null","","","","","","",""
"864","","image-keyboard-response","400","622177","0.0-6.0-0.60","","img/yellow.png","32","trial","32","true","0.8,0.2","1:go_a","",""
"null","","html-keyboard-response","401","623179","0.0-6.0-1.60","","<img src=""img/yellow-r.png"" border=""10"">","null","trial","32","","0.8,0.2","1:go_a","1",""
"null","","html-keyboard-response","402","624191","0.0-6.0-2.60","","<div style=""font-size:60px;"">+</div>","null","","","","","","",""
"408","","image-keyboard-response","403","624601","0.0-6.0-0.61","","img/green.png","32","trial","32","true","1,0","3:go_c","",""
"null","","html-keyboard-response","404","625608","0.0-6.0-1.61","","<img src=""img/green-r.png"" border=""10"">","null","trial","32","","1,0","3:go_c","1",""
"null","","html-keyboard-response","405","626616","0.0-6.0-2.61","","<div style=""font-size:60px;"">+</div>","null","","","","","","",""
"null","","image-keyboard-response","406","628124","0.0-6.0-0.62","","img/red.png","null","trial","null","true","0,1","4:nogo_d","",""
"null","","html-keyboard-response","407","629139","0.0-6.0-1.62","","<img src=""img/red-r.png"">","null","trial","null","","0,1","4:nogo_d","1",""
"null","","html-keyboard-response","408","630147","0.0-6.0-2.62","","<div style=""font-size:60px;"">+</div>","null","","","","","","",""
"629","","image-keyboard-response","409","630778","0.0-6.0-0.63","","img/orange.png","32","trial","null","false","0.2,0.8","2:nogo_b","",""
"null","","html-keyboard-response","410","631778","0.0-6.0-1.63","","<img src=""img/orange-n.png"" border=""10"">","null","trial","null","","0.2,0.8","2:nogo_b","0",""
"null","","html-keyboard-response","411","632787","0.0-6.0-2.63","","<div style=""font-size:60px;"">+</div>","null","","","","","","",""
"743","","image-keyboard-response","412","633530","0.0-6.0-0.64","","img/orange.png","32","trial","null","false","0.2,0.8","2:nogo_b","",""
"null","","html-keyboard-response","413","634545","0.0-6.0-1.64","","<img src=""img/orange-n.png"" border=""10"">","null","trial","null","","0.2,0.8","2:nogo_b","0",""
"null","","html-keyboard-response","414","635550","0.0-6.0-2.64","","<div style=""font-size:60px;"">+</div>","null","","","","","","",""
"null","","image-keyboard-response","415","637053","0.0-6.0-0.65","","img/red.png","null","trial","null","true","0,1","4:nogo_d","",""
"null","","html-keyboard-response","416","638061","0.0-6.0-1.65","","<img src=""img/red-r.png"">","null","trial","null","","0,1","4:nogo_d","1",""
"null","","html-keyboard-response","417","639070","0.0-6.0-2.65","","<div style=""font-size:60px;"">+</div>","null","","","","","","",""
"1098","","image-keyboard-response","418","640169","0.0-6.0-0.66","","img/yellow.png","32","trial","32","true","0.8,0.2","1:go_a","",""
"null","","html-keyboard-response","419","641182","0.0-6.0-1.66","","<img src=""img/yellow-r.png"" border=""10"">","null","trial","32","","0.8,0.2","1:go_a","1",""
"null","","html-keyboard-response","420","642192","0.0-6.0-2.66","","<div style=""font-size:60px;"">+</div>","null","","","","","","",""
"522","","image-keyboard-response","421","642713","0.0-6.0-0.67","","img/green.png","32","trial","32","true","1,0","3:go_c","",""
"null","","html-keyboard-response","422","643724","0.0-6.0-1.67","","<img src=""img/green-r.png"" border=""10"">","null","trial","32","","1,0","3:go_c","1",""
"null","","html-keyboard-response","423","644731","0.0-6.0-2.67","","<div style=""font-size:60px;"">+</div>","null","","","","","","",""
"909","","image-keyboard-response","424","645641","0.0-6.0-0.68","","img/yellow.png","32","trial","32","true","0.8,0.2","1:go_a","",""
"null","","html-keyboard-response","425","646653","0.0-6.0-1.68","","<img src=""img/yellow-r.png"" border=""10"">","null","trial","32","","0.8,0.2","1:go_a","1",""
"null","","html-keyboard-response","426","647665","0.0-6.0-2.68","","<div style=""font-size:60px;"">+</div>","null","","","","","","",""
"null","","image-keyboard-response","427","649178","0.0-6.0-0.69","","img/red.png","null","trial","null","true","0,1","4:nogo_d","",""
"null","","html-keyboard-response","428","650184","0.0-6.0-1.69","","<img src=""img/red-r.png"">","null","trial","null","","0,1","4:nogo_d","1",""
"null","","html-keyboard-response","429","651189","0.0-6.0-2.69","","<div style=""font-size:60px;"">+</div>","null","","","","","","",""
"516","","image-keyboard-response","430","651705","0.0-6.0-0.70","","img/green.png","32","trial","32","true","1,0","3:go_c","",""
"null","","html-keyboard-response","431","652707","0.0-6.0-1.70","","<img src=""img/green-r.png"" border=""10"">","null","trial","32","","1,0","3:go_c","1",""
"null","","html-keyboard-response","432","653716","0.0-6.0-2.70","","<div style=""font-size:60px;"">+</div>","null","","","","","","",""
"null","","image-keyboard-response","433","655230","0.0-6.0-0.71","","img/orange.png","null","trial","null","true","0.2,0.8","2:nogo_b","",""
"null","","html-keyboard-response","434","656235","0.0-6.0-1.71","","<img src=""img/orange-r.png"">","null","trial","null","","0.2,0.8","2:nogo_b","1",""
"null","","html-keyboard-response","435","657243","0.0-6.0-2.71","","<div style=""font-size:60px;"">+</div>","null","","","","","","",""
"855","","image-keyboard-response","436","658098","0.0-6.0-0.72","","img/yellow.png","32","trial","32","true","0.8,0.2","1:go_a","",""
"null","","html-keyboard-response","437","659102","0.0-6.0-1.72","","<img src=""img/yellow-r.png"" border=""10"">","null","trial","32","","0.8,0.2","1:go_a","1",""
"null","","html-keyboard-response","438","660108","0.0-6.0-2.72","","<div style=""font-size:60px;"">+</div>","null","","","","","","",""
"null","","image-keyboard-response","439","661616","0.0-6.0-0.73","","img/orange.png","null","trial","null","true","0.2,0.8","2:nogo_b","",""
"null","","html-keyboard-response","440","662626","0.0-6.0-1.73","","<img src=""img/orange-n.png"">","null","trial","null","","0.2,0.8","2:nogo_b","0",""
"null","","html-keyboard-response","441","663637","0.0-6.0-2.73","","<div style=""font-size:60px;"">+</div>","null","","","","","","",""
"827","","image-keyboard-response","442","664465","0.0-6.0-0.74","","img/green.png","32","trial","32","true","1,0","3:go_c","",""
"null","","html-keyboard-response","443","665469","0.0-6.0-1.74","","<img src=""img/green-r.png"" border=""10"">","null","trial","32","","1,0","3:go_c","1",""
"null","","html-keyboard-response","444","666475","0.0-6.0-2.74","","<div style=""font-size:60px;"">+</div>","null","","","","","","",""
"null","","image-keyboard-response","445","667988","0.0-6.0-0.75","","img/red.png","null","trial","null","true","0,1","4:nogo_d","",""
"null","","html-keyboard-response","446","668990","0.0-6.0-1.75","","<img src=""img/red-r.png"">","null","trial","null","","0,1","4:nogo_d","1",""
"null","","html-keyboard-response","447","669999","0.0-6.0-2.75","","<div style=""font-size:60px;"">+</div>","null","","","","","","",""
"null","","image-keyboard-response","448","671507","0.0-6.0-0.76","","img/orange.png","null","trial","null","true","0.2,0.8","2:nogo_b","",""
"null","","html-keyboard-response","449","672514","0.0-6.0-1.76","","<img src=""img/orange-r.png"">","null","trial","null","","0.2,0.8","2:nogo_b","1",""
"null","","html-keyboard-response","450","673524","0.0-6.0-2.76","","<div style=""font-size:60px;"">+</div>","null","","","","","","",""
"701","","image-keyboard-response","451","674226","0.0-6.0-0.77","","img/green.png","32","trial","32","true","1,0","3:go_c","",""
"null","","html-keyboard-response","452","675232","0.0-6.0-1.77","","<img src=""img/green-r.png"" border=""10"">","null","trial","32","","1,0","3:go_c","1",""
"null","","html-keyboard-response","453","676240","0.0-6.0-2.77","","<div style=""font-size:60px;"">+</div>","null","","","","","","",""
"null","","image-keyboard-response","454","677749","0.0-6.0-0.78","","img/red.png","null","trial","null","true","0,1","4:nogo_d","",""
"null","","html-keyboard-response","455","678753","0.0-6.0-1.78","","<img src=""img/red-r.png"">","null","trial","null","","0,1","4:nogo_d","1",""
"null","","html-keyboard-response","456","679765","0.0-6.0-2.78","","<div style=""font-size:60px;"">+</div>","null","","","","","","",""
"940","","image-keyboard-response","457","680705","0.0-6.0-0.79","","img/yellow.png","32","trial","32","true","0.8,0.2","1:go_a","",""
"null","","html-keyboard-response","458","681719","0.0-6.0-1.79","","<img src=""img/yellow-r.png"" border=""10"">","null","trial","32","","0.8,0.2","1:go_a","1",""
"null","","html-keyboard-response","459","682732","0.0-6.0-2.79","","<div style=""font-size:60px;"">+</div>","null","","","","","","",""
"null","","image-keyboard-response","460","684238","0.0-6.0-0.80","","img/red.png","null","trial","null","true","0,1","4:nogo_d","",""
"null","","html-keyboard-response","461","685245","0.0-6.0-1.80","","<img src=""img/red-r.png"">","null","trial","null","","0,1","4:nogo_d","1",""
"null","","html-keyboard-response","462","686252","0.0-6.0-2.80","","<div style=""font-size:60px;"">+</div>","null","","","","","","",""
"1381","","image-keyboard-response","463","687634","0.0-6.0-0.81","","img/yellow.png","32","trial","32","true","0.8,0.2","1:go_a","",""
"null","","html-keyboard-response","464","688639","0.0-6.0-1.81","","<img src=""img/yellow-r.png"" border=""10"">","null","trial","32","","0.8,0.2","1:go_a","1",""
"null","","html-keyboard-response","465","689649","0.0-6.0-2.81","","<div style=""font-size:60px;"">+</div>","null","","","","","","",""
"744","","image-keyboard-response","466","690393","0.0-6.0-0.82","","img/green.png","32","trial","32","true","1,0","3:go_c","",""
"null","","html-keyboard-response","467","691394","0.0-6.0-1.82","","<img src=""img/green-r.png"" border=""10"">","null","trial","32","","1,0","3:go_c","1",""
"null","","html-keyboard-response","468","692404","0.0-6.0-2.82","","<div style=""font-size:60px;"">+</div>","null","","","","","","",""
"null","","image-keyboard-response","469","693916","0.0-6.0-0.83","","img/orange.png","null","trial","null","true","0.2,0.8","2:nogo_b","",""
"null","","html-keyboard-response","470","694932","0.0-6.0-1.83","","<img src=""img/orange-r.png"">","null","trial","null","","0.2,0.8","2:nogo_b","1",""
"null","","html-keyboard-response","471","695943","0.0-6.0-2.83","","<div style=""font-size:60px;"">+</div>","null","","","","","","",""
"null","","image-keyboard-response","472","697451","0.0-6.0-0.84","","img/orange.png","null","trial","null","true","0.2,0.8","2:nogo_b","",""
"null","","html-keyboard-response","473","698457","0.0-6.0-1.84","","<img src=""img/orange-n.png"">","null","trial","null","","0.2,0.8","2:nogo_b","0",""
"null","","html-keyboard-response","474","699464","0.0-6.0-2.84","","<div style=""font-size:60px;"">+</div>","null","","","","","","",""
"952","","image-keyboard-response","475","700417","0.0-6.0-0.85","","img/green.png","32","trial","32","true","1,0","3:go_c","",""
"null","","html-keyboard-response","476","701423","0.0-6.0-1.85","","<img src=""img/green-r.png"" border=""10"">","null","trial","32","","1,0","3:go_c","1",""
"null","","html-keyboard-response","477","702430","0.0-6.0-2.85","","<div style=""font-size:60px;"">+</div>","null","","","","","","",""
"867","","image-keyboard-response","478","703298","0.0-6.0-0.86","","img/yellow.png","32","trial","32","true","0.8,0.2","1:go_a","",""
"null","","html-keyboard-response","479","704307","0.0-6.0-1.86","","<img src=""img/yellow-r.png"" border=""10"">","null","trial","32","","0.8,0.2","1:go_a","1",""
"null","","html-keyboard-response","480","705318","0.0-6.0-2.86","","<div style=""font-size:60px;"">+</div>","null","","","","","","",""
"null","","image-keyboard-response","481","706833","0.0-6.0-0.87","","img/red.png","null","trial","null","true","0,1","4:nogo_d","",""
"null","","html-keyboard-response","482","707844","0.0-6.0-1.87","","<img src=""img/red-r.png"">","null","trial","null","","0,1","4:nogo_d","1",""
"null","","html-keyboard-response","483","708851","0.0-6.0-2.87","","<div style=""font-size:60px;"">+</div>","null","","","","","","",""
"798","","image-keyboard-response","484","709650","0.0-6.0-0.88","","img/yellow.png","32","trial","32","true","0.8,0.2","1:go_a","",""
"null","","html-keyboard-response","485","710658","0.0-6.0-1.88","","<img src=""img/yellow-n.png"" border=""10"">","null","trial","32","","0.8,0.2","1:go_a","0",""
"null","","html-keyboard-response","486","711669","0.0-6.0-2.88","","<div style=""font-size:60px;"">+</div>","null","","","","","","",""
"null","","image-keyboard-response","487","713173","0.0-6.0-0.89","","img/red.png","null","trial","null","true","0,1","4:nogo_d","",""
"null","","html-keyboard-response","488","714182","0.0-6.0-1.89","","<img src=""img/red-r.png"">","null","trial","null","","0,1","4:nogo_d","1",""
"null","","html-keyboard-response","489","715189","0.0-6.0-2.89","","<div style=""font-size:60px;"">+</div>","null","","","","","","",""
"null","","image-keyboard-response","490","716699","0.0-6.0-0.90","","img/orange.png","null","trial","null","true","0.2,0.8","2:nogo_b","",""
"null","","html-keyboard-response","491","717703","0.0-6.0-1.90","","<img src=""img/orange-n.png"">","null","trial","null","","0.2,0.8","2:nogo_b","0",""
"null","","html-keyboard-response","492","718713","0.0-6.0-2.90","","<div style=""font-size:60px;"">+</div>","null","","","","","","",""
"416","","image-keyboard-response","493","719129","0.0-6.0-0.91","","img/green.png","32","trial","32","true","1,0","3:go_c","",""
"null","","html-keyboard-response","494","720144","0.0-6.0-1.91","","<img src=""img/green-r.png"" border=""10"">","null","trial","32","","1,0","3:go_c","1",""
"null","","html-keyboard-response","495","721149","0.0-6.0-2.91","","<div style=""font-size:60px;"">+</div>","null","","","","","","",""
"547","","image-keyboard-response","496","721697","0.0-6.0-0.92","","img/green.png","32","trial","32","true","1,0","3:go_c","",""
"null","","html-keyboard-response","497","722713","0.0-6.0-1.92","","<img src=""img/green-r.png"" border=""10"">","null","trial","32","","1,0","3:go_c","1",""
"null","","html-keyboard-response","498","723726","0.0-6.0-2.92","","<div style=""font-size:60px;"">+</div>","null","","","","","","",""
"null","","image-keyboard-response","499","725235","0.0-6.0-0.93","","img/red.png","null","trial","null","true","0,1","4:nogo_d","",""
"null","","html-keyboard-response","500","726250","0.0-6.0-1.93","","<img src=""img/red-r.png"">","null","trial","null","","0,1","4:nogo_d","1",""
"null","","html-keyboard-response","501","727265","0.0-6.0-2.93","","<div style=""font-size:60px;"">+</div>","null","","","","","","",""
"680","","image-keyboard-response","502","727945","0.0-6.0-0.94","","img/orange.png","32","trial","null","false","0.2,0.8","2:nogo_b","",""
"null","","html-keyboard-response","503","728947","0.0-6.0-1.94","","<img src=""img/orange-r.png"" border=""10"">","null","trial","null","","0.2,0.8","2:nogo_b","1",""
"null","","html-keyboard-response","504","729957","0.0-6.0-2.94","","<div style=""font-size:60px;"">+</div>","null","","","","","","",""
"723","","image-keyboard-response","505","730681","0.0-6.0-0.95","","img/yellow.png","32","trial","32","true","0.8,0.2","1:go_a","",""
"null","","html-keyboard-response","506","731690","0.0-6.0-1.95","","<img src=""img/yellow-r.png"" border=""10"">","null","trial","32","","0.8,0.2","1:go_a","1",""
"null","","html-keyboard-response","507","732701","0.0-6.0-2.95","","<div style=""font-size:60px;"">+</div>","null","","","","","","",""
"null","","image-keyboard-response","508","734207","0.0-6.0-0.96","","img/red.png","null","trial","null","true","0,1","4:nogo_d","",""
"null","","html-keyboard-response","509","735218","0.0-6.0-1.96","","<img src=""img/red-r.png"">","null","trial","null","","0,1","4:nogo_d","1",""
"null","","html-keyboard-response","510","736224","0.0-6.0-2.96","","<div style=""font-size:60px;"">+</div>","null","","","","","","",""
"496","","image-keyboard-response","511","736721","0.0-6.0-0.97","","img/yellow.png","32","trial","32","true","0.8,0.2","1:go_a","",""
"null","","html-keyboard-response","512","737727","0.0-6.0-1.97","","<img src=""img/yellow-r.png"" border=""10"">","null","trial","32","","0.8,0.2","1:go_a","1",""
"null","","html-keyboard-response","513","738737","0.0-6.0-2.97","","<div style=""font-size:60px;"">+</div>","null","","","","","","",""
"847","","image-keyboard-response","514","739585","0.0-6.0-0.98","","img/green.png","32","trial","32","true","1,0","3:go_c","",""
"null","","html-keyboard-response","515","740594","0.0-6.0-1.98","","<img src=""img/green-r.png"" border=""10"">","null","trial","32","","1,0","3:go_c","1",""
"null","","html-keyboard-response","516","741605","0.0-6.0-2.98","","<div style=""font-size:60px;"">+</div>","null","","","","","","",""
"819","","image-keyboard-response","517","742425","0.0-6.0-0.99","","img/orange.png","32","trial","null","false","0.2,0.8","2:nogo_b","",""
"null","","html-keyboard-response","518","743428","0.0-6.0-1.99","","<img src=""img/orange-n.png"" border=""10"">","null","trial","null","","0.2,0.8","2:nogo_b","0",""
"null","","html-keyboard-response","519","744439","0.0-6.0-2.99","","<div style=""font-size:60px;"">+</div>","null","","","","","","",""
"553","","image-keyboard-response","520","744993","0.0-6.0-0.100","","img/yellow.png","32","trial","32","true","0.8,0.2","1:go_a","",""
"null","","html-keyboard-response","521","745996","0.0-6.0-1.100","","<img src=""img/yellow-r.png"" border=""10"">","null","trial","32","","0.8,0.2","1:go_a","1",""
"null","","html-keyboard-response","522","747007","0.0-6.0-2.100","","<div style=""font-size:60px;"">+</div>","null","","","","","","",""
"543","","image-keyboard-response","523","747552","0.0-6.0-0.101","","img/green.png","32","trial","32","true","1,0","3:go_c","",""
"null","","html-keyboard-response","524","748562","0.0-6.0-1.101","","<img src=""img/green-r.png"" border=""10"">","null","trial","32","","1,0","3:go_c","1",""
"null","","html-keyboard-response","525","749569","0.0-6.0-2.101","","<div style=""font-size:60px;"">+</div>","null","","","","","","",""
"887","","image-keyboard-response","526","750457","0.0-6.0-0.102","","img/orange.png","32","trial","null","false","0.2,0.8","2:nogo_b","",""
"null","","html-keyboard-response","527","751459","0.0-6.0-1.102","","<img src=""img/orange-n.png"" border=""10"">","null","trial","null","","0.2,0.8","2:nogo_b","0",""
"null","","html-keyboard-response","528","752469","0.0-6.0-2.102","","<div style=""font-size:60px;"">+</div>","null","","","","","","",""
"null","","image-keyboard-response","529","753972","0.0-6.0-0.103","","img/red.png","null","trial","null","true","0,1","4:nogo_d","",""
"null","","html-keyboard-response","530","754983","0.0-6.0-1.103","","<img src=""img/red-r.png"">","null","trial","null","","0,1","4:nogo_d","1",""
"null","","html-keyboard-response","531","755989","0.0-6.0-2.103","","<div style=""font-size:60px;"">+</div>","null","","","","","","",""
"395","","image-keyboard-response","532","756386","0.0-6.0-0.104","","img/green.png","32","trial","32","true","1,0","3:go_c","",""
"null","","html-keyboard-response","533","757393","0.0-6.0-1.104","","<img src=""img/green-r.png"" border=""10"">","null","trial","32","","1,0","3:go_c","1",""
"null","","html-keyboard-response","534","758403","0.0-6.0-2.104","","<div style=""font-size:60px;"">+</div>","null","","","","","","",""
"957","","image-keyboard-response","535","759362","0.0-6.0-0.105","","img/orange.png","32","trial","null","false","0.2,0.8","2:nogo_b","",""
"null","","html-keyboard-response","536","760366","0.0-6.0-1.105","","<img src=""img/orange-n.png"" border=""10"">","null","trial","null","","0.2,0.8","2:nogo_b","0",""
"null","","html-keyboard-response","537","761375","0.0-6.0-2.105","","<div style=""font-size:60px;"">+</div>","null","","","","","","",""
"null","","image-keyboard-response","538","762886","0.0-6.0-0.106","","img/red.png","null","trial","null","true","0,1","4:nogo_d","",""
"null","","html-keyboard-response","539","763891","0.0-6.0-1.106","","<img src=""img/red-r.png"">","null","trial","null","","0,1","4:nogo_d","1",""
"null","","html-keyboard-response","540","764898","0.0-6.0-2.106","","<div style=""font-size:60px;"">+</div>","null","","","","","","",""
"574","","image-keyboard-response","541","765473","0.0-6.0-0.107","","img/yellow.png","32","trial","32","true","0.8,0.2","1:go_a","",""
"null","","html-keyboard-response","542","766481","0.0-6.0-1.107","","<img src=""img/yellow-r.png"" border=""10"">","null","trial","32","","0.8,0.2","1:go_a","1",""
"null","","html-keyboard-response","543","767485","0.0-6.0-2.107","","<div style=""font-size:60px;"">+</div>","null","","","","","","",""
"null","","image-keyboard-response","544","768999","0.0-6.0-0.108","","img/red.png","null","trial","null","true","0,1","4:nogo_d","",""
"null","","html-keyboard-response","545","770012","0.0-6.0-1.108","","<img src=""img/red-r.png"">","null","trial","null","","0,1","4:nogo_d","1",""
"null","","html-keyboard-response","546","771021","0.0-6.0-2.108","","<div style=""font-size:60px;"">+</div>","null","","","","","","",""
"564","","image-keyboard-response","547","771585","0.0-6.0-0.109","","img/green.png","32","trial","32","true","1,0","3:go_c","",""
"null","","html-keyboard-response","548","772599","0.0-6.0-1.109","","<img src=""img/green-r.png"" border=""10"">","null","trial","32","","1,0","3:go_c","1",""
"null","","html-keyboard-response","549","773605","0.0-6.0-2.109","","<div style=""font-size:60px;"">+</div>","null","","","","","","",""
"683","","image-keyboard-response","550","774290","0.0-6.0-0.110","","img/yellow.png","32","trial","32","true","0.8,0.2","1:go_a","",""
"null","","html-keyboard-response","551","775301","0.0-6.0-1.110","","<img src=""img/yellow-n.png"" border=""10"">","null","trial","32","","0.8,0.2","1:go_a","0",""
"null","","html-keyboard-response","552","776308","0.0-6.0-2.110","","<div style=""font-size:60px;"">+</div>","null","","","","","","",""
"381","","image-keyboard-response","553","776689","0.0-6.0-0.111","","img/orange.png","32","trial","null","false","0.2,0.8","2:nogo_b","",""
"null","","html-keyboard-response","554","777700","0.0-6.0-1.111","","<img src=""img/orange-n.png"" border=""10"">","null","trial","null","","0.2,0.8","2:nogo_b","0",""
"null","","html-keyboard-response","555","778709","0.0-6.0-2.111","","<div style=""font-size:60px;"">+</div>","null","","","","","","",""
"643","","image-keyboard-response","556","779353","0.0-6.0-0.112","","img/green.png","32","trial","32","true","1,0","3:go_c","",""
"null","","html-keyboard-response","557","780367","0.0-6.0-1.112","","<img src=""img/green-r.png"" border=""10"">","null","trial","32","","1,0","3:go_c","1",""
"null","","html-keyboard-response","558","781375","0.0-6.0-2.112","","<div style=""font-size:60px;"">+</div>","null","","","","","","",""
"490","","image-keyboard-response","559","781865","0.0-6.0-0.113","","img/yellow.png","32","trial","32","true","0.8,0.2","1:go_a","",""
"null","","html-keyboard-response","560","782867","0.0-6.0-1.113","","<img src=""img/yellow-r.png"" border=""10"">","null","trial","32","","0.8,0.2","1:go_a","1",""
"null","","html-keyboard-response","561","783873","0.0-6.0-2.113","","<div style=""font-size:60px;"">+</div>","null","","","","","","",""
"503","","image-keyboard-response","562","784377","0.0-6.0-0.114","","img/orange.png","32","trial","null","false","0.2,0.8","2:nogo_b","",""
"null","","html-keyboard-response","563","785379","0.0-6.0-1.114","","<img src=""img/orange-n.png"" border=""10"">","null","trial","null","","0.2,0.8","2:nogo_b","0",""
"null","","html-keyboard-response","564","786388","0.0-6.0-2.114","","<div style=""font-size:60px;"">+</div>","null","","","","","","",""
"null","","image-keyboard-response","565","787894","0.0-6.0-0.115","","img/red.png","null","trial","null","true","0,1","4:nogo_d","",""
"null","","html-keyboard-response","566","788902","0.0-6.0-1.115","","<img src=""img/red-r.png"">","null","trial","null","","0,1","4:nogo_d","1",""
"null","","html-keyboard-response","567","789911","0.0-6.0-2.115","","<div style=""font-size:60px;"">+</div>","null","","","","","","",""
"null","","image-keyboard-response","568","791419","0.0-6.0-0.116","","img/orange.png","null","trial","null","true","0.2,0.8","2:nogo_b","",""
"null","","html-keyboard-response","569","792432","0.0-6.0-1.116","","<img src=""img/orange-r.png"">","null","trial","null","","0.2,0.8","2:nogo_b","1",""
"null","","html-keyboard-response","570","793446","0.0-6.0-2.116","","<div style=""font-size:60px;"">+</div>","null","","","","","","",""
"null","","image-keyboard-response","571","794958","0.0-6.0-0.117","","img/red.png","null","trial","null","true","0,1","4:nogo_d","",""
"null","","html-keyboard-response","572","795968","0.0-6.0-1.117","","<img src=""img/red-r.png"">","null","trial","null","","0,1","4:nogo_d","1",""
"null","","html-keyboard-response","573","796978","0.0-6.0-2.117","","<div style=""font-size:60px;"">+</div>","null","","","","","","",""
"694","","image-keyboard-response","574","797673","0.0-6.0-0.118","","img/yellow.png","32","trial","32","true","0.8,0.2","1:go_a","",""
"null","","html-keyboard-response","575","798674","0.0-6.0-1.118","","<img src=""img/yellow-r.png"" border=""10"">","null","trial","32","","0.8,0.2","1:go_a","1",""
"null","","html-keyboard-response","576","799687","0.0-6.0-2.118","","<div style=""font-size:60px;"">+</div>","null","","","","","","",""
"851","","image-keyboard-response","577","800537","0.0-6.0-0.119","","img/green.png","32","trial","32","true","1,0","3:go_c","",""
"null","","html-keyboard-response","578","801548","0.0-6.0-1.119","","<img src=""img/green-r.png"" border=""10"">","null","trial","32","","1,0","3:go_c","1",""
"null","","html-keyboard-response","579","802555","0.0-6.0-2.119","","<div style=""font-size:60px;"">+</div>","null","","","","","","",""
"23377","","instructions","580","825932","0.0-7.0","[{""page_index"":0,""viewing_time"":23377}]","","","","","","","","",""
"925","","image-keyboard-response","581","826857","0.0-8.0-0.0","","img/green.png","32","trial","null","false","0.4,0.6","2:nogo_b","",""
"null","","html-keyboard-response","582","827863","0.0-8.0-1.0","","<img src=""img/green-n.png"" border=""10"">","null","trial","null","","0.4,0.6","2:nogo_b","0",""
"null","","html-keyboard-response","583","828872","0.0-8.0-2.0","","<div style=""font-size:60px;"">+</div>","null","","","","","","",""
"872","","image-keyboard-response","584","829746","0.0-8.0-0.1","","img/pink.png","32","trial","32","true","0.6,0.4","1:go_a","",""
"null","","html-keyboard-response","585","830754","0.0-8.0-1.1","","<img src=""img/pink-r.png"" border=""10"">","null","trial","32","","0.6,0.4","1:go_a","1",""
"null","","html-keyboard-response","586","831761","0.0-8.0-2.1","","<div style=""font-size:60px;"">+</div>","null","","","","","","",""
"966","","image-keyboard-response","587","832729","0.0-8.0-0.2","","img/orange.png","32","trial","32","true","0.6,0.4","3:go_c","",""
"null","","html-keyboard-response","588","833745","0.0-8.0-1.2","","<img src=""img/orange-r.png"" border=""10"">","null","trial","32","","0.6,0.4","3:go_c","1",""
"null","","html-keyboard-response","589","834752","0.0-8.0-2.2","","<div style=""font-size:60px;"">+</div>","null","","","","","","",""
"null","","image-keyboard-response","590","836261","0.0-8.0-0.3","","img/blue.png","null","trial","null","true","0.4,0.6","4:nogo_d","",""
"null","","html-keyboard-response","591","837267","0.0-8.0-1.3","","<img src=""img/blue-r.png"">","null","trial","null","","0.4,0.6","4:nogo_d","1",""
"null","","html-keyboard-response","592","838278","0.0-8.0-2.3","","<div style=""font-size:60px;"">+</div>","null","","","","","","",""
"801","","image-keyboard-response","593","839081","0.0-8.0-0.4","","img/pink.png","32","trial","32","true","0.6,0.4","1:go_a","",""
"null","","html-keyboard-response","594","840091","0.0-8.0-1.4","","<img src=""img/pink-n.png"" border=""10"">","null","trial","32","","0.6,0.4","1:go_a","0",""
"null","","html-keyboard-response","595","841099","0.0-8.0-2.4","","<div style=""font-size:60px;"">+</div>","null","","","","","","",""
"719","","image-keyboard-response","596","841817","0.0-8.0-0.5","","img/orange.png","32","trial","32","true","0.6,0.4","3:go_c","",""
"null","","html-keyboard-response","597","842823","0.0-8.0-1.5","","<img src=""img/orange-r.png"" border=""10"">","null","trial","32","","0.6,0.4","3:go_c","1",""
"null","","html-keyboard-response","598","843831","0.0-8.0-2.5","","<div style=""font-size:60px;"">+</div>","null","","","","","","",""
"865","","image-keyboard-response","599","844697","0.0-8.0-0.6","","img/green.png","32","trial","null","false","0.4,0.6","2:nogo_b","",""
"null","","html-keyboard-response","600","845706","0.0-8.0-1.6","","<img src=""img/green-n.png"" border=""10"">","null","trial","null","","0.4,0.6","2:nogo_b","0",""
"null","","html-keyboard-response","601","846710","0.0-8.0-2.6","","<div style=""font-size:60px;"">+</div>","null","","","","","","",""
"634","","image-keyboard-response","602","847345","0.0-8.0-0.7","","img/blue.png","32","trial","null","false","0.4,0.6","4:nogo_d","",""
"null","","html-keyboard-response","603","848357","0.0-8.0-1.7","","<img src=""img/blue-n.png"" border=""10"">","null","trial","null","","0.4,0.6","4:nogo_d","0",""
"null","","html-keyboard-response","604","849363","0.0-8.0-2.7","","<div style=""font-size:60px;"">+</div>","null","","","","","","",""
"788","","image-keyboard-response","605","850153","0.0-8.0-0.8","","img/green.png","32","trial","null","false","0.4,0.6","2:nogo_b","",""
"null","","html-keyboard-response","606","851167","0.0-8.0-1.8","","<img src=""img/green-n.png"" border=""10"">","null","trial","null","","0.4,0.6","2:nogo_b","0",""
"null","","html-keyboard-response","607","852177","0.0-8.0-2.8","","<div style=""font-size:60px;"">+</div>","null","","","","","","",""
"639","","image-keyboard-response","608","852817","0.0-8.0-0.9","","img/orange.png","32","trial","32","true","0.6,0.4","3:go_c","",""
"null","","html-keyboard-response","609","853819","0.0-8.0-1.9","","<img src=""img/orange-r.png"" border=""10"">","null","trial","32","","0.6,0.4","3:go_c","1",""
"null","","html-keyboard-response","610","854831","0.0-8.0-2.9","","<div style=""font-size:60px;"">+</div>","null","","","","","","",""
"835","","image-keyboard-response","611","855666","0.0-8.0-0.10","","img/blue.png","32","trial","null","false","0.4,0.6","4:nogo_d","",""
"null","","html-keyboard-response","612","856679","0.0-8.0-1.10","","<img src=""img/blue-n.png"" border=""10"">","null","trial","null","","0.4,0.6","4:nogo_d","0",""
"null","","html-keyboard-response","613","857693","0.0-8.0-2.10","","<div style=""font-size:60px;"">+</div>","null","","","","","","",""
"725","","image-keyboard-response","614","858417","0.0-8.0-0.11","","img/pink.png","32","trial","32","true","0.6,0.4","1:go_a","",""
"null","","html-keyboard-response","615","859432","0.0-8.0-1.11","","<img src=""img/pink-r.png"" border=""10"">","null","trial","32","","0.6,0.4","1:go_a","1",""
"null","","html-keyboard-response","616","860434","0.0-8.0-2.11","","<div style=""font-size:60px;"">+</div>","null","","","","","","",""
"null","","image-keyboard-response","617","861948","0.0-8.0-0.12","","img/orange.png","null","trial","32","false","0.6,0.4","3:go_c","",""
"null","","html-keyboard-response","618","862963","0.0-8.0-1.12","","<img src=""img/orange-r.png"">","null","trial","32","","0.6,0.4","3:go_c","1",""
"null","","html-keyboard-response","619","863974","0.0-8.0-2.12","","<div style=""font-size:60px;"">+</div>","null","","","","","","",""
"843","","image-keyboard-response","620","864817","0.0-8.0-0.13","","img/pink.png","32","trial","32","true","0.6,0.4","1:go_a","",""
"null","","html-keyboard-response","621","865828","0.0-8.0-1.13","","<img src=""img/pink-r.png"" border=""10"">","null","trial","32","","0.6,0.4","1:go_a","1",""
"null","","html-keyboard-response","622","866837","0.0-8.0-2.13","","<div style=""font-size:60px;"">+</div>","null","","","","","","",""
"null","","image-keyboard-response","623","868342","0.0-8.0-0.14","","img/blue.png","null","trial","null","true","0.4,0.6","4:nogo_d","",""
"null","","html-keyboard-response","624","869349","0.0-8.0-1.14","","<img src=""img/blue-r.png"">","null","trial","null","","0.4,0.6","4:nogo_d","1",""
"null","","html-keyboard-response","625","870358","0.0-8.0-2.14","","<div style=""font-size:60px;"">+</div>","null","","","","","","",""
"null","","image-keyboard-response","626","871871","0.0-8.0-0.15","","img/green.png","null","trial","null","true","0.4,0.6","2:nogo_b","",""
"null","","html-keyboard-response","627","872883","0.0-8.0-1.15","","<img src=""img/green-r.png"">","null","trial","null","","0.4,0.6","2:nogo_b","1",""
"null","","html-keyboard-response","628","873888","0.0-8.0-2.15","","<div style=""font-size:60px;"">+</div>","null","","","","","","",""
"975","","image-keyboard-response","629","874866","0.0-8.0-0.16","","img/orange.png","32","trial","32","true","0.6,0.4","3:go_c","",""
"null","","html-keyboard-response","630","875872","0.0-8.0-1.16","","<img src=""img/orange-r.png"" border=""10"">","null","trial","32","","0.6,0.4","3:go_c","1",""
"null","","html-keyboard-response","631","876875","0.0-8.0-2.16","","<div style=""font-size:60px;"">+</div>","null","","","","","","",""
"447","","image-keyboard-response","632","877321","0.0-8.0-0.17","","img/pink.png","32","trial","32","true","0.6,0.4","1:go_a","",""
"null","","html-keyboard-response","633","878334","0.0-8.0-1.17","","<img src=""img/pink-r.png"" border=""10"">","null","trial","32","","0.6,0.4","1:go_a","1",""
"null","","html-keyboard-response","634","879342","0.0-8.0-2.17","","<div style=""font-size:60px;"">+</div>","null","","","","","","",""
"null","","image-keyboard-response","635","880850","0.0-8.0-0.18","","img/green.png","null","trial","null","true","0.4,0.6","2:nogo_b","",""
"null","","html-keyboard-response","636","881857","0.0-8.0-1.18","","<img src=""img/green-r.png"">","null","trial","null","","0.4,0.6","2:nogo_b","1",""
"null","","html-keyboard-response","637","882868","0.0-8.0-2.18","","<div style=""font-size:60px;"">+</div>","null","","","","","","",""
"null","","image-keyboard-response","638","884372","0.0-8.0-0.19","","img/blue.png","null","trial","null","true","0.4,0.6","4:nogo_d","",""
"null","","html-keyboard-response","639","885380","0.0-8.0-1.19","","<img src=""img/blue-n.png"">","null","trial","null","","0.4,0.6","4:nogo_d","0",""
"null","","html-keyboard-response","640","886390","0.0-8.0-2.19","","<div style=""font-size:60px;"">+</div>","null","","","","","","",""
"null","","image-keyboard-response","641","887893","0.0-8.0-0.20","","img/green.png","null","trial","null","true","0.4,0.6","2:nogo_b","",""
"null","","html-keyboard-response","642","888896","0.0-8.0-1.20","","<img src=""img/green-r.png"">","null","trial","null","","0.4,0.6","2:nogo_b","1",""
"null","","html-keyboard-response","643","889904","0.0-8.0-2.20","","<div style=""font-size:60px;"">+</div>","null","","","","","","",""
"null","","image-keyboard-response","644","891415","0.0-8.0-0.21","","img/blue.png","null","trial","null","true","0.4,0.6","4:nogo_d","",""
"null","","html-keyboard-response","645","892427","0.0-8.0-1.21","","<img src=""img/blue-n.png"">","null","trial","null","","0.4,0.6","4:nogo_d","0",""
"null","","html-keyboard-response","646","893437","0.0-8.0-2.21","","<div style=""font-size:60px;"">+</div>","null","","","","","","",""
"475","","image-keyboard-response","647","893913","0.0-8.0-0.22","","img/pink.png","32","trial","32","true","0.6,0.4","1:go_a","",""
"null","","html-keyboard-response","648","894918","0.0-8.0-1.22","","<img src=""img/pink-n.png"" border=""10"">","null","trial","32","","0.6,0.4","1:go_a","0",""
"null","","html-keyboard-response","649","895924","0.0-8.0-2.22","","<div style=""font-size:60px;"">+</div>","null","","","","","","",""
"853","","image-keyboard-response","650","896778","0.0-8.0-0.23","","img/orange.png","32","trial","32","true","0.6,0.4","3:go_c","",""
"null","","html-keyboard-response","651","897788","0.0-8.0-1.23","","<img src=""img/orange-r.png"" border=""10"">","null","trial","32","","0.6,0.4","3:go_c","1",""
"null","","html-keyboard-response","652","898801","0.0-8.0-2.23","","<div style=""font-size:60px;"">+</div>","null","","","","","","",""
"null","","image-keyboard-response","653","900316","0.0-8.0-0.24","","img/blue.png","null","trial","null","true","0.4,0.6","4:nogo_d","",""
"null","","html-keyboard-response","654","901325","0.0-8.0-1.24","","<img src=""img/blue-n.png"">","null","trial","null","","0.4,0.6","4:nogo_d","0",""
"null","","html-keyboard-response","655","902336","0.0-8.0-2.24","","<div style=""font-size:60px;"">+</div>","null","","","","","","",""
"null","","image-keyboard-response","656","903839","0.0-8.0-0.25","","img/orange.png","null","trial","32","false","0.6,0.4","3:go_c","",""
"null","","html-keyboard-response","657","904849","0.0-8.0-1.25","","<img src=""img/orange-r.png"">","null","trial","32","","0.6,0.4","3:go_c","1",""
"null","","html-keyboard-response","658","905854","0.0-8.0-2.25","","<div style=""font-size:60px;"">+</div>","null","","","","","","",""
"null","","image-keyboard-response","659","907360","0.0-8.0-0.26","","img/green.png","null","trial","null","true","0.4,0.6","2:nogo_b","",""
"null","","html-keyboard-response","660","908369","0.0-8.0-1.26","","<img src=""img/green-r.png"">","null","trial","null","","0.4,0.6","2:nogo_b","1",""
"null","","html-keyboard-response","661","909376","0.0-8.0-2.26","","<div style=""font-size:60px;"">+</div>","null","","","","","","",""
"1009","","image-keyboard-response","662","910385","0.0-8.0-0.27","","img/pink.png","32","trial","32","true","0.6,0.4","1:go_a","",""
"null","","html-keyboard-response","663","911392","0.0-8.0-1.27","","<img src=""img/pink-n.png"" border=""10"">","null","trial","32","","0.6,0.4","1:go_a","0",""
"null","","html-keyboard-response","664","912401","0.0-8.0-2.27","","<div style=""font-size:60px;"">+</div>","null","","","","","","",""
"null","","image-keyboard-response","665","913902","0.0-8.0-0.28","","img/pink.png","null","trial","32","false","0.6,0.4","1:go_a","",""
"null","","html-keyboard-response","666","914912","0.0-8.0-1.28","","<img src=""img/pink-r.png"">","null","trial","32","","0.6,0.4","1:go_a","1",""
"null","","html-keyboard-response","667","915919","0.0-8.0-2.28","","<div style=""font-size:60px;"">+</div>","null","","","","","","",""
"1065","","image-keyboard-response","668","916985","0.0-8.0-0.29","","img/green.png","32","trial","null","false","0.4,0.6","2:nogo_b","",""
"null","","html-keyboard-response","669","918000","0.0-8.0-1.29","","<img src=""img/green-n.png"" border=""10"">","null","trial","null","","0.4,0.6","2:nogo_b","0",""
"null","","html-keyboard-response","670","919010","0.0-8.0-2.29","","<div style=""font-size:60px;"">+</div>","null","","","","","","",""
"null","","image-keyboard-response","671","920526","0.0-8.0-0.30","","img/blue.png","null","trial","null","true","0.4,0.6","4:nogo_d","",""
"null","","html-keyboard-response","672","921532","0.0-8.0-1.30","","<img src=""img/blue-r.png"">","null","trial","null","","0.4,0.6","4:nogo_d","1",""
"null","","html-keyboard-response","673","922543","0.0-8.0-2.30","","<div style=""font-size:60px;"">+</div>","null","","","","","","",""
"401","","image-keyboard-response","674","922946","0.0-8.0-0.31","","img/orange.png","32","trial","32","true","0.6,0.4","3:go_c","",""
"null","","html-keyboard-response","675","923954","0.0-8.0-1.31","","<img src=""img/orange-r.png"" border=""10"">","null","trial","32","","0.6,0.4","3:go_c","1",""
"null","","html-keyboard-response","676","924963","0.0-8.0-2.31","","<div style=""font-size:60px;"">+</div>","null","","","","","","",""
"453","","image-keyboard-response","677","925417","0.0-8.0-0.32","","img/pink.png","32","trial","32","true","0.6,0.4","1:go_a","",""
"null","","html-keyboard-response","678","926433","0.0-8.0-1.32","","<img src=""img/pink-n.png"" border=""10"">","null","trial","32","","0.6,0.4","1:go_a","0",""
"null","","html-keyboard-response","679","927447","0.0-8.0-2.32","","<div style=""font-size:60px;"">+</div>","null","","","","","","",""
"null","","image-keyboard-response","680","928960","0.0-8.0-0.33","","img/green.png","null","trial","null","true","0.4,0.6","2:nogo_b","",""
"null","","html-keyboard-response","681","929974","0.0-8.0-1.33","","<img src=""img/green-r.png"">","null","trial","null","","0.4,0.6","2:nogo_b","1",""
"null","","html-keyboard-response","682","930976","0.0-8.0-2.33","","<div style=""font-size:60px;"">+</div>","null","","","","","","",""
"null","","image-keyboard-response","683","932480","0.0-8.0-0.34","","img/blue.png","null","trial","null","true","0.4,0.6","4:nogo_d","",""
"null","","html-keyboard-response","684","933492","0.0-8.0-1.34","","<img src=""img/blue-r.png"">","null","trial","null","","0.4,0.6","4:nogo_d","1",""
"null","","html-keyboard-response","685","934503","0.0-8.0-2.34","","<div style=""font-size:60px;"">+</div>","null","","","","","","",""
"785","","image-keyboard-response","686","935289","0.0-8.0-0.35","","img/orange.png","32","trial","32","true","0.6,0.4","3:go_c","",""
"null","","html-keyboard-response","687","936304","0.0-8.0-1.35","","<img src=""img/orange-r.png"" border=""10"">","null","trial","32","","0.6,0.4","3:go_c","1",""
"null","","html-keyboard-response","688","937311","0.0-8.0-2.35","","<div style=""font-size:60px;"">+</div>","null","","","","","","",""
"578","","image-keyboard-response","689","937889","0.0-8.0-0.36","","img/orange.png","32","trial","32","true","0.6,0.4","3:go_c","",""
"null","","html-keyboard-response","690","938898","0.0-8.0-1.36","","<img src=""img/orange-n.png"" border=""10"">","null","trial","32","","0.6,0.4","3:go_c","0",""
"null","","html-keyboard-response","691","939907","0.0-8.0-2.36","","<div style=""font-size:60px;"">+</div>","null","","","","","","",""
"573","","image-keyboard-response","692","940481","0.0-8.0-0.37","","img/pink.png","32","trial","32","true","0.6,0.4","1:go_a","",""
"null","","html-keyboard-response","693","941489","0.0-8.0-1.37","","<img src=""img/pink-r.png"" border=""10"">","null","trial","32","","0.6,0.4","1:go_a","1",""
"null","","html-keyboard-response","694","942502","0.0-8.0-2.37","","<div style=""font-size:60px;"">+</div>","null","","","","","","",""
"null","","image-keyboard-response","695","944011","0.0-8.0-0.38","","img/green.png","null","trial","null","true","0.4,0.6","2:nogo_b","",""
