"rt","url","trial_type","trial_index","time_elapsed","internal_node_id","view_history","stimulus","key_press","test_part","correct_response","correct","use_rew","which_stim","reward","responses"
"3528410.8000000007","consent.html","external-html","0","3528398","0.0-0.0","","","","","","","","","",""
"86389.39999999851","","instructions","1","3614785","0.0-1.0","[{""page_index"":0,""viewing_time"":5386.89999999851},{""page_index"":1,""viewing_time"":17502},{""page_index"":2,""viewing_time"":6649.89999999851},{""page_index"":3,""viewing_time"":23268},{""page_index"":4,""viewing_time"":13278.10000000149},{""page_index"":5,""viewing_time"":6760.10000000149},{""page_index"":6,""viewing_time"":13543.89999999851}]","","","","","","","","",""
"532.0999999977648","","image-keyboard-response","2","3615318","0.0-2.0-0.0","","img/test1.PNG","32","practice","32","true","","","",""
"null","","html-keyboard-response","3","3616324","0.0-2.0-1.0","","<img src=""img/test1-reward.PNG"" border=""10px; grey"">","null","","","","","","",""
"null","","html-keyboard-response","4","3617328","0.0-2.0-2.0","","<div style=""font-size:60px;"">+</div>","null","","","","","","",""
"null","","image-keyboard-response","5","3618829","0.0-2.0-0.1","","img/test3.PNG","null","practice","null","true","","","",""
"null","","html-keyboard-response","6","3619835","0.0-2.0-1.1","","<img src=""img/test3-reward.PNG"">","null","","","","","","",""
"null","","html-keyboard-response","7","3620840","0.0-2.0-2.1","","<div style=""font-size:60px;"">+</div>","null","","","","","","",""
"null","","image-keyboard-response","8","3622343","0.0-2.0-0.2","","img/test2.PNG","null","practice","null","true","","","",""
"null","","html-keyboard-response","9","3623348","0.0-2.0-1.2","","<img src=""img/test2-reward.PNG"">","null","","","","","","",""
"null","","html-keyboard-response","10","3624352","0.0-2.0-2.2","","<div style=""font-size:60px;"">+</div>","null","","","","","","",""
"null","","image-keyboard-response","11","3625855","0.0-2.0-0.3","","img/test2.PNG","null","practice","null","true","","","",""
"null","","html-keyboard-response","12","3626859","0.0-2.0-1.3","","<img src=""img/test2-reward.PNG"">","null","","","","","","",""
"null","","html-keyboard-response","13","3627864","0.0-2.0-2.3","","<div style=""font-size:60px;"">+</div>","null","","","","","","",""
"null","","image-keyboard-response","14","3629370","0.0-2.0-0.4","","img/test3.PNG","null","practice","null","true","","","",""
"null","","html-keyboard-response","15","3630374","0.0-2.0-1.4","","<img src=""img/test3-reward.PNG"">","null","","","","","","",""
"null","","html-keyboard-response","16","3631378","0.0-2.0-2.4","","<div style=""font-size:60px;"">+</div>","null","","","","","","",""
"575.3999999985099","","image-keyboard-response","17","3631954","0.0-2.0-0.5","","img/test1.PNG","32","practice","32","true","","","",""
"null","","html-keyboard-response","18","3632959","0.0-2.0-1.5","","<img src=""img/test1-reward.PNG"" border=""10px; grey"">","null","","","","","","",""
"null","","html-keyboard-response","19","3633963","0.0-2.0-2.5","","<div style=""font-size:60px;"">+</div>","null","","","","","","",""
"null","","image-keyboard-response","20","3635467","0.0-2.0-0.6","","img/test2.PNG","null","practice","null","true","","","",""
"null","","html-keyboard-response","21","3636472","0.0-2.0-1.6","","<img src=""img/test2-reward.PNG"">","null","","","","","","",""
"null","","html-keyboard-response","22","3637476","0.0-2.0-2.6","","<div style=""font-size:60px;"">+</div>","null","","","","","","",""
"null","","image-keyboard-response","23","3638979","0.0-2.0-0.7","","img/test3.PNG","null","practice","null","true","","","",""
"null","","html-keyboard-response","24","3639984","0.0-2.0-1.7","","<img src=""img/test3-reward.PNG"">","null","","","","","","",""
"null","","html-keyboard-response","25","3640988","0.0-2.0-2.7","","<div style=""font-size:60px;"">+</div>","null","","","","","","",""
"550.5999999977648","","image-keyboard-response","26","3641539","0.0-2.0-0.8","","img/test1.PNG","32","practice","32","true","","","",""
"null","","html-keyboard-response","27","3642543","0.0-2.0-1.8","","<img src=""img/test1-reward.PNG"" border=""10px; grey"">","null","","","","","","",""
"null","","html-keyboard-response","28","3643548","0.0-2.0-2.8","","<div style=""font-size:60px;"">+</div>","null","","","","","","",""
"null","","image-keyboard-response","29","3645053","0.0-2.0-0.9","","img/test2.PNG","null","practice","null","true","","","",""
"null","","html-keyboard-response","30","3646056","0.0-2.0-1.9","","<img src=""img/test2-reward.PNG"">","null","","","","","","",""
"null","","html-keyboard-response","31","3647059","0.0-2.0-2.9","","<div style=""font-size:60px;"">+</div>","null","","","","","","",""
"null","","image-keyboard-response","32","3648564","0.0-2.0-0.10","","img/test3.PNG","null","practice","null","true","","","",""
"null","","html-keyboard-response","33","3649567","0.0-2.0-1.10","","<img src=""img/test3-reward.PNG"">","null","","","","","","",""
"null","","html-keyboard-response","34","3650572","0.0-2.0-2.10","","<div style=""font-size:60px;"">+</div>","null","","","","","","",""
"463.19999999925494","","image-keyboard-response","35","3651035","0.0-2.0-0.11","","img/test1.PNG","32","practice","32","true","","","",""
"null","","html-keyboard-response","36","3652040","0.0-2.0-1.11","","<img src=""img/test1-reward.PNG"" border=""10px; grey"">","null","","","","","","",""
"null","","html-keyboard-response","37","3653045","0.0-2.0-2.11","","<div style=""font-size:60px;"">+</div>","null","","","","","","",""
"11618.39999999851","","instructions","38","3664663","0.0-3.0","[{""page_index"":0,""viewing_time"":11618.199999999255}]","","","","","","","","",""
"830.8999999985099","","image-keyboard-response","39","3665495","0.0-4.0-0.0","","img/red.png","32","trial","32","true","0.8,0.2","1:go_a","",""
"null","","html-keyboard-response","40","3666496","0.0-4.0-1.0","","<img src=""img/red-r.png"" border=""10"">","null","trial","32","","0.8,0.2","1:go_a","1",""
"null","","html-keyboard-response","41","3667498","0.0-4.0-2.0","","<div style=""font-size:60px;"">+</div>","null","","","","","","",""
"null","","image-keyboard-response","42","3669002","0.0-4.0-0.1","","img/purple.png","null","trial","null","true","0.2,0.8","2:nogo_b","",""
"null","","html-keyboard-response","43","3670006","0.0-4.0-1.1","","<img src=""img/purple-r.png"">","null","trial","null","","0.2,0.8","2:nogo_b","1",""
"null","","html-keyboard-response","44","3671010","0.0-4.0-2.1","","<div style=""font-size:60px;"">+</div>","null","","","","","","",""
"665","","image-keyboard-response","45","3671676","0.0-4.0-0.2","","img/purple.png","32","trial","null","false","0.2,0.8","2:nogo_b","",""
"null","","html-keyboard-response","46","3672677","0.0-4.0-1.2","","<img src=""img/purple-n.png"" border=""10"">","null","trial","null","","0.2,0.8","2:nogo_b","0",""
"null","","html-keyboard-response","47","3673681","0.0-4.0-2.2","","<div style=""font-size:60px;"">+</div>","null","","","","","","",""
"693.8000000007451","","image-keyboard-response","48","3674375","0.0-4.0-0.3","","img/red.png","32","trial","32","true","0.8,0.2","1:go_a","",""
"null","","html-keyboard-response","49","3675381","0.0-4.0-1.3","","<img src=""img/red-r.png"" border=""10"">","null","trial","32","","0.8,0.2","1:go_a","1",""
"null","","html-keyboard-response","50","3676386","0.0-4.0-2.3","","<div style=""font-size:60px;"">+</div>","null","","","","","","",""
"554.3999999985099","","image-keyboard-response","51","3676941","0.0-4.0-0.4","","img/red.png","32","trial","32","true","0.8,0.2","1:go_a","",""
"null","","html-keyboard-response","52","3677944","0.0-4.0-1.4","","<img src=""img/red-r.png"" border=""10"">","null","trial","32","","0.8,0.2","1:go_a","1",""
"null","","html-keyboard-response","53","3678948","0.0-4.0-2.4","","<div style=""font-size:60px;"">+</div>","null","","","","","","",""
"null","","image-keyboard-response","54","3680454","0.0-4.0-0.5","","img/purple.png","null","trial","null","true","0.2,0.8","2:nogo_b","",""
"null","","html-keyboard-response","55","3681459","0.0-4.0-1.5","","<img src=""img/purple-n.png"">","null","trial","null","","0.2,0.8","2:nogo_b","0",""
"null","","html-keyboard-response","56","3682463","0.0-4.0-2.5","","<div style=""font-size:60px;"">+</div>","null","","","","","","",""
"null","","image-keyboard-response","57","3683967","0.0-4.0-0.6","","img/purple.png","null","trial","null","true","0.2,0.8","2:nogo_b","",""
"null","","html-keyboard-response","58","3684971","0.0-4.0-1.6","","<img src=""img/purple-r.png"">","null","trial","null","","0.2,0.8","2:nogo_b","1",""
"null","","html-keyboard-response","59","3685976","0.0-4.0-2.6","","<div style=""font-size:60px;"">+</div>","null","","","","","","",""
"598","","image-keyboard-response","60","3686575","0.0-4.0-0.7","","img/red.png","32","trial","32","true","0.8,0.2","1:go_a","",""
"null","","html-keyboard-response","61","3687580","0.0-4.0-1.7","","<img src=""img/red-r.png"" border=""10"">","null","trial","32","","0.8,0.2","1:go_a","1",""
"null","","html-keyboard-response","62","3688585","0.0-4.0-2.7","","<div style=""font-size:60px;"">+</div>","null","","","","","","",""
"685.9000000022352","","image-keyboard-response","63","3689271","0.0-4.0-0.8","","img/red.png","32","trial","32","true","0.8,0.2","1:go_a","",""
"null","","html-keyboard-response","64","3690277","0.0-4.0-1.8","","<img src=""img/red-r.png"" border=""10"">","null","trial","32","","0.8,0.2","1:go_a","1",""
"null","","html-keyboard-response","65","3691282","0.0-4.0-2.8","","<div style=""font-size:60px;"">+</div>","null","","","","","","",""
"613.6000000014901","","image-keyboard-response","66","3691896","0.0-4.0-0.9","","img/purple.png","32","trial","null","false","0.2,0.8","2:nogo_b","",""
"null","","html-keyboard-response","67","3692902","0.0-4.0-1.9","","<img src=""img/purple-n.png"" border=""10"">","null","trial","null","","0.2,0.8","2:nogo_b","0",""
"null","","html-keyboard-response","68","3693904","0.0-4.0-2.9","","<div style=""font-size:60px;"">+</div>","null","","","","","","",""
"null","","image-keyboard-response","69","3695409","0.0-4.0-0.10","","img/purple.png","null","trial","null","true","0.2,0.8","2:nogo_b","",""
"null","","html-keyboard-response","70","3696415","0.0-4.0-1.10","","<img src=""img/purple-r.png"">","null","trial","null","","0.2,0.8","2:nogo_b","1",""
"null","","html-keyboard-response","71","3697419","0.0-4.0-2.10","","<div style=""font-size:60px;"">+</div>","null","","","","","","",""
"612.1999999992549","","image-keyboard-response","72","3698032","0.0-4.0-0.11","","img/red.png","32","trial","32","true","0.8,0.2","1:go_a","",""
"null","","html-keyboard-response","73","3699036","0.0-4.0-1.11","","<img src=""img/red-r.png"" border=""10"">","null","trial","32","","0.8,0.2","1:go_a","1",""
"null","","html-keyboard-response","74","3700041","0.0-4.0-2.11","","<div style=""font-size:60px;"">+</div>","null","","","","","","",""
"null","","image-keyboard-response","75","3701544","0.0-4.0-0.12","","img/purple.png","null","trial","null","true","0.2,0.8","2:nogo_b","",""
"null","","html-keyboard-response","76","3702549","0.0-4.0-1.12","","<img src=""img/purple-r.png"">","null","trial","null","","0.2,0.8","2:nogo_b","1",""
"null","","html-keyboard-response","77","3703553","0.0-4.0-2.12","","<div style=""font-size:60px;"">+</div>","null","","","","","","",""
"538.9000000022352","","image-keyboard-response","78","3704092","0.0-4.0-0.13","","img/red.png","32","trial","32","true","0.8,0.2","1:go_a","",""
"null","","html-keyboard-response","79","3705097","0.0-4.0-1.13","","<img src=""img/red-n.png"" border=""10"">","null","trial","32","","0.8,0.2","1:go_a","0",""
"null","","html-keyboard-response","80","3706101","0.0-4.0-2.13","","<div style=""font-size:60px;"">+</div>","null","","","","","","",""
"555.9000000022352","","image-keyboard-response","81","3706657","0.0-4.0-0.14","","img/red.png","32","trial","32","true","0.8,0.2","1:go_a","",""
"null","","html-keyboard-response","82","3707662","0.0-4.0-1.14","","<img src=""img/red-r.png"" border=""10"">","null","trial","32","","0.8,0.2","1:go_a","1",""
"null","","html-keyboard-response","83","3708667","0.0-4.0-2.14","","<div style=""font-size:60px;"">+</div>","null","","","","","","",""
"793.8000000007451","","image-keyboard-response","84","3709461","0.0-4.0-0.15","","img/purple.png","32","trial","null","false","0.2,0.8","2:nogo_b","",""
"null","","html-keyboard-response","85","3710465","0.0-4.0-1.15","","<img src=""img/purple-r.png"" border=""10"">","null","trial","null","","0.2,0.8","2:nogo_b","1",""
"null","","html-keyboard-response","86","3711470","0.0-4.0-2.15","","<div style=""font-size:60px;"">+</div>","null","","","","","","",""
"null","","image-keyboard-response","87","3712973","0.0-4.0-0.16","","img/purple.png","null","trial","null","true","0.2,0.8","2:nogo_b","",""
"null","","html-keyboard-response","88","3713978","0.0-4.0-1.16","","<img src=""img/purple-n.png"">","null","trial","null","","0.2,0.8","2:nogo_b","0",""
"null","","html-keyboard-response","89","3714983","0.0-4.0-2.16","","<div style=""font-size:60px;"">+</div>","null","","","","","","",""
"524.1000000014901","","image-keyboard-response","90","3715508","0.0-4.0-0.17","","img/red.png","32","trial","32","true","0.8,0.2","1:go_a","",""
"null","","html-keyboard-response","91","3716513","0.0-4.0-1.17","","<img src=""img/red-r.png"" border=""10"">","null","trial","32","","0.8,0.2","1:go_a","1",""
"null","","html-keyboard-response","92","3717516","0.0-4.0-2.17","","<div style=""font-size:60px;"">+</div>","null","","","","","","",""
"null","","image-keyboard-response","93","3719021","0.0-4.0-0.18","","img/purple.png","null","trial","null","true","0.2,0.8","2:nogo_b","",""
"null","","html-keyboard-response","94","3720026","0.0-4.0-1.18","","<img src=""img/purple-r.png"">","null","trial","null","","0.2,0.8","2:nogo_b","1",""
"null","","html-keyboard-response","95","3721030","0.0-4.0-2.18","","<div style=""font-size:60px;"">+</div>","null","","","","","","",""
"643.1999999992549","","image-keyboard-response","96","3721674","0.0-4.0-0.19","","img/red.png","32","trial","32","true","0.8,0.2","1:go_a","",""
"null","","html-keyboard-response","97","3722679","0.0-4.0-1.19","","<img src=""img/red-r.png"" border=""10"">","null","trial","32","","0.8,0.2","1:go_a","1",""
"null","","html-keyboard-response","98","3723684","0.0-4.0-2.19","","<div style=""font-size:60px;"">+</div>","null","","","","","","",""
"852.0999999977648","","image-keyboard-response","99","3724537","0.0-4.0-0.20","","img/purple.png","32","trial","null","false","0.2,0.8","2:nogo_b","",""
"null","","html-keyboard-response","100","3725541","0.0-4.0-1.20","","<img src=""img/purple-n.png"" border=""10"">","null","trial","null","","0.2,0.8","2:nogo_b","0",""
"null","","html-keyboard-response","101","3726544","0.0-4.0-2.20","","<div style=""font-size:60px;"">+</div>","null","","","","","","",""
"512.5999999977648","","image-keyboard-response","102","3727057","0.0-4.0-0.21","","img/red.png","32","trial","32","true","0.8,0.2","1:go_a","",""
"null","","html-keyboard-response","103","3728060","0.0-4.0-1.21","","<img src=""img/red-r.png"" border=""10"">","null","trial","32","","0.8,0.2","1:go_a","1",""
"null","","html-keyboard-response","104","3729062","0.0-4.0-2.21","","<div style=""font-size:60px;"">+</div>","null","","","","","","",""
"null","","image-keyboard-response","105","3730564","0.0-4.0-0.22","","img/purple.png","null","trial","null","true","0.2,0.8","2:nogo_b","",""
"null","","html-keyboard-response","106","3731570","0.0-4.0-1.22","","<img src=""img/purple-r.png"">","null","trial","null","","0.2,0.8","2:nogo_b","1",""
"null","","html-keyboard-response","107","3732573","0.0-4.0-2.22","","<div style=""font-size:60px;"">+</div>","null","","","","","","",""
"678.8999999985099","","image-keyboard-response","108","3733253","0.0-4.0-0.23","","img/red.png","32","trial","32","true","0.8,0.2","1:go_a","",""
"null","","html-keyboard-response","109","3734256","0.0-4.0-1.23","","<img src=""img/red-r.png"" border=""10"">","null","trial","32","","0.8,0.2","1:go_a","1",""
"null","","html-keyboard-response","110","3735261","0.0-4.0-2.23","","<div style=""font-size:60px;"">+</div>","null","","","","","","",""
"null","","image-keyboard-response","111","3736764","0.0-4.0-0.24","","img/purple.png","null","trial","null","true","0.2,0.8","2:nogo_b","",""
"null","","html-keyboard-response","112","3737768","0.0-4.0-1.24","","<img src=""img/purple-r.png"">","null","trial","null","","0.2,0.8","2:nogo_b","1",""
"null","","html-keyboard-response","113","3738772","0.0-4.0-2.24","","<div style=""font-size:60px;"">+</div>","null","","","","","","",""
"540.8000000007451","","image-keyboard-response","114","3739314","0.0-4.0-0.25","","img/red.png","32","trial","32","true","0.8,0.2","1:go_a","",""
"null","","html-keyboard-response","115","3740318","0.0-4.0-1.25","","<img src=""img/red-r.png"" border=""10"">","null","trial","32","","0.8,0.2","1:go_a","1",""
"null","","html-keyboard-response","116","3741321","0.0-4.0-2.25","","<div style=""font-size:60px;"">+</div>","null","","","","","","",""
"632.3999999985099","","image-keyboard-response","117","3741954","0.0-4.0-0.26","","img/purple.png","32","trial","null","false","0.2,0.8","2:nogo_b","",""
"null","","html-keyboard-response","118","3742958","0.0-4.0-1.26","","<img src=""img/purple-n.png"" border=""10"">","null","trial","null","","0.2,0.8","2:nogo_b","0",""
"null","","html-keyboard-response","119","3743963","0.0-4.0-2.26","","<div style=""font-size:60px;"">+</div>","null","","","","","","",""
"569.5","","image-keyboard-response","120","3744534","0.0-4.0-0.27","","img/red.png","32","trial","32","true","0.8,0.2","1:go_a","",""
"null","","html-keyboard-response","121","3745538","0.0-4.0-1.27","","<img src=""img/red-r.png"" border=""10"">","null","trial","32","","0.8,0.2","1:go_a","1",""
"null","","html-keyboard-response","122","3746544","0.0-4.0-2.27","","<div style=""font-size:60px;"">+</div>","null","","","","","","",""
"613.7999999970198","","image-keyboard-response","123","3747158","0.0-4.0-0.28","","img/purple.png","32","trial","null","false","0.2,0.8","2:nogo_b","",""
"null","","html-keyboard-response","124","3748163","0.0-4.0-1.28","","<img src=""img/purple-r.png"" border=""10"">","null","trial","null","","0.2,0.8","2:nogo_b","1",""
"null","","html-keyboard-response","125","3749168","0.0-4.0-2.28","","<div style=""font-size:60px;"">+</div>","null","","","","","","",""
"585.5","","image-keyboard-response","126","3749754","0.0-4.0-0.29","","img/red.png","32","trial","32","true","0.8,0.2","1:go_a","",""
"null","","html-keyboard-response","127","3750756","0.0-4.0-1.29","","<img src=""img/red-r.png"" border=""10"">","null","trial","32","","0.8,0.2","1:go_a","1",""
"null","","html-keyboard-response","128","3751761","0.0-4.0-2.29","","<div style=""font-size:60px;"">+</div>","null","","","","","","",""
"null","","image-keyboard-response","129","3753264","0.0-4.0-0.30","","img/purple.png","null","trial","null","true","0.2,0.8","2:nogo_b","",""
"null","","html-keyboard-response","130","3754268","0.0-4.0-1.30","","<img src=""img/purple-n.png"">","null","trial","null","","0.2,0.8","2:nogo_b","0",""
"null","","html-keyboard-response","131","3755272","0.0-4.0-2.30","","<div style=""font-size:60px;"">+</div>","null","","","","","","",""
"496.19999999925494","","image-keyboard-response","132","3755769","0.0-4.0-0.31","","img/red.png","32","trial","32","true","0.8,0.2","1:go_a","",""
"null","","html-keyboard-response","133","3756774","0.0-4.0-1.31","","<img src=""img/red-r.png"" border=""10"">","null","trial","32","","0.8,0.2","1:go_a","1",""
"null","","html-keyboard-response","134","3757778","0.0-4.0-2.31","","<div style=""font-size:60px;"">+</div>","null","","","","","","",""
"600.3000000007451","","image-keyboard-response","135","3758378","0.0-4.0-0.32","","img/purple.png","32","trial","null","false","0.2,0.8","2:nogo_b","",""
"null","","html-keyboard-response","136","3759383","0.0-4.0-1.32","","<img src=""img/purple-n.png"" border=""10"">","null","trial","null","","0.2,0.8","2:nogo_b","0",""
"null","","html-keyboard-response","137","3760386","0.0-4.0-2.32","","<div style=""font-size:60px;"">+</div>","null","","","","","","",""
"527.6000000014901","","image-keyboard-response","138","3760915","0.0-4.0-0.33","","img/red.png","32","trial","32","true","0.8,0.2","1:go_a","",""
"null","","html-keyboard-response","139","3761919","0.0-4.0-1.33","","<img src=""img/red-r.png"" border=""10"">","null","trial","32","","0.8,0.2","1:go_a","1",""
"null","","html-keyboard-response","140","3762923","0.0-4.0-2.33","","<div style=""font-size:60px;"">+</div>","null","","","","","","",""
"null","","image-keyboard-response","141","3764427","0.0-4.0-0.34","","img/purple.png","null","trial","null","true","0.2,0.8","2:nogo_b","",""
"null","","html-keyboard-response","142","3765431","0.0-4.0-1.34","","<img src=""img/purple-r.png"">","null","trial","null","","0.2,0.8","2:nogo_b","1",""
"null","","html-keyboard-response","143","3766435","0.0-4.0-2.34","","<div style=""font-size:60px;"">+</div>","null","","","","","","",""
"465.19999999925494","","image-keyboard-response","144","3766901","0.0-4.0-0.35","","img/red.png","32","trial","32","true","0.8,0.2","1:go_a","",""
"null","","html-keyboard-response","145","3767907","0.0-4.0-1.35","","<img src=""img/red-r.png"" border=""10"">","null","trial","32","","0.8,0.2","1:go_a","1",""
"null","","html-keyboard-response","146","3768911","0.0-4.0-2.35","","<div style=""font-size:60px;"">+</div>","null","","","","","","",""
"null","","image-keyboard-response","147","3770416","0.0-4.0-0.36","","img/purple.png","null","trial","null","true","0.2,0.8","2:nogo_b","",""
"null","","html-keyboard-response","148","3771422","0.0-4.0-1.36","","<img src=""img/purple-n.png"">","null","trial","null","","0.2,0.8","2:nogo_b","0",""
"null","","html-keyboard-response","149","3772426","0.0-4.0-2.36","","<div style=""font-size:60px;"">+</div>","null","","","","","","",""
"473.5999999977648","","image-keyboard-response","150","3772900","0.0-4.0-0.37","","img/red.png","32","trial","32","true","0.8,0.2","1:go_a","",""
"null","","html-keyboard-response","151","3773903","0.0-4.0-1.37","","<img src=""img/red-n.png"" border=""10"">","null","trial","32","","0.8,0.2","1:go_a","0",""
"null","","html-keyboard-response","152","3774907","0.0-4.0-2.37","","<div style=""font-size:60px;"">+</div>","null","","","","","","",""
"481.80000000074506","","image-keyboard-response","153","3775389","0.0-4.0-0.38","","img/red.png","32","trial","32","true","0.8,0.2","1:go_a","",""
"null","","html-keyboard-response","154","3776395","0.0-4.0-1.38","","<img src=""img/red-r.png"" border=""10"">","null","trial","32","","0.8,0.2","1:go_a","1",""
"null","","html-keyboard-response","155","3777400","0.0-4.0-2.38","","<div style=""font-size:60px;"">+</div>","null","","","","","","",""
"479","","image-keyboard-response","156","3777880","0.0-4.0-0.39","","img/purple.png","32","trial","null","false","0.2,0.8","2:nogo_b","",""
"null","","html-keyboard-response","157","3778881","0.0-4.0-1.39","","<img src=""img/purple-r.png"" border=""10"">","null","trial","null","","0.2,0.8","2:nogo_b","1",""
"null","","html-keyboard-response","158","3779885","0.0-4.0-2.39","","<div style=""font-size:60px;"">+</div>","null","","","","","","",""
"null","","image-keyboard-response","159","3781389","0.0-4.0-0.40","","img/purple.png","null","trial","null","true","0.2,0.8","2:nogo_b","",""
"null","","html-keyboard-response","160","3782392","0.0-4.0-1.40","","<img src=""img/purple-r.png"">","null","trial","null","","0.2,0.8","2:nogo_b","1",""
"null","","html-keyboard-response","161","3783397","0.0-4.0-2.40","","<div style=""font-size:60px;"">+</div>","null","","","","","","",""
"647.6000000014901","","image-keyboard-response","162","3784045","0.0-4.0-0.41","","img/red.png","32","trial","32","true","0.8,0.2","1:go_a","",""
"null","","html-keyboard-response","163","3785051","0.0-4.0-1.41","","<img src=""img/red-r.png"" border=""10"">","null","trial","32","","0.8,0.2","1:go_a","1",""
"null","","html-keyboard-response","164","3786055","0.0-4.0-2.41","","<div style=""font-size:60px;"">+</div>","null","","","","","","",""
"null","","image-keyboard-response","165","3787559","0.0-4.0-0.42","","img/purple.png","null","trial","null","true","0.2,0.8","2:nogo_b","",""
"null","","html-keyboard-response","166","3788564","0.0-4.0-1.42","","<img src=""img/purple-r.png"">","null","trial","null","","0.2,0.8","2:nogo_b","1",""
"null","","html-keyboard-response","167","3789568","0.0-4.0-2.42","","<div style=""font-size:60px;"">+</div>","null","","","","","","",""
"582.1999999992549","","image-keyboard-response","168","3790151","0.0-4.0-0.43","","img/red.png","32","trial","32","true","0.8,0.2","1:go_a","",""
"null","","html-keyboard-response","169","3791155","0.0-4.0-1.43","","<img src=""img/red-r.png"" border=""10"">","null","trial","32","","0.8,0.2","1:go_a","1",""
"null","","html-keyboard-response","170","3792160","0.0-4.0-2.43","","<div style=""font-size:60px;"">+</div>","null","","","","","","",""
"945","","image-keyboard-response","171","3793105","0.0-4.0-0.44","","img/purple.png","32","trial","null","false","0.2,0.8","2:nogo_b","",""
"null","","html-keyboard-response","172","3794110","0.0-4.0-1.44","","<img src=""img/purple-r.png"" border=""10"">","null","trial","null","","0.2,0.8","2:nogo_b","1",""
"null","","html-keyboard-response","173","3795114","0.0-4.0-2.44","","<div style=""font-size:60px;"">+</div>","null","","","","","","",""
"616.3999999985099","","image-keyboard-response","174","3795731","0.0-4.0-0.45","","img/red.png","32","trial","32","true","0.8,0.2","1:go_a","",""
"null","","html-keyboard-response","175","3796737","0.0-4.0-1.45","","<img src=""img/red-r.png"" border=""10"">","null","trial","32","","0.8,0.2","1:go_a","1",""
"null","","html-keyboard-response","176","3797742","0.0-4.0-2.45","","<div style=""font-size:60px;"">+</div>","null","","","","","","",""
"null","","image-keyboard-response","177","3799247","0.0-4.0-0.46","","img/purple.png","null","trial","null","true","0.2,0.8","2:nogo_b","",""
"null","","html-keyboard-response","178","3800252","0.0-4.0-1.46","","<img src=""img/purple-r.png"">","null","trial","null","","0.2,0.8","2:nogo_b","1",""
"null","","html-keyboard-response","179","3801256","0.0-4.0-2.46","","<div style=""font-size:60px;"">+</div>","null","","","","","","",""
"566.2999999970198","","image-keyboard-response","180","3801823","0.0-4.0-0.47","","img/red.png","32","trial","32","true","0.8,0.2","1:go_a","",""
"null","","html-keyboard-response","181","3802825","0.0-4.0-1.47","","<img src=""img/red-r.png"" border=""10"">","null","trial","32","","0.8,0.2","1:go_a","1",""
"null","","html-keyboard-response","182","3803830","0.0-4.0-2.47","","<div style=""font-size:60px;"">+</div>","null","","","","","","",""
"1201","","image-keyboard-response","183","3805031","0.0-4.0-0.48","","img/red.png","32","trial","32","true","0.8,0.2","1:go_a","",""
"null","","html-keyboard-response","184","3806036","0.0-4.0-1.48","","<img src=""img/red-r.png"" border=""10"">","null","trial","32","","0.8,0.2","1:go_a","1",""
"null","","html-keyboard-response","185","3807040","0.0-4.0-2.48","","<div style=""font-size:60px;"">+</div>","null","","","","","","",""
"647.6999999992549","","image-keyboard-response","186","3807688","0.0-4.0-0.49","","img/purple.png","32","trial","null","false","0.2,0.8","2:nogo_b","",""
"null","","html-keyboard-response","187","3808693","0.0-4.0-1.49","","<img src=""img/purple-r.png"" border=""10"">","null","trial","null","","0.2,0.8","2:nogo_b","1",""
"null","","html-keyboard-response","188","3809697","0.0-4.0-2.49","","<div style=""font-size:60px;"">+</div>","null","","","","","","",""
"598.3999999985099","","image-keyboard-response","189","3810297","0.0-4.0-0.50","","img/red.png","32","trial","32","true","0.8,0.2","1:go_a","",""
"null","","html-keyboard-response","190","3811301","0.0-4.0-1.50","","<img src=""img/red-r.png"" border=""10"">","null","trial","32","","0.8,0.2","1:go_a","1",""
"null","","html-keyboard-response","191","3812305","0.0-4.0-2.50","","<div style=""font-size:60px;"">+</div>","null","","","","","","",""
"615.1999999992549","","image-keyboard-response","192","3812921","0.0-4.0-0.51","","img/purple.png","32","trial","null","false","0.2,0.8","2:nogo_b","",""
"null","","html-keyboard-response","193","3813925","0.0-4.0-1.51","","<img src=""img/purple-r.png"" border=""10"">","null","trial","null","","0.2,0.8","2:nogo_b","1",""
"null","","html-keyboard-response","194","3814929","0.0-4.0-2.51","","<div style=""font-size:60px;"">+</div>","null","","","","","","",""
"571.1999999992549","","image-keyboard-response","195","3815501","0.0-4.0-0.52","","img/red.png","32","trial","32","true","0.8,0.2","1:go_a","",""
"null","","html-keyboard-response","196","3816505","0.0-4.0-1.52","","<img src=""img/red-r.png"" border=""10"">","null","trial","32","","0.8,0.2","1:go_a","1",""
"null","","html-keyboard-response","197","3817509","0.0-4.0-2.52","","<div style=""font-size:60px;"">+</div>","null","","","","","","",""
"null","","image-keyboard-response","198","3819013","0.0-4.0-0.53","","img/purple.png","null","trial","null","true","0.2,0.8","2:nogo_b","",""
"null","","html-keyboard-response","199","3820017","0.0-4.0-1.53","","<img src=""img/purple-r.png"">","null","trial","null","","0.2,0.8","2:nogo_b","1",""
"null","","html-keyboard-response","200","3821021","0.0-4.0-2.53","","<div style=""font-size:60px;"">+</div>","null","","","","","","",""
"510.69999999925494","","image-keyboard-response","201","3821532","0.0-4.0-0.54","","img/red.png","32","trial","32","true","0.8,0.2","1:go_a","",""
"null","","html-keyboard-response","202","3822533","0.0-4.0-1.54","","<img src=""img/red-r.png"" border=""10"">","null","trial","32","","0.8,0.2","1:go_a","1",""
"null","","html-keyboard-response","203","3823538","0.0-4.0-2.54","","<div style=""font-size:60px;"">+</div>","null","","","","","","",""
"663.3000000007451","","image-keyboard-response","204","3824202","0.0-4.0-0.55","","img/purple.png","32","trial","null","false","0.2,0.8","2:nogo_b","",""
"null","","html-keyboard-response","205","3825205","0.0-4.0-1.55","","<img src=""img/purple-n.png"" border=""10"">","null","trial","null","","0.2,0.8","2:nogo_b","0",""
"null","","html-keyboard-response","206","3826210","0.0-4.0-2.55","","<div style=""font-size:60px;"">+</div>","null","","","","","","",""
"586.9000000022352","","image-keyboard-response","207","3826797","0.0-4.0-0.56","","img/red.png","32","trial","32","true","0.8,0.2","1:go_a","",""
"null","","html-keyboard-response","208","3827801","0.0-4.0-1.56","","<img src=""img/red-r.png"" border=""10"">","null","trial","32","","0.8,0.2","1:go_a","1",""
"null","","html-keyboard-response","209","3828805","0.0-4.0-2.56","","<div style=""font-size:60px;"">+</div>","null","","","","","","",""
"571.8000000007451","","image-keyboard-response","210","3829377","0.0-4.0-0.57","","img/purple.png","32","trial","null","false","0.2,0.8","2:nogo_b","",""
"null","","html-keyboard-response","211","3830380","0.0-4.0-1.57","","<img src=""img/purple-n.png"" border=""10"">","null","trial","null","","0.2,0.8","2:nogo_b","0",""
"null","","html-keyboard-response","212","3831385","0.0-4.0-2.57","","<div style=""font-size:60px;"">+</div>","null","","","","","","",""
"null","","image-keyboard-response","213","3832889","0.0-4.0-0.58","","img/purple.png","null","trial","null","true","0.2,0.8","2:nogo_b","",""
"null","","html-keyboard-response","214","3833892","0.0-4.0-1.58","","<img src=""img/purple-r.png"">","null","trial","null","","0.2,0.8","2:nogo_b","1",""
"null","","html-keyboard-response","215","3834897","0.0-4.0-2.58","","<div style=""font-size:60px;"">+</div>","null","","","","","","",""
"509.70000000298023","","image-keyboard-response","216","3835407","0.0-4.0-0.59","","img/red.png","32","trial","32","true","0.8,0.2","1:go_a","",""
"null","","html-keyboard-response","217","3836410","0.0-4.0-1.59","","<img src=""img/red-r.png"" border=""10"">","null","trial","32","","0.8,0.2","1:go_a","1",""
"null","","html-keyboard-response","218","3837414","0.0-4.0-2.59","","<div style=""font-size:60px;"">+</div>","null","","","","","","",""
"5834.300000000745","","instructions","219","3843249","0.0-5.0","[{""page_index"":0,""viewing_time"":5834.199999999255}]","","","","","","","","",""
"918.1000000014901","","image-keyboard-response","220","3844168","0.0-6.0-0.0","","img/blue.png","32","trial","32","true","0.8,0.2","3:go_c","",""
"null","","html-keyboard-response","221","3845172","0.0-6.0-1.0","","<img src=""img/blue-n.png"" border=""10"">","null","trial","32","","0.8,0.2","3:go_c","0",""
"null","","html-keyboard-response","222","3846176","0.0-6.0-2.0","","<div style=""font-size:60px;"">+</div>","null","","","","","","",""
"570.7000000029802","","image-keyboard-response","223","3846747","0.0-6.0-0.1","","img/yellow.png","32","trial","32","true","0.8,0.2","1:go_a","",""
"null","","html-keyboard-response","224","3847752","0.0-6.0-1.1","","<img src=""img/yellow-r.png"" border=""10"">","null","trial","32","","0.8,0.2","1:go_a","1",""
"null","","html-keyboard-response","225","3848756","0.0-6.0-2.1","","<div style=""font-size:60px;"">+</div>","null","","","","","","",""
"null","","image-keyboard-response","226","3850260","0.0-6.0-0.2","","img/pink.png","null","trial","null","true","0.2,0.8","4:nogo_d","",""
"null","","html-keyboard-response","227","3851263","0.0-6.0-1.2","","<img src=""img/pink-r.png"">","null","trial","null","","0.2,0.8","4:nogo_d","1",""
"null","","html-keyboard-response","228","3852268","0.0-6.0-2.2","","<div style=""font-size:60px;"">+</div>","null","","","","","","",""
"734.1000000014901","","image-keyboard-response","229","3853003","0.0-6.0-0.3","","img/purple.png","32","trial","null","false","0.2,0.8","2:nogo_b","",""
"null","","html-keyboard-response","230","3854008","0.0-6.0-1.3","","<img src=""img/purple-n.png"" border=""10"">","null","trial","null","","0.2,0.8","2:nogo_b","0",""
"null","","html-keyboard-response","231","3855012","0.0-6.0-2.3","","<div style=""font-size:60px;"">+</div>","null","","","","","","",""
"null","","image-keyboard-response","232","3856517","0.0-6.0-0.4","","img/purple.png","null","trial","null","true","0.2,0.8","2:nogo_b","",""
"null","","html-keyboard-response","233","3857522","0.0-6.0-1.4","","<img src=""img/purple-r.png"">","null","trial","null","","0.2,0.8","2:nogo_b","1",""
"null","","html-keyboard-response","234","3858526","0.0-6.0-2.4","","<div style=""font-size:60px;"">+</div>","null","","","","","","",""
"627.6999999992549","","image-keyboard-response","235","3859154","0.0-6.0-0.5","","img/yellow.png","32","trial","32","true","0.8,0.2","1:go_a","",""
"null","","html-keyboard-response","236","3860160","0.0-6.0-1.5","","<img src=""img/yellow-r.png"" border=""10"">","null","trial","32","","0.8,0.2","1:go_a","1",""
"null","","html-keyboard-response","237","3861163","0.0-6.0-2.5","","<div style=""font-size:60px;"">+</div>","null","","","","","","",""
"584.6999999992549","","image-keyboard-response","238","3861749","0.0-6.0-0.6","","img/blue.png","32","trial","32","true","0.8,0.2","3:go_c","",""
"null","","html-keyboard-response","239","3862755","0.0-6.0-1.6","","<img src=""img/blue-r.png"" border=""10"">","null","trial","32","","0.8,0.2","3:go_c","1",""
"null","","html-keyboard-response","240","3863760","0.0-6.0-2.6","","<div style=""font-size:60px;"">+</div>","null","","","","","","",""
"688.1999999992549","","image-keyboard-response","241","3864449","0.0-6.0-0.7","","img/pink.png","32","trial","null","false","0.2,0.8","4:nogo_d","",""
"null","","html-keyboard-response","242","3865454","0.0-6.0-1.7","","<img src=""img/pink-n.png"" border=""10"">","null","trial","null","","0.2,0.8","4:nogo_d","0",""
"null","","html-keyboard-response","243","3866458","0.0-6.0-2.7","","<div style=""font-size:60px;"">+</div>","null","","","","","","",""
"645.8000000007451","","image-keyboard-response","244","3867104","0.0-6.0-0.8","","img/pink.png","32","trial","null","false","0.2,0.8","4:nogo_d","",""
"null","","html-keyboard-response","245","3868109","0.0-6.0-1.8","","<img src=""img/pink-n.png"" border=""10"">","null","trial","null","","0.2,0.8","4:nogo_d","0",""
"null","","html-keyboard-response","246","3869114","0.0-6.0-2.8","","<div style=""font-size:60px;"">+</div>","null","","","","","","",""
"null","","image-keyboard-response","247","3870617","0.0-6.0-0.9","","img/purple.png","null","trial","null","true","0.2,0.8","2:nogo_b","",""
"null","","html-keyboard-response","248","3871623","0.0-6.0-1.9","","<img src=""img/purple-r.png"">","null","trial","null","","0.2,0.8","2:nogo_b","1",""
"null","","html-keyboard-response","249","3872627","0.0-6.0-2.9","","<div style=""font-size:60px;"">+</div>","null","","","","","","",""
"597","","image-keyboard-response","250","3873225","0.0-6.0-0.10","","img/yellow.png","32","trial","32","true","0.8,0.2","1:go_a","",""
"null","","html-keyboard-response","251","3874231","0.0-6.0-1.10","","<img src=""img/yellow-n.png"" border=""10"">","null","trial","32","","0.8,0.2","1:go_a","0",""
"null","","html-keyboard-response","252","3875235","0.0-6.0-2.10","","<div style=""font-size:60px;"">+</div>","null","","","","","","",""
"749","","image-keyboard-response","253","3875984","0.0-6.0-0.11","","img/blue.png","32","trial","32","true","0.8,0.2","3:go_c","",""
"null","","html-keyboard-response","254","3876987","0.0-6.0-1.11","","<img src=""img/blue-r.png"" border=""10"">","null","trial","32","","0.8,0.2","3:go_c","1",""
"null","","html-keyboard-response","255","3877991","0.0-6.0-2.11","","<div style=""font-size:60px;"">+</div>","null","","","","","","",""
"604.6999999992549","","image-keyboard-response","256","3878597","0.0-6.0-0.12","","img/yellow.png","32","trial","32","true","0.8,0.2","1:go_a","",""
"null","","html-keyboard-response","257","3879599","0.0-6.0-1.12","","<img src=""img/yellow-r.png"" border=""10"">","null","trial","32","","0.8,0.2","1:go_a","1",""
"null","","html-keyboard-response","258","3880604","0.0-6.0-2.12","","<div style=""font-size:60px;"">+</div>","null","","","","","","",""
"915.1999999992549","","image-keyboard-response","259","3881519","0.0-6.0-0.13","","img/pink.png","32","trial","null","false","0.2,0.8","4:nogo_d","",""
"null","","html-keyboard-response","260","3882523","0.0-6.0-1.13","","<img src=""img/pink-n.png"" border=""10"">","null","trial","null","","0.2,0.8","4:nogo_d","0",""
"null","","html-keyboard-response","261","3883527","0.0-6.0-2.13","","<div style=""font-size:60px;"">+</div>","null","","","","","","",""
"541.8000000007451","","image-keyboard-response","262","3884069","0.0-6.0-0.14","","img/blue.png","32","trial","32","true","0.8,0.2","3:go_c","",""
"null","","html-keyboard-response","263","3885071","0.0-6.0-1.14","","<img src=""img/blue-r.png"" border=""10"">","null","trial","32","","0.8,0.2","3:go_c","1",""
"null","","html-keyboard-response","264","3886075","0.0-6.0-2.14","","<div style=""font-size:60px;"">+</div>","null","","","","","","",""
"null","","image-keyboard-response","265","3887579","0.0-6.0-0.15","","img/purple.png","null","trial","null","true","0.2,0.8","2:nogo_b","",""
"null","","html-keyboard-response","266","3888583","0.0-6.0-1.15","","<img src=""img/purple-r.png"">","null","trial","null","","0.2,0.8","2:nogo_b","1",""
"null","","html-keyboard-response","267","3889587","0.0-6.0-2.15","","<div style=""font-size:60px;"">+</div>","null","","","","","","",""
"1217.9000000022352","","image-keyboard-response","268","3890805","0.0-6.0-0.16","","img/blue.png","32","trial","32","true","0.8,0.2","3:go_c","",""
"null","","html-keyboard-response","269","3891810","0.0-6.0-1.16","","<img src=""img/blue-r.png"" border=""10"">","null","trial","32","","0.8,0.2","3:go_c","1",""
"null","","html-keyboard-response","270","3892814","0.0-6.0-2.16","","<div style=""font-size:60px;"">+</div>","null","","","","","","",""
"null","","image-keyboard-response","271","3894318","0.0-6.0-0.17","","img/purple.png","null","trial","null","true","0.2,0.8","2:nogo_b","",""
"null","","html-keyboard-response","272","3895322","0.0-6.0-1.17","","<img src=""img/purple-r.png"">","null","trial","null","","0.2,0.8","2:nogo_b","1",""
"null","","html-keyboard-response","273","3896326","0.0-6.0-2.17","","<div style=""font-size:60px;"">+</div>","null","","","","","","",""
"598.5","","image-keyboard-response","274","3896925","0.0-6.0-0.18","","img/yellow.png","32","trial","32","true","0.8,0.2","1:go_a","",""
"null","","html-keyboard-response","275","3897930","0.0-6.0-1.18","","<img src=""img/yellow-r.png"" border=""10"">","null","trial","32","","0.8,0.2","1:go_a","1",""
"null","","html-keyboard-response","276","3898935","0.0-6.0-2.18","","<div style=""font-size:60px;"">+</div>","null","","","","","","",""
"null","","image-keyboard-response","277","3900439","0.0-6.0-0.19","","img/pink.png","null","trial","null","true","0.2,0.8","4:nogo_d","",""
"null","","html-keyboard-response","278","3901444","0.0-6.0-1.19","","<img src=""img/pink-r.png"">","null","trial","null","","0.2,0.8","4:nogo_d","1",""
"null","","html-keyboard-response","279","3902448","0.0-6.0-2.19","","<div style=""font-size:60px;"">+</div>","null","","","","","","",""
"567.1000000014901","","image-keyboard-response","280","3903015","0.0-6.0-0.20","","img/yellow.png","32","trial","32","true","0.8,0.2","1:go_a","",""
"null","","html-keyboard-response","281","3904021","0.0-6.0-1.20","","<img src=""img/yellow-r.png"" border=""10"">","null","trial","32","","0.8,0.2","1:go_a","1",""
"null","","html-keyboard-response","282","3905026","0.0-6.0-2.20","","<div style=""font-size:60px;"">+</div>","null","","","","","","",""
"584.0999999977648","","image-keyboard-response","283","3905611","0.0-6.0-0.21","","img/purple.png","32","trial","null","false","0.2,0.8","2:nogo_b","",""
"null","","html-keyboard-response","284","3906615","0.0-6.0-1.21","","<img src=""img/purple-n.png"" border=""10"">","null","trial","null","","0.2,0.8","2:nogo_b","0",""
"null","","html-keyboard-response","285","3907619","0.0-6.0-2.21","","<div style=""font-size:60px;"">+</div>","null","","","","","","",""
"null","","image-keyboard-response","286","3909120","0.0-6.0-0.22","","img/pink.png","null","trial","null","true","0.2,0.8","4:nogo_d","",""
"null","","html-keyboard-response","287","3910124","0.0-6.0-1.22","","<img src=""img/pink-r.png"">","null","trial","null","","0.2,0.8","4:nogo_d","1",""
"null","","html-keyboard-response","288","3911126","0.0-6.0-2.22","","<div style=""font-size:60px;"">+</div>","null","","","","","","",""
"634.8999999985099","","image-keyboard-response","289","3911761","0.0-6.0-0.23","","img/blue.png","32","trial","32","true","0.8,0.2","3:go_c","",""
"null","","html-keyboard-response","290","3912766","0.0-6.0-1.23","","<img src=""img/blue-n.png"" border=""10"">","null","trial","32","","0.8,0.2","3:go_c","0",""
"null","","html-keyboard-response","291","3913770","0.0-6.0-2.23","","<div style=""font-size:60px;"">+</div>","null","","","","","","",""
"660.9000000022352","","image-keyboard-response","292","3914431","0.0-6.0-0.24","","img/purple.png","32","trial","null","false","0.2,0.8","2:nogo_b","",""
"null","","html-keyboard-response","293","3915436","0.0-6.0-1.24","","<img src=""img/purple-n.png"" border=""10"">","null","trial","null","","0.2,0.8","2:nogo_b","0",""
"null","","html-keyboard-response","294","3916440","0.0-6.0-2.24","","<div style=""font-size:60px;"">+</div>","null","","","","","","",""
"840.3000000007451","","image-keyboard-response","295","3917281","0.0-6.0-0.25","","img/pink.png","32","trial","null","false","0.2,0.8","4:nogo_d","",""
"null","","html-keyboard-response","296","3918286","0.0-6.0-1.25","","<img src=""img/pink-n.png"" border=""10"">","null","trial","null","","0.2,0.8","4:nogo_d","0",""
"null","","html-keyboard-response","297","3919292","0.0-6.0-2.25","","<div style=""font-size:60px;"">+</div>","null","","","","","","",""
"508.1000000014901","","image-keyboard-response","298","3919801","0.0-6.0-0.26","","img/blue.png","32","trial","32","true","0.8,0.2","3:go_c","",""
"null","","html-keyboard-response","299","3920802","0.0-6.0-1.26","","<img src=""img/blue-r.png"" border=""10"">","null","trial","32","","0.8,0.2","3:go_c","1",""
"null","","html-keyboard-response","300","3921806","0.0-6.0-2.26","","<div style=""font-size:60px;"">+</div>","null","","","","","","",""
"545.1000000014901","","image-keyboard-response","301","3922352","0.0-6.0-0.27","","img/yellow.png","32","trial","32","true","0.8,0.2","1:go_a","",""
"null","","html-keyboard-response","302","3923357","0.0-6.0-1.27","","<img src=""img/yellow-r.png"" border=""10"">","null","trial","32","","0.8,0.2","1:go_a","1",""
"null","","html-keyboard-response","303","3924361","0.0-6.0-2.27","","<div style=""font-size:60px;"">+</div>","null","","","","","","",""
"null","","image-keyboard-response","304","3925866","0.0-6.0-0.28","","img/purple.png","null","trial","null","true","0.2,0.8","2:nogo_b","",""
"null","","html-keyboard-response","305","3926871","0.0-6.0-1.28","","<img src=""img/purple-r.png"">","null","trial","null","","0.2,0.8","2:nogo_b","1",""
"null","","html-keyboard-response","306","3927875","0.0-6.0-2.28","","<div style=""font-size:60px;"">+</div>","null","","","","","","",""
"null","","image-keyboard-response","307","3929380","0.0-6.0-0.29","","img/pink.png","null","trial","null","true","0.2,0.8","4:nogo_d","",""
"null","","html-keyboard-response","308","3930385","0.0-6.0-1.29","","<img src=""img/pink-r.png"">","null","trial","null","","0.2,0.8","4:nogo_d","1",""
"null","","html-keyboard-response","309","3931389","0.0-6.0-2.29","","<div style=""font-size:60px;"">+</div>","null","","","","","","",""
"472.5","","image-keyboard-response","310","3931862","0.0-6.0-0.30","","img/yellow.png","32","trial","32","true","0.8,0.2","1:go_a","",""
"null","","html-keyboard-response","311","3932867","0.0-6.0-1.30","","<img src=""img/yellow-n.png"" border=""10"">","null","trial","32","","0.8,0.2","1:go_a","0",""
"null","","html-keyboard-response","312","3933871","0.0-6.0-2.30","","<div style=""font-size:60px;"">+</div>","null","","","","","","",""
"405.1000000014901","","image-keyboard-response","313","3934277","0.0-6.0-0.31","","img/blue.png","32","trial","32","true","0.8,0.2","3:go_c","",""
"null","","html-keyboard-response","314","3935282","0.0-6.0-1.31","","<img src=""img/blue-r.png"" border=""10"">","null","trial","32","","0.8,0.2","3:go_c","1",""
"null","","html-keyboard-response","315","3936288","0.0-6.0-2.31","","<div style=""font-size:60px;"">+</div>","null","","","","","","",""
"703.6000000014901","","image-keyboard-response","316","3936992","0.0-6.0-0.32","","img/purple.png","32","trial","null","false","0.2,0.8","2:nogo_b","",""
"null","","html-keyboard-response","317","3937997","0.0-6.0-1.32","","<img src=""img/purple-r.png"" border=""10"">","null","trial","null","","0.2,0.8","2:nogo_b","1",""
"null","","html-keyboard-response","318","3939000","0.0-6.0-2.32","","<div style=""font-size:60px;"">+</div>","null","","","","","","",""
"601.3999999985099","","image-keyboard-response","319","3939602","0.0-6.0-0.33","","img/blue.png","32","trial","32","true","0.8,0.2","3:go_c","",""
"null","","html-keyboard-response","320","3940605","0.0-6.0-1.33","","<img src=""img/blue-r.png"" border=""10"">","null","trial","32","","0.8,0.2","3:go_c","1",""
"null","","html-keyboard-response","321","3941609","0.0-6.0-2.33","","<div style=""font-size:60px;"">+</div>","null","","","","","","",""
"542.4000000022352","","image-keyboard-response","322","3942152","0.0-6.0-0.34","","img/yellow.png","32","trial","32","true","0.8,0.2","1:go_a","",""
"null","","html-keyboard-response","323","3943157","0.0-6.0-1.34","","<img src=""img/yellow-r.png"" border=""10"">","null","trial","32","","0.8,0.2","1:go_a","1",""
"null","","html-keyboard-response","324","3944160","0.0-6.0-2.34","","<div style=""font-size:60px;"">+</div>","null","","","","","","",""
"null","","image-keyboard-response","325","3945664","0.0-6.0-0.35","","img/pink.png","null","trial","null","true","0.2,0.8","4:nogo_d","",""
"null","","html-keyboard-response","326","3946669","0.0-6.0-1.35","","<img src=""img/pink-r.png"">","null","trial","null","","0.2,0.8","4:nogo_d","1",""
"null","","html-keyboard-response","327","3947672","0.0-6.0-2.35","","<div style=""font-size:60px;"">+</div>","null","","","","","","",""
"null","","image-keyboard-response","328","3949176","0.0-6.0-0.36","","img/purple.png","null","trial","null","true","0.2,0.8","2:nogo_b","",""
"null","","html-keyboard-response","329","3950180","0.0-6.0-1.36","","<img src=""img/purple-r.png"">","null","trial","null","","0.2,0.8","2:nogo_b","1",""
"null","","html-keyboard-response","330","3951181","0.0-6.0-2.36","","<div style=""font-size:60px;"">+</div>","null","","","","","","",""
"616.8000000007451","","image-keyboard-response","331","3951798","0.0-6.0-0.37","","img/blue.png","32","trial","32","true","0.8,0.2","3:go_c","",""
"null","","html-keyboard-response","332","3952804","0.0-6.0-1.37","","<img src=""img/blue-r.png"" border=""10"">","null","trial","32","","0.8,0.2","3:go_c","1",""
"null","","html-keyboard-response","333","3953808","0.0-6.0-2.37","","<div style=""font-size:60px;"">+</div>","null","","","","","","",""
"null","","image-keyboard-response","334","3955314","0.0-6.0-0.38","","img/pink.png","null","trial","null","true","0.2,0.8","4:nogo_d","",""
"null","","html-keyboard-response","335","3956319","0.0-6.0-1.38","","<img src=""img/pink-r.png"">","null","trial","null","","0.2,0.8","4:nogo_d","1",""
"null","","html-keyboard-response","336","3957323","0.0-6.0-2.38","","<div style=""font-size:60px;"">+</div>","null","","","","","","",""
"504.20000000298023","","image-keyboard-response","337","3957828","0.0-6.0-0.39","","img/yellow.png","32","trial","32","true","0.8,0.2","1:go_a","",""
"null","","html-keyboard-response","338","3958829","0.0-6.0-1.39","","<img src=""img/yellow-r.png"" border=""10"">","null","trial","32","","0.8,0.2","1:go_a","1",""
"null","","html-keyboard-response","339","3959834","0.0-6.0-2.39","","<div style=""font-size:60px;"">+</div>","null","","","","","","",""
"633.3999999985099","","image-keyboard-response","340","3960468","0.0-6.0-0.40","","img/purple.png","32","trial","null","false","0.2,0.8","2:nogo_b","",""
"null","","html-keyboard-response","341","3961473","0.0-6.0-1.40","","<img src=""img/purple-n.png"" border=""10"">","null","trial","null","","0.2,0.8","2:nogo_b","0",""
"null","","html-keyboard-response","342","3962477","0.0-6.0-2.40","","<div style=""font-size:60px;"">+</div>","null","","","","","","",""
"555.3999999985099","","image-keyboard-response","343","3963033","0.0-6.0-0.41","","img/yellow.png","32","trial","32","true","0.8,0.2","1:go_a","",""
"null","","html-keyboard-response","344","3964036","0.0-6.0-1.41","","<img src=""img/yellow-r.png"" border=""10"">","null","trial","32","","0.8,0.2","1:go_a","1",""
"null","","html-keyboard-response","345","3965041","0.0-6.0-2.41","","<div style=""font-size:60px;"">+</div>","null","","","","","","",""
"null","","image-keyboard-response","346","3966544","0.0-6.0-0.42","","img/pink.png","null","trial","null","true","0.2,0.8","4:nogo_d","",""
"null","","html-keyboard-response","347","3967548","0.0-6.0-1.42","","<img src=""img/pink-r.png"">","null","trial","null","","0.2,0.8","4:nogo_d","1",""
"null","","html-keyboard-response","348","3968552","0.0-6.0-2.42","","<div style=""font-size:60px;"">+</div>","null","","","","","","",""
"585.8000000007451","","image-keyboard-response","349","3969138","0.0-6.0-0.43","","img/blue.png","32","trial","32","true","0.8,0.2","3:go_c","",""
"null","","html-keyboard-response","350","3970144","0.0-6.0-1.43","","<img src=""img/blue-r.png"" border=""10"">","null","trial","32","","0.8,0.2","3:go_c","1",""
"null","","html-keyboard-response","351","3971148","0.0-6.0-2.43","","<div style=""font-size:60px;"">+</div>","null","","","","","","",""
"600.6999999992549","","image-keyboard-response","352","3971749","0.0-6.0-0.44","","img/blue.png","32","trial","32","true","0.8,0.2","3:go_c","",""
"null","","html-keyboard-response","353","3972752","0.0-6.0-1.44","","<img src=""img/blue-r.png"" border=""10"">","null","trial","32","","0.8,0.2","3:go_c","1",""
"null","","html-keyboard-response","354","3973756","0.0-6.0-2.44","","<div style=""font-size:60px;"">+</div>","null","","","","","","",""
"992.1999999992549","","image-keyboard-response","355","3974749","0.0-6.0-0.45","","img/purple.png","32","trial","null","false","0.2,0.8","2:nogo_b","",""
"null","","html-keyboard-response","356","3975753","0.0-6.0-1.45","","<img src=""img/purple-r.png"" border=""10"">","null","trial","null","","0.2,0.8","2:nogo_b","1",""
"null","","html-keyboard-response","357","3976757","0.0-6.0-2.45","","<div style=""font-size:60px;"">+</div>","null","","","","","","",""
"721","","image-keyboard-response","358","3977479","0.0-6.0-0.46","","img/pink.png","32","trial","null","false","0.2,0.8","4:nogo_d","",""
"null","","html-keyboard-response","359","3978484","0.0-6.0-1.46","","<img src=""img/pink-n.png"" border=""10"">","null","trial","null","","0.2,0.8","4:nogo_d","0",""
"null","","html-keyboard-response","360","3979488","0.0-6.0-2.46","","<div style=""font-size:60px;"">+</div>","null","","","","","","",""
"510.3999999985099","","image-keyboard-response","361","3979999","0.0-6.0-0.47","","img/yellow.png","32","trial","32","true","0.8,0.2","1:go_a","",""
"null","","html-keyboard-response","362","3981000","0.0-6.0-1.47","","<img src=""img/yellow-r.png"" border=""10"">","null","trial","32","","0.8,0.2","1:go_a","1",""
"null","","html-keyboard-response","363","3982005","0.0-6.0-2.47","","<div style=""font-size:60px;"">+</div>","null","","","","","","",""
"589.1999999992549","","image-keyboard-response","364","3982594","0.0-6.0-0.48","","img/yellow.png","32","trial","32","true","0.8,0.2","1:go_a","",""
"null","","html-keyboard-response","365","3983600","0.0-6.0-1.48","","<img src=""img/yellow-n.png"" border=""10"">","null","trial","32","","0.8,0.2","1:go_a","0",""
"null","","html-keyboard-response","366","3984605","0.0-6.0-2.48","","<div style=""font-size:60px;"">+</div>","null","","","","","","",""
"809.2999999970198","","image-keyboard-response","367","3985415","0.0-6.0-0.49","","img/purple.png","32","trial","null","false","0.2,0.8","2:nogo_b","",""
"null","","html-keyboard-response","368","3986420","0.0-6.0-1.49","","<img src=""img/purple-n.png"" border=""10"">","null","trial","null","","0.2,0.8","2:nogo_b","0",""
"null","","html-keyboard-response","369","3987424","0.0-6.0-2.49","","<div style=""font-size:60px;"">+</div>","null","","","","","","",""
"null","","image-keyboard-response","370","3988927","0.0-6.0-0.50","","img/pink.png","null","trial","null","true","0.2,0.8","4:nogo_d","",""
"null","","html-keyboard-response","371","3989931","0.0-6.0-1.50","","<img src=""img/pink-r.png"">","null","trial","null","","0.2,0.8","4:nogo_d","1",""
"null","","html-keyboard-response","372","3990935","0.0-6.0-2.50","","<div style=""font-size:60px;"">+</div>","null","","","","","","",""
"614","","image-keyboard-response","373","3991550","0.0-6.0-0.51","","img/blue.png","32","trial","32","true","0.8,0.2","3:go_c","",""
"null","","html-keyboard-response","374","3992555","0.0-6.0-1.51","","<img src=""img/blue-r.png"" border=""10"">","null","trial","32","","0.8,0.2","3:go_c","1",""
"null","","html-keyboard-response","375","3993559","0.0-6.0-2.51","","<div style=""font-size:60px;"">+</div>","null","","","","","","",""
"510.1000000014901","","image-keyboard-response","376","3994070","0.0-6.0-0.52","","img/yellow.png","32","trial","32","true","0.8,0.2","1:go_a","",""
"null","","html-keyboard-response","377","3995071","0.0-6.0-1.52","","<img src=""img/yellow-r.png"" border=""10"">","null","trial","32","","0.8,0.2","1:go_a","1",""
"null","","html-keyboard-response","378","3996075","0.0-6.0-2.52","","<div style=""font-size:60px;"">+</div>","null","","","","","","",""
"739.3000000007451","","image-keyboard-response","379","3996815","0.0-6.0-0.53","","img/blue.png","32","trial","32","true","0.8,0.2","3:go_c","",""
"null","","html-keyboard-response","380","3997820","0.0-6.0-1.53","","<img src=""img/blue-r.png"" border=""10"">","null","trial","32","","0.8,0.2","3:go_c","1",""
"null","","html-keyboard-response","381","3998825","0.0-6.0-2.53","","<div style=""font-size:60px;"">+</div>","null","","","","","","",""
"674.9000000022352","","image-keyboard-response","382","3999500","0.0-6.0-0.54","","img/pink.png","32","trial","null","false","0.2,0.8","4:nogo_d","",""
"null","","html-keyboard-response","383","4000505","0.0-6.0-1.54","","<img src=""img/pink-r.png"" border=""10"">","null","trial","null","","0.2,0.8","4:nogo_d","1",""
"null","","html-keyboard-response","384","4001509","0.0-6.0-2.54","","<div style=""font-size:60px;"">+</div>","null","","","","","","",""
"null","","image-keyboard-response","385","4003015","0.0-6.0-0.55","","img/purple.png","null","trial","null","true","0.2,0.8","2:nogo_b","",""
"null","","html-keyboard-response","386","4004019","0.0-6.0-1.55","","<img src=""img/purple-r.png"">","null","trial","null","","0.2,0.8","2:nogo_b","1",""
"null","","html-keyboard-response","387","4005024","0.0-6.0-2.55","","<div style=""font-size:60px;"">+</div>","null","","","","","","",""
"null","","image-keyboard-response","388","4006528","0.0-6.0-0.56","","img/purple.png","null","trial","null","true","0.2,0.8","2:nogo_b","",""
"null","","html-keyboard-response","389","4007531","0.0-6.0-1.56","","<img src=""img/purple-r.png"">","null","trial","null","","0.2,0.8","2:nogo_b","1",""
"null","","html-keyboard-response","390","4008536","0.0-6.0-2.56","","<div style=""font-size:60px;"">+</div>","null","","","","","","",""
"534.1000000014901","","image-keyboard-response","391","4009071","0.0-6.0-0.57","","img/yellow.png","32","trial","32","true","0.8,0.2","1:go_a","",""
"null","","html-keyboard-response","392","4010075","0.0-6.0-1.57","","<img src=""img/yellow-r.png"" border=""10"">","null","trial","32","","0.8,0.2","1:go_a","1",""
"null","","html-keyboard-response","393","4011078","0.0-6.0-2.57","","<div style=""font-size:60px;"">+</div>","null","","","","","","",""
"465.8999999985099","","image-keyboard-response","394","4011545","0.0-6.0-0.58","","img/blue.png","32","trial","32","true","0.8,0.2","3:go_c","",""
"null","","html-keyboard-response","395","4012550","0.0-6.0-1.58","","<img src=""img/blue-r.png"" border=""10"">","null","trial","32","","0.8,0.2","3:go_c","1",""
"null","","html-keyboard-response","396","4013554","0.0-6.0-2.58","","<div style=""font-size:60px;"">+</div>","null","","","","","","",""
"630.3000000007451","","image-keyboard-response","397","4014185","0.0-6.0-0.59","","img/pink.png","32","trial","null","false","0.2,0.8","4:nogo_d","",""
"null","","html-keyboard-response","398","4015190","0.0-6.0-1.59","","<img src=""img/pink-n.png"" border=""10"">","null","trial","null","","0.2,0.8","4:nogo_d","0",""
"null","","html-keyboard-response","399","4016195","0.0-6.0-2.59","","<div style=""font-size:60px;"">+</div>","null","","","","","","",""
"569.4000000022352","","image-keyboard-response","400","4016765","0.0-6.0-0.60","","img/blue.png","32","trial","32","true","0.8,0.2","3:go_c","",""
"null","","html-keyboard-response","401","4017771","0.0-6.0-1.60","","<img src=""img/blue-r.png"" border=""10"">","null","trial","32","","0.8,0.2","3:go_c","1",""
"null","","html-keyboard-response","402","4018775","0.0-6.0-2.60","","<div style=""font-size:60px;"">+</div>","null","","","","","","",""
"495.5","","image-keyboard-response","403","4019271","0.0-6.0-0.61","","img/yellow.png","32","trial","32","true","0.8,0.2","1:go_a","",""
"null","","html-keyboard-response","404","4020276","0.0-6.0-1.61","","<img src=""img/yellow-n.png"" border=""10"">","null","trial","32","","0.8,0.2","1:go_a","0",""
"null","","html-keyboard-response","405","4021280","0.0-6.0-2.61","","<div style=""font-size:60px;"">+</div>","null","","","","","","",""
"764.8999999985099","","image-keyboard-response","406","4022046","0.0-6.0-0.62","","img/pink.png","32","trial","null","false","0.2,0.8","4:nogo_d","",""
"null","","html-keyboard-response","407","4023050","0.0-6.0-1.62","","<img src=""img/pink-n.png"" border=""10"">","null","trial","null","","0.2,0.8","4:nogo_d","0",""
"null","","html-keyboard-response","408","4024054","0.0-6.0-2.62","","<div style=""font-size:60px;"">+</div>","null","","","","","","",""
"661.1000000014901","","image-keyboard-response","409","4024716","0.0-6.0-0.63","","img/purple.png","32","trial","null","false","0.2,0.8","2:nogo_b","",""
"null","","html-keyboard-response","410","4025721","0.0-6.0-1.63","","<img src=""img/purple-n.png"" border=""10"">","null","trial","null","","0.2,0.8","2:nogo_b","0",""
"null","","html-keyboard-response","411","4026725","0.0-6.0-2.63","","<div style=""font-size:60px;"">+</div>","null","","","","","","",""
"495","","image-keyboard-response","412","4027221","0.0-6.0-0.64","","img/yellow.png","32","trial","32","true","0.8,0.2","1:go_a","",""
"null","","html-keyboard-response","413","4028226","0.0-6.0-1.64","","<img src=""img/yellow-r.png"" border=""10"">","null","trial","32","","0.8,0.2","1:go_a","1",""
"null","","html-keyboard-response","414","4029230","0.0-6.0-2.64","","<div style=""font-size:60px;"">+</div>","null","","","","","","",""
"null","","image-keyboard-response","415","4030734","0.0-6.0-0.65","","img/purple.png","null","trial","null","true","0.2,0.8","2:nogo_b","",""
"null","","html-keyboard-response","416","4031738","0.0-6.0-1.65","","<img src=""img/purple-r.png"">","null","trial","null","","0.2,0.8","2:nogo_b","1",""
"null","","html-keyboard-response","417","4032741","0.0-6.0-2.65","","<div style=""font-size:60px;"">+</div>","null","","","","","","",""
"509.5","","image-keyboard-response","418","4033251","0.0-6.0-0.66","","img/blue.png","32","trial","32","true","0.8,0.2","3:go_c","",""
"null","","html-keyboard-response","419","4034254","0.0-6.0-1.66","","<img src=""img/blue-n.png"" border=""10"">","null","trial","32","","0.8,0.2","3:go_c","0",""
"null","","html-keyboard-response","420","4035258","0.0-6.0-2.66","","<div style=""font-size:60px;"">+</div>","null","","","","","","",""
"662.5","","image-keyboard-response","421","4035921","0.0-6.0-0.67","","img/pink.png","32","trial","null","false","0.2,0.8","4:nogo_d","",""
"null","","html-keyboard-response","422","4036926","0.0-6.0-1.67","","<img src=""img/pink-r.png"" border=""10"">","null","trial","null","","0.2,0.8","4:nogo_d","1",""
"null","","html-keyboard-response","423","4037930","0.0-6.0-2.67","","<div style=""font-size:60px;"">+</div>","null","","","","","","",""
"661.5","","image-keyboard-response","424","4038592","0.0-6.0-0.68","","img/yellow.png","32","trial","32","true","0.8,0.2","1:go_a","",""
"null","","html-keyboard-response","425","4039597","0.0-6.0-1.68","","<img src=""img/yellow-r.png"" border=""10"">","null","trial","32","","0.8,0.2","1:go_a","1",""
"null","","html-keyboard-response","426","4040602","0.0-6.0-2.68","","<div style=""font-size:60px;"">+</div>","null","","","","","","",""
"614.4000000022352","","image-keyboard-response","427","4041217","0.0-6.0-0.69","","img/blue.png","32","trial","32","true","0.8,0.2","3:go_c","",""
"null","","html-keyboard-response","428","4042221","0.0-6.0-1.69","","<img src=""img/blue-r.png"" border=""10"">","null","trial","32","","0.8,0.2","3:go_c","1",""
"null","","html-keyboard-response","429","4043225","0.0-6.0-2.69","","<div style=""font-size:60px;"">+</div>","null","","","","","","",""
"1156.300000000745","","image-keyboard-response","430","4044382","0.0-6.0-0.70","","img/purple.png","32","trial","null","false","0.2,0.8","2:nogo_b","",""
"null","","html-keyboard-response","431","4045385","0.0-6.0-1.70","","<img src=""img/purple-n.png"" border=""10"">","null","trial","null","","0.2,0.8","2:nogo_b","0",""
"null","","html-keyboard-response","432","4046389","0.0-6.0-2.70","","<div style=""font-size:60px;"">+</div>","null","","","","","","",""
"632.1999999992549","","image-keyboard-response","433","4047022","0.0-6.0-0.71","","img/pink.png","32","trial","null","false","0.2,0.8","4:nogo_d","",""
"null","","html-keyboard-response","434","4048027","0.0-6.0-1.71","","<img src=""img/pink-n.png"" border=""10"">","null","trial","null","","0.2,0.8","4:nogo_d","0",""
"null","","html-keyboard-response","435","4049030","0.0-6.0-2.71","","<div style=""font-size:60px;"">+</div>","null","","","","","","",""
"676.3999999985099","","image-keyboard-response","436","4049707","0.0-6.0-0.72","","img/yellow.png","32","trial","32","true","0.8,0.2","1:go_a","",""
"null","","html-keyboard-response","437","4050710","0.0-6.0-1.72","","<img src=""img/yellow-n.png"" border=""10"">","null","trial","32","","0.8,0.2","1:go_a","0",""
"null","","html-keyboard-response","438","4051715","0.0-6.0-2.72","","<div style=""font-size:60px;"">+</div>","null","","","","","","",""
"601.9000000022352","","image-keyboard-response","439","4052318","0.0-6.0-0.73","","img/pink.png","32","trial","null","false","0.2,0.8","4:nogo_d","",""
"null","","html-keyboard-response","440","4053323","0.0-6.0-1.73","","<img src=""img/pink-n.png"" border=""10"">","null","trial","null","","0.2,0.8","4:nogo_d","0",""
"null","","html-keyboard-response","441","4054327","0.0-6.0-2.73","","<div style=""font-size:60px;"">+</div>","null","","","","","","",""
"494.9000000022352","","image-keyboard-response","442","4054823","0.0-6.0-0.74","","img/blue.png","32","trial","32","true","0.8,0.2","3:go_c","",""
"null","","html-keyboard-response","443","4055827","0.0-6.0-1.74","","<img src=""img/blue-r.png"" border=""10"">","null","trial","32","","0.8,0.2","3:go_c","1",""
"null","","html-keyboard-response","444","4056832","0.0-6.0-2.74","","<div style=""font-size:60px;"">+</div>","null","","","","","","",""
"null","","image-keyboard-response","445","4058337","0.0-6.0-0.75","","img/purple.png","null","trial","null","true","0.2,0.8","2:nogo_b","",""
"null","","html-keyboard-response","446","4059343","0.0-6.0-1.75","","<img src=""img/purple-r.png"">","null","trial","null","","0.2,0.8","2:nogo_b","1",""
"null","","html-keyboard-response","447","4060347","0.0-6.0-2.75","","<div style=""font-size:60px;"">+</div>","null","","","","","","",""
"550.3999999985099","","image-keyboard-response","448","4060898","0.0-6.0-0.76","","img/blue.png","32","trial","32","true","0.8,0.2","3:go_c","",""
"null","","html-keyboard-response","449","4061902","0.0-6.0-1.76","","<img src=""img/blue-r.png"" border=""10"">","null","trial","32","","0.8,0.2","3:go_c","1",""
"null","","html-keyboard-response","450","4062907","0.0-6.0-2.76","","<div style=""font-size:60px;"">+</div>","null","","","","","","",""
"null","","image-keyboard-response","451","4064410","0.0-6.0-0.77","","img/purple.png","null","trial","null","true","0.2,0.8","2:nogo_b","",""
"null","","html-keyboard-response","452","4065415","0.0-6.0-1.77","","<img src=""img/purple-r.png"">","null","trial","null","","0.2,0.8","2:nogo_b","1",""
"null","","html-keyboard-response","453","4066419","0.0-6.0-2.77","","<div style=""font-size:60px;"">+</div>","null","","","","","","",""
"null","","image-keyboard-response","454","4067924","0.0-6.0-0.78","","img/pink.png","null","trial","null","true","0.2,0.8","4:nogo_d","",""
"null","","html-keyboard-response","455","4068929","0.0-6.0-1.78","","<img src=""img/pink-r.png"">","null","trial","null","","0.2,0.8","4:nogo_d","1",""
"null","","html-keyboard-response","456","4069933","0.0-6.0-2.78","","<div style=""font-size:60px;"">+</div>","null","","","","","","",""
"505","","image-keyboard-response","457","4070438","0.0-6.0-0.79","","img/yellow.png","32","trial","32","true","0.8,0.2","1:go_a","",""
"null","","html-keyboard-response","458","4071440","0.0-6.0-1.79","","<img src=""img/yellow-r.png"" border=""10"">","null","trial","32","","0.8,0.2","1:go_a","1",""
"null","","html-keyboard-response","459","4072440","0.0-6.0-2.79","","<div style=""font-size:60px;"">+</div>","null","","","","","","",""
"607","","image-keyboard-response","460","4073048","0.0-6.0-0.80","","img/pink.png","32","trial","null","false","0.2,0.8","4:nogo_d","",""
"null","","html-keyboard-response","461","4074052","0.0-6.0-1.80","","<img src=""img/pink-n.png"" border=""10"">","null","trial","null","","0.2,0.8","4:nogo_d","0",""
"null","","html-keyboard-response","462","4075056","0.0-6.0-2.80","","<div style=""font-size:60px;"">+</div>","null","","","","","","",""
"511.30000000074506","","image-keyboard-response","463","4075568","0.0-6.0-0.81","","img/yellow.png","32","trial","32","true","0.8,0.2","1:go_a","",""
"null","","html-keyboard-response","464","4076570","0.0-6.0-1.81","","<img src=""img/yellow-r.png"" border=""10"">","null","trial","32","","0.8,0.2","1:go_a","1",""
"null","","html-keyboard-response","465","4077575","0.0-6.0-2.81","","<div style=""font-size:60px;"">+</div>","null","","","","","","",""
"null","","image-keyboard-response","466","4079080","0.0-6.0-0.82","","img/purple.png","null","trial","null","true","0.2,0.8","2:nogo_b","",""
"null","","html-keyboard-response","467","4080083","0.0-6.0-1.82","","<img src=""img/purple-r.png"">","null","trial","null","","0.2,0.8","2:nogo_b","1",""
"null","","html-keyboard-response","468","4081088","0.0-6.0-2.82","","<div style=""font-size:60px;"">+</div>","null","","","","","","",""
"630.1000000014901","","image-keyboard-response","469","4081719","0.0-6.0-0.83","","img/blue.png","32","trial","32","true","0.8,0.2","3:go_c","",""
"null","","html-keyboard-response","470","4082724","0.0-6.0-1.83","","<img src=""img/blue-r.png"" border=""10"">","null","trial","32","","0.8,0.2","3:go_c","1",""
"null","","html-keyboard-response","471","4083728","0.0-6.0-2.83","","<div style=""font-size:60px;"">+</div>","null","","","","","","",""
"null","","image-keyboard-response","472","4085232","0.0-6.0-0.84","","img/pink.png","null","trial","null","true","0.2,0.8","4:nogo_d","",""
"null","","html-keyboard-response","473","4086237","0.0-6.0-1.84","","<img src=""img/pink-r.png"">","null","trial","null","","0.2,0.8","4:nogo_d","1",""
"null","","html-keyboard-response","474","4087240","0.0-6.0-2.84","","<div style=""font-size:60px;"">+</div>","null","","","","","","",""
"583.3999999985099","","image-keyboard-response","475","4087824","0.0-6.0-0.85","","img/yellow.png","32","trial","32","true","0.8,0.2","1:go_a","",""
"null","","html-keyboard-response","476","4088828","0.0-6.0-1.85","","<img src=""img/yellow-r.png"" border=""10"">","null","trial","32","","0.8,0.2","1:go_a","1",""
"null","","html-keyboard-response","477","4089832","0.0-6.0-2.85","","<div style=""font-size:60px;"">+</div>","null","","","","","","",""
"811.9000000022352","","image-keyboard-response","478","4090644","0.0-6.0-0.86","","img/purple.png","32","trial","null","false","0.2,0.8","2:nogo_b","",""
"null","","html-keyboard-response","479","4091649","0.0-6.0-1.86","","<img src=""img/purple-n.png"" border=""10"">","null","trial","null","","0.2,0.8","2:nogo_b","0",""
"null","","html-keyboard-response","480","4092653","0.0-6.0-2.86","","<div style=""font-size:60px;"">+</div>","null","","","","","","",""
"705.8000000007451","","image-keyboard-response","481","4093359","0.0-6.0-0.87","","img/blue.png","32","trial","32","true","0.8,0.2","3:go_c","",""
"null","","html-keyboard-response","482","4094364","0.0-6.0-1.87","","<img src=""img/blue-r.png"" border=""10"">","null","trial","32","","0.8,0.2","3:go_c","1",""
"null","","html-keyboard-response","483","4095367","0.0-6.0-2.87","","<div style=""font-size:60px;"">+</div>","null","","","","","","",""
"571","","image-keyboard-response","484","4095939","0.0-6.0-0.88","","img/yellow.png","32","trial","32","true","0.8,0.2","1:go_a","",""
"null","","html-keyboard-response","485","4096943","0.0-6.0-1.88","","<img src=""img/yellow-r.png"" border=""10"">","null","trial","32","","0.8,0.2","1:go_a","1",""
"null","","html-keyboard-response","486","4097947","0.0-6.0-2.88","","<div style=""font-size:60px;"">+</div>","null","","","","","","",""
"null","","image-keyboard-response","487","4099451","0.0-6.0-0.89","","img/purple.png","null","trial","null","true","0.2,0.8","2:nogo_b","",""
"null","","html-keyboard-response","488","4100455","0.0-6.0-1.89","","<img src=""img/purple-r.png"">","null","trial","null","","0.2,0.8","2:nogo_b","1",""
"null","","html-keyboard-response","489","4101456","0.0-6.0-2.89","","<div style=""font-size:60px;"">+</div>","null","","","","","","",""
"573","","image-keyboard-response","490","4102029","0.0-6.0-0.90","","img/blue.png","32","trial","32","true","0.8,0.2","3:go_c","",""
"null","","html-keyboard-response","491","4103035","0.0-6.0-1.90","","<img src=""img/blue-r.png"" border=""10"">","null","trial","32","","0.8,0.2","3:go_c","1",""
"null","","html-keyboard-response","492","4104039","0.0-6.0-2.90","","<div style=""font-size:60px;"">+</div>","null","","","","","","",""
"null","","image-keyboard-response","493","4105543","0.0-6.0-0.91","","img/pink.png","null","trial","null","true","0.2,0.8","4:nogo_d","",""
"null","","html-keyboard-response","494","4106547","0.0-6.0-1.91","","<img src=""img/pink-r.png"">","null","trial","null","","0.2,0.8","4:nogo_d","1",""
"null","","html-keyboard-response","495","4107551","0.0-6.0-2.91","","<div style=""font-size:60px;"">+</div>","null","","","","","","",""
"658.5","","image-keyboard-response","496","4108210","0.0-6.0-0.92","","img/blue.png","32","trial","32","true","0.8,0.2","3:go_c","",""
"null","","html-keyboard-response","497","4109215","0.0-6.0-1.92","","<img src=""img/blue-r.png"" border=""10"">","null","trial","32","","0.8,0.2","3:go_c","1",""
"null","","html-keyboard-response","498","4110219","0.0-6.0-2.92","","<div style=""font-size:60px;"">+</div>","null","","","","","","",""
"660.3999999985099","","image-keyboard-response","499","4110880","0.0-6.0-0.93","","img/purple.png","32","trial","null","false","0.2,0.8","2:nogo_b","",""
"null","","html-keyboard-response","500","4111884","0.0-6.0-1.93","","<img src=""img/purple-n.png"" border=""10"">","null","trial","null","","0.2,0.8","2:nogo_b","0",""
"null","","html-keyboard-response","501","4112888","0.0-6.0-2.93","","<div style=""font-size:60px;"">+</div>","null","","","","","","",""
"645.7000000029802","","image-keyboard-response","502","4113534","0.0-6.0-0.94","","img/yellow.png","32","trial","32","true","0.8,0.2","1:go_a","",""
"null","","html-keyboard-response","503","4114538","0.0-6.0-1.94","","<img src=""img/yellow-n.png"" border=""10"">","null","trial","32","","0.8,0.2","1:go_a","0",""
"null","","html-keyboard-response","504","4115543","0.0-6.0-2.94","","<div style=""font-size:60px;"">+</div>","null","","","","","","",""
"736.6000000014901","","image-keyboard-response","505","4116280","0.0-6.0-0.95","","img/pink.png","32","trial","null","false","0.2,0.8","4:nogo_d","",""
"null","","html-keyboard-response","506","4117286","0.0-6.0-1.95","","<img src=""img/pink-n.png"" border=""10"">","null","trial","null","","0.2,0.8","4:nogo_d","0",""
"null","","html-keyboard-response","507","4118290","0.0-6.0-2.95","","<div style=""font-size:60px;"">+</div>","null","","","","","","",""
"null","","image-keyboard-response","508","4119793","0.0-6.0-0.96","","img/purple.png","null","trial","null","true","0.2,0.8","2:nogo_b","",""
"null","","html-keyboard-response","509","4120798","0.0-6.0-1.96","","<img src=""img/purple-n.png"">","null","trial","null","","0.2,0.8","2:nogo_b","0",""
"null","","html-keyboard-response","510","4121801","0.0-6.0-2.96","","<div style=""font-size:60px;"">+</div>","null","","","","","","",""
"598.7000000029802","","image-keyboard-response","511","4122401","0.0-6.0-0.97","","img/yellow.png","32","trial","32","true","0.8,0.2","1:go_a","",""
"null","","html-keyboard-response","512","4123404","0.0-6.0-1.97","","<img src=""img/yellow-n.png"" border=""10"">","null","trial","32","","0.8,0.2","1:go_a","0",""
"null","","html-keyboard-response","513","4124408","0.0-6.0-2.97","","<div style=""font-size:60px;"">+</div>","null","","","","","","",""
"616.8000000007451","","image-keyboard-response","514","4125026","0.0-6.0-0.98","","img/blue.png","32","trial","32","true","0.8,0.2","3:go_c","",""
"null","","html-keyboard-response","515","4126030","0.0-6.0-1.98","","<img src=""img/blue-r.png"" border=""10"">","null","trial","32","","0.8,0.2","3:go_c","1",""
"null","","html-keyboard-response","516","4127035","0.0-6.0-2.98","","<div style=""font-size:60px;"">+</div>","null","","","","","","",""
"960.0999999977648","","image-keyboard-response","517","4127996","0.0-6.0-0.99","","img/pink.png","32","trial","null","false","0.2,0.8","4:nogo_d","",""
"null","","html-keyboard-response","518","4128999","0.0-6.0-1.99","","<img src=""img/pink-n.png"" border=""10"">","null","trial","null","","0.2,0.8","4:nogo_d","0",""
"null","","html-keyboard-response","519","4130004","0.0-6.0-2.99","","<div style=""font-size:60px;"">+</div>","null","","","","","","",""
"526.2999999970198","","image-keyboard-response","520","4130531","0.0-6.0-0.100","","img/blue.png","32","trial","32","true","0.8,0.2","3:go_c","",""
"null","","html-keyboard-response","521","4131536","0.0-6.0-1.100","","<img src=""img/blue-r.png"" border=""10"">","null","trial","32","","0.8,0.2","3:go_c","1",""
"null","","html-keyboard-response","522","4132541","0.0-6.0-2.100","","<div style=""font-size:60px;"">+</div>","null","","","","","","",""
"null","","image-keyboard-response","523","4134046","0.0-6.0-0.101","","img/pink.png","null","trial","null","true","0.2,0.8","4:nogo_d","",""
"null","","html-keyboard-response","524","4135051","0.0-6.0-1.101","","<img src=""img/pink-r.png"">","null","trial","null","","0.2,0.8","4:nogo_d","1",""
"null","","html-keyboard-response","525","4136055","0.0-6.0-2.101","","<div style=""font-size:60px;"">+</div>","null","","","","","","",""
"null","","image-keyboard-response","526","4137558","0.0-6.0-0.102","","img/purple.png","null","trial","null","true","0.2,0.8","2:nogo_b","",""
"null","","html-keyboard-response","527","4138563","0.0-6.0-1.102","","<img src=""img/purple-r.png"">","null","trial","null","","0.2,0.8","2:nogo_b","1",""
"null","","html-keyboard-response","528","4139567","0.0-6.0-2.102","","<div style=""font-size:60px;"">+</div>","null","","","","","","",""
"683.7999999970198","","image-keyboard-response","529","4140252","0.0-6.0-0.103","","img/yellow.png","32","trial","32","true","0.8,0.2","1:go_a","",""
"null","","html-keyboard-response","530","4141257","0.0-6.0-1.103","","<img src=""img/yellow-r.png"" border=""10"">","null","trial","32","","0.8,0.2","1:go_a","1",""
"null","","html-keyboard-response","531","4142262","0.0-6.0-2.103","","<div style=""font-size:60px;"">+</div>","null","","","","","","",""
"null","","image-keyboard-response","532","4143767","0.0-6.0-0.104","","img/pink.png","null","trial","null","true","0.2,0.8","4:nogo_d","",""
"null","","html-keyboard-response","533","4144771","0.0-6.0-1.104","","<img src=""img/pink-r.png"">","null","trial","null","","0.2,0.8","4:nogo_d","1",""
"null","","html-keyboard-response","534","4145776","0.0-6.0-2.104","","<div style=""font-size:60px;"">+</div>","null","","","","","","",""
"700.1999999992549","","image-keyboard-response","535","4146477","0.0-6.0-0.105","","img/blue.png","32","trial","32","true","0.8,0.2","3:go_c","",""
"null","","html-keyboard-response","536","4147482","0.0-6.0-1.105","","<img src=""img/blue-r.png"" border=""10"">","null","trial","32","","0.8,0.2","3:go_c","1",""
"null","","html-keyboard-response","537","4148487","0.0-6.0-2.105","","<div style=""font-size:60px;"">+</div>","null","","","","","","",""
"null","","image-keyboard-response","538","4149992","0.0-6.0-0.106","","img/purple.png","null","trial","null","true","0.2,0.8","2:nogo_b","",""
"null","","html-keyboard-response","539","4150997","0.0-6.0-1.106","","<img src=""img/purple-r.png"">","null","trial","null","","0.2,0.8","2:nogo_b","1",""
"null","","html-keyboard-response","540","4152001","0.0-6.0-2.106","","<div style=""font-size:60px;"">+</div>","null","","","","","","",""
"565.1999999992549","","image-keyboard-response","541","4152567","0.0-6.0-0.107","","img/yellow.png","32","trial","32","true","0.8,0.2","1:go_a","",""
"null","","html-keyboard-response","542","4153572","0.0-6.0-1.107","","<img src=""img/yellow-n.png"" border=""10"">","null","trial","32","","0.8,0.2","1:go_a","0",""
"null","","html-keyboard-response","543","4154577","0.0-6.0-2.107","","<div style=""font-size:60px;"">+</div>","null","","","","","","",""
"555","","image-keyboard-response","544","4155132","0.0-6.0-0.108","","img/blue.png","32","trial","32","true","0.8,0.2","3:go_c","",""
"null","","html-keyboard-response","545","4156134","0.0-6.0-1.108","","<img src=""img/blue-r.png"" border=""10"">","null","trial","32","","0.8,0.2","3:go_c","1",""
"null","","html-keyboard-response","546","4157138","0.0-6.0-2.108","","<div style=""font-size:60px;"">+</div>","null","","","","","","",""
"722.8999999985099","","image-keyboard-response","547","4157862","0.0-6.0-0.109","","img/purple.png","32","trial","null","false","0.2,0.8","2:nogo_b","",""
"null","","html-keyboard-response","548","4158866","0.0-6.0-1.109","","<img src=""img/purple-n.png"" border=""10"">","null","trial","null","","0.2,0.8","2:nogo_b","0",""
"null","","html-keyboard-response","549","4159870","0.0-6.0-2.109","","<div style=""font-size:60px;"">+</div>","null","","","","","","",""
"705.8000000007451","","image-keyboard-response","550","4160576","0.0-6.0-0.110","","img/yellow.png","32","trial","32","true","0.8,0.2","1:go_a","",""
"null","","html-keyboard-response","551","4161579","0.0-6.0-1.110","","<img src=""img/yellow-r.png"" border=""10"">","null","trial","32","","0.8,0.2","1:go_a","1",""
"null","","html-keyboard-response","552","4162583","0.0-6.0-2.110","","<div style=""font-size:60px;"">+</div>","null","","","","","","",""
"null","","image-keyboard-response","553","4164089","0.0-6.0-0.111","","img/pink.png","null","trial","null","true","0.2,0.8","4:nogo_d","",""
"null","","html-keyboard-response","554","4165094","0.0-6.0-1.111","","<img src=""img/pink-r.png"">","null","trial","null","","0.2,0.8","4:nogo_d","1",""
"null","","html-keyboard-response","555","4166098","0.0-6.0-2.111","","<div style=""font-size:60px;"">+</div>","null","","","","","","",""
"null","","image-keyboard-response","556","4167601","0.0-6.0-0.112","","img/pink.png","null","trial","null","true","0.2,0.8","4:nogo_d","",""
"null","","html-keyboard-response","557","4168606","0.0-6.0-1.112","","<img src=""img/pink-r.png"">","null","trial","null","","0.2,0.8","4:nogo_d","1",""
"null","","html-keyboard-response","558","4169610","0.0-6.0-2.112","","<div style=""font-size:60px;"">+</div>","null","","","","","","",""
"583.1999999992549","","image-keyboard-response","559","4170193","0.0-6.0-0.113","","img/blue.png","32","trial","32","true","0.8,0.2","3:go_c","",""
"null","","html-keyboard-response","560","4171197","0.0-6.0-1.113","","<img src=""img/blue-n.png"" border=""10"">","null","trial","32","","0.8,0.2","3:go_c","0",""
"null","","html-keyboard-response","561","4172202","0.0-6.0-2.113","","<div style=""font-size:60px;"">+</div>","null","","","","","","",""
"645.5","","image-keyboard-response","562","4172848","0.0-6.0-0.114","","img/yellow.png","32","trial","32","true","0.8,0.2","1:go_a","",""
"null","","html-keyboard-response","563","4173853","0.0-6.0-1.114","","<img src=""img/yellow-r.png"" border=""10"">","null","trial","32","","0.8,0.2","1:go_a","1",""
"null","","html-keyboard-response","564","4174858","0.0-6.0-2.114","","<div style=""font-size:60px;"">+</div>","null","","","","","","",""
"569.3000000007451","","image-keyboard-response","565","4175428","0.0-6.0-0.115","","img/purple.png","32","trial","null","false","0.2,0.8","2:nogo_b","",""
"null","","html-keyboard-response","566","4176433","0.0-6.0-1.115","","<img src=""img/purple-n.png"" border=""10"">","null","trial","null","","0.2,0.8","2:nogo_b","0",""
"null","","html-keyboard-response","567","4177437","0.0-6.0-2.115","","<div style=""font-size:60px;"">+</div>","null","","","","","","",""
"null","","image-keyboard-response","568","4178941","0.0-6.0-0.116","","img/purple.png","null","trial","null","true","0.2,0.8","2:nogo_b","",""
"null","","html-keyboard-response","569","4179945","0.0-6.0-1.116","","<img src=""img/purple-r.png"">","null","trial","null","","0.2,0.8","2:nogo_b","1",""
"null","","html-keyboard-response","570","4180950","0.0-6.0-2.116","","<div style=""font-size:60px;"">+</div>","null","","","","","","",""
"627.5","","image-keyboard-response","571","4181578","0.0-6.0-0.117","","img/blue.png","32","trial","32","true","0.8,0.2","3:go_c","",""
"null","","html-keyboard-response","572","4182581","0.0-6.0-1.117","","<img src=""img/blue-r.png"" border=""10"">","null","trial","32","","0.8,0.2","3:go_c","1",""
"null","","html-keyboard-response","573","4183586","0.0-6.0-2.117","","<div style=""font-size:60px;"">+</div>","null","","","","","","",""
"691.3999999985099","","image-keyboard-response","574","4184278","0.0-6.0-0.118","","img/pink.png","32","trial","null","false","0.2,0.8","4:nogo_d","",""
"null","","html-keyboard-response","575","4185283","0.0-6.0-1.118","","<img src=""img/pink-r.png"" border=""10"">","null","trial","null","","0.2,0.8","4:nogo_d","1",""
"null","","html-keyboard-response","576","4186288","0.0-6.0-2.118","","<div style=""font-size:60px;"">+</div>","null","","","","","","",""
"674.5","","image-keyboard-response","577","4186964","0.0-6.0-0.119","","img/yellow.png","32","trial","32","true","0.8,0.2","1:go_a","",""
"null","","html-keyboard-response","578","4187968","0.0-6.0-1.119","","<img src=""img/yellow-r.png"" border=""10"">","null","trial","32","","0.8,0.2","1:go_a","1",""
"null","","html-keyboard-response","579","4188972","0.0-6.0-2.119","","<div style=""font-size:60px;"">+</div>","null","","","","","","",""
"98678.70000000298","","instructions","580","4287648","0.0-7.0","[{""page_index"":0,""viewing_time"":98678.60000000149}]","","","","","","","","",""
"614.2000000029802","","image-keyboard-response","581","4288263","0.0-8.0-0.0","","img/red.png","32","trial","null","false","0,1","4:nogo_d","",""
"null","","html-keyboard-response","582","4289267","0.0-8.0-1.0","","<img src=""img/red-n.png"" border=""10"">","null","trial","null","","0,1","4:nogo_d","0",""
"null","","html-keyboard-response","583","4290273","0.0-8.0-2.0","","<div style=""font-size:60px;"">+</div>","null","","","","","","",""
"674.4000000022352","","image-keyboard-response","584","4290948","0.0-8.0-0.1","","img/grey.png","32","trial","32","true","1,0","3:go_c","",""
"null","","html-keyboard-response","585","4291952","0.0-8.0-1.1","","<img src=""img/grey-r.png"" border=""10"">","null","trial","32","","1,0","3:go_c","1",""
"null","","html-keyboard-response","586","4292958","0.0-8.0-2.1","","<div style=""font-size:60px;"">+</div>","null","","","","","","",""
"600.0999999977648","","image-keyboard-response","587","4293558","0.0-8.0-0.2","","img/blue.png","32","trial","null","false","0.2,0.8","2:nogo_b","",""
"null","","html-keyboard-response","588","4294560","0.0-8.0-1.2","","<img src=""img/blue-r.png"" border=""10"">","null","trial","null","","0.2,0.8","2:nogo_b","1",""
"null","","html-keyboard-response","589","4295565","0.0-8.0-2.2","","<div style=""font-size:60px;"">+</div>","null","","","","","","",""
"646.2999999970198","","image-keyboard-response","590","4296212","0.0-8.0-0.3","","img/purple.png","32","trial","32","true","0.8,0.2","1:go_a","",""
"null","","html-keyboard-response","591","4297217","0.0-8.0-1.3","","<img src=""img/purple-r.png"" border=""10"">","null","trial","32","","0.8,0.2","1:go_a","1",""
"null","","html-keyboard-response","592","4298221","0.0-8.0-2.3","","<div style=""font-size:60px;"">+</div>","null","","","","","","",""
"661.9000000022352","","image-keyboard-response","593","4298883","0.0-8.0-0.4","","img/purple.png","32","trial","32","true","0.8,0.2","1:go_a","",""
"null","","html-keyboard-response","594","4299889","0.0-8.0-1.4","","<img src=""img/purple-r.png"" border=""10"">","null","trial","32","","0.8,0.2","1:go_a","1",""
"null","","html-keyboard-response","595","4300894","0.0-8.0-2.4","","<div style=""font-size:60px;"">+</div>","null","","","","","","",""
"629.0999999977648","","image-keyboard-response","596","4301524","0.0-8.0-0.5","","img/blue.png","32","trial","null","false","0.2,0.8","2:nogo_b","",""
"null","","html-keyboard-response","597","4302528","0.0-8.0-1.5","","<img src=""img/blue-r.png"" border=""10"">","null","trial","null","","0.2,0.8","2:nogo_b","1",""
"null","","html-keyboard-response","598","4303533","0.0-8.0-2.5","","<div style=""font-size:60px;"">+</div>","null","","","","","","",""
"525.4000000022352","","image-keyboard-response","599","4304059","0.0-8.0-0.6","","img/grey.png","32","trial","32","true","1,0","3:go_c","",""
"null","","html-keyboard-response","600","4305064","0.0-8.0-1.6","","<img src=""img/grey-r.png"" border=""10"">","null","trial","32","","1,0","3:go_c","1",""
"null","","html-keyboard-response","601","4306069","0.0-8.0-2.6","","<div style=""font-size:60px;"">+</div>","null","","","","","","",""
"null","","image-keyboard-response","602","4307574","0.0-8.0-0.7","","img/red.png","null","trial","null","true","0,1","4:nogo_d","",""
"null","","html-keyboard-response","603","4308579","0.0-8.0-1.7","","<img src=""img/red-r.png"">","null","trial","null","","0,1","4:nogo_d","1",""
"null","","html-keyboard-response","604","4309584","0.0-8.0-2.7","","<div style=""font-size:60px;"">+</div>","null","","","","","","",""
"565","","image-keyboard-response","605","4310150","0.0-8.0-0.8","","img/grey.png","32","trial","32","true","1,0","3:go_c","",""
"null","","html-keyboard-response","606","4311154","0.0-8.0-1.8","","<img src=""img/grey-r.png"" border=""10"">","null","trial","32","","1,0","3:go_c","1",""
"null","","html-keyboard-response","607","4312159","0.0-8.0-2.8","","<div style=""font-size:60px;"">+</div>","null","","","","","","",""
"539.4000000022352","","image-keyboard-response","608","4312699","0.0-8.0-0.9","","img/blue.png","32","trial","null","false","0.2,0.8","2:nogo_b","",""
"null","","html-keyboard-response","609","4313700","0.0-8.0-1.9","","<img src=""img/blue-n.png"" border=""10"">","null","trial","null","","0.2,0.8","2:nogo_b","0",""
"null","","html-keyboard-response","610","4314704","0.0-8.0-2.9","","<div style=""font-size:60px;"">+</div>","null","","","","","","",""
"694.6000000014901","","image-keyboard-response","611","4315399","0.0-8.0-0.10","","img/red.png","32","trial","null","false","0,1","4:nogo_d","",""
"null","","html-keyboard-response","612","4316404","0.0-8.0-1.10","","<img src=""img/red-n.png"" border=""10"">","null","trial","null","","0,1","4:nogo_d","0",""
"null","","html-keyboard-response","613","4317408","0.0-8.0-2.10","","<div style=""font-size:60px;"">+</div>","null","","","","","","",""
"764.1999999992549","","image-keyboard-response","614","4318174","0.0-8.0-0.11","","img/purple.png","32","trial","32","true","0.8,0.2","1:go_a","",""
"null","","html-keyboard-response","615","4319179","0.0-8.0-1.11","","<img src=""img/purple-r.png"" border=""10"">","null","trial","32","","0.8,0.2","1:go_a","1",""
"null","","html-keyboard-response","616","4320184","0.0-8.0-2.11","","<div style=""font-size:60px;"">+</div>","null","","","","","","",""
"660.1999999992549","","image-keyboard-response","617","4320844","0.0-8.0-0.12","","img/grey.png","32","trial","32","true","1,0","3:go_c","",""
"null","","html-keyboard-response","618","4321849","0.0-8.0-1.12","","<img src=""img/grey-r.png"" border=""10"">","null","trial","32","","1,0","3:go_c","1",""
"null","","html-keyboard-response","619","4322854","0.0-8.0-2.12","","<div style=""font-size:60px;"">+</div>","null","","","","","","",""
"735.8000000007451","","image-keyboard-response","620","4323590","0.0-8.0-0.13","","img/purple.png","32","trial","32","true","0.8,0.2","1:go_a","",""
"null","","html-keyboard-response","621","4324595","0.0-8.0-1.13","","<img src=""img/purple-r.png"" border=""10"">","null","trial","32","","0.8,0.2","1:go_a","1",""
"null","","html-keyboard-response","622","4325599","0.0-8.0-2.13","","<div style=""font-size:60px;"">+</div>","null","","","","","","",""
"614.6999999992549","","image-keyboard-response","623","4326215","0.0-8.0-0.14","","img/blue.png","32","trial","null","false","0.2,0.8","2:nogo_b","",""
"null","","html-keyboard-response","624","4327219","0.0-8.0-1.14","","<img src=""img/blue-n.png"" border=""10"">","null","trial","null","","0.2,0.8","2:nogo_b","0",""
"null","","html-keyboard-response","625","4328223","0.0-8.0-2.14","","<div style=""font-size:60px;"">+</div>","null","","","","","","",""
"null","","image-keyboard-response","626","4329727","0.0-8.0-0.15","","img/red.png","null","trial","null","true","0,1","4:nogo_d","",""
"null","","html-keyboard-response","627","4330732","0.0-8.0-1.15","","<img src=""img/red-r.png"">","null","trial","null","","0,1","4:nogo_d","1",""
"null","","html-keyboard-response","628","4331733","0.0-8.0-2.15","","<div style=""font-size:60px;"">+</div>","null","","","","","","",""
"542","","image-keyboard-response","629","4332275","0.0-8.0-0.16","","img/grey.png","32","trial","32","true","1,0","3:go_c","",""
"null","","html-keyboard-response","630","4333279","0.0-8.0-1.16","","<img src=""img/grey-r.png"" border=""10"">","null","trial","32","","1,0","3:go_c","1",""
"null","","html-keyboard-response","631","4334283","0.0-8.0-2.16","","<div style=""font-size:60px;"">+</div>","null","","","","","","",""
"691.5","","image-keyboard-response","632","4334976","0.0-8.0-0.17","","img/red.png","32","trial","null","false","0,1","4:nogo_d","",""
"null","","html-keyboard-response","633","4335981","0.0-8.0-1.17","","<img src=""img/red-n.png"" border=""10"">","null","trial","null","","0,1","4:nogo_d","0",""
"null","","html-keyboard-response","634","4336985","0.0-8.0-2.17","","<div style=""font-size:60px;"">+</div>","null","","","","","","",""
"691.8000000007451","","image-keyboard-response","635","4337677","0.0-8.0-0.18","","img/purple.png","32","trial","32","true","0.8,0.2","1:go_a","",""
"null","","html-keyboard-response","636","4338683","0.0-8.0-1.18","","<img src=""img/purple-n.png"" border=""10"">","null","trial","32","","0.8,0.2","1:go_a","0",""
"null","","html-keyboard-response","637","4339688","0.0-8.0-2.18","","<div style=""font-size:60px;"">+</div>","null","","","","","","",""
"659.8999999985099","","image-keyboard-response","638","4340349","0.0-8.0-0.19","","img/blue.png","32","trial","null","false","0.2,0.8","2:nogo_b","",""
"null","","html-keyboard-response","639","4341354","0.0-8.0-1.19","","<img src=""img/blue-n.png"" border=""10"">","null","trial","null","","0.2,0.8","2:nogo_b","0",""
"null","","html-keyboard-response","640","4342359","0.0-8.0-2.19","","<div style=""font-size:60px;"">+</div>","null","","","","","","",""
"690","","image-keyboard-response","641","4343050","0.0-8.0-0.20","","img/blue.png","32","trial","null","false","0.2,0.8","2:nogo_b","",""
"null","","html-keyboard-response","642","4344054","0.0-8.0-1.20","","<img src=""img/blue-n.png"" border=""10"">","null","trial","null","","0.2,0.8","2:nogo_b","0",""
"null","","html-keyboard-response","643","4345059","0.0-8.0-2.20","","<div style=""font-size:60px;"">+</div>","null","","","","","","",""
"645.6999999992549","","image-keyboard-response","644","4345706","0.0-8.0-0.21","","img/purple.png","32","trial","32","true","0.8,0.2","1:go_a","",""
"null","","html-keyboard-response","645","4346711","0.0-8.0-1.21","","<img src=""img/purple-r.png"" border=""10"">","null","trial","32","","0.8,0.2","1:go_a","1",""
"null","","html-keyboard-response","646","4347716","0.0-8.0-2.21","","<div style=""font-size:60px;"">+</div>","null","","","","","","",""
"null","","image-keyboard-response","647","4349222","0.0-8.0-0.22","","img/red.png","null","trial","null","true","0,1","4:nogo_d","",""
"null","","html-keyboard-response","648","4350226","0.0-8.0-1.22","","<img src=""img/red-r.png"">","null","trial","null","","0,1","4:nogo_d","1",""
"null","","html-keyboard-response","649","4351231","0.0-8.0-2.22","","<div style=""font-size:60px;"">+</div>","null","","","","","","",""
"864.6000000014901","","image-keyboard-response","650","4352096","0.0-8.0-0.23","","img/grey.png","32","trial","32","true","1,0","3:go_c","",""
"null","","html-keyboard-response","651","4353100","0.0-8.0-1.23","","<img src=""img/grey-r.png"" border=""10"">","null","trial","32","","1,0","3:go_c","1",""
"null","","html-keyboard-response","652","4354105","0.0-8.0-2.23","","<div style=""font-size:60px;"">+</div>","null","","","","","","",""
"481.8999999985099","","image-keyboard-response","653","4354588","0.0-8.0-0.24","","img/grey.png","32","trial","32","true","1,0","3:go_c","",""
"null","","html-keyboard-response","654","4355594","0.0-8.0-1.24","","<img src=""img/grey-r.png"" border=""10"">","null","trial","32","","1,0","3:go_c","1",""
"null","","html-keyboard-response","655","4356599","0.0-8.0-2.24","","<div style=""font-size:60px;"">+</div>","null","","","","","","",""
"553","","image-keyboard-response","656","4357153","0.0-8.0-0.25","","img/blue.png","32","trial","null","false","0.2,0.8","2:nogo_b","",""
"null","","html-keyboard-response","657","4358158","0.0-8.0-1.25","","<img src=""img/blue-n.png"" border=""10"">","null","trial","null","","0.2,0.8","2:nogo_b","0",""
"null","","html-keyboard-response","658","4359161","0.0-8.0-2.25","","<div style=""font-size:60px;"">+</div>","null","","","","","","",""
"766.5999999977648","","image-keyboard-response","659","4359929","0.0-8.0-0.26","","img/red.png","32","trial","null","false","0,1","4:nogo_d","",""
"null","","html-keyboard-response","660","4360934","0.0-8.0-1.26","","<img src=""img/red-n.png"" border=""10"">","null","trial","null","","0,1","4:nogo_d","0",""
"null","","html-keyboard-response","661","4361939","0.0-8.0-2.26","","<div style=""font-size:60px;"">+</div>","null","","","","","","",""
"749","","image-keyboard-response","662","4362689","0.0-8.0-0.27","","img/purple.png","32","trial","32","true","0.8,0.2","1:go_a","",""
"null","","html-keyboard-response","663","4363694","0.0-8.0-1.27","","<img src=""img/purple-n.png"" border=""10"">","null","trial","32","","0.8,0.2","1:go_a","0",""
"null","","html-keyboard-response","664","4364700","0.0-8.0-2.27","","<div style=""font-size:60px;"">+</div>","null","","","","","","",""
"719.2000000029802","","image-keyboard-response","665","4365420","0.0-8.0-0.28","","img/red.png","32","trial","null","false","0,1","4:nogo_d","",""
"null","","html-keyboard-response","666","4366423","0.0-8.0-1.28","","<img src=""img/red-n.png"" border=""10"">","null","trial","null","","0,1","4:nogo_d","0",""
"null","","html-keyboard-response","667","4367428","0.0-8.0-2.28","","<div style=""font-size:60px;"">+</div>","null","","","","","","",""
"555.5","","image-keyboard-response","668","4367985","0.0-8.0-0.29","","img/grey.png","32","trial","32","true","1,0","3:go_c","",""
"null","","html-keyboard-response","669","4368990","0.0-8.0-1.29","","<img src=""img/grey-r.png"" border=""10"">","null","trial","32","","1,0","3:go_c","1",""
"null","","html-keyboard-response","670","4369994","0.0-8.0-2.29","","<div style=""font-size:60px;"">+</div>","null","","","","","","",""
"602.1999999992549","","image-keyboard-response","671","4370597","0.0-8.0-0.30","","img/blue.png","32","trial","null","false","0.2,0.8","2:nogo_b","",""
"null","","html-keyboard-response","672","4371602","0.0-8.0-1.30","","<img src=""img/blue-n.png"" border=""10"">","null","trial","null","","0.2,0.8","2:nogo_b","0",""
