"rt","url","trial_type","trial_index","time_elapsed","internal_node_id","view_history","stimulus","key_press","test_part","correct_response","correct","use_rew","which_stim","reward","responses"
"31818.30500002252","consent.html","external-html","0","31929","0.0-0.0","","","","","","","","","",""
"1700407.8200000222","","instructions","1","1732337","0.0-1.0","[{""page_index"":0,""viewing_time"":5653.645000013057},{""page_index"":1,""viewing_time"":39606.005000008736},{""page_index"":2,""viewing_time"":13494.19499997748},{""page_index"":3,""viewing_time"":40847.81499998644},{""page_index"":4,""viewing_time"":23662.10499999579},{""page_index"":5,""viewing_time"":15751.850000000559},{""page_index"":6,""viewing_time"":1561391.6200000094}]","","","","","","","","",""
"null","","image-keyboard-response","2","1733840","0.0-2.0-0.0","","img/test2.PNG","null","practice","null","true","","","",""
"null","","html-keyboard-response","3","1734842","0.0-2.0-1.0","","<img src=""img/test2-reward.PNG"">","null","","","","","","",""
"null","","html-keyboard-response","4","1735843","0.0-2.0-2.0","","<div style=""font-size:60px;"">+</div>","null","","","","","","",""
"null","","image-keyboard-response","5","1737346","0.0-2.0-0.1","","img/test3.PNG","null","practice","null","true","","","",""
"null","","html-keyboard-response","6","1738347","0.0-2.0-1.1","","<img src=""img/test3-reward.PNG"">","null","","","","","","",""
"null","","html-keyboard-response","7","1739348","0.0-2.0-2.1","","<div style=""font-size:60px;"">+</div>","null","","","","","","",""
"491.71999999089167","","image-keyboard-response","8","1739842","0.0-2.0-0.2","","img/test1.PNG","32","practice","32","true","","","",""
"null","","html-keyboard-response","9","1740844","0.0-2.0-1.2","","<img src=""img/test1-reward.PNG"" border=""10px; grey"">","null","","","","","","",""
"null","","html-keyboard-response","10","1741852","0.0-2.0-2.2","","<div style=""font-size:60px;"">+</div>","null","","","","","","",""
"null","","image-keyboard-response","11","1743364","0.0-2.0-0.3","","img/test3.PNG","null","practice","null","true","","","",""
"null","","html-keyboard-response","12","1744366","0.0-2.0-1.3","","<img src=""img/test3-reward.PNG"">","null","","","","","","",""
"null","","html-keyboard-response","13","1745376","0.0-2.0-2.3","","<div style=""font-size:60px;"">+</div>","null","","","","","","",""
"null","","image-keyboard-response","14","1746879","0.0-2.0-0.4","","img/test2.PNG","null","practice","null","true","","","",""
"null","","html-keyboard-response","15","1747881","0.0-2.0-1.4","","<img src=""img/test2-reward.PNG"">","null","","","","","","",""
"null","","html-keyboard-response","16","1748883","0.0-2.0-2.4","","<div style=""font-size:60px;"">+</div>","null","","","","","","",""
"388.7100000283681","","image-keyboard-response","17","1749273","0.0-2.0-0.5","","img/test1.PNG","32","practice","32","true","","","",""
"null","","html-keyboard-response","18","1750274","0.0-2.0-1.5","","<img src=""img/test1-reward.PNG"" border=""10px; grey"">","null","","","","","","",""
"null","","html-keyboard-response","19","1751276","0.0-2.0-2.5","","<div style=""font-size:60px;"">+</div>","null","","","","","","",""
"null","","image-keyboard-response","20","1752777","0.0-2.0-0.6","","img/test2.PNG","null","practice","null","true","","","",""
"null","","html-keyboard-response","21","1753779","0.0-2.0-1.6","","<img src=""img/test2-reward.PNG"">","null","","","","","","",""
"null","","html-keyboard-response","22","1754780","0.0-2.0-2.6","","<div style=""font-size:60px;"">+</div>","null","","","","","","",""
"451.09500002581626","","image-keyboard-response","23","1755233","0.0-2.0-0.7","","img/test1.PNG","32","practice","32","true","","","",""
"null","","html-keyboard-response","24","1756242","0.0-2.0-1.7","","<img src=""img/test1-reward.PNG"" border=""10px; grey"">","null","","","","","","",""
"null","","html-keyboard-response","25","1757244","0.0-2.0-2.7","","<div style=""font-size:60px;"">+</div>","null","","","","","","",""
"null","","image-keyboard-response","26","1758746","0.0-2.0-0.8","","img/test3.PNG","null","practice","null","true","","","",""
"null","","html-keyboard-response","27","1759748","0.0-2.0-1.8","","<img src=""img/test3-reward.PNG"">","null","","","","","","",""
"null","","html-keyboard-response","28","1760749","0.0-2.0-2.8","","<div style=""font-size:60px;"">+</div>","null","","","","","","",""
"null","","image-keyboard-response","29","1762261","0.0-2.0-0.9","","img/test3.PNG","null","practice","null","true","","","",""
"null","","html-keyboard-response","30","1763262","0.0-2.0-1.9","","<img src=""img/test3-reward.PNG"">","null","","","","","","",""
"null","","html-keyboard-response","31","1764265","0.0-2.0-2.9","","<div style=""font-size:60px;"">+</div>","null","","","","","","",""
"511.8199999560602","","image-keyboard-response","32","1764778","0.0-2.0-0.10","","img/test1.PNG","32","practice","32","true","","","",""
"null","","html-keyboard-response","33","1765780","0.0-2.0-1.10","","<img src=""img/test1-reward.PNG"" border=""10px; grey"">","null","","","","","","",""
"null","","html-keyboard-response","34","1766781","0.0-2.0-2.10","","<div style=""font-size:60px;"">+</div>","null","","","","","","",""
"null","","image-keyboard-response","35","1768283","0.0-2.0-0.11","","img/test2.PNG","null","practice","null","true","","","",""
"null","","html-keyboard-response","36","1769286","0.0-2.0-1.11","","<img src=""img/test2-reward.PNG"">","null","","","","","","",""
"null","","html-keyboard-response","37","1770287","0.0-2.0-2.11","","<div style=""font-size:60px;"">+</div>","null","","","","","","",""
"5893.639999965671","","instructions","38","1776181","0.0-3.0","[{""page_index"":0,""viewing_time"":5893.474999989849}]","","","","","","","","",""
"null","","image-keyboard-response","39","1777683","0.0-4.0-0.0","","img/pink.png","null","trial","null","true","0.2,0.8","2:nogo_b","",""
"null","","html-keyboard-response","40","1778688","0.0-4.0-1.0","","<img src=""img/pink-n.png"">","null","trial","null","","0.2,0.8","2:nogo_b","0",""
"null","","html-keyboard-response","41","1779690","0.0-4.0-2.0","","<div style=""font-size:60px;"">+</div>","null","","","","","","",""
"518.6300000059418","","image-keyboard-response","42","1780209","0.0-4.0-0.1","","img/blue.png","32","trial","32","true","0.8,0.2","1:go_a","",""
"null","","html-keyboard-response","43","1781212","0.0-4.0-1.1","","<img src=""img/blue-n.png"" border=""10"">","null","trial","32","","0.8,0.2","1:go_a","0",""
"null","","html-keyboard-response","44","1782213","0.0-4.0-2.1","","<div style=""font-size:60px;"">+</div>","null","","","","","","",""
"699.6649999637157","","image-keyboard-response","45","1782914","0.0-4.0-0.2","","img/blue.png","32","trial","32","true","0.8,0.2","1:go_a","",""
"null","","html-keyboard-response","46","1783917","0.0-4.0-1.2","","<img src=""img/blue-r.png"" border=""10"">","null","trial","32","","0.8,0.2","1:go_a","1",""
"null","","html-keyboard-response","47","1784919","0.0-4.0-2.2","","<div style=""font-size:60px;"">+</div>","null","","","","","","",""
"null","","image-keyboard-response","48","1786421","0.0-4.0-0.3","","img/pink.png","null","trial","null","true","0.2,0.8","2:nogo_b","",""
"null","","html-keyboard-response","49","1787424","0.0-4.0-1.3","","<img src=""img/pink-n.png"">","null","trial","null","","0.2,0.8","2:nogo_b","0",""
"null","","html-keyboard-response","50","1788426","0.0-4.0-2.3","","<div style=""font-size:60px;"">+</div>","null","","","","","","",""
"456.3550000311807","","image-keyboard-response","51","1788883","0.0-4.0-0.4","","img/blue.png","32","trial","32","true","0.8,0.2","1:go_a","",""
"null","","html-keyboard-response","52","1789886","0.0-4.0-1.4","","<img src=""img/blue-r.png"" border=""10"">","null","trial","32","","0.8,0.2","1:go_a","1",""
"null","","html-keyboard-response","53","1790888","0.0-4.0-2.4","","<div style=""font-size:60px;"">+</div>","null","","","","","","",""
"null","","image-keyboard-response","54","1792389","0.0-4.0-0.5","","img/pink.png","null","trial","null","true","0.2,0.8","2:nogo_b","",""
"null","","html-keyboard-response","55","1793405","0.0-4.0-1.5","","<img src=""img/pink-r.png"">","null","trial","null","","0.2,0.8","2:nogo_b","1",""
"null","","html-keyboard-response","56","1794406","0.0-4.0-2.5","","<div style=""font-size:60px;"">+</div>","null","","","","","","",""
"null","","image-keyboard-response","57","1795909","0.0-4.0-0.6","","img/pink.png","null","trial","null","true","0.2,0.8","2:nogo_b","",""
"null","","html-keyboard-response","58","1796911","0.0-4.0-1.6","","<img src=""img/pink-r.png"">","null","trial","null","","0.2,0.8","2:nogo_b","1",""
"null","","html-keyboard-response","59","1797913","0.0-4.0-2.6","","<div style=""font-size:60px;"">+</div>","null","","","","","","",""
"671.2149999802932","","image-keyboard-response","60","1798585","0.0-4.0-0.7","","img/blue.png","32","trial","32","true","0.8,0.2","1:go_a","",""
"null","","html-keyboard-response","61","1799587","0.0-4.0-1.7","","<img src=""img/blue-r.png"" border=""10"">","null","trial","32","","0.8,0.2","1:go_a","1",""
"null","","html-keyboard-response","62","1800588","0.0-4.0-2.7","","<div style=""font-size:60px;"">+</div>","null","","","","","","",""
"null","","image-keyboard-response","63","1802091","0.0-4.0-0.8","","img/pink.png","null","trial","null","true","0.2,0.8","2:nogo_b","",""
"null","","html-keyboard-response","64","1803093","0.0-4.0-1.8","","<img src=""img/pink-n.png"">","null","trial","null","","0.2,0.8","2:nogo_b","0",""
"null","","html-keyboard-response","65","1804104","0.0-4.0-2.8","","<div style=""font-size:60px;"">+</div>","null","","","","","","",""
"409.40999996382743","","image-keyboard-response","66","1804516","0.0-4.0-0.9","","img/blue.png","32","trial","32","true","0.8,0.2","1:go_a","",""
"null","","html-keyboard-response","67","1805518","0.0-4.0-1.9","","<img src=""img/blue-r.png"" border=""10"">","null","trial","32","","0.8,0.2","1:go_a","1",""
"null","","html-keyboard-response","68","1806519","0.0-4.0-2.9","","<div style=""font-size:60px;"">+</div>","null","","","","","","",""
"872.9399999720044","","image-keyboard-response","69","1807393","0.0-4.0-0.10","","img/pink.png","32","trial","null","false","0.2,0.8","2:nogo_b","",""
"null","","html-keyboard-response","70","1808395","0.0-4.0-1.10","","<img src=""img/pink-n.png"" border=""10"">","null","trial","null","","0.2,0.8","2:nogo_b","0",""
"null","","html-keyboard-response","71","1809397","0.0-4.0-2.10","","<div style=""font-size:60px;"">+</div>","null","","","","","","",""
"516.6249999892898","","image-keyboard-response","72","1809914","0.0-4.0-0.11","","img/blue.png","32","trial","32","true","0.8,0.2","1:go_a","",""
"null","","html-keyboard-response","73","1810917","0.0-4.0-1.11","","<img src=""img/blue-r.png"" border=""10"">","null","trial","32","","0.8,0.2","1:go_a","1",""
"null","","html-keyboard-response","74","1811918","0.0-4.0-2.11","","<div style=""font-size:60px;"">+</div>","null","","","","","","",""
"417.989999987185","","image-keyboard-response","75","1812337","0.0-4.0-0.12","","img/blue.png","32","trial","32","true","0.8,0.2","1:go_a","",""
"null","","html-keyboard-response","76","1813339","0.0-4.0-1.12","","<img src=""img/blue-r.png"" border=""10"">","null","trial","32","","0.8,0.2","1:go_a","1",""
"null","","html-keyboard-response","77","1814340","0.0-4.0-2.12","","<div style=""font-size:60px;"">+</div>","null","","","","","","",""
"null","","image-keyboard-response","78","1815841","0.0-4.0-0.13","","img/pink.png","null","trial","null","true","0.2,0.8","2:nogo_b","",""
"null","","html-keyboard-response","79","1816844","0.0-4.0-1.13","","<img src=""img/pink-r.png"">","null","trial","null","","0.2,0.8","2:nogo_b","1",""
"null","","html-keyboard-response","80","1817846","0.0-4.0-2.13","","<div style=""font-size:60px;"">+</div>","null","","","","","","",""
"465.88999999221414","","image-keyboard-response","81","1818313","0.0-4.0-0.14","","img/blue.png","32","trial","32","true","0.8,0.2","1:go_a","",""
"null","","html-keyboard-response","82","1819315","0.0-4.0-1.14","","<img src=""img/blue-r.png"" border=""10"">","null","trial","32","","0.8,0.2","1:go_a","1",""
"null","","html-keyboard-response","83","1820316","0.0-4.0-2.14","","<div style=""font-size:60px;"">+</div>","null","","","","","","",""
"null","","image-keyboard-response","84","1821818","0.0-4.0-0.15","","img/pink.png","null","trial","null","true","0.2,0.8","2:nogo_b","",""
"null","","html-keyboard-response","85","1822821","0.0-4.0-1.15","","<img src=""img/pink-n.png"">","null","trial","null","","0.2,0.8","2:nogo_b","0",""
"null","","html-keyboard-response","86","1823822","0.0-4.0-2.15","","<div style=""font-size:60px;"">+</div>","null","","","","","","",""
"null","","image-keyboard-response","87","1825324","0.0-4.0-0.16","","img/pink.png","null","trial","null","true","0.2,0.8","2:nogo_b","",""
"null","","html-keyboard-response","88","1826325","0.0-4.0-1.16","","<img src=""img/pink-r.png"">","null","trial","null","","0.2,0.8","2:nogo_b","1",""
"null","","html-keyboard-response","89","1827326","0.0-4.0-2.16","","<div style=""font-size:60px;"">+</div>","null","","","","","","",""
"393.9200000022538","","image-keyboard-response","90","1827721","0.0-4.0-0.17","","img/blue.png","32","trial","32","true","0.8,0.2","1:go_a","",""
"null","","html-keyboard-response","91","1828723","0.0-4.0-1.17","","<img src=""img/blue-r.png"" border=""10"">","null","trial","32","","0.8,0.2","1:go_a","1",""
"null","","html-keyboard-response","92","1829724","0.0-4.0-2.17","","<div style=""font-size:60px;"">+</div>","null","","","","","","",""
"579.535000026226","","image-keyboard-response","93","1830305","0.0-4.0-0.18","","img/blue.png","32","trial","32","true","0.8,0.2","1:go_a","",""
"null","","html-keyboard-response","94","1831307","0.0-4.0-1.18","","<img src=""img/blue-r.png"" border=""10"">","null","trial","32","","0.8,0.2","1:go_a","1",""
"null","","html-keyboard-response","95","1832309","0.0-4.0-2.18","","<div style=""font-size:60px;"">+</div>","null","","","","","","",""
"null","","image-keyboard-response","96","1833810","0.0-4.0-0.19","","img/pink.png","null","trial","null","true","0.2,0.8","2:nogo_b","",""
"null","","html-keyboard-response","97","1834812","0.0-4.0-1.19","","<img src=""img/pink-r.png"">","null","trial","null","","0.2,0.8","2:nogo_b","1",""
"null","","html-keyboard-response","98","1835813","0.0-4.0-2.19","","<div style=""font-size:60px;"">+</div>","null","","","","","","",""
"null","","image-keyboard-response","99","1837316","0.0-4.0-0.20","","img/pink.png","null","trial","null","true","0.2,0.8","2:nogo_b","",""
"null","","html-keyboard-response","100","1838318","0.0-4.0-1.20","","<img src=""img/pink-r.png"">","null","trial","null","","0.2,0.8","2:nogo_b","1",""
"null","","html-keyboard-response","101","1839320","0.0-4.0-2.20","","<div style=""font-size:60px;"">+</div>","null","","","","","","",""
"455.759999982547","","image-keyboard-response","102","1839777","0.0-4.0-0.21","","img/blue.png","32","trial","32","true","0.8,0.2","1:go_a","",""
"null","","html-keyboard-response","103","1840778","0.0-4.0-1.21","","<img src=""img/blue-r.png"" border=""10"">","null","trial","32","","0.8,0.2","1:go_a","1",""
"null","","html-keyboard-response","104","1841779","0.0-4.0-2.21","","<div style=""font-size:60px;"">+</div>","null","","","","","","",""
"null","","image-keyboard-response","105","1843290","0.0-4.0-0.22","","img/pink.png","null","trial","null","true","0.2,0.8","2:nogo_b","",""
"null","","html-keyboard-response","106","1844291","0.0-4.0-1.22","","<img src=""img/pink-r.png"">","null","trial","null","","0.2,0.8","2:nogo_b","1",""
"null","","html-keyboard-response","107","1845293","0.0-4.0-2.22","","<div style=""font-size:60px;"">+</div>","null","","","","","","",""
"462.5600000144914","","image-keyboard-response","108","1845756","0.0-4.0-0.23","","img/blue.png","32","trial","32","true","0.8,0.2","1:go_a","",""
"null","","html-keyboard-response","109","1846759","0.0-4.0-1.23","","<img src=""img/blue-r.png"" border=""10"">","null","trial","32","","0.8,0.2","1:go_a","1",""
"null","","html-keyboard-response","110","1847760","0.0-4.0-2.23","","<div style=""font-size:60px;"">+</div>","null","","","","","","",""
"null","","image-keyboard-response","111","1849267","0.0-4.0-0.24","","img/pink.png","null","trial","null","true","0.2,0.8","2:nogo_b","",""
"null","","html-keyboard-response","112","1850278","0.0-4.0-1.24","","<img src=""img/pink-r.png"">","null","trial","null","","0.2,0.8","2:nogo_b","1",""
"null","","html-keyboard-response","113","1851292","0.0-4.0-2.24","","<div style=""font-size:60px;"">+</div>","null","","","","","","",""
"405.9299999498762","","image-keyboard-response","114","1851698","0.0-4.0-0.25","","img/blue.png","32","trial","32","true","0.8,0.2","1:go_a","",""
"null","","html-keyboard-response","115","1852701","0.0-4.0-1.25","","<img src=""img/blue-r.png"" border=""10"">","null","trial","32","","0.8,0.2","1:go_a","1",""
"null","","html-keyboard-response","116","1853703","0.0-4.0-2.25","","<div style=""font-size:60px;"">+</div>","null","","","","","","",""
"456.53499994659796","","image-keyboard-response","117","1854161","0.0-4.0-0.26","","img/blue.png","32","trial","32","true","0.8,0.2","1:go_a","",""
"null","","html-keyboard-response","118","1855163","0.0-4.0-1.26","","<img src=""img/blue-r.png"" border=""10"">","null","trial","32","","0.8,0.2","1:go_a","1",""
"null","","html-keyboard-response","119","1856164","0.0-4.0-2.26","","<div style=""font-size:60px;"">+</div>","null","","","","","","",""
"null","","image-keyboard-response","120","1857665","0.0-4.0-0.27","","img/pink.png","null","trial","null","true","0.2,0.8","2:nogo_b","",""
"null","","html-keyboard-response","121","1858668","0.0-4.0-1.27","","<img src=""img/pink-r.png"">","null","trial","null","","0.2,0.8","2:nogo_b","1",""
"null","","html-keyboard-response","122","1859668","0.0-4.0-2.27","","<div style=""font-size:60px;"">+</div>","null","","","","","","",""
"397.7449999656528","","image-keyboard-response","123","1860067","0.0-4.0-0.28","","img/blue.png","32","trial","32","true","0.8,0.2","1:go_a","",""
"null","","html-keyboard-response","124","1861070","0.0-4.0-1.28","","<img src=""img/blue-r.png"" border=""10"">","null","trial","32","","0.8,0.2","1:go_a","1",""
"null","","html-keyboard-response","125","1862073","0.0-4.0-2.28","","<div style=""font-size:60px;"">+</div>","null","","","","","","",""
"null","","image-keyboard-response","126","1863575","0.0-4.0-0.29","","img/pink.png","null","trial","null","true","0.2,0.8","2:nogo_b","",""
"null","","html-keyboard-response","127","1864577","0.0-4.0-1.29","","<img src=""img/pink-r.png"">","null","trial","null","","0.2,0.8","2:nogo_b","1",""
"null","","html-keyboard-response","128","1865579","0.0-4.0-2.29","","<div style=""font-size:60px;"">+</div>","null","","","","","","",""
"null","","image-keyboard-response","129","1867082","0.0-4.0-0.30","","img/pink.png","null","trial","null","true","0.2,0.8","2:nogo_b","",""
"null","","html-keyboard-response","130","1868086","0.0-4.0-1.30","","<img src=""img/pink-r.png"">","null","trial","null","","0.2,0.8","2:nogo_b","1",""
"null","","html-keyboard-response","131","1869087","0.0-4.0-2.30","","<div style=""font-size:60px;"">+</div>","null","","","","","","",""
"490.5600000056438","","image-keyboard-response","132","1869579","0.0-4.0-0.31","","img/blue.png","32","trial","32","true","0.8,0.2","1:go_a","",""
"null","","html-keyboard-response","133","1870581","0.0-4.0-1.31","","<img src=""img/blue-n.png"" border=""10"">","null","trial","32","","0.8,0.2","1:go_a","0",""
"null","","html-keyboard-response","134","1871583","0.0-4.0-2.31","","<div style=""font-size:60px;"">+</div>","null","","","","","","",""
"504.5699999900535","","image-keyboard-response","135","1872089","0.0-4.0-0.32","","img/blue.png","32","trial","32","true","0.8,0.2","1:go_a","",""
"null","","html-keyboard-response","136","1873094","0.0-4.0-1.32","","<img src=""img/blue-r.png"" border=""10"">","null","trial","32","","0.8,0.2","1:go_a","1",""
"null","","html-keyboard-response","137","1874109","0.0-4.0-2.32","","<div style=""font-size:60px;"">+</div>","null","","","","","","",""
"null","","image-keyboard-response","138","1875611","0.0-4.0-0.33","","img/pink.png","null","trial","null","true","0.2,0.8","2:nogo_b","",""
"null","","html-keyboard-response","139","1876615","0.0-4.0-1.33","","<img src=""img/pink-n.png"">","null","trial","null","","0.2,0.8","2:nogo_b","0",""
"null","","html-keyboard-response","140","1877617","0.0-4.0-2.33","","<div style=""font-size:60px;"">+</div>","null","","","","","","",""
"null","","image-keyboard-response","141","1879119","0.0-4.0-0.34","","img/pink.png","null","trial","null","true","0.2,0.8","2:nogo_b","",""
"null","","html-keyboard-response","142","1880120","0.0-4.0-1.34","","<img src=""img/pink-r.png"">","null","trial","null","","0.2,0.8","2:nogo_b","1",""
"null","","html-keyboard-response","143","1881122","0.0-4.0-2.34","","<div style=""font-size:60px;"">+</div>","null","","","","","","",""
"391.89500000793487","","image-keyboard-response","144","1881514","0.0-4.0-0.35","","img/blue.png","32","trial","32","true","0.8,0.2","1:go_a","",""
"null","","html-keyboard-response","145","1882518","0.0-4.0-1.35","","<img src=""img/blue-r.png"" border=""10"">","null","trial","32","","0.8,0.2","1:go_a","1",""
"null","","html-keyboard-response","146","1883519","0.0-4.0-2.35","","<div style=""font-size:60px;"">+</div>","null","","","","","","",""
"null","","image-keyboard-response","147","1885021","0.0-4.0-0.36","","img/pink.png","null","trial","null","true","0.2,0.8","2:nogo_b","",""
"null","","html-keyboard-response","148","1886023","0.0-4.0-1.36","","<img src=""img/pink-r.png"">","null","trial","null","","0.2,0.8","2:nogo_b","1",""
"null","","html-keyboard-response","149","1887025","0.0-4.0-2.36","","<div style=""font-size:60px;"">+</div>","null","","","","","","",""
"663.3400000282563","","image-keyboard-response","150","1887690","0.0-4.0-0.37","","img/blue.png","32","trial","32","true","0.8,0.2","1:go_a","",""
"null","","html-keyboard-response","151","1888692","0.0-4.0-1.37","","<img src=""img/blue-r.png"" border=""10"">","null","trial","32","","0.8,0.2","1:go_a","1",""
"null","","html-keyboard-response","152","1889694","0.0-4.0-2.37","","<div style=""font-size:60px;"">+</div>","null","","","","","","",""
"761.9350000168197","","image-keyboard-response","153","1890457","0.0-4.0-0.38","","img/pink.png","32","trial","null","false","0.2,0.8","2:nogo_b","",""
"null","","html-keyboard-response","154","1891460","0.0-4.0-1.38","","<img src=""img/pink-n.png"" border=""10"">","null","trial","null","","0.2,0.8","2:nogo_b","0",""
"null","","html-keyboard-response","155","1892462","0.0-4.0-2.38","","<div style=""font-size:60px;"">+</div>","null","","","","","","",""
"490.65500003052875","","image-keyboard-response","156","1892955","0.0-4.0-0.39","","img/blue.png","32","trial","32","true","0.8,0.2","1:go_a","",""
"null","","html-keyboard-response","157","1893957","0.0-4.0-1.39","","<img src=""img/blue-r.png"" border=""10"">","null","trial","32","","0.8,0.2","1:go_a","1",""
"null","","html-keyboard-response","158","1894961","0.0-4.0-2.39","","<div style=""font-size:60px;"">+</div>","null","","","","","","",""
"560.3949999785982","","image-keyboard-response","159","1895522","0.0-4.0-0.40","","img/blue.png","32","trial","32","true","0.8,0.2","1:go_a","",""
"null","","html-keyboard-response","160","1896525","0.0-4.0-1.40","","<img src=""img/blue-r.png"" border=""10"">","null","trial","32","","0.8,0.2","1:go_a","1",""
"null","","html-keyboard-response","161","1897526","0.0-4.0-2.40","","<div style=""font-size:60px;"">+</div>","null","","","","","","",""
"null","","image-keyboard-response","162","1899029","0.0-4.0-0.41","","img/pink.png","null","trial","null","true","0.2,0.8","2:nogo_b","",""
"null","","html-keyboard-response","163","1900031","0.0-4.0-1.41","","<img src=""img/pink-n.png"">","null","trial","null","","0.2,0.8","2:nogo_b","0",""
"null","","html-keyboard-response","164","1901034","0.0-4.0-2.41","","<div style=""font-size:60px;"">+</div>","null","","","","","","",""
"518.0799999507144","","image-keyboard-response","165","1901553","0.0-4.0-0.42","","img/blue.png","32","trial","32","true","0.8,0.2","1:go_a","",""
"null","","html-keyboard-response","166","1902561","0.0-4.0-1.42","","<img src=""img/blue-n.png"" border=""10"">","null","trial","32","","0.8,0.2","1:go_a","0",""
"null","","html-keyboard-response","167","1903571","0.0-4.0-2.42","","<div style=""font-size:60px;"">+</div>","null","","","","","","",""
"null","","image-keyboard-response","168","1905074","0.0-4.0-0.43","","img/pink.png","null","trial","null","true","0.2,0.8","2:nogo_b","",""
"null","","html-keyboard-response","169","1906090","0.0-4.0-1.43","","<img src=""img/pink-r.png"">","null","trial","null","","0.2,0.8","2:nogo_b","1",""
"null","","html-keyboard-response","170","1907092","0.0-4.0-2.43","","<div style=""font-size:60px;"">+</div>","null","","","","","","",""
"429.5099999872036","","image-keyboard-response","171","1907523","0.0-4.0-0.44","","img/blue.png","32","trial","32","true","0.8,0.2","1:go_a","",""
"null","","html-keyboard-response","172","1908526","0.0-4.0-1.44","","<img src=""img/blue-r.png"" border=""10"">","null","trial","32","","0.8,0.2","1:go_a","1",""
"null","","html-keyboard-response","173","1909529","0.0-4.0-2.44","","<div style=""font-size:60px;"">+</div>","null","","","","","","",""
"null","","image-keyboard-response","174","1911030","0.0-4.0-0.45","","img/pink.png","null","trial","null","true","0.2,0.8","2:nogo_b","",""
"null","","html-keyboard-response","175","1912033","0.0-4.0-1.45","","<img src=""img/pink-r.png"">","null","trial","null","","0.2,0.8","2:nogo_b","1",""
"null","","html-keyboard-response","176","1913035","0.0-4.0-2.45","","<div style=""font-size:60px;"">+</div>","null","","","","","","",""
"470.6099999602884","","image-keyboard-response","177","1913506","0.0-4.0-0.46","","img/blue.png","32","trial","32","true","0.8,0.2","1:go_a","",""
"null","","html-keyboard-response","178","1914509","0.0-4.0-1.46","","<img src=""img/blue-r.png"" border=""10"">","null","trial","32","","0.8,0.2","1:go_a","1",""
"null","","html-keyboard-response","179","1915511","0.0-4.0-2.46","","<div style=""font-size:60px;"">+</div>","null","","","","","","",""
"null","","image-keyboard-response","180","1917014","0.0-4.0-0.47","","img/pink.png","null","trial","null","true","0.2,0.8","2:nogo_b","",""
"null","","html-keyboard-response","181","1918016","0.0-4.0-1.47","","<img src=""img/pink-r.png"">","null","trial","null","","0.2,0.8","2:nogo_b","1",""
"null","","html-keyboard-response","182","1919017","0.0-4.0-2.47","","<div style=""font-size:60px;"">+</div>","null","","","","","","",""
"536.7100000148639","","image-keyboard-response","183","1919555","0.0-4.0-0.48","","img/blue.png","32","trial","32","true","0.8,0.2","1:go_a","",""
"null","","html-keyboard-response","184","1920558","0.0-4.0-1.48","","<img src=""img/blue-r.png"" border=""10"">","null","trial","32","","0.8,0.2","1:go_a","1",""
"null","","html-keyboard-response","185","1921560","0.0-4.0-2.48","","<div style=""font-size:60px;"">+</div>","null","","","","","","",""
"null","","image-keyboard-response","186","1923062","0.0-4.0-0.49","","img/pink.png","null","trial","null","true","0.2,0.8","2:nogo_b","",""
"null","","html-keyboard-response","187","1924065","0.0-4.0-1.49","","<img src=""img/pink-n.png"">","null","trial","null","","0.2,0.8","2:nogo_b","0",""
"null","","html-keyboard-response","188","1925066","0.0-4.0-2.49","","<div style=""font-size:60px;"">+</div>","null","","","","","","",""
"392.444999946747","","image-keyboard-response","189","1925459","0.0-4.0-0.50","","img/blue.png","32","trial","32","true","0.8,0.2","1:go_a","",""
"null","","html-keyboard-response","190","1926461","0.0-4.0-1.50","","<img src=""img/blue-r.png"" border=""10"">","null","trial","32","","0.8,0.2","1:go_a","1",""
"null","","html-keyboard-response","191","1927464","0.0-4.0-2.50","","<div style=""font-size:60px;"">+</div>","null","","","","","","",""
"null","","image-keyboard-response","192","1928966","0.0-4.0-0.51","","img/pink.png","null","trial","null","true","0.2,0.8","2:nogo_b","",""
"null","","html-keyboard-response","193","1929968","0.0-4.0-1.51","","<img src=""img/pink-r.png"">","null","trial","null","","0.2,0.8","2:nogo_b","1",""
"null","","html-keyboard-response","194","1930971","0.0-4.0-2.51","","<div style=""font-size:60px;"">+</div>","null","","","","","","",""
"null","","image-keyboard-response","195","1932472","0.0-4.0-0.52","","img/pink.png","null","trial","null","true","0.2,0.8","2:nogo_b","",""
"null","","html-keyboard-response","196","1933482","0.0-4.0-1.52","","<img src=""img/pink-r.png"">","null","trial","null","","0.2,0.8","2:nogo_b","1",""
"null","","html-keyboard-response","197","1934484","0.0-4.0-2.52","","<div style=""font-size:60px;"">+</div>","null","","","","","","",""
"540.2049999684095","","image-keyboard-response","198","1935025","0.0-4.0-0.53","","img/blue.png","32","trial","32","true","0.8,0.2","1:go_a","",""
"null","","html-keyboard-response","199","1936027","0.0-4.0-1.53","","<img src=""img/blue-r.png"" border=""10"">","null","trial","32","","0.8,0.2","1:go_a","1",""
"null","","html-keyboard-response","200","1937029","0.0-4.0-2.53","","<div style=""font-size:60px;"">+</div>","null","","","","","","",""
"995.9499999531545","","image-keyboard-response","201","1938026","0.0-4.0-0.54","","img/pink.png","32","trial","null","false","0.2,0.8","2:nogo_b","",""
"null","","html-keyboard-response","202","1939028","0.0-4.0-1.54","","<img src=""img/pink-r.png"" border=""10"">","null","trial","null","","0.2,0.8","2:nogo_b","1",""
"null","","html-keyboard-response","203","1940030","0.0-4.0-2.54","","<div style=""font-size:60px;"">+</div>","null","","","","","","",""
"490.0950000155717","","image-keyboard-response","204","1940521","0.0-4.0-0.55","","img/blue.png","32","trial","32","true","0.8,0.2","1:go_a","",""
"null","","html-keyboard-response","205","1941523","0.0-4.0-1.55","","<img src=""img/blue-r.png"" border=""10"">","null","trial","32","","0.8,0.2","1:go_a","1",""
"null","","html-keyboard-response","206","1942525","0.0-4.0-2.55","","<div style=""font-size:60px;"">+</div>","null","","","","","","",""
"683.0649999901652","","image-keyboard-response","207","1943209","0.0-4.0-0.56","","img/pink.png","32","trial","null","false","0.2,0.8","2:nogo_b","",""
"null","","html-keyboard-response","208","1944211","0.0-4.0-1.56","","<img src=""img/pink-r.png"" border=""10"">","null","trial","null","","0.2,0.8","2:nogo_b","1",""
"null","","html-keyboard-response","209","1945213","0.0-4.0-2.56","","<div style=""font-size:60px;"">+</div>","null","","","","","","",""
"403.18500000284985","","image-keyboard-response","210","1945617","0.0-4.0-0.57","","img/blue.png","32","trial","32","true","0.8,0.2","1:go_a","",""
"null","","html-keyboard-response","211","1946619","0.0-4.0-1.57","","<img src=""img/blue-r.png"" border=""10"">","null","trial","32","","0.8,0.2","1:go_a","1",""
"null","","html-keyboard-response","212","1947621","0.0-4.0-2.57","","<div style=""font-size:60px;"">+</div>","null","","","","","","",""
"674.5050000026822","","image-keyboard-response","213","1948297","0.0-4.0-0.58","","img/pink.png","32","trial","null","false","0.2,0.8","2:nogo_b","",""
"null","","html-keyboard-response","214","1949299","0.0-4.0-1.58","","<img src=""img/pink-n.png"" border=""10"">","null","trial","null","","0.2,0.8","2:nogo_b","0",""
"null","","html-keyboard-response","215","1950307","0.0-4.0-2.58","","<div style=""font-size:60px;"">+</div>","null","","","","","","",""
"373.83500003488734","","image-keyboard-response","216","1950681","0.0-4.0-0.59","","img/blue.png","32","trial","32","true","0.8,0.2","1:go_a","",""
"null","","html-keyboard-response","217","1951689","0.0-4.0-1.59","","<img src=""img/blue-r.png"" border=""10"">","null","trial","32","","0.8,0.2","1:go_a","1",""
"null","","html-keyboard-response","218","1952691","0.0-4.0-2.59","","<div style=""font-size:60px;"">+</div>","null","","","","","","",""
"15445.535000006203","","instructions","219","1968137","0.0-5.0","[{""page_index"":0,""viewing_time"":15445.375000010245}]","","","","","","","","",""
"null","","image-keyboard-response","220","1969639","0.0-6.0-0.0","","img/orange.png","null","trial","32","false","0.8,0.2","3:go_c","",""
"null","","html-keyboard-response","221","1970641","0.0-6.0-1.0","","<img src=""img/orange-n.png"">","null","trial","32","","0.8,0.2","3:go_c","0",""
"null","","html-keyboard-response","222","1971644","0.0-6.0-2.0","","<div style=""font-size:60px;"">+</div>","null","","","","","","",""
"652.109999966342","","image-keyboard-response","223","1972297","0.0-6.0-0.1","","img/purple.png","32","trial","32","true","0.8,0.2","1:go_a","",""
"null","","html-keyboard-response","224","1973300","0.0-6.0-1.1","","<img src=""img/purple-n.png"" border=""10"">","null","trial","32","","0.8,0.2","1:go_a","0",""
"null","","html-keyboard-response","225","1974302","0.0-6.0-2.1","","<div style=""font-size:60px;"">+</div>","null","","","","","","",""
"707.0200000307523","","image-keyboard-response","226","1975009","0.0-6.0-0.2","","img/red.png","32","trial","null","false","0.2,0.8","2:nogo_b","",""
"null","","html-keyboard-response","227","1976011","0.0-6.0-1.2","","<img src=""img/red-n.png"" border=""10"">","null","trial","null","","0.2,0.8","2:nogo_b","0",""
"null","","html-keyboard-response","228","1977013","0.0-6.0-2.2","","<div style=""font-size:60px;"">+</div>","null","","","","","","",""
"644.4100000080653","","image-keyboard-response","229","1977658","0.0-6.0-0.3","","img/green.png","32","trial","null","false","0.2,0.8","4:nogo_d","",""
"null","","html-keyboard-response","230","1978661","0.0-6.0-1.3","","<img src=""img/green-n.png"" border=""10"">","null","trial","null","","0.2,0.8","4:nogo_d","0",""
"null","","html-keyboard-response","231","1979663","0.0-6.0-2.3","","<div style=""font-size:60px;"">+</div>","null","","","","","","",""
"683.3299999707378","","image-keyboard-response","232","1980347","0.0-6.0-0.4","","img/red.png","32","trial","null","false","0.2,0.8","2:nogo_b","",""
"null","","html-keyboard-response","233","1981350","0.0-6.0-1.4","","<img src=""img/red-n.png"" border=""10"">","null","trial","null","","0.2,0.8","2:nogo_b","0",""
"null","","html-keyboard-response","234","1982351","0.0-6.0-2.4","","<div style=""font-size:60px;"">+</div>","null","","","","","","",""
"625.1599999959581","","image-keyboard-response","235","1982977","0.0-6.0-0.5","","img/purple.png","32","trial","32","true","0.8,0.2","1:go_a","",""
"null","","html-keyboard-response","236","1983979","0.0-6.0-1.5","","<img src=""img/purple-r.png"" border=""10"">","null","trial","32","","0.8,0.2","1:go_a","1",""
"null","","html-keyboard-response","237","1984981","0.0-6.0-2.5","","<div style=""font-size:60px;"">+</div>","null","","","","","","",""
"null","","image-keyboard-response","238","1986485","0.0-6.0-0.6","","img/orange.png","null","trial","32","false","0.8,0.2","3:go_c","",""
"null","","html-keyboard-response","239","1987488","0.0-6.0-1.6","","<img src=""img/orange-n.png"">","null","trial","32","","0.8,0.2","3:go_c","0",""
"null","","html-keyboard-response","240","1988489","0.0-6.0-2.6","","<div style=""font-size:60px;"">+</div>","null","","","","","","",""
"null","","image-keyboard-response","241","1989991","0.0-6.0-0.7","","img/green.png","null","trial","null","true","0.2,0.8","4:nogo_d","",""
"null","","html-keyboard-response","242","1990992","0.0-6.0-1.7","","<img src=""img/green-n.png"">","null","trial","null","","0.2,0.8","4:nogo_d","0",""
"null","","html-keyboard-response","243","1992001","0.0-6.0-2.7","","<div style=""font-size:60px;"">+</div>","null","","","","","","",""
"null","","image-keyboard-response","244","1993502","0.0-6.0-0.8","","img/red.png","null","trial","null","true","0.2,0.8","2:nogo_b","",""
"null","","html-keyboard-response","245","1994505","0.0-6.0-1.8","","<img src=""img/red-r.png"">","null","trial","null","","0.2,0.8","2:nogo_b","1",""
"null","","html-keyboard-response","246","1995507","0.0-6.0-2.8","","<div style=""font-size:60px;"">+</div>","null","","","","","","",""
"804.3499999912456","","image-keyboard-response","247","1996313","0.0-6.0-0.9","","img/green.png","32","trial","null","false","0.2,0.8","4:nogo_d","",""
"null","","html-keyboard-response","248","1997315","0.0-6.0-1.9","","<img src=""img/green-r.png"" border=""10"">","null","trial","null","","0.2,0.8","4:nogo_d","1",""
"null","","html-keyboard-response","249","1998317","0.0-6.0-2.9","","<div style=""font-size:60px;"">+</div>","null","","","","","","",""
"null","","image-keyboard-response","250","1999818","0.0-6.0-0.10","","img/orange.png","null","trial","32","false","0.8,0.2","3:go_c","",""
"null","","html-keyboard-response","251","2000821","0.0-6.0-1.10","","<img src=""img/orange-n.png"">","null","trial","32","","0.8,0.2","3:go_c","0",""
"null","","html-keyboard-response","252","2001823","0.0-6.0-2.10","","<div style=""font-size:60px;"">+</div>","null","","","","","","",""
"513.18499998888","","image-keyboard-response","253","2002337","0.0-6.0-0.11","","img/purple.png","32","trial","32","true","0.8,0.2","1:go_a","",""
"null","","html-keyboard-response","254","2003339","0.0-6.0-1.11","","<img src=""img/purple-r.png"" border=""10"">","null","trial","32","","0.8,0.2","1:go_a","1",""
"null","","html-keyboard-response","255","2004341","0.0-6.0-2.11","","<div style=""font-size:60px;"">+</div>","null","","","","","","",""
"717.3300000140443","","image-keyboard-response","256","2005059","0.0-6.0-0.12","","img/purple.png","32","trial","32","true","0.8,0.2","1:go_a","",""
"null","","html-keyboard-response","257","2006063","0.0-6.0-1.12","","<img src=""img/purple-r.png"" border=""10"">","null","trial","32","","0.8,0.2","1:go_a","1",""
"null","","html-keyboard-response","258","2007066","0.0-6.0-2.12","","<div style=""font-size:60px;"">+</div>","null","","","","","","",""
"null","","image-keyboard-response","259","2008580","0.0-6.0-0.13","","img/red.png","null","trial","null","true","0.2,0.8","2:nogo_b","",""
"null","","html-keyboard-response","260","2009583","0.0-6.0-1.13","","<img src=""img/red-r.png"">","null","trial","null","","0.2,0.8","2:nogo_b","1",""
"null","","html-keyboard-response","261","2010586","0.0-6.0-2.13","","<div style=""font-size:60px;"">+</div>","null","","","","","","",""
"598.6899999552406","","image-keyboard-response","262","2011185","0.0-6.0-0.14","","img/green.png","32","trial","null","false","0.2,0.8","4:nogo_d","",""
"null","","html-keyboard-response","263","2012187","0.0-6.0-1.14","","<img src=""img/green-n.png"" border=""10"">","null","trial","null","","0.2,0.8","4:nogo_d","0",""
"null","","html-keyboard-response","264","2013188","0.0-6.0-2.14","","<div style=""font-size:60px;"">+</div>","null","","","","","","",""
"null","","image-keyboard-response","265","2014690","0.0-6.0-0.15","","img/orange.png","null","trial","32","false","0.8,0.2","3:go_c","",""
"null","","html-keyboard-response","266","2015693","0.0-6.0-1.15","","<img src=""img/orange-n.png"">","null","trial","32","","0.8,0.2","3:go_c","0",""
"null","","html-keyboard-response","267","2016694","0.0-6.0-2.15","","<div style=""font-size:60px;"">+</div>","null","","","","","","",""
"null","","image-keyboard-response","268","2018196","0.0-6.0-0.16","","img/red.png","null","trial","null","true","0.2,0.8","2:nogo_b","",""
"null","","html-keyboard-response","269","2019197","0.0-6.0-1.16","","<img src=""img/red-r.png"">","null","trial","null","","0.2,0.8","2:nogo_b","1",""
"null","","html-keyboard-response","270","2020199","0.0-6.0-2.16","","<div style=""font-size:60px;"">+</div>","null","","","","","","",""
"null","","image-keyboard-response","271","2021700","0.0-6.0-0.17","","img/orange.png","null","trial","32","false","0.8,0.2","3:go_c","",""
"null","","html-keyboard-response","272","2022702","0.0-6.0-1.17","","<img src=""img/orange-r.png"">","null","trial","32","","0.8,0.2","3:go_c","1",""
"null","","html-keyboard-response","273","2023704","0.0-6.0-2.17","","<div style=""font-size:60px;"">+</div>","null","","","","","","",""
"551.7150000086986","","image-keyboard-response","274","2024257","0.0-6.0-0.18","","img/purple.png","32","trial","32","true","0.8,0.2","1:go_a","",""
"null","","html-keyboard-response","275","2025258","0.0-6.0-1.18","","<img src=""img/purple-r.png"" border=""10"">","null","trial","32","","0.8,0.2","1:go_a","1",""
"null","","html-keyboard-response","276","2026274","0.0-6.0-2.18","","<div style=""font-size:60px;"">+</div>","null","","","","","","",""
"623.8750000484288","","image-keyboard-response","277","2026898","0.0-6.0-0.19","","img/green.png","32","trial","null","false","0.2,0.8","4:nogo_d","",""
"null","","html-keyboard-response","278","2027902","0.0-6.0-1.19","","<img src=""img/green-r.png"" border=""10"">","null","trial","null","","0.2,0.8","4:nogo_d","1",""
"null","","html-keyboard-response","279","2028903","0.0-6.0-2.19","","<div style=""font-size:60px;"">+</div>","null","","","","","","",""
"null","","image-keyboard-response","280","2030404","0.0-6.0-0.20","","img/orange.png","null","trial","32","false","0.8,0.2","3:go_c","",""
"null","","html-keyboard-response","281","2031408","0.0-6.0-1.20","","<img src=""img/orange-r.png"">","null","trial","32","","0.8,0.2","3:go_c","1",""
"null","","html-keyboard-response","282","2032409","0.0-6.0-2.20","","<div style=""font-size:60px;"">+</div>","null","","","","","","",""
"743.5549999936484","","image-keyboard-response","283","2033153","0.0-6.0-0.21","","img/purple.png","32","trial","32","true","0.8,0.2","1:go_a","",""
"null","","html-keyboard-response","284","2034156","0.0-6.0-1.21","","<img src=""img/purple-r.png"" border=""10"">","null","trial","32","","0.8,0.2","1:go_a","1",""
"null","","html-keyboard-response","285","2035157","0.0-6.0-2.21","","<div style=""font-size:60px;"">+</div>","null","","","","","","",""
"557.4299999861978","","image-keyboard-response","286","2035715","0.0-6.0-0.22","","img/green.png","32","trial","null","false","0.2,0.8","4:nogo_d","",""
"null","","html-keyboard-response","287","2036718","0.0-6.0-1.22","","<img src=""img/green-n.png"" border=""10"">","null","trial","null","","0.2,0.8","4:nogo_d","0",""
"null","","html-keyboard-response","288","2037720","0.0-6.0-2.22","","<div style=""font-size:60px;"">+</div>","null","","","","","","",""
"null","","image-keyboard-response","289","2039229","0.0-6.0-0.23","","img/red.png","null","trial","null","true","0.2,0.8","2:nogo_b","",""
"null","","html-keyboard-response","290","2040236","0.0-6.0-1.23","","<img src=""img/red-r.png"">","null","trial","null","","0.2,0.8","2:nogo_b","1",""
"null","","html-keyboard-response","291","2041243","0.0-6.0-2.23","","<div style=""font-size:60px;"">+</div>","null","","","","","","",""
"null","","image-keyboard-response","292","2042744","0.0-6.0-0.24","","img/orange.png","null","trial","32","false","0.8,0.2","3:go_c","",""
"null","","html-keyboard-response","293","2043746","0.0-6.0-1.24","","<img src=""img/orange-n.png"">","null","trial","32","","0.8,0.2","3:go_c","0",""
"null","","html-keyboard-response","294","2044748","0.0-6.0-2.24","","<div style=""font-size:60px;"">+</div>","null","","","","","","",""
"516.2950000376441","","image-keyboard-response","295","2045265","0.0-6.0-0.25","","img/purple.png","32","trial","32","true","0.8,0.2","1:go_a","",""
"null","","html-keyboard-response","296","2046268","0.0-6.0-1.25","","<img src=""img/purple-n.png"" border=""10"">","null","trial","32","","0.8,0.2","1:go_a","0",""
"null","","html-keyboard-response","297","2047270","0.0-6.0-2.25","","<div style=""font-size:60px;"">+</div>","null","","","","","","",""
"null","","image-keyboard-response","298","2048772","0.0-6.0-0.26","","img/red.png","null","trial","null","true","0.2,0.8","2:nogo_b","",""
"null","","html-keyboard-response","299","2049773","0.0-6.0-1.26","","<img src=""img/red-r.png"">","null","trial","null","","0.2,0.8","2:nogo_b","1",""
"null","","html-keyboard-response","300","2050775","0.0-6.0-2.26","","<div style=""font-size:60px;"">+</div>","null","","","","","","",""
"489.0649999724701","","image-keyboard-response","301","2051266","0.0-6.0-0.27","","img/green.png","32","trial","null","false","0.2,0.8","4:nogo_d","",""
"null","","html-keyboard-response","302","2052267","0.0-6.0-1.27","","<img src=""img/green-r.png"" border=""10"">","null","trial","null","","0.2,0.8","4:nogo_d","1",""
"null","","html-keyboard-response","303","2053269","0.0-6.0-2.27","","<div style=""font-size:60px;"">+</div>","null","","","","","","",""
"684.2799999867566","","image-keyboard-response","304","2053954","0.0-6.0-0.28","","img/purple.png","32","trial","32","true","0.8,0.2","1:go_a","",""
"null","","html-keyboard-response","305","2054957","0.0-6.0-1.28","","<img src=""img/purple-r.png"" border=""10"">","null","trial","32","","0.8,0.2","1:go_a","1",""
"null","","html-keyboard-response","306","2055958","0.0-6.0-2.28","","<div style=""font-size:60px;"">+</div>","null","","","","","","",""
"null","","image-keyboard-response","307","2057460","0.0-6.0-0.29","","img/orange.png","null","trial","32","false","0.8,0.2","3:go_c","",""
"null","","html-keyboard-response","308","2058462","0.0-6.0-1.29","","<img src=""img/orange-n.png"">","null","trial","32","","0.8,0.2","3:go_c","0",""
"null","","html-keyboard-response","309","2059462","0.0-6.0-2.29","","<div style=""font-size:60px;"">+</div>","null","","","","","","",""
"null","","image-keyboard-response","310","2060965","0.0-6.0-0.30","","img/red.png","null","trial","null","true","0.2,0.8","2:nogo_b","",""
"null","","html-keyboard-response","311","2061966","0.0-6.0-1.30","","<img src=""img/red-r.png"">","null","trial","null","","0.2,0.8","2:nogo_b","1",""
"null","","html-keyboard-response","312","2062967","0.0-6.0-2.30","","<div style=""font-size:60px;"">+</div>","null","","","","","","",""
"513.8199999928474","","image-keyboard-response","313","2063482","0.0-6.0-0.31","","img/green.png","32","trial","null","false","0.2,0.8","4:nogo_d","",""
"null","","html-keyboard-response","314","2064485","0.0-6.0-1.31","","<img src=""img/green-r.png"" border=""10"">","null","trial","null","","0.2,0.8","4:nogo_d","1",""
"null","","html-keyboard-response","315","2065486","0.0-6.0-2.31","","<div style=""font-size:60px;"">+</div>","null","","","","","","",""
"null","","image-keyboard-response","316","2066988","0.0-6.0-0.32","","img/orange.png","null","trial","32","false","0.8,0.2","3:go_c","",""
"null","","html-keyboard-response","317","2067989","0.0-6.0-1.32","","<img src=""img/orange-n.png"">","null","trial","32","","0.8,0.2","3:go_c","0",""
"null","","html-keyboard-response","318","2068991","0.0-6.0-2.32","","<div style=""font-size:60px;"">+</div>","null","","","","","","",""
"585.3450000286102","","image-keyboard-response","319","2069578","0.0-6.0-0.33","","img/green.png","32","trial","null","false","0.2,0.8","4:nogo_d","",""
"null","","html-keyboard-response","320","2070581","0.0-6.0-1.33","","<img src=""img/green-n.png"" border=""10"">","null","trial","null","","0.2,0.8","4:nogo_d","0",""
"null","","html-keyboard-response","321","2071583","0.0-6.0-2.33","","<div style=""font-size:60px;"">+</div>","null","","","","","","",""
"810.2700000163168","","image-keyboard-response","322","2072394","0.0-6.0-0.34","","img/purple.png","32","trial","32","true","0.8,0.2","1:go_a","",""
"null","","html-keyboard-response","323","2073396","0.0-6.0-1.34","","<img src=""img/purple-r.png"" border=""10"">","null","trial","32","","0.8,0.2","1:go_a","1",""
"null","","html-keyboard-response","324","2074398","0.0-6.0-2.34","","<div style=""font-size:60px;"">+</div>","null","","","","","","",""
"null","","image-keyboard-response","325","2075899","0.0-6.0-0.35","","img/red.png","null","trial","null","true","0.2,0.8","2:nogo_b","",""
"null","","html-keyboard-response","326","2076901","0.0-6.0-1.35","","<img src=""img/red-r.png"">","null","trial","null","","0.2,0.8","2:nogo_b","1",""
"null","","html-keyboard-response","327","2077903","0.0-6.0-2.35","","<div style=""font-size:60px;"">+</div>","null","","","","","","",""
"675.5100000300445","","image-keyboard-response","328","2078579","0.0-6.0-0.36","","img/green.png","32","trial","null","false","0.2,0.8","4:nogo_d","",""
"null","","html-keyboard-response","329","2079582","0.0-6.0-1.36","","<img src=""img/green-r.png"" border=""10"">","null","trial","null","","0.2,0.8","4:nogo_d","1",""
"null","","html-keyboard-response","330","2080585","0.0-6.0-2.36","","<div style=""font-size:60px;"">+</div>","null","","","","","","",""
"null","","image-keyboard-response","331","2082086","0.0-6.0-0.37","","img/orange.png","null","trial","32","false","0.8,0.2","3:go_c","",""
"null","","html-keyboard-response","332","2083088","0.0-6.0-1.37","","<img src=""img/orange-n.png"">","null","trial","32","","0.8,0.2","3:go_c","0",""
"null","","html-keyboard-response","333","2084092","0.0-6.0-2.37","","<div style=""font-size:60px;"">+</div>","null","","","","","","",""
"685.155000013765","","image-keyboard-response","334","2084779","0.0-6.0-0.38","","img/purple.png","32","trial","32","true","0.8,0.2","1:go_a","",""
"null","","html-keyboard-response","335","2085781","0.0-6.0-1.38","","<img src=""img/purple-r.png"" border=""10"">","null","trial","32","","0.8,0.2","1:go_a","1",""
"null","","html-keyboard-response","336","2086783","0.0-6.0-2.38","","<div style=""font-size:60px;"">+</div>","null","","","","","","",""
"491.0750000271946","","image-keyboard-response","337","2087275","0.0-6.0-0.39","","img/red.png","32","trial","null","false","0.2,0.8","2:nogo_b","",""
"null","","html-keyboard-response","338","2088278","0.0-6.0-1.39","","<img src=""img/red-r.png"" border=""10"">","null","trial","null","","0.2,0.8","2:nogo_b","1",""
"null","","html-keyboard-response","339","2089280","0.0-6.0-2.39","","<div style=""font-size:60px;"">+</div>","null","","","","","","",""
"753.8150000036694","","image-keyboard-response","340","2090035","0.0-6.0-0.40","","img/purple.png","32","trial","32","true","0.8,0.2","1:go_a","",""
"null","","html-keyboard-response","341","2091039","0.0-6.0-1.40","","<img src=""img/purple-n.png"" border=""10"">","null","trial","32","","0.8,0.2","1:go_a","0",""
"null","","html-keyboard-response","342","2092040","0.0-6.0-2.40","","<div style=""font-size:60px;"">+</div>","null","","","","","","",""
"705.0450000097044","","image-keyboard-response","343","2092747","0.0-6.0-0.41","","img/green.png","32","trial","null","false","0.2,0.8","4:nogo_d","",""
"null","","html-keyboard-response","344","2093749","0.0-6.0-1.41","","<img src=""img/green-n.png"" border=""10"">","null","trial","null","","0.2,0.8","4:nogo_d","0",""
"null","","html-keyboard-response","345","2094750","0.0-6.0-2.41","","<div style=""font-size:60px;"">+</div>","null","","","","","","",""
"450.59000002220273","","image-keyboard-response","346","2095202","0.0-6.0-0.42","","img/red.png","32","trial","null","false","0.2,0.8","2:nogo_b","",""
"null","","html-keyboard-response","347","2096203","0.0-6.0-1.42","","<img src=""img/red-r.png"" border=""10"">","null","trial","null","","0.2,0.8","2:nogo_b","1",""
"null","","html-keyboard-response","348","2097204","0.0-6.0-2.42","","<div style=""font-size:60px;"">+</div>","null","","","","","","",""
"null","","image-keyboard-response","349","2098706","0.0-6.0-0.43","","img/orange.png","null","trial","32","false","0.8,0.2","3:go_c","",""
"null","","html-keyboard-response","350","2099708","0.0-6.0-1.43","","<img src=""img/orange-n.png"">","null","trial","32","","0.8,0.2","3:go_c","0",""
"null","","html-keyboard-response","351","2100711","0.0-6.0-2.43","","<div style=""font-size:60px;"">+</div>","null","","","","","","",""
"649.425000010524","","image-keyboard-response","352","2101362","0.0-6.0-0.44","","img/purple.png","32","trial","32","true","0.8,0.2","1:go_a","",""
"null","","html-keyboard-response","353","2102366","0.0-6.0-1.44","","<img src=""img/purple-r.png"" border=""10"">","null","trial","32","","0.8,0.2","1:go_a","1",""
"null","","html-keyboard-response","354","2103367","0.0-6.0-2.44","","<div style=""font-size:60px;"">+</div>","null","","","","","","",""
"537.2999999672174","","image-keyboard-response","355","2103905","0.0-6.0-0.45","","img/green.png","32","trial","null","false","0.2,0.8","4:nogo_d","",""
"null","","html-keyboard-response","356","2104908","0.0-6.0-1.45","","<img src=""img/green-r.png"" border=""10"">","null","trial","null","","0.2,0.8","4:nogo_d","1",""
"null","","html-keyboard-response","357","2105909","0.0-6.0-2.45","","<div style=""font-size:60px;"">+</div>","null","","","","","","",""
"667.7049999707378","","image-keyboard-response","358","2106578","0.0-6.0-0.46","","img/red.png","32","trial","null","false","0.2,0.8","2:nogo_b","",""
"null","","html-keyboard-response","359","2107582","0.0-6.0-1.46","","<img src=""img/red-n.png"" border=""10"">","null","trial","null","","0.2,0.8","2:nogo_b","0",""
"null","","html-keyboard-response","360","2108583","0.0-6.0-2.46","","<div style=""font-size:60px;"">+</div>","null","","","","","","",""
"null","","image-keyboard-response","361","2110087","0.0-6.0-0.47","","img/orange.png","null","trial","32","false","0.8,0.2","3:go_c","",""
"null","","html-keyboard-response","362","2111092","0.0-6.0-1.47","","<img src=""img/orange-n.png"">","null","trial","32","","0.8,0.2","3:go_c","0",""
"null","","html-keyboard-response","363","2112097","0.0-6.0-2.47","","<div style=""font-size:60px;"">+</div>","null","","","","","","",""
"null","","image-keyboard-response","364","2113599","0.0-6.0-0.48","","img/orange.png","null","trial","32","false","0.8,0.2","3:go_c","",""
"null","","html-keyboard-response","365","2114601","0.0-6.0-1.48","","<img src=""img/orange-n.png"">","null","trial","32","","0.8,0.2","3:go_c","0",""
"null","","html-keyboard-response","366","2115609","0.0-6.0-2.48","","<div style=""font-size:60px;"">+</div>","null","","","","","","",""
"574.4850000482984","","image-keyboard-response","367","2116185","0.0-6.0-0.49","","img/green.png","32","trial","null","false","0.2,0.8","4:nogo_d","",""
"null","","html-keyboard-response","368","2117187","0.0-6.0-1.49","","<img src=""img/green-n.png"" border=""10"">","null","trial","null","","0.2,0.8","4:nogo_d","0",""
"null","","html-keyboard-response","369","2118188","0.0-6.0-2.49","","<div style=""font-size:60px;"">+</div>","null","","","","","","",""
"628.1650000018999","","image-keyboard-response","370","2118817","0.0-6.0-0.50","","img/red.png","32","trial","null","false","0.2,0.8","2:nogo_b","",""
"null","","html-keyboard-response","371","2119819","0.0-6.0-1.50","","<img src=""img/red-n.png"" border=""10"">","null","trial","null","","0.2,0.8","2:nogo_b","0",""
"null","","html-keyboard-response","372","2120821","0.0-6.0-2.50","","<div style=""font-size:60px;"">+</div>","null","","","","","","",""
"548.0100000277162","","image-keyboard-response","373","2121370","0.0-6.0-0.51","","img/purple.png","32","trial","32","true","0.8,0.2","1:go_a","",""
"null","","html-keyboard-response","374","2122373","0.0-6.0-1.51","","<img src=""img/purple-r.png"" border=""10"">","null","trial","32","","0.8,0.2","1:go_a","1",""
"null","","html-keyboard-response","375","2123384","0.0-6.0-2.51","","<div style=""font-size:60px;"">+</div>","null","","","","","","",""
"984.5649999915622","","image-keyboard-response","376","2124370","0.0-6.0-0.52","","img/red.png","32","trial","null","false","0.2,0.8","2:nogo_b","",""
"null","","html-keyboard-response","377","2125371","0.0-6.0-1.52","","<img src=""img/red-n.png"" border=""10"">","null","trial","null","","0.2,0.8","2:nogo_b","0",""
"null","","html-keyboard-response","378","2126373","0.0-6.0-2.52","","<div style=""font-size:60px;"">+</div>","null","","","","","","",""
"539.7249999805354","","image-keyboard-response","379","2126914","0.0-6.0-0.53","","img/green.png","32","trial","null","false","0.2,0.8","4:nogo_d","",""
"null","","html-keyboard-response","380","2127917","0.0-6.0-1.53","","<img src=""img/green-n.png"" border=""10"">","null","trial","null","","0.2,0.8","4:nogo_d","0",""
"null","","html-keyboard-response","381","2128922","0.0-6.0-2.53","","<div style=""font-size:60px;"">+</div>","null","","","","","","",""
"694.8800000245683","","image-keyboard-response","382","2129619","0.0-6.0-0.54","","img/purple.png","32","trial","32","true","0.8,0.2","1:go_a","",""
"null","","html-keyboard-response","383","2130621","0.0-6.0-1.54","","<img src=""img/purple-r.png"" border=""10"">","null","trial","32","","0.8,0.2","1:go_a","1",""
"null","","html-keyboard-response","384","2131623","0.0-6.0-2.54","","<div style=""font-size:60px;"">+</div>","null","","","","","","",""
"null","","image-keyboard-response","385","2133139","0.0-6.0-0.55","","img/orange.png","null","trial","32","false","0.8,0.2","3:go_c","",""
"null","","html-keyboard-response","386","2134141","0.0-6.0-1.55","","<img src=""img/orange-n.png"">","null","trial","32","","0.8,0.2","3:go_c","0",""
"null","","html-keyboard-response","387","2135142","0.0-6.0-2.55","","<div style=""font-size:60px;"">+</div>","null","","","","","","",""
"538.814999978058","","image-keyboard-response","388","2135682","0.0-6.0-0.56","","img/green.png","32","trial","null","false","0.2,0.8","4:nogo_d","",""
"null","","html-keyboard-response","389","2136684","0.0-6.0-1.56","","<img src=""img/green-n.png"" border=""10"">","null","trial","null","","0.2,0.8","4:nogo_d","0",""
"null","","html-keyboard-response","390","2137685","0.0-6.0-2.56","","<div style=""font-size:60px;"">+</div>","null","","","","","","",""
"648.8349999999627","","image-keyboard-response","391","2138338","0.0-6.0-0.57","","img/red.png","32","trial","null","false","0.2,0.8","2:nogo_b","",""
"null","","html-keyboard-response","392","2139340","0.0-6.0-1.57","","<img src=""img/red-n.png"" border=""10"">","null","trial","null","","0.2,0.8","2:nogo_b","0",""
"null","","html-keyboard-response","393","2140348","0.0-6.0-2.57","","<div style=""font-size:60px;"">+</div>","null","","","","","","",""
"925.5450000055134","","image-keyboard-response","394","2141274","0.0-6.0-0.58","","img/purple.png","32","trial","32","true","0.8,0.2","1:go_a","",""
"null","","html-keyboard-response","395","2142277","0.0-6.0-1.58","","<img src=""img/purple-r.png"" border=""10"">","null","trial","32","","0.8,0.2","1:go_a","1",""
"null","","html-keyboard-response","396","2143290","0.0-6.0-2.58","","<div style=""font-size:60px;"">+</div>","null","","","","","","",""
"null","","image-keyboard-response","397","2144792","0.0-6.0-0.59","","img/orange.png","null","trial","32","false","0.8,0.2","3:go_c","",""
"null","","html-keyboard-response","398","2145799","0.0-6.0-1.59","","<img src=""img/orange-r.png"">","null","trial","32","","0.8,0.2","3:go_c","1",""
"null","","html-keyboard-response","399","2146806","0.0-6.0-2.59","","<div style=""font-size:60px;"">+</div>","null","","","","","","",""
"530.5650000227615","","image-keyboard-response","400","2147337","0.0-6.0-0.60","","img/green.png","32","trial","null","false","0.2,0.8","4:nogo_d","",""
"null","","html-keyboard-response","401","2148346","0.0-6.0-1.60","","<img src=""img/green-n.png"" border=""10"">","null","trial","null","","0.2,0.8","4:nogo_d","0",""
"null","","html-keyboard-response","402","2149351","0.0-6.0-2.60","","<div style=""font-size:60px;"">+</div>","null","","","","","","",""
"null","","image-keyboard-response","403","2150854","0.0-6.0-0.61","","img/orange.png","null","trial","32","false","0.8,0.2","3:go_c","",""
"null","","html-keyboard-response","404","2151856","0.0-6.0-1.61","","<img src=""img/orange-r.png"">","null","trial","32","","0.8,0.2","3:go_c","1",""
"null","","html-keyboard-response","405","2152859","0.0-6.0-2.61","","<div style=""font-size:60px;"">+</div>","null","","","","","","",""
"542.0399999711663","","image-keyboard-response","406","2153402","0.0-6.0-0.62","","img/purple.png","32","trial","32","true","0.8,0.2","1:go_a","",""
"null","","html-keyboard-response","407","2154404","0.0-6.0-1.62","","<img src=""img/purple-r.png"" border=""10"">","null","trial","32","","0.8,0.2","1:go_a","1",""
"null","","html-keyboard-response","408","2155405","0.0-6.0-2.62","","<div style=""font-size:60px;"">+</div>","null","","","","","","",""
"684.9400000064634","","image-keyboard-response","409","2156093","0.0-6.0-0.63","","img/red.png","32","trial","null","false","0.2,0.8","2:nogo_b","",""
"null","","html-keyboard-response","410","2157101","0.0-6.0-1.63","","<img src=""img/red-n.png"" border=""10"">","null","trial","null","","0.2,0.8","2:nogo_b","0",""
"null","","html-keyboard-response","411","2158103","0.0-6.0-2.63","","<div style=""font-size:60px;"">+</div>","null","","","","","","",""
"930.1200000336394","","image-keyboard-response","412","2159035","0.0-6.0-0.64","","img/green.png","32","trial","null","false","0.2,0.8","4:nogo_d","",""
"null","","html-keyboard-response","413","2160038","0.0-6.0-1.64","","<img src=""img/green-n.png"" border=""10"">","null","trial","null","","0.2,0.8","4:nogo_d","0",""
"null","","html-keyboard-response","414","2161040","0.0-6.0-2.64","","<div style=""font-size:60px;"">+</div>","null","","","","","","",""
"null","","image-keyboard-response","415","2162541","0.0-6.0-0.65","","img/orange.png","null","trial","32","false","0.8,0.2","3:go_c","",""
"null","","html-keyboard-response","416","2163543","0.0-6.0-1.65","","<img src=""img/orange-n.png"">","null","trial","32","","0.8,0.2","3:go_c","0",""
"null","","html-keyboard-response","417","2164546","0.0-6.0-2.65","","<div style=""font-size:60px;"">+</div>","null","","","","","","",""
"887.769999972079","","image-keyboard-response","418","2165435","0.0-6.0-0.66","","img/purple.png","32","trial","32","true","0.8,0.2","1:go_a","",""
"null","","html-keyboard-response","419","2166439","0.0-6.0-1.66","","<img src=""img/purple-r.png"" border=""10"">","null","trial","32","","0.8,0.2","1:go_a","1",""
"null","","html-keyboard-response","420","2167440","0.0-6.0-2.66","","<div style=""font-size:60px;"">+</div>","null","","","","","","",""
"703.7200000486337","","image-keyboard-response","421","2168145","0.0-6.0-0.67","","img/red.png","32","trial","null","false","0.2,0.8","2:nogo_b","",""
"null","","html-keyboard-response","422","2169148","0.0-6.0-1.67","","<img src=""img/red-n.png"" border=""10"">","null","trial","null","","0.2,0.8","2:nogo_b","0",""
"null","","html-keyboard-response","423","2170163","0.0-6.0-2.67","","<div style=""font-size:60px;"">+</div>","null","","","","","","",""
"893.9050000044517","","image-keyboard-response","424","2171057","0.0-6.0-0.68","","img/purple.png","32","trial","32","true","0.8,0.2","1:go_a","",""
"null","","html-keyboard-response","425","2172059","0.0-6.0-1.68","","<img src=""img/purple-r.png"" border=""10"">","null","trial","32","","0.8,0.2","1:go_a","1",""
"null","","html-keyboard-response","426","2173061","0.0-6.0-2.68","","<div style=""font-size:60px;"">+</div>","null","","","","","","",""
"726.6050000325777","","image-keyboard-response","427","2173793","0.0-6.0-0.69","","img/orange.png","32","trial","32","true","0.8,0.2","3:go_c","",""
"null","","html-keyboard-response","428","2174795","0.0-6.0-1.69","","<img src=""img/orange-r.png"" border=""10"">","null","trial","32","","0.8,0.2","3:go_c","1",""
"null","","html-keyboard-response","429","2175812","0.0-6.0-2.69","","<div style=""font-size:60px;"">+</div>","null","","","","","","",""
"null","","image-keyboard-response","430","2177320","0.0-6.0-0.70","","img/red.png","null","trial","null","true","0.2,0.8","2:nogo_b","",""
"null","","html-keyboard-response","431","2178329","0.0-6.0-1.70","","<img src=""img/red-r.png"">","null","trial","null","","0.2,0.8","2:nogo_b","1",""
"null","","html-keyboard-response","432","2179331","0.0-6.0-2.70","","<div style=""font-size:60px;"">+</div>","null","","","","","","",""
"null","","image-keyboard-response","433","2180834","0.0-6.0-0.71","","img/green.png","null","trial","null","true","0.2,0.8","4:nogo_d","",""
"null","","html-keyboard-response","434","2181837","0.0-6.0-1.71","","<img src=""img/green-r.png"">","null","trial","null","","0.2,0.8","4:nogo_d","1",""
"null","","html-keyboard-response","435","2182838","0.0-6.0-2.71","","<div style=""font-size:60px;"">+</div>","null","","","","","","",""
"null","","image-keyboard-response","436","2184341","0.0-6.0-0.72","","img/green.png","null","trial","null","true","0.2,0.8","4:nogo_d","",""
"null","","html-keyboard-response","437","2185342","0.0-6.0-1.72","","<img src=""img/green-n.png"">","null","trial","null","","0.2,0.8","4:nogo_d","0",""
"null","","html-keyboard-response","438","2186345","0.0-6.0-2.72","","<div style=""font-size:60px;"">+</div>","null","","","","","","",""
"null","","image-keyboard-response","439","2187846","0.0-6.0-0.73","","img/red.png","null","trial","null","true","0.2,0.8","2:nogo_b","",""
"null","","html-keyboard-response","440","2188862","0.0-6.0-1.73","","<img src=""img/red-n.png"">","null","trial","null","","0.2,0.8","2:nogo_b","0",""
"null","","html-keyboard-response","441","2189864","0.0-6.0-2.73","","<div style=""font-size:60px;"">+</div>","null","","","","","","",""
"592.5399999832734","","image-keyboard-response","442","2190458","0.0-6.0-0.74","","img/orange.png","32","trial","32","true","0.8,0.2","3:go_c","",""
"null","","html-keyboard-response","443","2191470","0.0-6.0-1.74","","<img src=""img/orange-r.png"" border=""10"">","null","trial","32","","0.8,0.2","3:go_c","1",""
"null","","html-keyboard-response","444","2192472","0.0-6.0-2.74","","<div style=""font-size:60px;"">+</div>","null","","","","","","",""
"698.4599999850616","","image-keyboard-response","445","2193171","0.0-6.0-0.75","","img/purple.png","32","trial","32","true","0.8,0.2","1:go_a","",""
"null","","html-keyboard-response","446","2194175","0.0-6.0-1.75","","<img src=""img/purple-r.png"" border=""10"">","null","trial","32","","0.8,0.2","1:go_a","1",""
"null","","html-keyboard-response","447","2195176","0.0-6.0-2.75","","<div style=""font-size:60px;"">+</div>","null","","","","","","",""
"null","","image-keyboard-response","448","2196678","0.0-6.0-0.76","","img/green.png","null","trial","null","true","0.2,0.8","4:nogo_d","",""
"null","","html-keyboard-response","449","2197681","0.0-6.0-1.76","","<img src=""img/green-r.png"">","null","trial","null","","0.2,0.8","4:nogo_d","1",""
"null","","html-keyboard-response","450","2198682","0.0-6.0-2.76","","<div style=""font-size:60px;"">+</div>","null","","","","","","",""
"653.9249999914318","","image-keyboard-response","451","2199338","0.0-6.0-0.77","","img/purple.png","32","trial","32","true","0.8,0.2","1:go_a","",""
"null","","html-keyboard-response","452","2200344","0.0-6.0-1.77","","<img src=""img/purple-n.png"" border=""10"">","null","trial","32","","0.8,0.2","1:go_a","0",""
"null","","html-keyboard-response","453","2201345","0.0-6.0-2.77","","<div style=""font-size:60px;"">+</div>","null","","","","","","",""
"767.809999990277","","image-keyboard-response","454","2202114","0.0-6.0-0.78","","img/red.png","32","trial","null","false","0.2,0.8","2:nogo_b","",""
"null","","html-keyboard-response","455","2203118","0.0-6.0-1.78","","<img src=""img/red-n.png"" border=""10"">","null","trial","null","","0.2,0.8","2:nogo_b","0",""
"null","","html-keyboard-response","456","2204132","0.0-6.0-2.78","","<div style=""font-size:60px;"">+</div>","null","","","","","","",""
"878.5449999850243","","image-keyboard-response","457","2205011","0.0-6.0-0.79","","img/orange.png","32","trial","32","true","0.8,0.2","3:go_c","",""
"null","","html-keyboard-response","458","2206014","0.0-6.0-1.79","","<img src=""img/orange-r.png"" border=""10"">","null","trial","32","","0.8,0.2","3:go_c","1",""
"null","","html-keyboard-response","459","2207016","0.0-6.0-2.79","","<div style=""font-size:60px;"">+</div>","null","","","","","","",""
"null","","image-keyboard-response","460","2208517","0.0-6.0-0.80","","img/red.png","null","trial","null","true","0.2,0.8","2:nogo_b","",""
"null","","html-keyboard-response","461","2209526","0.0-6.0-1.80","","<img src=""img/red-n.png"">","null","trial","null","","0.2,0.8","2:nogo_b","0",""
"null","","html-keyboard-response","462","2210529","0.0-6.0-2.80","","<div style=""font-size:60px;"">+</div>","null","","","","","","",""
"null","","image-keyboard-response","463","2212031","0.0-6.0-0.81","","img/orange.png","null","trial","32","false","0.8,0.2","3:go_c","",""
"null","","html-keyboard-response","464","2213034","0.0-6.0-1.81","","<img src=""img/orange-n.png"">","null","trial","32","","0.8,0.2","3:go_c","0",""
"null","","html-keyboard-response","465","2214035","0.0-6.0-2.81","","<div style=""font-size:60px;"">+</div>","null","","","","","","",""
"581.3250000355765","","image-keyboard-response","466","2214618","0.0-6.0-0.82","","img/purple.png","32","trial","32","true","0.8,0.2","1:go_a","",""
"null","","html-keyboard-response","467","2215620","0.0-6.0-1.82","","<img src=""img/purple-r.png"" border=""10"">","null","trial","32","","0.8,0.2","1:go_a","1",""
"null","","html-keyboard-response","468","2216622","0.0-6.0-2.82","","<div style=""font-size:60px;"">+</div>","null","","","","","","",""
"787.0049999910407","","image-keyboard-response","469","2217410","0.0-6.0-0.83","","img/green.png","32","trial","null","false","0.2,0.8","4:nogo_d","",""
"null","","html-keyboard-response","470","2218412","0.0-6.0-1.83","","<img src=""img/green-n.png"" border=""10"">","null","trial","null","","0.2,0.8","4:nogo_d","0",""
"null","","html-keyboard-response","471","2219412","0.0-6.0-2.83","","<div style=""font-size:60px;"">+</div>","null","","","","","","",""
"700.7100000046194","","image-keyboard-response","472","2220114","0.0-6.0-0.84","","img/purple.png","32","trial","32","true","0.8,0.2","1:go_a","",""
"null","","html-keyboard-response","473","2221116","0.0-6.0-1.84","","<img src=""img/purple-r.png"" border=""10"">","null","trial","32","","0.8,0.2","1:go_a","1",""
"null","","html-keyboard-response","474","2222132","0.0-6.0-2.84","","<div style=""font-size:60px;"">+</div>","null","","","","","","",""
"null","","image-keyboard-response","475","2223633","0.0-6.0-0.85","","img/green.png","null","trial","null","true","0.2,0.8","4:nogo_d","",""
"null","","html-keyboard-response","476","2224636","0.0-6.0-1.85","","<img src=""img/green-r.png"">","null","trial","null","","0.2,0.8","4:nogo_d","1",""
"null","","html-keyboard-response","477","2225638","0.0-6.0-2.85","","<div style=""font-size:60px;"">+</div>","null","","","","","","",""
"null","","image-keyboard-response","478","2227140","0.0-6.0-0.86","","img/red.png","null","trial","null","true","0.2,0.8","2:nogo_b","",""
"null","","html-keyboard-response","479","2228149","0.0-6.0-1.86","","<img src=""img/red-r.png"">","null","trial","null","","0.2,0.8","2:nogo_b","1",""
"null","","html-keyboard-response","480","2229149","0.0-6.0-2.86","","<div style=""font-size:60px;"">+</div>","null","","","","","","",""
"651.8149999901652","","image-keyboard-response","481","2229802","0.0-6.0-0.87","","img/orange.png","32","trial","32","true","0.8,0.2","3:go_c","",""
"null","","html-keyboard-response","482","2230803","0.0-6.0-1.87","","<img src=""img/orange-r.png"" border=""10"">","null","trial","32","","0.8,0.2","3:go_c","1",""
"null","","html-keyboard-response","483","2231805","0.0-6.0-2.87","","<div style=""font-size:60px;"">+</div>","null","","","","","","",""
"null","","image-keyboard-response","484","2233311","0.0-6.0-0.88","","img/green.png","null","trial","null","true","0.2,0.8","4:nogo_d","",""
"null","","html-keyboard-response","485","2234314","0.0-6.0-1.88","","<img src=""img/green-r.png"">","null","trial","null","","0.2,0.8","4:nogo_d","1",""
"null","","html-keyboard-response","486","2235324","0.0-6.0-2.88","","<div style=""font-size:60px;"">+</div>","null","","","","","","",""
"null","","image-keyboard-response","487","2236826","0.0-6.0-0.89","","img/red.png","null","trial","null","true","0.2,0.8","2:nogo_b","",""
"null","","html-keyboard-response","488","2237828","0.0-6.0-1.89","","<img src=""img/red-r.png"">","null","trial","null","","0.2,0.8","2:nogo_b","1",""
"null","","html-keyboard-response","489","2238829","0.0-6.0-2.89","","<div style=""font-size:60px;"">+</div>","null","","","","","","",""
"595.5299999914132","","image-keyboard-response","490","2239426","0.0-6.0-0.90","","img/orange.png","32","trial","32","true","0.8,0.2","3:go_c","",""
"null","","html-keyboard-response","491","2240427","0.0-6.0-1.90","","<img src=""img/orange-r.png"" border=""10"">","null","trial","32","","0.8,0.2","3:go_c","1",""
"null","","html-keyboard-response","492","2241429","0.0-6.0-2.90","","<div style=""font-size:60px;"">+</div>","null","","","","","","",""
"666.5950000169687","","image-keyboard-response","493","2242097","0.0-6.0-0.91","","img/purple.png","32","trial","32","true","0.8,0.2","1:go_a","",""
"null","","html-keyboard-response","494","2243101","0.0-6.0-1.91","","<img src=""img/purple-n.png"" border=""10"">","null","trial","32","","0.8,0.2","1:go_a","0",""
"null","","html-keyboard-response","495","2244104","0.0-6.0-2.91","","<div style=""font-size:60px;"">+</div>","null","","","","","","",""
"null","","image-keyboard-response","496","2245606","0.0-6.0-0.92","","img/green.png","null","trial","null","true","0.2,0.8","4:nogo_d","",""
"null","","html-keyboard-response","497","2246609","0.0-6.0-1.92","","<img src=""img/green-n.png"">","null","trial","null","","0.2,0.8","4:nogo_d","0",""
"null","","html-keyboard-response","498","2247611","0.0-6.0-2.92","","<div style=""font-size:60px;"">+</div>","null","","","","","","",""
"null","","image-keyboard-response","499","2249121","0.0-6.0-0.93","","img/red.png","null","trial","null","true","0.2,0.8","2:nogo_b","",""
"null","","html-keyboard-response","500","2250127","0.0-6.0-1.93","","<img src=""img/red-r.png"">","null","trial","null","","0.2,0.8","2:nogo_b","1",""
"null","","html-keyboard-response","501","2251139","0.0-6.0-2.93","","<div style=""font-size:60px;"">+</div>","null","","","","","","",""
"518.6799999792129","","image-keyboard-response","502","2251659","0.0-6.0-0.94","","img/purple.png","32","trial","32","true","0.8,0.2","1:go_a","",""
"null","","html-keyboard-response","503","2252663","0.0-6.0-1.94","","<img src=""img/purple-r.png"" border=""10"">","null","trial","32","","0.8,0.2","1:go_a","1",""
"null","","html-keyboard-response","504","2253664","0.0-6.0-2.94","","<div style=""font-size:60px;"">+</div>","null","","","","","","",""
"663.7900000205263","","image-keyboard-response","505","2254329","0.0-6.0-0.95","","img/orange.png","32","trial","32","true","0.8,0.2","3:go_c","",""
"null","","html-keyboard-response","506","2255332","0.0-6.0-1.95","","<img src=""img/orange-r.png"" border=""10"">","null","trial","32","","0.8,0.2","3:go_c","1",""
"null","","html-keyboard-response","507","2256341","0.0-6.0-2.95","","<div style=""font-size:60px;"">+</div>","null","","","","","","",""
"null","","image-keyboard-response","508","2257842","0.0-6.0-0.96","","img/green.png","null","trial","null","true","0.2,0.8","4:nogo_d","",""
"null","","html-keyboard-response","509","2258844","0.0-6.0-1.96","","<img src=""img/green-r.png"">","null","trial","null","","0.2,0.8","4:nogo_d","1",""
"null","","html-keyboard-response","510","2259847","0.0-6.0-2.96","","<div style=""font-size:60px;"">+</div>","null","","","","","","",""
"690.3499999898486","","image-keyboard-response","511","2260538","0.0-6.0-0.97","","img/purple.png","32","trial","32","true","0.8,0.2","1:go_a","",""
"null","","html-keyboard-response","512","2261547","0.0-6.0-1.97","","<img src=""img/purple-n.png"" border=""10"">","null","trial","32","","0.8,0.2","1:go_a","0",""
"null","","html-keyboard-response","513","2262558","0.0-6.0-2.97","","<div style=""font-size:60px;"">+</div>","null","","","","","","",""
"602.4849999812432","","image-keyboard-response","514","2263162","0.0-6.0-0.98","","img/orange.png","32","trial","32","true","0.8,0.2","3:go_c","",""
"null","","html-keyboard-response","515","2264165","0.0-6.0-1.98","","<img src=""img/orange-r.png"" border=""10"">","null","trial","32","","0.8,0.2","3:go_c","1",""
"null","","html-keyboard-response","516","2265167","0.0-6.0-2.98","","<div style=""font-size:60px;"">+</div>","null","","","","","","",""
"825.9650000254624","","image-keyboard-response","517","2265994","0.0-6.0-0.99","","img/red.png","32","trial","null","false","0.2,0.8","2:nogo_b","",""
"null","","html-keyboard-response","518","2266996","0.0-6.0-1.99","","<img src=""img/red-r.png"" border=""10"">","null","trial","null","","0.2,0.8","2:nogo_b","1",""
"null","","html-keyboard-response","519","2267997","0.0-6.0-2.99","","<div style=""font-size:60px;"">+</div>","null","","","","","","",""
"991.600000008475","","image-keyboard-response","520","2268994","0.0-6.0-0.100","","img/red.png","32","trial","null","false","0.2,0.8","2:nogo_b","",""
"null","","html-keyboard-response","521","2269996","0.0-6.0-1.100","","<img src=""img/red-r.png"" border=""10"">","null","trial","null","","0.2,0.8","2:nogo_b","1",""
"null","","html-keyboard-response","522","2270998","0.0-6.0-2.100","","<div style=""font-size:60px;"">+</div>","null","","","","","","",""
"810.750000004191","","image-keyboard-response","523","2271809","0.0-6.0-0.101","","img/purple.png","32","trial","32","true","0.8,0.2","1:go_a","",""
"null","","html-keyboard-response","524","2272810","0.0-6.0-1.101","","<img src=""img/purple-r.png"" border=""10"">","null","trial","32","","0.8,0.2","1:go_a","1",""
"null","","html-keyboard-response","525","2273825","0.0-6.0-2.101","","<div style=""font-size:60px;"">+</div>","null","","","","","","",""
"712.4099999782629","","image-keyboard-response","526","2274539","0.0-6.0-0.102","","img/orange.png","32","trial","32","true","0.8,0.2","3:go_c","",""
"null","","html-keyboard-response","527","2275542","0.0-6.0-1.102","","<img src=""img/orange-r.png"" border=""10"">","null","trial","32","","0.8,0.2","3:go_c","1",""
"null","","html-keyboard-response","528","2276544","0.0-6.0-2.102","","<div style=""font-size:60px;"">+</div>","null","","","","","","",""
"1081.5650000004098","","image-keyboard-response","529","2277627","0.0-6.0-0.103","","img/green.png","32","trial","null","false","0.2,0.8","4:nogo_d","",""
"null","","html-keyboard-response","530","2278630","0.0-6.0-1.103","","<img src=""img/green-r.png"" border=""10"">","null","trial","null","","0.2,0.8","4:nogo_d","1",""
"null","","html-keyboard-response","531","2279632","0.0-6.0-2.103","","<div style=""font-size:60px;"">+</div>","null","","","","","","",""
"1017.9249999928288","","image-keyboard-response","532","2280651","0.0-6.0-0.104","","img/green.png","32","trial","null","false","0.2,0.8","4:nogo_d","",""
"null","","html-keyboard-response","533","2281655","0.0-6.0-1.104","","<img src=""img/green-n.png"" border=""10"">","null","trial","null","","0.2,0.8","4:nogo_d","0",""
"null","","html-keyboard-response","534","2282657","0.0-6.0-2.104","","<div style=""font-size:60px;"">+</div>","null","","","","","","",""
"712.4899999471381","","image-keyboard-response","535","2283370","0.0-6.0-0.105","","img/orange.png","32","trial","32","true","0.8,0.2","3:go_c","",""
"null","","html-keyboard-response","536","2284371","0.0-6.0-1.105","","<img src=""img/orange-r.png"" border=""10"">","null","trial","32","","0.8,0.2","3:go_c","1",""
"null","","html-keyboard-response","537","2285373","0.0-6.0-2.105","","<div style=""font-size:60px;"">+</div>","null","","","","","","",""
"null","","image-keyboard-response","538","2286889","0.0-6.0-0.106","","img/red.png","null","trial","null","true","0.2,0.8","2:nogo_b","",""
"null","","html-keyboard-response","539","2287891","0.0-6.0-1.106","","<img src=""img/red-r.png"">","null","trial","null","","0.2,0.8","2:nogo_b","1",""
"null","","html-keyboard-response","540","2288894","0.0-6.0-2.106","","<div style=""font-size:60px;"">+</div>","null","","","","","","",""
"619.3800000473857","","image-keyboard-response","541","2289514","0.0-6.0-0.107","","img/purple.png","32","trial","32","true","0.8,0.2","1:go_a","",""
"null","","html-keyboard-response","542","2290515","0.0-6.0-1.107","","<img src=""img/purple-r.png"" border=""10"">","null","trial","32","","0.8,0.2","1:go_a","1",""
"null","","html-keyboard-response","543","2291518","0.0-6.0-2.107","","<div style=""font-size:60px;"">+</div>","null","","","","","","",""
"827.6949999853969","","image-keyboard-response","544","2292346","0.0-6.0-0.108","","img/green.png","32","trial","null","false","0.2,0.8","4:nogo_d","",""
"null","","html-keyboard-response","545","2293348","0.0-6.0-1.108","","<img src=""img/green-n.png"" border=""10"">","null","trial","null","","0.2,0.8","4:nogo_d","0",""
"null","","html-keyboard-response","546","2294349","0.0-6.0-2.108","","<div style=""font-size:60px;"">+</div>","null","","","","","","",""
"null","","image-keyboard-response","547","2295850","0.0-6.0-0.109","","img/red.png","null","trial","null","true","0.2,0.8","2:nogo_b","",""
"null","","html-keyboard-response","548","2296853","0.0-6.0-1.109","","<img src=""img/red-n.png"">","null","trial","null","","0.2,0.8","2:nogo_b","0",""
"null","","html-keyboard-response","549","2297854","0.0-6.0-2.109","","<div style=""font-size:60px;"">+</div>","null","","","","","","",""
"602.4650000035763","","image-keyboard-response","550","2298458","0.0-6.0-0.110","","img/purple.png","32","trial","32","true","0.8,0.2","1:go_a","",""
"null","","html-keyboard-response","551","2299467","0.0-6.0-1.110","","<img src=""img/purple-r.png"" border=""10"">","null","trial","32","","0.8,0.2","1:go_a","1",""
"null","","html-keyboard-response","552","2300483","0.0-6.0-2.110","","<div style=""font-size:60px;"">+</div>","null","","","","","","",""
"725.8900000015274","","image-keyboard-response","553","2301209","0.0-6.0-0.111","","img/orange.png","32","trial","32","true","0.8,0.2","3:go_c","",""
"null","","html-keyboard-response","554","2302220","0.0-6.0-1.111","","<img src=""img/orange-n.png"" border=""10"">","null","trial","32","","0.8,0.2","3:go_c","0",""
"null","","html-keyboard-response","555","2303223","0.0-6.0-2.111","","<div style=""font-size:60px;"">+</div>","null","","","","","","",""
"null","","image-keyboard-response","556","2304724","0.0-6.0-0.112","","img/orange.png","null","trial","32","false","0.8,0.2","3:go_c","",""
"null","","html-keyboard-response","557","2305727","0.0-6.0-1.112","","<img src=""img/orange-n.png"">","null","trial","32","","0.8,0.2","3:go_c","0",""
"null","","html-keyboard-response","558","2306729","0.0-6.0-2.112","","<div style=""font-size:60px;"">+</div>","null","","","","","","",""
"816.6049999999814","","image-keyboard-response","559","2307547","0.0-6.0-0.113","","img/purple.png","32","trial","32","true","0.8,0.2","1:go_a","",""
"null","","html-keyboard-response","560","2308549","0.0-6.0-1.113","","<img src=""img/purple-r.png"" border=""10"">","null","trial","32","","0.8,0.2","1:go_a","1",""
"null","","html-keyboard-response","561","2309561","0.0-6.0-2.113","","<div style=""font-size:60px;"">+</div>","null","","","","","","",""
"null","","image-keyboard-response","562","2311063","0.0-6.0-0.114","","img/red.png","null","trial","null","true","0.2,0.8","2:nogo_b","",""
"null","","html-keyboard-response","563","2312065","0.0-6.0-1.114","","<img src=""img/red-r.png"">","null","trial","null","","0.2,0.8","2:nogo_b","1",""
"null","","html-keyboard-response","564","2313070","0.0-6.0-2.114","","<div style=""font-size:60px;"">+</div>","null","","","","","","",""
"null","","image-keyboard-response","565","2314573","0.0-6.0-0.115","","img/green.png","null","trial","null","true","0.2,0.8","4:nogo_d","",""
"null","","html-keyboard-response","566","2315575","0.0-6.0-1.115","","<img src=""img/green-r.png"">","null","trial","null","","0.2,0.8","4:nogo_d","1",""
"null","","html-keyboard-response","567","2316577","0.0-6.0-2.115","","<div style=""font-size:60px;"">+</div>","null","","","","","","",""
"873.6900000367314","","image-keyboard-response","568","2317451","0.0-6.0-0.116","","img/red.png","32","trial","null","false","0.2,0.8","2:nogo_b","",""
"null","","html-keyboard-response","569","2318455","0.0-6.0-1.116","","<img src=""img/red-n.png"" border=""10"">","null","trial","null","","0.2,0.8","2:nogo_b","0",""
"null","","html-keyboard-response","570","2319466","0.0-6.0-2.116","","<div style=""font-size:60px;"">+</div>","null","","","","","","",""
"782.8799999551848","","image-keyboard-response","571","2320249","0.0-6.0-0.117","","img/green.png","32","trial","null","false","0.2,0.8","4:nogo_d","",""
"null","","html-keyboard-response","572","2321252","0.0-6.0-1.117","","<img src=""img/green-n.png"" border=""10"">","null","trial","null","","0.2,0.8","4:nogo_d","0",""
"null","","html-keyboard-response","573","2322262","0.0-6.0-2.117","","<div style=""font-size:60px;"">+</div>","null","","","","","","",""
"739.9100000038743","","image-keyboard-response","574","2323003","0.0-6.0-0.118","","img/purple.png","32","trial","32","true","0.8,0.2","1:go_a","",""
"null","","html-keyboard-response","575","2324006","0.0-6.0-1.118","","<img src=""img/purple-r.png"" border=""10"">","null","trial","32","","0.8,0.2","1:go_a","1",""
"null","","html-keyboard-response","576","2325007","0.0-6.0-2.118","","<div style=""font-size:60px;"">+</div>","null","","","","","","",""
"554.7149999765679","","image-keyboard-response","577","2325563","0.0-6.0-0.119","","img/orange.png","32","trial","32","true","0.8,0.2","3:go_c","",""
"null","","html-keyboard-response","578","2326567","0.0-6.0-1.119","","<img src=""img/orange-r.png"" border=""10"">","null","trial","32","","0.8,0.2","3:go_c","1",""
"null","","html-keyboard-response","579","2327583","0.0-6.0-2.119","","<div style=""font-size:60px;"">+</div>","null","","","","","","",""
"4699.720000033267","","instructions","580","2332284","0.0-7.0","[{""page_index"":0,""viewing_time"":4699.530000041705}]","","","","","","","","",""
"null","","image-keyboard-response","581","2333787","0.0-8.0-0.0","","img/blue.png","null","trial","null","true","0.4,0.6","2:nogo_b","",""
"null","","html-keyboard-response","582","2334790","0.0-8.0-1.0","","<img src=""img/blue-r.png"">","null","trial","null","","0.4,0.6","2:nogo_b","1",""
"null","","html-keyboard-response","583","2335793","0.0-8.0-2.0","","<div style=""font-size:60px;"">+</div>","null","","","","","","",""
"817.5300000002608","","image-keyboard-response","584","2336611","0.0-8.0-0.1","","img/purple.png","32","trial","null","false","0.4,0.6","4:nogo_d","",""
"null","","html-keyboard-response","585","2337614","0.0-8.0-1.1","","<img src=""img/purple-n.png"" border=""10"">","null","trial","null","","0.4,0.6","4:nogo_d","0",""
"null","","html-keyboard-response","586","2338616","0.0-8.0-2.1","","<div style=""font-size:60px;"">+</div>","null","","","","","","",""
"617.5999999977648","","image-keyboard-response","587","2339235","0.0-8.0-0.2","","img/orange.png","32","trial","32","true","0.6,0.4","3:go_c","",""
"null","","html-keyboard-response","588","2340239","0.0-8.0-1.2","","<img src=""img/orange-r.png"" border=""10"">","null","trial","32","","0.6,0.4","3:go_c","1",""
"null","","html-keyboard-response","589","2341244","0.0-8.0-2.2","","<div style=""font-size:60px;"">+</div>","null","","","","","","",""
"null","","image-keyboard-response","590","2342747","0.0-8.0-0.3","","img/red.png","null","trial","32","false","0.6,0.4","1:go_a","",""
"null","","html-keyboard-response","591","2343753","0.0-8.0-1.3","","<img src=""img/red-n.png"">","null","trial","32","","0.6,0.4","1:go_a","0",""
"null","","html-keyboard-response","592","2344755","0.0-8.0-2.3","","<div style=""font-size:60px;"">+</div>","null","","","","","","",""
"734.1650000307709","","image-keyboard-response","593","2345490","0.0-8.0-0.4","","img/orange.png","32","trial","32","true","0.6,0.4","3:go_c","",""
"null","","html-keyboard-response","594","2346492","0.0-8.0-1.4","","<img src=""img/orange-n.png"" border=""10"">","null","trial","32","","0.6,0.4","3:go_c","0",""
"null","","html-keyboard-response","595","2347494","0.0-8.0-2.4","","<div style=""font-size:60px;"">+</div>","null","","","","","","",""
"572.0600000349805","","image-keyboard-response","596","2348067","0.0-8.0-0.5","","img/blue.png","32","trial","null","false","0.4,0.6","2:nogo_b","",""
"null","","html-keyboard-response","597","2349070","0.0-8.0-1.5","","<img src=""img/blue-r.png"" border=""10"">","null","trial","null","","0.4,0.6","2:nogo_b","1",""
"null","","html-keyboard-response","598","2350072","0.0-8.0-2.5","","<div style=""font-size:60px;"">+</div>","null","","","","","","",""
"703.2999999937601","","image-keyboard-response","599","2350777","0.0-8.0-0.6","","img/purple.png","32","trial","null","false","0.4,0.6","4:nogo_d","",""
"null","","html-keyboard-response","600","2351779","0.0-8.0-1.6","","<img src=""img/purple-n.png"" border=""10"">","null","trial","null","","0.4,0.6","4:nogo_d","0",""
"null","","html-keyboard-response","601","2352781","0.0-8.0-2.6","","<div style=""font-size:60px;"">+</div>","null","","","","","","",""
"955.1250000367872","","image-keyboard-response","602","2353738","0.0-8.0-0.7","","img/red.png","32","trial","32","true","0.6,0.4","1:go_a","",""
"null","","html-keyboard-response","603","2354740","0.0-8.0-1.7","","<img src=""img/red-n.png"" border=""10"">","null","trial","32","","0.6,0.4","1:go_a","0",""
"null","","html-keyboard-response","604","2355742","0.0-8.0-2.7","","<div style=""font-size:60px;"">+</div>","null","","","","","","",""
"570.8750000339933","","image-keyboard-response","605","2356315","0.0-8.0-0.8","","img/orange.png","32","trial","32","true","0.6,0.4","3:go_c","",""
"null","","html-keyboard-response","606","2357317","0.0-8.0-1.8","","<img src=""img/orange-r.png"" border=""10"">","null","trial","32","","0.6,0.4","3:go_c","1",""
"null","","html-keyboard-response","607","2358318","0.0-8.0-2.8","","<div style=""font-size:60px;"">+</div>","null","","","","","","",""
"null","","image-keyboard-response","608","2359819","0.0-8.0-0.9","","img/red.png","null","trial","32","false","0.6,0.4","1:go_a","",""
"null","","html-keyboard-response","609","2360822","0.0-8.0-1.9","","<img src=""img/red-n.png"">","null","trial","32","","0.6,0.4","1:go_a","0",""
"null","","html-keyboard-response","610","2361826","0.0-8.0-2.9","","<div style=""font-size:60px;"">+</div>","null","","","","","","",""
"null","","image-keyboard-response","611","2363340","0.0-8.0-0.10","","img/purple.png","null","trial","null","true","0.4,0.6","4:nogo_d","",""
"null","","html-keyboard-response","612","2364341","0.0-8.0-1.10","","<img src=""img/purple-n.png"">","null","trial","null","","0.4,0.6","4:nogo_d","0",""
"null","","html-keyboard-response","613","2365343","0.0-8.0-2.10","","<div style=""font-size:60px;"">+</div>","null","","","","","","",""
"479.7649999964051","","image-keyboard-response","614","2365826","0.0-8.0-0.11","","img/blue.png","32","trial","null","false","0.4,0.6","2:nogo_b","",""
"null","","html-keyboard-response","615","2366828","0.0-8.0-1.11","","<img src=""img/blue-r.png"" border=""10"">","null","trial","null","","0.4,0.6","2:nogo_b","1",""
"null","","html-keyboard-response","616","2367841","0.0-8.0-2.11","","<div style=""font-size:60px;"">+</div>","null","","","","","","",""
"993.0199999944307","","image-keyboard-response","617","2368835","0.0-8.0-0.12","","img/purple.png","32","trial","null","false","0.4,0.6","4:nogo_d","",""
"null","","html-keyboard-response","618","2369838","0.0-8.0-1.12","","<img src=""img/purple-n.png"" border=""10"">","null","trial","null","","0.4,0.6","4:nogo_d","0",""
"null","","html-keyboard-response","619","2370840","0.0-8.0-2.12","","<div style=""font-size:60px;"">+</div>","null","","","","","","",""
"633.6000000010245","","image-keyboard-response","620","2371475","0.0-8.0-0.13","","img/orange.png","32","trial","32","true","0.6,0.4","3:go_c","",""
"null","","html-keyboard-response","621","2372478","0.0-8.0-1.13","","<img src=""img/orange-n.png"" border=""10"">","null","trial","32","","0.6,0.4","3:go_c","0",""
"null","","html-keyboard-response","622","2373491","0.0-8.0-2.13","","<div style=""font-size:60px;"">+</div>","null","","","","","","",""
"null","","image-keyboard-response","623","2374998","0.0-8.0-0.14","","img/red.png","null","trial","32","false","0.6,0.4","1:go_a","",""
"null","","html-keyboard-response","624","2376001","0.0-8.0-1.14","","<img src=""img/red-n.png"">","null","trial","32","","0.6,0.4","1:go_a","0",""
"null","","html-keyboard-response","625","2377003","0.0-8.0-2.14","","<div style=""font-size:60px;"">+</div>","null","","","","","","",""
"615.4400000232272","","image-keyboard-response","626","2377619","0.0-8.0-0.15","","img/blue.png","32","trial","null","false","0.4,0.6","2:nogo_b","",""
"null","","html-keyboard-response","627","2378621","0.0-8.0-1.15","","<img src=""img/blue-r.png"" border=""10"">","null","trial","null","","0.4,0.6","2:nogo_b","1",""
"null","","html-keyboard-response","628","2379623","0.0-8.0-2.15","","<div style=""font-size:60px;"">+</div>","null","","","","","","",""
"1187.2149999835528","","image-keyboard-response","629","2380811","0.0-8.0-0.16","","img/blue.png","32","trial","null","false","0.4,0.6","2:nogo_b","",""
"null","","html-keyboard-response","630","2381815","0.0-8.0-1.16","","<img src=""img/blue-r.png"" border=""10"">","null","trial","null","","0.4,0.6","2:nogo_b","1",""
"null","","html-keyboard-response","631","2382816","0.0-8.0-2.16","","<div style=""font-size:60px;"">+</div>","null","","","","","","",""
"null","","image-keyboard-response","632","2384320","0.0-8.0-0.17","","img/purple.png","null","trial","null","true","0.4,0.6","4:nogo_d","",""
"null","","html-keyboard-response","633","2385321","0.0-8.0-1.17","","<img src=""img/purple-n.png"">","null","trial","null","","0.4,0.6","4:nogo_d","0",""
"null","","html-keyboard-response","634","2386322","0.0-8.0-2.17","","<div style=""font-size:60px;"">+</div>","null","","","","","","",""
"null","","image-keyboard-response","635","2387824","0.0-8.0-0.18","","img/red.png","null","trial","32","false","0.6,0.4","1:go_a","",""
"null","","html-keyboard-response","636","2388825","0.0-8.0-1.18","","<img src=""img/red-r.png"">","null","trial","32","","0.6,0.4","1:go_a","1",""
"null","","html-keyboard-response","637","2389826","0.0-8.0-2.18","","<div style=""font-size:60px;"">+</div>","null","","","","","","",""
"864.3050000537187","","image-keyboard-response","638","2390691","0.0-8.0-0.19","","img/orange.png","32","trial","32","true","0.6,0.4","3:go_c","",""
"null","","html-keyboard-response","639","2391703","0.0-8.0-1.19","","<img src=""img/orange-n.png"" border=""10"">","null","trial","32","","0.6,0.4","3:go_c","0",""
"null","","html-keyboard-response","640","2392705","0.0-8.0-2.19","","<div style=""font-size:60px;"">+</div>","null","","","","","","",""
"801.5950000262819","","image-keyboard-response","641","2393507","0.0-8.0-0.20","","img/purple.png","32","trial","null","false","0.4,0.6","4:nogo_d","",""
"null","","html-keyboard-response","642","2394510","0.0-8.0-1.20","","<img src=""img/purple-r.png"" border=""10"">","null","trial","null","","0.4,0.6","4:nogo_d","1",""
"null","","html-keyboard-response","643","2395510","0.0-8.0-2.20","","<div style=""font-size:60px;"">+</div>","null","","","","","","",""
"682.7650000341237","","image-keyboard-response","644","2396194","0.0-8.0-0.21","","img/blue.png","32","trial","null","false","0.4,0.6","2:nogo_b","",""
"null","","html-keyboard-response","645","2397195","0.0-8.0-1.21","","<img src=""img/blue-r.png"" border=""10"">","null","trial","null","","0.4,0.6","2:nogo_b","1",""
"null","","html-keyboard-response","646","2398197","0.0-8.0-2.21","","<div style=""font-size:60px;"">+</div>","null","","","","","","",""
"null","","image-keyboard-response","647","2399698","0.0-8.0-0.22","","img/red.png","null","trial","32","false","0.6,0.4","1:go_a","",""
"null","","html-keyboard-response","648","2400701","0.0-8.0-1.22","","<img src=""img/red-r.png"">","null","trial","32","","0.6,0.4","1:go_a","1",""
"null","","html-keyboard-response","649","2401702","0.0-8.0-2.22","","<div style=""font-size:60px;"">+</div>","null","","","","","","",""
"681.7750000045635","","image-keyboard-response","650","2402385","0.0-8.0-0.23","","img/orange.png","32","trial","32","true","0.6,0.4","3:go_c","",""
"null","","html-keyboard-response","651","2403402","0.0-8.0-1.23","","<img src=""img/orange-n.png"" border=""10"">","null","trial","32","","0.6,0.4","3:go_c","0",""
"null","","html-keyboard-response","652","2404404","0.0-8.0-2.23","","<div style=""font-size:60px;"">+</div>","null","","","","","","",""
"null","","image-keyboard-response","653","2405905","0.0-8.0-0.24","","img/orange.png","null","trial","32","false","0.6,0.4","3:go_c","",""
"null","","html-keyboard-response","654","2406908","0.0-8.0-1.24","","<img src=""img/orange-r.png"">","null","trial","32","","0.6,0.4","3:go_c","1",""
"null","","html-keyboard-response","655","2407910","0.0-8.0-2.24","","<div style=""font-size:60px;"">+</div>","null","","","","","","",""
"506.28999999025837","","image-keyboard-response","656","2408419","0.0-8.0-0.25","","img/blue.png","32","trial","null","false","0.4,0.6","2:nogo_b","",""
"null","","html-keyboard-response","657","2409422","0.0-8.0-1.25","","<img src=""img/blue-n.png"" border=""10"">","null","trial","null","","0.4,0.6","2:nogo_b","0",""
"null","","html-keyboard-response","658","2410423","0.0-8.0-2.25","","<div style=""font-size:60px;"">+</div>","null","","","","","","",""
"null","","image-keyboard-response","659","2411925","0.0-8.0-0.26","","img/red.png","null","trial","32","false","0.6,0.4","1:go_a","",""
"null","","html-keyboard-response","660","2412928","0.0-8.0-1.26","","<img src=""img/red-n.png"">","null","trial","32","","0.6,0.4","1:go_a","0",""
"null","","html-keyboard-response","661","2413935","0.0-8.0-2.26","","<div style=""font-size:60px;"">+</div>","null","","","","","","",""
"603.015000000596","","image-keyboard-response","662","2414539","0.0-8.0-0.27","","img/purple.png","32","trial","null","false","0.4,0.6","4:nogo_d","",""
"null","","html-keyboard-response","663","2415542","0.0-8.0-1.27","","<img src=""img/purple-n.png"" border=""10"">","null","trial","null","","0.4,0.6","4:nogo_d","0",""
"null","","html-keyboard-response","664","2416544","0.0-8.0-2.27","","<div style=""font-size:60px;"">+</div>","null","","","","","","",""
"null","","image-keyboard-response","665","2418046","0.0-8.0-0.28","","img/red.png","null","trial","32","false","0.6,0.4","1:go_a","",""
"null","","html-keyboard-response","666","2419049","0.0-8.0-1.28","","<img src=""img/red-n.png"">","null","trial","32","","0.6,0.4","1:go_a","0",""
"null","","html-keyboard-response","667","2420053","0.0-8.0-2.28","","<div style=""font-size:60px;"">+</div>","null","","","","","","",""
"499.6699999901466","","image-keyboard-response","668","2420554","0.0-8.0-0.29","","img/blue.png","32","trial","null","false","0.4,0.6","2:nogo_b","",""
"null","","html-keyboard-response","669","2421556","0.0-8.0-1.29","","<img src=""img/blue-r.png"" border=""10"">","null","trial","null","","0.4,0.6","2:nogo_b","1",""
"null","","html-keyboard-response","670","2422557","0.0-8.0-2.29","","<div style=""font-size:60px;"">+</div>","null","","","","","","",""
"null","","image-keyboard-response","671","2424059","0.0-8.0-0.30","","img/purple.png","null","trial","null","true","0.4,0.6","4:nogo_d","",""
"null","","html-keyboard-response","672","2425062","0.0-8.0-1.30","","<img src=""img/purple-r.png"">","null","trial","null","","0.4,0.6","4:nogo_d","1",""
"null","","html-keyboard-response","673","2426065","0.0-8.0-2.30","","<div style=""font-size:60px;"">+</div>","null","","","","","","",""
