"rt","url","trial_type","trial_index","time_elapsed","internal_node_id","view_history","stimulus","key_press","test_part","correct_response","correct","use_rew","which_stim","reward","responses"
"4245","consent.html","external-html","0","4340","0.0-0.0","","","","","","","","","",""
"110086.40000000596","","instructions","1","114427","0.0-1.0","[{""page_index"":0,""viewing_time"":2874.4000000059605},{""page_index"":1,""viewing_time"":37167.79999999702},{""page_index"":2,""viewing_time"":5816.600000008941},{""page_index"":3,""viewing_time"":32911.39999999106},{""page_index"":4,""viewing_time"":15761.70000000298},{""page_index"":5,""viewing_time"":3982.5999999940395},{""page_index"":6,""viewing_time"":11571.300000011921}]","","","","","","","","",""
"602.9000000059605","","image-keyboard-response","2","115031","0.0-2.0-0.0","","img/test1.PNG","32","practice","32","true","","","",""
"null","","html-keyboard-response","3","116040","0.0-2.0-1.0","","<img src=""img/test1-reward.PNG"" border=""10px; grey"">","null","","","","","","",""
"null","","html-keyboard-response","4","117042","0.0-2.0-2.0","","<div style=""font-size:60px;"">+</div>","null","","","","","","",""
"null","","image-keyboard-response","5","118554","0.0-2.0-0.1","","img/test2.PNG","null","practice","null","true","","","",""
"null","","html-keyboard-response","6","119561","0.0-2.0-1.1","","<img src=""img/test2-reward.PNG"">","null","","","","","","",""
"null","","html-keyboard-response","7","120577","0.0-2.0-2.1","","<div style=""font-size:60px;"">+</div>","null","","","","","","",""
"null","","image-keyboard-response","8","122084","0.0-2.0-0.2","","img/test3.PNG","null","practice","null","true","","","",""
"null","","html-keyboard-response","9","123089","0.0-2.0-1.2","","<img src=""img/test3-reward.PNG"">","null","","","","","","",""
"null","","html-keyboard-response","10","124097","0.0-2.0-2.2","","<div style=""font-size:60px;"">+</div>","null","","","","","","",""
"null","","image-keyboard-response","11","125609","0.0-2.0-0.3","","img/test2.PNG","null","practice","null","true","","","",""
"null","","html-keyboard-response","12","126620","0.0-2.0-1.3","","<img src=""img/test2-reward.PNG"">","null","","","","","","",""
"null","","html-keyboard-response","13","127623","0.0-2.0-2.3","","<div style=""font-size:60px;"">+</div>","null","","","","","","",""
"520.1000000089407","","image-keyboard-response","14","128144","0.0-2.0-0.4","","img/test1.PNG","32","practice","32","true","","","",""
"null","","html-keyboard-response","15","129155","0.0-2.0-1.4","","<img src=""img/test1-reward.PNG"" border=""10px; grey"">","null","","","","","","",""
"null","","html-keyboard-response","16","130157","0.0-2.0-2.4","","<div style=""font-size:60px;"">+</div>","null","","","","","","",""
"null","","image-keyboard-response","17","131664","0.0-2.0-0.5","","img/test3.PNG","null","practice","null","true","","","",""
"null","","html-keyboard-response","18","132666","0.0-2.0-1.5","","<img src=""img/test3-reward.PNG"">","null","","","","","","",""
"null","","html-keyboard-response","19","133670","0.0-2.0-2.5","","<div style=""font-size:60px;"">+</div>","null","","","","","","",""
"null","","image-keyboard-response","20","135183","0.0-2.0-0.6","","img/test3.PNG","null","practice","null","true","","","",""
"null","","html-keyboard-response","21","136186","0.0-2.0-1.6","","<img src=""img/test3-reward.PNG"">","null","","","","","","",""
"null","","html-keyboard-response","22","137186","0.0-2.0-2.6","","<div style=""font-size:60px;"">+</div>","null","","","","","","",""
"532","","image-keyboard-response","23","137719","0.0-2.0-0.7","","img/test1.PNG","32","practice","32","true","","","",""
"null","","html-keyboard-response","24","138730","0.0-2.0-1.7","","<img src=""img/test1-reward.PNG"" border=""10px; grey"">","null","","","","","","",""
"null","","html-keyboard-response","25","139731","0.0-2.0-2.7","","<div style=""font-size:60px;"">+</div>","null","","","","","","",""
"null","","image-keyboard-response","26","141245","0.0-2.0-0.8","","img/test2.PNG","null","practice","null","true","","","",""
"null","","html-keyboard-response","27","142251","0.0-2.0-1.8","","<img src=""img/test2-reward.PNG"">","null","","","","","","",""
"null","","html-keyboard-response","28","143266","0.0-2.0-2.8","","<div style=""font-size:60px;"">+</div>","null","","","","","","",""
"null","","image-keyboard-response","29","144774","0.0-2.0-0.9","","img/test3.PNG","null","practice","null","true","","","",""
"null","","html-keyboard-response","30","145778","0.0-2.0-1.9","","<img src=""img/test3-reward.PNG"">","null","","","","","","",""
"null","","html-keyboard-response","31","146780","0.0-2.0-2.9","","<div style=""font-size:60px;"">+</div>","null","","","","","","",""
"null","","image-keyboard-response","32","148289","0.0-2.0-0.10","","img/test2.PNG","null","practice","null","true","","","",""
"null","","html-keyboard-response","33","149294","0.0-2.0-1.10","","<img src=""img/test2-reward.PNG"">","null","","","","","","",""
"null","","html-keyboard-response","34","150300","0.0-2.0-2.10","","<div style=""font-size:60px;"">+</div>","null","","","","","","",""
"555.5","","image-keyboard-response","35","150856","0.0-2.0-0.11","","img/test1.PNG","32","practice","32","true","","","",""
"null","","html-keyboard-response","36","151862","0.0-2.0-1.11","","<img src=""img/test1-reward.PNG"" border=""10px; grey"">","null","","","","","","",""
"null","","html-keyboard-response","37","152862","0.0-2.0-2.11","","<div style=""font-size:60px;"">+</div>","null","","","","","","",""
"29472.20000000298","","instructions","38","182335","0.0-3.0","[{""page_index"":0,""viewing_time"":29472.09999999404}]","","","","","","","","",""
"null","","image-keyboard-response","39","183837","0.0-4.0-0.0","","img/green.png","null","trial","null","true","0.2,0.8","2:nogo_b","",""
"null","","html-keyboard-response","40","184846","0.0-4.0-1.0","","<img src=""img/green-r.png"">","null","trial","null","","0.2,0.8","2:nogo_b","1",""
"null","","html-keyboard-response","41","185854","0.0-4.0-2.0","","<div style=""font-size:60px;"">+</div>","null","","","","","","",""
"976.2999999970198","","image-keyboard-response","42","186831","0.0-4.0-0.1","","img/yellow.png","32","trial","32","true","0.8,0.2","1:go_a","",""
"null","","html-keyboard-response","43","187845","0.0-4.0-1.1","","<img src=""img/yellow-r.png"" border=""10"">","null","trial","32","","0.8,0.2","1:go_a","1",""
"null","","html-keyboard-response","44","188856","0.0-4.0-2.1","","<div style=""font-size:60px;"">+</div>","null","","","","","","",""
"636.2000000029802","","image-keyboard-response","45","189493","0.0-4.0-0.2","","img/green.png","32","trial","null","false","0.2,0.8","2:nogo_b","",""
"null","","html-keyboard-response","46","190500","0.0-4.0-1.2","","<img src=""img/green-n.png"" border=""10"">","null","trial","null","","0.2,0.8","2:nogo_b","0",""
"null","","html-keyboard-response","47","191504","0.0-4.0-2.2","","<div style=""font-size:60px;"">+</div>","null","","","","","","",""
"814.7999999970198","","image-keyboard-response","48","192319","0.0-4.0-0.3","","img/yellow.png","32","trial","32","true","0.8,0.2","1:go_a","",""
"null","","html-keyboard-response","49","193322","0.0-4.0-1.3","","<img src=""img/yellow-n.png"" border=""10"">","null","trial","32","","0.8,0.2","1:go_a","0",""
"null","","html-keyboard-response","50","194329","0.0-4.0-2.3","","<div style=""font-size:60px;"">+</div>","null","","","","","","",""
"700.3999999910593","","image-keyboard-response","51","195030","0.0-4.0-0.4","","img/green.png","32","trial","null","false","0.2,0.8","2:nogo_b","",""
"null","","html-keyboard-response","52","196034","0.0-4.0-1.4","","<img src=""img/green-n.png"" border=""10"">","null","trial","null","","0.2,0.8","2:nogo_b","0",""
"null","","html-keyboard-response","53","197044","0.0-4.0-2.4","","<div style=""font-size:60px;"">+</div>","null","","","","","","",""
"null","","image-keyboard-response","54","198550","0.0-4.0-0.5","","img/yellow.png","null","trial","32","false","0.8,0.2","1:go_a","",""
"null","","html-keyboard-response","55","199559","0.0-4.0-1.5","","<img src=""img/yellow-n.png"">","null","trial","32","","0.8,0.2","1:go_a","0",""
"null","","html-keyboard-response","56","200571","0.0-4.0-2.5","","<div style=""font-size:60px;"">+</div>","null","","","","","","",""
"null","","image-keyboard-response","57","202076","0.0-4.0-0.6","","img/yellow.png","null","trial","32","false","0.8,0.2","1:go_a","",""
"null","","html-keyboard-response","58","203084","0.0-4.0-1.6","","<img src=""img/yellow-n.png"">","null","trial","32","","0.8,0.2","1:go_a","0",""
"null","","html-keyboard-response","59","204095","0.0-4.0-2.6","","<div style=""font-size:60px;"">+</div>","null","","","","","","",""
"910.5999999940395","","image-keyboard-response","60","205006","0.0-4.0-0.7","","img/green.png","32","trial","null","false","0.2,0.8","2:nogo_b","",""
"null","","html-keyboard-response","61","206018","0.0-4.0-1.7","","<img src=""img/green-n.png"" border=""10"">","null","trial","null","","0.2,0.8","2:nogo_b","0",""
"null","","html-keyboard-response","62","207023","0.0-4.0-2.7","","<div style=""font-size:60px;"">+</div>","null","","","","","","",""
"null","","image-keyboard-response","63","208529","0.0-4.0-0.8","","img/yellow.png","null","trial","32","false","0.8,0.2","1:go_a","",""
"null","","html-keyboard-response","64","209536","0.0-4.0-1.8","","<img src=""img/yellow-r.png"">","null","trial","32","","0.8,0.2","1:go_a","1",""
"null","","html-keyboard-response","65","210545","0.0-4.0-2.8","","<div style=""font-size:60px;"">+</div>","null","","","","","","",""
"null","","image-keyboard-response","66","212052","0.0-4.0-0.9","","img/green.png","null","trial","null","true","0.2,0.8","2:nogo_b","",""
"null","","html-keyboard-response","67","213063","0.0-4.0-1.9","","<img src=""img/green-r.png"">","null","trial","null","","0.2,0.8","2:nogo_b","1",""
"null","","html-keyboard-response","68","214066","0.0-4.0-2.9","","<div style=""font-size:60px;"">+</div>","null","","","","","","",""
"827.2999999970198","","image-keyboard-response","69","214894","0.0-4.0-0.10","","img/green.png","32","trial","null","false","0.2,0.8","2:nogo_b","",""
"null","","html-keyboard-response","70","215904","0.0-4.0-1.10","","<img src=""img/green-n.png"" border=""10"">","null","trial","null","","0.2,0.8","2:nogo_b","0",""
"null","","html-keyboard-response","71","216911","0.0-4.0-2.10","","<div style=""font-size:60px;"">+</div>","null","","","","","","",""
"819.8000000119209","","image-keyboard-response","72","217731","0.0-4.0-0.11","","img/yellow.png","32","trial","32","true","0.8,0.2","1:go_a","",""
"null","","html-keyboard-response","73","218737","0.0-4.0-1.11","","<img src=""img/yellow-r.png"" border=""10"">","null","trial","32","","0.8,0.2","1:go_a","1",""
"null","","html-keyboard-response","74","219747","0.0-4.0-2.11","","<div style=""font-size:60px;"">+</div>","null","","","","","","",""
"908.9000000059605","","image-keyboard-response","75","220657","0.0-4.0-0.12","","img/green.png","32","trial","null","false","0.2,0.8","2:nogo_b","",""
"null","","html-keyboard-response","76","221670","0.0-4.0-1.12","","<img src=""img/green-n.png"" border=""10"">","null","trial","null","","0.2,0.8","2:nogo_b","0",""
"null","","html-keyboard-response","77","222676","0.0-4.0-2.12","","<div style=""font-size:60px;"">+</div>","null","","","","","","",""
"null","","image-keyboard-response","78","224179","0.0-4.0-0.13","","img/yellow.png","null","trial","32","false","0.8,0.2","1:go_a","",""
"null","","html-keyboard-response","79","225180","0.0-4.0-1.13","","<img src=""img/yellow-n.png"">","null","trial","32","","0.8,0.2","1:go_a","0",""
"null","","html-keyboard-response","80","226182","0.0-4.0-2.13","","<div style=""font-size:60px;"">+</div>","null","","","","","","",""
"623.2999999970198","","image-keyboard-response","81","226806","0.0-4.0-0.14","","img/green.png","32","trial","null","false","0.2,0.8","2:nogo_b","",""
"null","","html-keyboard-response","82","227816","0.0-4.0-1.14","","<img src=""img/green-r.png"" border=""10"">","null","trial","null","","0.2,0.8","2:nogo_b","1",""
"null","","html-keyboard-response","83","228816","0.0-4.0-2.14","","<div style=""font-size:60px;"">+</div>","null","","","","","","",""
"1189.1000000089407","","image-keyboard-response","84","230006","0.0-4.0-0.15","","img/yellow.png","32","trial","32","true","0.8,0.2","1:go_a","",""
"null","","html-keyboard-response","85","231007","0.0-4.0-1.15","","<img src=""img/yellow-r.png"" border=""10"">","null","trial","32","","0.8,0.2","1:go_a","1",""
"null","","html-keyboard-response","86","232016","0.0-4.0-2.15","","<div style=""font-size:60px;"">+</div>","null","","","","","","",""
"951.5999999940395","","image-keyboard-response","87","232968","0.0-4.0-0.16","","img/yellow.png","32","trial","32","true","0.8,0.2","1:go_a","",""
"null","","html-keyboard-response","88","233969","0.0-4.0-1.16","","<img src=""img/yellow-r.png"" border=""10"">","null","trial","32","","0.8,0.2","1:go_a","1",""
"null","","html-keyboard-response","89","234970","0.0-4.0-2.16","","<div style=""font-size:60px;"">+</div>","null","","","","","","",""
"1099.6000000089407","","image-keyboard-response","90","236069","0.0-4.0-0.17","","img/green.png","32","trial","null","false","0.2,0.8","2:nogo_b","",""
"null","","html-keyboard-response","91","237083","0.0-4.0-1.17","","<img src=""img/green-n.png"" border=""10"">","null","trial","null","","0.2,0.8","2:nogo_b","0",""
"null","","html-keyboard-response","92","238090","0.0-4.0-2.17","","<div style=""font-size:60px;"">+</div>","null","","","","","","",""
"null","","image-keyboard-response","93","239595","0.0-4.0-0.18","","img/green.png","null","trial","null","true","0.2,0.8","2:nogo_b","",""
"null","","html-keyboard-response","94","240596","0.0-4.0-1.18","","<img src=""img/green-r.png"">","null","trial","null","","0.2,0.8","2:nogo_b","1",""
"null","","html-keyboard-response","95","241597","0.0-4.0-2.18","","<div style=""font-size:60px;"">+</div>","null","","","","","","",""
"null","","image-keyboard-response","96","243098","0.0-4.0-0.19","","img/yellow.png","null","trial","32","false","0.8,0.2","1:go_a","",""
"null","","html-keyboard-response","97","244099","0.0-4.0-1.19","","<img src=""img/yellow-n.png"">","null","trial","32","","0.8,0.2","1:go_a","0",""
"null","","html-keyboard-response","98","245107","0.0-4.0-2.19","","<div style=""font-size:60px;"">+</div>","null","","","","","","",""
"934.3999999910593","","image-keyboard-response","99","246042","0.0-4.0-0.20","","img/green.png","32","trial","null","false","0.2,0.8","2:nogo_b","",""
"null","","html-keyboard-response","100","247051","0.0-4.0-1.20","","<img src=""img/green-n.png"" border=""10"">","null","trial","null","","0.2,0.8","2:nogo_b","0",""
"null","","html-keyboard-response","101","248052","0.0-4.0-2.20","","<div style=""font-size:60px;"">+</div>","null","","","","","","",""
"1089.7000000029802","","image-keyboard-response","102","249142","0.0-4.0-0.21","","img/yellow.png","32","trial","32","true","0.8,0.2","1:go_a","",""
"null","","html-keyboard-response","103","250148","0.0-4.0-1.21","","<img src=""img/yellow-n.png"" border=""10"">","null","trial","32","","0.8,0.2","1:go_a","0",""
"null","","html-keyboard-response","104","251148","0.0-4.0-2.21","","<div style=""font-size:60px;"">+</div>","null","","","","","","",""
"905.5","","image-keyboard-response","105","252054","0.0-4.0-0.22","","img/green.png","32","trial","null","false","0.2,0.8","2:nogo_b","",""
"null","","html-keyboard-response","106","253056","0.0-4.0-1.22","","<img src=""img/green-r.png"" border=""10"">","null","trial","null","","0.2,0.8","2:nogo_b","1",""
"null","","html-keyboard-response","107","254063","0.0-4.0-2.22","","<div style=""font-size:60px;"">+</div>","null","","","","","","",""
"null","","image-keyboard-response","108","255569","0.0-4.0-0.23","","img/yellow.png","null","trial","32","false","0.8,0.2","1:go_a","",""
"null","","html-keyboard-response","109","256581","0.0-4.0-1.23","","<img src=""img/yellow-n.png"">","null","trial","32","","0.8,0.2","1:go_a","0",""
"null","","html-keyboard-response","110","257582","0.0-4.0-2.23","","<div style=""font-size:60px;"">+</div>","null","","","","","","",""
"null","","image-keyboard-response","111","259094","0.0-4.0-0.24","","img/yellow.png","null","trial","32","false","0.8,0.2","1:go_a","",""
"null","","html-keyboard-response","112","260110","0.0-4.0-1.24","","<img src=""img/yellow-r.png"">","null","trial","32","","0.8,0.2","1:go_a","1",""
"null","","html-keyboard-response","113","261121","0.0-4.0-2.24","","<div style=""font-size:60px;"">+</div>","null","","","","","","",""
"1045.9000000059605","","image-keyboard-response","114","262168","0.0-4.0-0.25","","img/green.png","32","trial","null","false","0.2,0.8","2:nogo_b","",""
"null","","html-keyboard-response","115","263183","0.0-4.0-1.25","","<img src=""img/green-r.png"" border=""10"">","null","trial","null","","0.2,0.8","2:nogo_b","1",""
"null","","html-keyboard-response","116","264193","0.0-4.0-2.25","","<div style=""font-size:60px;"">+</div>","null","","","","","","",""
"923.5","","image-keyboard-response","117","265117","0.0-4.0-0.26","","img/green.png","32","trial","null","false","0.2,0.8","2:nogo_b","",""
"null","","html-keyboard-response","118","266118","0.0-4.0-1.26","","<img src=""img/green-n.png"" border=""10"">","null","trial","null","","0.2,0.8","2:nogo_b","0",""
"null","","html-keyboard-response","119","267130","0.0-4.0-2.26","","<div style=""font-size:60px;"">+</div>","null","","","","","","",""
"1299.800000011921","","image-keyboard-response","120","268431","0.0-4.0-0.27","","img/yellow.png","32","trial","32","true","0.8,0.2","1:go_a","",""
"null","","html-keyboard-response","121","269432","0.0-4.0-1.27","","<img src=""img/yellow-r.png"" border=""10"">","null","trial","32","","0.8,0.2","1:go_a","1",""
"null","","html-keyboard-response","122","270435","0.0-4.0-2.27","","<div style=""font-size:60px;"">+</div>","null","","","","","","",""
"1044.2000000029802","","image-keyboard-response","123","271479","0.0-4.0-0.28","","img/yellow.png","32","trial","32","true","0.8,0.2","1:go_a","",""
"null","","html-keyboard-response","124","272486","0.0-4.0-1.28","","<img src=""img/yellow-r.png"" border=""10"">","null","trial","32","","0.8,0.2","1:go_a","1",""
"null","","html-keyboard-response","125","273495","0.0-4.0-2.28","","<div style=""font-size:60px;"">+</div>","null","","","","","","",""
"1272.4000000059605","","image-keyboard-response","126","274768","0.0-4.0-0.29","","img/green.png","32","trial","null","false","0.2,0.8","2:nogo_b","",""
"null","","html-keyboard-response","127","275769","0.0-4.0-1.29","","<img src=""img/green-n.png"" border=""10"">","null","trial","null","","0.2,0.8","2:nogo_b","0",""
"null","","html-keyboard-response","128","276770","0.0-4.0-2.29","","<div style=""font-size:60px;"">+</div>","null","","","","","","",""
"1258.5","","image-keyboard-response","129","278029","0.0-4.0-0.30","","img/yellow.png","32","trial","32","true","0.8,0.2","1:go_a","",""
"null","","html-keyboard-response","130","279039","0.0-4.0-1.30","","<img src=""img/yellow-r.png"" border=""10"">","null","trial","32","","0.8,0.2","1:go_a","1",""
"null","","html-keyboard-response","131","280049","0.0-4.0-2.30","","<div style=""font-size:60px;"">+</div>","null","","","","","","",""
"1317.3999999910593","","image-keyboard-response","132","281367","0.0-4.0-0.31","","img/green.png","32","trial","null","false","0.2,0.8","2:nogo_b","",""
"null","","html-keyboard-response","133","282374","0.0-4.0-1.31","","<img src=""img/green-n.png"" border=""10"">","null","trial","null","","0.2,0.8","2:nogo_b","0",""
"null","","html-keyboard-response","134","283384","0.0-4.0-2.31","","<div style=""font-size:60px;"">+</div>","null","","","","","","",""
"1194.7000000029802","","image-keyboard-response","135","284580","0.0-4.0-0.32","","img/green.png","32","trial","null","false","0.2,0.8","2:nogo_b","",""
"null","","html-keyboard-response","136","285587","0.0-4.0-1.32","","<img src=""img/green-n.png"" border=""10"">","null","trial","null","","0.2,0.8","2:nogo_b","0",""
"null","","html-keyboard-response","137","286602","0.0-4.0-2.32","","<div style=""font-size:60px;"">+</div>","null","","","","","","",""
"null","","image-keyboard-response","138","288108","0.0-4.0-0.33","","img/yellow.png","null","trial","32","false","0.8,0.2","1:go_a","",""
"null","","html-keyboard-response","139","289118","0.0-4.0-1.33","","<img src=""img/yellow-n.png"">","null","trial","32","","0.8,0.2","1:go_a","0",""
"null","","html-keyboard-response","140","290128","0.0-4.0-2.33","","<div style=""font-size:60px;"">+</div>","null","","","","","","",""
"null","","image-keyboard-response","141","291632","0.0-4.0-0.34","","img/yellow.png","null","trial","32","false","0.8,0.2","1:go_a","",""
"null","","html-keyboard-response","142","292637","0.0-4.0-1.34","","<img src=""img/yellow-n.png"">","null","trial","32","","0.8,0.2","1:go_a","0",""
"null","","html-keyboard-response","143","293646","0.0-4.0-2.34","","<div style=""font-size:60px;"">+</div>","null","","","","","","",""
"1145.800000011921","","image-keyboard-response","144","294793","0.0-4.0-0.35","","img/green.png","32","trial","null","false","0.2,0.8","2:nogo_b","",""
"null","","html-keyboard-response","145","295799","0.0-4.0-1.35","","<img src=""img/green-n.png"" border=""10"">","null","trial","null","","0.2,0.8","2:nogo_b","0",""
"null","","html-keyboard-response","146","296806","0.0-4.0-2.35","","<div style=""font-size:60px;"">+</div>","null","","","","","","",""
"1061.5","","image-keyboard-response","147","297868","0.0-4.0-0.36","","img/green.png","32","trial","null","false","0.2,0.8","2:nogo_b","",""
"null","","html-keyboard-response","148","298869","0.0-4.0-1.36","","<img src=""img/green-r.png"" border=""10"">","null","trial","null","","0.2,0.8","2:nogo_b","1",""
"null","","html-keyboard-response","149","299881","0.0-4.0-2.36","","<div style=""font-size:60px;"">+</div>","null","","","","","","",""
"null","","image-keyboard-response","150","301386","0.0-4.0-0.37","","img/yellow.png","null","trial","32","false","0.8,0.2","1:go_a","",""
"null","","html-keyboard-response","151","302391","0.0-4.0-1.37","","<img src=""img/yellow-n.png"">","null","trial","32","","0.8,0.2","1:go_a","0",""
"null","","html-keyboard-response","152","303398","0.0-4.0-2.37","","<div style=""font-size:60px;"">+</div>","null","","","","","","",""
"1106.2000000029802","","image-keyboard-response","153","304505","0.0-4.0-0.38","","img/green.png","32","trial","null","false","0.2,0.8","2:nogo_b","",""
"null","","html-keyboard-response","154","305515","0.0-4.0-1.38","","<img src=""img/green-n.png"" border=""10"">","null","trial","null","","0.2,0.8","2:nogo_b","0",""
"null","","html-keyboard-response","155","306526","0.0-4.0-2.38","","<div style=""font-size:60px;"">+</div>","null","","","","","","",""
"1243","","image-keyboard-response","156","307769","0.0-4.0-0.39","","img/yellow.png","32","trial","32","true","0.8,0.2","1:go_a","",""
"null","","html-keyboard-response","157","308770","0.0-4.0-1.39","","<img src=""img/yellow-r.png"" border=""10"">","null","trial","32","","0.8,0.2","1:go_a","1",""
"null","","html-keyboard-response","158","309771","0.0-4.0-2.39","","<div style=""font-size:60px;"">+</div>","null","","","","","","",""
"1321.0999999940395","","image-keyboard-response","159","311093","0.0-4.0-0.40","","img/green.png","32","trial","null","false","0.2,0.8","2:nogo_b","",""
"null","","html-keyboard-response","160","312095","0.0-4.0-1.40","","<img src=""img/green-n.png"" border=""10"">","null","trial","null","","0.2,0.8","2:nogo_b","0",""
"null","","html-keyboard-response","161","313106","0.0-4.0-2.40","","<div style=""font-size:60px;"">+</div>","null","","","","","","",""
"null","","image-keyboard-response","162","314610","0.0-4.0-0.41","","img/yellow.png","null","trial","32","false","0.8,0.2","1:go_a","",""
"null","","html-keyboard-response","163","315619","0.0-4.0-1.41","","<img src=""img/yellow-n.png"">","null","trial","32","","0.8,0.2","1:go_a","0",""
"null","","html-keyboard-response","164","316628","0.0-4.0-2.41","","<div style=""font-size:60px;"">+</div>","null","","","","","","",""
"null","","image-keyboard-response","165","318134","0.0-4.0-0.42","","img/yellow.png","null","trial","32","false","0.8,0.2","1:go_a","",""
"null","","html-keyboard-response","166","319138","0.0-4.0-1.42","","<img src=""img/yellow-n.png"">","null","trial","32","","0.8,0.2","1:go_a","0",""
"null","","html-keyboard-response","167","320146","0.0-4.0-2.42","","<div style=""font-size:60px;"">+</div>","null","","","","","","",""
"null","","image-keyboard-response","168","321648","0.0-4.0-0.43","","img/green.png","null","trial","null","true","0.2,0.8","2:nogo_b","",""
"null","","html-keyboard-response","169","322660","0.0-4.0-1.43","","<img src=""img/green-n.png"">","null","trial","null","","0.2,0.8","2:nogo_b","0",""
"null","","html-keyboard-response","170","323670","0.0-4.0-2.43","","<div style=""font-size:60px;"">+</div>","null","","","","","","",""
"1259.9000000059605","","image-keyboard-response","171","324930","0.0-4.0-0.44","","img/green.png","32","trial","null","false","0.2,0.8","2:nogo_b","",""
"null","","html-keyboard-response","172","325932","0.0-4.0-1.44","","<img src=""img/green-n.png"" border=""10"">","null","trial","null","","0.2,0.8","2:nogo_b","0",""
"null","","html-keyboard-response","173","326945","0.0-4.0-2.44","","<div style=""font-size:60px;"">+</div>","null","","","","","","",""
"null","","image-keyboard-response","174","328452","0.0-4.0-0.45","","img/yellow.png","null","trial","32","false","0.8,0.2","1:go_a","",""
"null","","html-keyboard-response","175","329459","0.0-4.0-1.45","","<img src=""img/yellow-r.png"">","null","trial","32","","0.8,0.2","1:go_a","1",""
"null","","html-keyboard-response","176","330472","0.0-4.0-2.45","","<div style=""font-size:60px;"">+</div>","null","","","","","","",""
"1320.7000000029802","","image-keyboard-response","177","331793","0.0-4.0-0.46","","img/green.png","32","trial","null","false","0.2,0.8","2:nogo_b","",""
"null","","html-keyboard-response","178","332797","0.0-4.0-1.46","","<img src=""img/green-n.png"" border=""10"">","null","trial","null","","0.2,0.8","2:nogo_b","0",""
"null","","html-keyboard-response","179","333798","0.0-4.0-2.46","","<div style=""font-size:60px;"">+</div>","null","","","","","","",""
"1344.9000000059605","","image-keyboard-response","180","335143","0.0-4.0-0.47","","img/yellow.png","32","trial","32","true","0.8,0.2","1:go_a","",""
"null","","html-keyboard-response","181","336148","0.0-4.0-1.47","","<img src=""img/yellow-r.png"" border=""10"">","null","trial","32","","0.8,0.2","1:go_a","1",""
"null","","html-keyboard-response","182","337163","0.0-4.0-2.47","","<div style=""font-size:60px;"">+</div>","null","","","","","","",""
"1441.300000011921","","image-keyboard-response","183","338605","0.0-4.0-0.48","","img/green.png","32","trial","null","false","0.2,0.8","2:nogo_b","",""
"null","","html-keyboard-response","184","339620","0.0-4.0-1.48","","<img src=""img/green-n.png"" border=""10"">","null","trial","null","","0.2,0.8","2:nogo_b","0",""
"null","","html-keyboard-response","185","340631","0.0-4.0-2.48","","<div style=""font-size:60px;"">+</div>","null","","","","","","",""
"null","","image-keyboard-response","186","342142","0.0-4.0-0.49","","img/yellow.png","null","trial","32","false","0.8,0.2","1:go_a","",""
"null","","html-keyboard-response","187","343150","0.0-4.0-1.49","","<img src=""img/yellow-r.png"">","null","trial","32","","0.8,0.2","1:go_a","1",""
"null","","html-keyboard-response","188","344160","0.0-4.0-2.49","","<div style=""font-size:60px;"">+</div>","null","","","","","","",""
"1169.7999999970198","","image-keyboard-response","189","345330","0.0-4.0-0.50","","img/green.png","32","trial","null","false","0.2,0.8","2:nogo_b","",""
"null","","html-keyboard-response","190","346335","0.0-4.0-1.50","","<img src=""img/green-r.png"" border=""10"">","null","trial","null","","0.2,0.8","2:nogo_b","1",""
"null","","html-keyboard-response","191","347346","0.0-4.0-2.50","","<div style=""font-size:60px;"">+</div>","null","","","","","","",""
"1158.8999999910593","","image-keyboard-response","192","348505","0.0-4.0-0.51","","img/yellow.png","32","trial","32","true","0.8,0.2","1:go_a","",""
"null","","html-keyboard-response","193","349507","0.0-4.0-1.51","","<img src=""img/yellow-n.png"" border=""10"">","null","trial","32","","0.8,0.2","1:go_a","0",""
"null","","html-keyboard-response","194","350515","0.0-4.0-2.51","","<div style=""font-size:60px;"">+</div>","null","","","","","","",""
"1064.3999999910593","","image-keyboard-response","195","351580","0.0-4.0-0.52","","img/green.png","32","trial","null","false","0.2,0.8","2:nogo_b","",""
"null","","html-keyboard-response","196","352592","0.0-4.0-1.52","","<img src=""img/green-n.png"" border=""10"">","null","trial","null","","0.2,0.8","2:nogo_b","0",""
"null","","html-keyboard-response","197","353597","0.0-4.0-2.52","","<div style=""font-size:60px;"">+</div>","null","","","","","","",""
"null","","image-keyboard-response","198","355102","0.0-4.0-0.53","","img/yellow.png","null","trial","32","false","0.8,0.2","1:go_a","",""
"null","","html-keyboard-response","199","356109","0.0-4.0-1.53","","<img src=""img/yellow-n.png"">","null","trial","32","","0.8,0.2","1:go_a","0",""
"null","","html-keyboard-response","200","357117","0.0-4.0-2.53","","<div style=""font-size:60px;"">+</div>","null","","","","","","",""
"1499.7999999970198","","image-keyboard-response","201","358617","0.0-4.0-0.54","","img/green.png","32","trial","null","false","0.2,0.8","2:nogo_b","",""
"null","","html-keyboard-response","202","359630","0.0-4.0-1.54","","<img src=""img/green-n.png"" border=""10"">","null","trial","null","","0.2,0.8","2:nogo_b","0",""
"null","","html-keyboard-response","203","360631","0.0-4.0-2.54","","<div style=""font-size:60px;"">+</div>","null","","","","","","",""
"null","","image-keyboard-response","204","362145","0.0-4.0-0.55","","img/yellow.png","null","trial","32","false","0.8,0.2","1:go_a","",""
"null","","html-keyboard-response","205","363159","0.0-4.0-1.55","","<img src=""img/yellow-r.png"">","null","trial","32","","0.8,0.2","1:go_a","1",""
"null","","html-keyboard-response","206","364167","0.0-4.0-2.55","","<div style=""font-size:60px;"">+</div>","null","","","","","","",""
"974.5","","image-keyboard-response","207","365142","0.0-4.0-0.56","","img/yellow.png","32","trial","32","true","0.8,0.2","1:go_a","",""
"null","","html-keyboard-response","208","366155","0.0-4.0-1.56","","<img src=""img/yellow-r.png"" border=""10"">","null","trial","32","","0.8,0.2","1:go_a","1",""
"null","","html-keyboard-response","209","367163","0.0-4.0-2.56","","<div style=""font-size:60px;"">+</div>","null","","","","","","",""
"null","","image-keyboard-response","210","368679","0.0-4.0-0.57","","img/green.png","null","trial","null","true","0.2,0.8","2:nogo_b","",""
"null","","html-keyboard-response","211","369686","0.0-4.0-1.57","","<img src=""img/green-r.png"">","null","trial","null","","0.2,0.8","2:nogo_b","1",""
"null","","html-keyboard-response","212","370687","0.0-4.0-2.57","","<div style=""font-size:60px;"">+</div>","null","","","","","","",""
"1105.7000000029802","","image-keyboard-response","213","371793","0.0-4.0-0.58","","img/green.png","32","trial","null","false","0.2,0.8","2:nogo_b","",""
"null","","html-keyboard-response","214","372802","0.0-4.0-1.58","","<img src=""img/green-n.png"" border=""10"">","null","trial","null","","0.2,0.8","2:nogo_b","0",""
"null","","html-keyboard-response","215","373813","0.0-4.0-2.58","","<div style=""font-size:60px;"">+</div>","null","","","","","","",""
"null","","image-keyboard-response","216","375323","0.0-4.0-0.59","","img/yellow.png","null","trial","32","false","0.8,0.2","1:go_a","",""
"null","","html-keyboard-response","217","376331","0.0-4.0-1.59","","<img src=""img/yellow-n.png"">","null","trial","32","","0.8,0.2","1:go_a","0",""
"null","","html-keyboard-response","218","377341","0.0-4.0-2.59","","<div style=""font-size:60px;"">+</div>","null","","","","","","",""
"9470.699999988079","","instructions","219","386812","0.0-5.0","[{""page_index"":0,""viewing_time"":9470.5}]","","","","","","","","",""
"null","","image-keyboard-response","220","388323","0.0-6.0-0.0","","img/grey.png","null","trial","null","true","0.4,0.6","2:nogo_b","",""
"null","","html-keyboard-response","221","389327","0.0-6.0-1.0","","<img src=""img/grey-n.png"">","null","trial","null","","0.4,0.6","2:nogo_b","0",""
"null","","html-keyboard-response","222","390335","0.0-6.0-2.0","","<div style=""font-size:60px;"">+</div>","null","","","","","","",""
"null","","image-keyboard-response","223","391843","0.0-6.0-0.1","","img/pink.png","null","trial","32","false","0.6,0.4","3:go_c","",""
"null","","html-keyboard-response","224","392849","0.0-6.0-1.1","","<img src=""img/pink-n.png"">","null","trial","32","","0.6,0.4","3:go_c","0",""
"null","","html-keyboard-response","225","393855","0.0-6.0-2.1","","<div style=""font-size:60px;"">+</div>","null","","","","","","",""
"null","","image-keyboard-response","226","395364","0.0-6.0-0.2","","img/blue.png","null","trial","32","false","0.6,0.4","1:go_a","",""
"null","","html-keyboard-response","227","396365","0.0-6.0-1.2","","<img src=""img/blue-n.png"">","null","trial","32","","0.6,0.4","1:go_a","0",""
"null","","html-keyboard-response","228","397368","0.0-6.0-2.2","","<div style=""font-size:60px;"">+</div>","null","","","","","","",""
"null","","image-keyboard-response","229","398875","0.0-6.0-0.3","","img/orange.png","null","trial","null","true","0.4,0.6","4:nogo_d","",""
"null","","html-keyboard-response","230","399876","0.0-6.0-1.3","","<img src=""img/orange-r.png"">","null","trial","null","","0.4,0.6","4:nogo_d","1",""
"null","","html-keyboard-response","231","400890","0.0-6.0-2.3","","<div style=""font-size:60px;"">+</div>","null","","","","","","",""
"null","","image-keyboard-response","232","402398","0.0-6.0-0.4","","img/grey.png","null","trial","null","true","0.4,0.6","2:nogo_b","",""
"null","","html-keyboard-response","233","403409","0.0-6.0-1.4","","<img src=""img/grey-r.png"">","null","trial","null","","0.4,0.6","2:nogo_b","1",""
"null","","html-keyboard-response","234","404420","0.0-6.0-2.4","","<div style=""font-size:60px;"">+</div>","null","","","","","","",""
"null","","image-keyboard-response","235","405925","0.0-6.0-0.5","","img/orange.png","null","trial","null","true","0.4,0.6","4:nogo_d","",""
"null","","html-keyboard-response","236","406932","0.0-6.0-1.5","","<img src=""img/orange-n.png"">","null","trial","null","","0.4,0.6","4:nogo_d","0",""
"null","","html-keyboard-response","237","407943","0.0-6.0-2.5","","<div style=""font-size:60px;"">+</div>","null","","","","","","",""
"null","","image-keyboard-response","238","409448","0.0-6.0-0.6","","img/blue.png","null","trial","32","false","0.6,0.4","1:go_a","",""
"null","","html-keyboard-response","239","410457","0.0-6.0-1.6","","<img src=""img/blue-n.png"">","null","trial","32","","0.6,0.4","1:go_a","0",""
"null","","html-keyboard-response","240","411462","0.0-6.0-2.6","","<div style=""font-size:60px;"">+</div>","null","","","","","","",""
"null","","image-keyboard-response","241","412972","0.0-6.0-0.7","","img/pink.png","null","trial","32","false","0.6,0.4","3:go_c","",""
"null","","html-keyboard-response","242","413976","0.0-6.0-1.7","","<img src=""img/pink-r.png"">","null","trial","32","","0.6,0.4","3:go_c","1",""
"null","","html-keyboard-response","243","414986","0.0-6.0-2.7","","<div style=""font-size:60px;"">+</div>","null","","","","","","",""
"null","","image-keyboard-response","244","416488","0.0-6.0-0.8","","img/pink.png","null","trial","32","false","0.6,0.4","3:go_c","",""
"null","","html-keyboard-response","245","417496","0.0-6.0-1.8","","<img src=""img/pink-r.png"">","null","trial","32","","0.6,0.4","3:go_c","1",""
"null","","html-keyboard-response","246","418500","0.0-6.0-2.8","","<div style=""font-size:60px;"">+</div>","null","","","","","","",""
"null","","image-keyboard-response","247","420004","0.0-6.0-0.9","","img/orange.png","null","trial","null","true","0.4,0.6","4:nogo_d","",""
"null","","html-keyboard-response","248","421012","0.0-6.0-1.9","","<img src=""img/orange-n.png"">","null","trial","null","","0.4,0.6","4:nogo_d","0",""
"null","","html-keyboard-response","249","422021","0.0-6.0-2.9","","<div style=""font-size:60px;"">+</div>","null","","","","","","",""
"null","","image-keyboard-response","250","423524","0.0-6.0-0.10","","img/blue.png","null","trial","32","false","0.6,0.4","1:go_a","",""
"null","","html-keyboard-response","251","424530","0.0-6.0-1.10","","<img src=""img/blue-n.png"">","null","trial","32","","0.6,0.4","1:go_a","0",""
"null","","html-keyboard-response","252","425537","0.0-6.0-2.10","","<div style=""font-size:60px;"">+</div>","null","","","","","","",""
"null","","image-keyboard-response","253","427040","0.0-6.0-0.11","","img/grey.png","null","trial","null","true","0.4,0.6","2:nogo_b","",""
"null","","html-keyboard-response","254","428044","0.0-6.0-1.11","","<img src=""img/grey-r.png"">","null","trial","null","","0.4,0.6","2:nogo_b","1",""
"null","","html-keyboard-response","255","429051","0.0-6.0-2.11","","<div style=""font-size:60px;"">+</div>","null","","","","","","",""
"1166.3999999910593","","image-keyboard-response","256","430217","0.0-6.0-0.12","","img/pink.png","32","trial","32","true","0.6,0.4","3:go_c","",""
"null","","html-keyboard-response","257","431221","0.0-6.0-1.12","","<img src=""img/pink-r.png"" border=""10"">","null","trial","32","","0.6,0.4","3:go_c","1",""
"null","","html-keyboard-response","258","432231","0.0-6.0-2.12","","<div style=""font-size:60px;"">+</div>","null","","","","","","",""
"null","","image-keyboard-response","259","433735","0.0-6.0-0.13","","img/blue.png","null","trial","32","false","0.6,0.4","1:go_a","",""
"null","","html-keyboard-response","260","434744","0.0-6.0-1.13","","<img src=""img/blue-r.png"">","null","trial","32","","0.6,0.4","1:go_a","1",""
"null","","html-keyboard-response","261","435754","0.0-6.0-2.13","","<div style=""font-size:60px;"">+</div>","null","","","","","","",""
"949.6000000089407","","image-keyboard-response","262","436704","0.0-6.0-0.14","","img/grey.png","32","trial","null","false","0.4,0.6","2:nogo_b","",""
"null","","html-keyboard-response","263","437720","0.0-6.0-1.14","","<img src=""img/grey-n.png"" border=""10"">","null","trial","null","","0.4,0.6","2:nogo_b","0",""
"null","","html-keyboard-response","264","438725","0.0-6.0-2.14","","<div style=""font-size:60px;"">+</div>","null","","","","","","",""
"992.5","","image-keyboard-response","265","439718","0.0-6.0-0.15","","img/orange.png","32","trial","null","false","0.4,0.6","4:nogo_d","",""
"null","","html-keyboard-response","266","440728","0.0-6.0-1.15","","<img src=""img/orange-r.png"" border=""10"">","null","trial","null","","0.4,0.6","4:nogo_d","1",""
"null","","html-keyboard-response","267","441738","0.0-6.0-2.15","","<div style=""font-size:60px;"">+</div>","null","","","","","","",""
"904.0999999940395","","image-keyboard-response","268","442643","0.0-6.0-0.16","","img/orange.png","32","trial","null","false","0.4,0.6","4:nogo_d","",""
"null","","html-keyboard-response","269","443658","0.0-6.0-1.16","","<img src=""img/orange-n.png"" border=""10"">","null","trial","null","","0.4,0.6","4:nogo_d","0",""
"null","","html-keyboard-response","270","444663","0.0-6.0-2.16","","<div style=""font-size:60px;"">+</div>","null","","","","","","",""
"null","","image-keyboard-response","271","446164","0.0-6.0-0.17","","img/pink.png","null","trial","32","false","0.6,0.4","3:go_c","",""
"null","","html-keyboard-response","272","447172","0.0-6.0-1.17","","<img src=""img/pink-n.png"">","null","trial","32","","0.6,0.4","3:go_c","0",""
"null","","html-keyboard-response","273","448179","0.0-6.0-2.17","","<div style=""font-size:60px;"">+</div>","null","","","","","","",""
"null","","image-keyboard-response","274","449682","0.0-6.0-0.18","","img/grey.png","null","trial","null","true","0.4,0.6","2:nogo_b","",""
"null","","html-keyboard-response","275","450694","0.0-6.0-1.18","","<img src=""img/grey-r.png"">","null","trial","null","","0.4,0.6","2:nogo_b","1",""
"null","","html-keyboard-response","276","451703","0.0-6.0-2.18","","<div style=""font-size:60px;"">+</div>","null","","","","","","",""
"null","","image-keyboard-response","277","453205","0.0-6.0-0.19","","img/blue.png","null","trial","32","false","0.6,0.4","1:go_a","",""
"null","","html-keyboard-response","278","454211","0.0-6.0-1.19","","<img src=""img/blue-n.png"">","null","trial","32","","0.6,0.4","1:go_a","0",""
"null","","html-keyboard-response","279","455216","0.0-6.0-2.19","","<div style=""font-size:60px;"">+</div>","null","","","","","","",""
"888.7000000029802","","image-keyboard-response","280","456105","0.0-6.0-0.20","","img/pink.png","32","trial","32","true","0.6,0.4","3:go_c","",""
"null","","html-keyboard-response","281","457109","0.0-6.0-1.20","","<img src=""img/pink-r.png"" border=""10"">","null","trial","32","","0.6,0.4","3:go_c","1",""
"null","","html-keyboard-response","282","458114","0.0-6.0-2.20","","<div style=""font-size:60px;"">+</div>","null","","","","","","",""
"null","","image-keyboard-response","283","459620","0.0-6.0-0.21","","img/grey.png","null","trial","null","true","0.4,0.6","2:nogo_b","",""
"null","","html-keyboard-response","284","460621","0.0-6.0-1.21","","<img src=""img/grey-n.png"">","null","trial","null","","0.4,0.6","2:nogo_b","0",""
"null","","html-keyboard-response","285","461636","0.0-6.0-2.21","","<div style=""font-size:60px;"">+</div>","null","","","","","","",""
"855.8999999910593","","image-keyboard-response","286","462492","0.0-6.0-0.22","","img/orange.png","32","trial","null","false","0.4,0.6","4:nogo_d","",""
"null","","html-keyboard-response","287","463501","0.0-6.0-1.22","","<img src=""img/orange-n.png"" border=""10"">","null","trial","null","","0.4,0.6","4:nogo_d","0",""
"null","","html-keyboard-response","288","464515","0.0-6.0-2.22","","<div style=""font-size:60px;"">+</div>","null","","","","","","",""
"740","","image-keyboard-response","289","465255","0.0-6.0-0.23","","img/blue.png","32","trial","32","true","0.6,0.4","1:go_a","",""
"null","","html-keyboard-response","290","466261","0.0-6.0-1.23","","<img src=""img/blue-r.png"" border=""10"">","null","trial","32","","0.6,0.4","1:go_a","1",""
"null","","html-keyboard-response","291","467271","0.0-6.0-2.23","","<div style=""font-size:60px;"">+</div>","null","","","","","","",""
"972","","image-keyboard-response","292","468243","0.0-6.0-0.24","","img/orange.png","32","trial","null","false","0.4,0.6","4:nogo_d","",""
"null","","html-keyboard-response","293","469254","0.0-6.0-1.24","","<img src=""img/orange-n.png"" border=""10"">","null","trial","null","","0.4,0.6","4:nogo_d","0",""
"null","","html-keyboard-response","294","470263","0.0-6.0-2.24","","<div style=""font-size:60px;"">+</div>","null","","","","","","",""
"null","","image-keyboard-response","295","471772","0.0-6.0-0.25","","img/pink.png","null","trial","32","false","0.6,0.4","3:go_c","",""
"null","","html-keyboard-response","296","472778","0.0-6.0-1.25","","<img src=""img/pink-r.png"">","null","trial","32","","0.6,0.4","3:go_c","1",""
"null","","html-keyboard-response","297","473787","0.0-6.0-2.25","","<div style=""font-size:60px;"">+</div>","null","","","","","","",""
"null","","image-keyboard-response","298","475294","0.0-6.0-0.26","","img/grey.png","null","trial","null","true","0.4,0.6","2:nogo_b","",""
"null","","html-keyboard-response","299","476301","0.0-6.0-1.26","","<img src=""img/grey-r.png"">","null","trial","null","","0.4,0.6","2:nogo_b","1",""
"null","","html-keyboard-response","300","477311","0.0-6.0-2.26","","<div style=""font-size:60px;"">+</div>","null","","","","","","",""
"1180.199999988079","","image-keyboard-response","301","478492","0.0-6.0-0.27","","img/blue.png","32","trial","32","true","0.6,0.4","1:go_a","",""
"null","","html-keyboard-response","302","479507","0.0-6.0-1.27","","<img src=""img/blue-n.png"" border=""10"">","null","trial","32","","0.6,0.4","1:go_a","0",""
"null","","html-keyboard-response","303","480517","0.0-6.0-2.27","","<div style=""font-size:60px;"">+</div>","null","","","","","","",""
"null","","image-keyboard-response","304","482020","0.0-6.0-0.28","","img/blue.png","null","trial","32","false","0.6,0.4","1:go_a","",""
"null","","html-keyboard-response","305","483029","0.0-6.0-1.28","","<img src=""img/blue-n.png"">","null","trial","32","","0.6,0.4","1:go_a","0",""
"null","","html-keyboard-response","306","484040","0.0-6.0-2.28","","<div style=""font-size:60px;"">+</div>","null","","","","","","",""
"null","","image-keyboard-response","307","485542","0.0-6.0-0.29","","img/pink.png","null","trial","32","false","0.6,0.4","3:go_c","",""
"null","","html-keyboard-response","308","486551","0.0-6.0-1.29","","<img src=""img/pink-n.png"">","null","trial","32","","0.6,0.4","3:go_c","0",""
"null","","html-keyboard-response","309","487559","0.0-6.0-2.29","","<div style=""font-size:60px;"">+</div>","null","","","","","","",""
"null","","image-keyboard-response","310","489075","0.0-6.0-0.30","","img/orange.png","null","trial","null","true","0.4,0.6","4:nogo_d","",""
"null","","html-keyboard-response","311","490084","0.0-6.0-1.30","","<img src=""img/orange-n.png"">","null","trial","null","","0.4,0.6","4:nogo_d","0",""
"null","","html-keyboard-response","312","491092","0.0-6.0-2.30","","<div style=""font-size:60px;"">+</div>","null","","","","","","",""
"null","","image-keyboard-response","313","492599","0.0-6.0-0.31","","img/grey.png","null","trial","null","true","0.4,0.6","2:nogo_b","",""
"null","","html-keyboard-response","314","493607","0.0-6.0-1.31","","<img src=""img/grey-n.png"">","null","trial","null","","0.4,0.6","2:nogo_b","0",""
"null","","html-keyboard-response","315","494619","0.0-6.0-2.31","","<div style=""font-size:60px;"">+</div>","null","","","","","","",""
"848.5999999940395","","image-keyboard-response","316","495468","0.0-6.0-0.32","","img/orange.png","32","trial","null","false","0.4,0.6","4:nogo_d","",""
"null","","html-keyboard-response","317","496480","0.0-6.0-1.32","","<img src=""img/orange-n.png"" border=""10"">","null","trial","null","","0.4,0.6","4:nogo_d","0",""
"null","","html-keyboard-response","318","497488","0.0-6.0-2.32","","<div style=""font-size:60px;"">+</div>","null","","","","","","",""
"null","","image-keyboard-response","319","499002","0.0-6.0-0.33","","img/grey.png","null","trial","null","true","0.4,0.6","2:nogo_b","",""
"null","","html-keyboard-response","320","500011","0.0-6.0-1.33","","<img src=""img/grey-n.png"">","null","trial","null","","0.4,0.6","2:nogo_b","0",""
"null","","html-keyboard-response","321","501018","0.0-6.0-2.33","","<div style=""font-size:60px;"">+</div>","null","","","","","","",""
"null","","image-keyboard-response","322","502533","0.0-6.0-0.34","","img/blue.png","null","trial","32","false","0.6,0.4","1:go_a","",""
"null","","html-keyboard-response","323","503540","0.0-6.0-1.34","","<img src=""img/blue-n.png"">","null","trial","32","","0.6,0.4","1:go_a","0",""
"null","","html-keyboard-response","324","504541","0.0-6.0-2.34","","<div style=""font-size:60px;"">+</div>","null","","","","","","",""
"null","","image-keyboard-response","325","506056","0.0-6.0-0.35","","img/pink.png","null","trial","32","false","0.6,0.4","3:go_c","",""
"null","","html-keyboard-response","326","507066","0.0-6.0-1.35","","<img src=""img/pink-r.png"">","null","trial","32","","0.6,0.4","3:go_c","1",""
"null","","html-keyboard-response","327","508075","0.0-6.0-2.35","","<div style=""font-size:60px;"">+</div>","null","","","","","","",""
"null","","image-keyboard-response","328","509580","0.0-6.0-0.36","","img/orange.png","null","trial","null","true","0.4,0.6","4:nogo_d","",""
"null","","html-keyboard-response","329","510581","0.0-6.0-1.36","","<img src=""img/orange-n.png"">","null","trial","null","","0.4,0.6","4:nogo_d","0",""
"null","","html-keyboard-response","330","511592","0.0-6.0-2.36","","<div style=""font-size:60px;"">+</div>","null","","","","","","",""
"1124.5999999940395","","image-keyboard-response","331","512717","0.0-6.0-0.37","","img/grey.png","32","trial","null","false","0.4,0.6","2:nogo_b","",""
"null","","html-keyboard-response","332","513726","0.0-6.0-1.37","","<img src=""img/grey-r.png"" border=""10"">","null","trial","null","","0.4,0.6","2:nogo_b","1",""
"null","","html-keyboard-response","333","514739","0.0-6.0-2.37","","<div style=""font-size:60px;"">+</div>","null","","","","","","",""
"653","","image-keyboard-response","334","515392","0.0-6.0-0.38","","img/blue.png","32","trial","32","true","0.6,0.4","1:go_a","",""
"null","","html-keyboard-response","335","516396","0.0-6.0-1.38","","<img src=""img/blue-n.png"" border=""10"">","null","trial","32","","0.6,0.4","1:go_a","0",""
"null","","html-keyboard-response","336","517402","0.0-6.0-2.38","","<div style=""font-size:60px;"">+</div>","null","","","","","","",""
"null","","image-keyboard-response","337","518918","0.0-6.0-0.39","","img/pink.png","null","trial","32","false","0.6,0.4","3:go_c","",""
"null","","html-keyboard-response","338","519927","0.0-6.0-1.39","","<img src=""img/pink-n.png"">","null","trial","32","","0.6,0.4","3:go_c","0",""
"null","","html-keyboard-response","339","520928","0.0-6.0-2.39","","<div style=""font-size:60px;"">+</div>","null","","","","","","",""
"938.0999999940395","","image-keyboard-response","340","521867","0.0-6.0-0.40","","img/blue.png","32","trial","32","true","0.6,0.4","1:go_a","",""
"null","","html-keyboard-response","341","522870","0.0-6.0-1.40","","<img src=""img/blue-r.png"" border=""10"">","null","trial","32","","0.6,0.4","1:go_a","1",""
"null","","html-keyboard-response","342","523876","0.0-6.0-2.40","","<div style=""font-size:60px;"">+</div>","null","","","","","","",""
"602.7999999970198","","image-keyboard-response","343","524479","0.0-6.0-0.41","","img/pink.png","32","trial","32","true","0.6,0.4","3:go_c","",""
"null","","html-keyboard-response","344","525490","0.0-6.0-1.41","","<img src=""img/pink-n.png"" border=""10"">","null","trial","32","","0.6,0.4","3:go_c","0",""
"null","","html-keyboard-response","345","526501","0.0-6.0-2.41","","<div style=""font-size:60px;"">+</div>","null","","","","","","",""
"928.2000000029802","","image-keyboard-response","346","527430","0.0-6.0-0.42","","img/orange.png","32","trial","null","false","0.4,0.6","4:nogo_d","",""
"null","","html-keyboard-response","347","528442","0.0-6.0-1.42","","<img src=""img/orange-n.png"" border=""10"">","null","trial","null","","0.4,0.6","4:nogo_d","0",""
"null","","html-keyboard-response","348","529457","0.0-6.0-2.42","","<div style=""font-size:60px;"">+</div>","null","","","","","","",""
"null","","image-keyboard-response","349","530968","0.0-6.0-0.43","","img/grey.png","null","trial","null","true","0.4,0.6","2:nogo_b","",""
"null","","html-keyboard-response","350","531971","0.0-6.0-1.43","","<img src=""img/grey-n.png"">","null","trial","null","","0.4,0.6","2:nogo_b","0",""
"null","","html-keyboard-response","351","532977","0.0-6.0-2.43","","<div style=""font-size:60px;"">+</div>","null","","","","","","",""
"null","","image-keyboard-response","352","534481","0.0-6.0-0.44","","img/grey.png","null","trial","null","true","0.4,0.6","2:nogo_b","",""
"null","","html-keyboard-response","353","535487","0.0-6.0-1.44","","<img src=""img/grey-n.png"">","null","trial","null","","0.4,0.6","2:nogo_b","0",""
"null","","html-keyboard-response","354","536498","0.0-6.0-2.44","","<div style=""font-size:60px;"">+</div>","null","","","","","","",""
"null","","image-keyboard-response","355","538002","0.0-6.0-0.45","","img/orange.png","null","trial","null","true","0.4,0.6","4:nogo_d","",""
"null","","html-keyboard-response","356","539013","0.0-6.0-1.45","","<img src=""img/orange-r.png"">","null","trial","null","","0.4,0.6","4:nogo_d","1",""
"null","","html-keyboard-response","357","540021","0.0-6.0-2.45","","<div style=""font-size:60px;"">+</div>","null","","","","","","",""
"1369.5","","image-keyboard-response","358","541391","0.0-6.0-0.46","","img/blue.png","32","trial","32","true","0.6,0.4","1:go_a","",""
"null","","html-keyboard-response","359","542406","0.0-6.0-1.46","","<img src=""img/blue-r.png"" border=""10"">","null","trial","32","","0.6,0.4","1:go_a","1",""
"null","","html-keyboard-response","360","543408","0.0-6.0-2.46","","<div style=""font-size:60px;"">+</div>","null","","","","","","",""
"882.2000000029802","","image-keyboard-response","361","544291","0.0-6.0-0.47","","img/pink.png","32","trial","32","true","0.6,0.4","3:go_c","",""
"null","","html-keyboard-response","362","545303","0.0-6.0-1.47","","<img src=""img/pink-r.png"" border=""10"">","null","trial","32","","0.6,0.4","3:go_c","1",""
"null","","html-keyboard-response","363","546315","0.0-6.0-2.47","","<div style=""font-size:60px;"">+</div>","null","","","","","","",""
"1039.7000000029802","","image-keyboard-response","364","547355","0.0-6.0-0.48","","img/grey.png","32","trial","null","false","0.4,0.6","2:nogo_b","",""
"null","","html-keyboard-response","365","548363","0.0-6.0-1.48","","<img src=""img/grey-n.png"" border=""10"">","null","trial","null","","0.4,0.6","2:nogo_b","0",""
"null","","html-keyboard-response","366","549379","0.0-6.0-2.48","","<div style=""font-size:60px;"">+</div>","null","","","","","","",""
"1000.4000000059605","","image-keyboard-response","367","550380","0.0-6.0-0.49","","img/orange.png","32","trial","null","false","0.4,0.6","4:nogo_d","",""
"null","","html-keyboard-response","368","551396","0.0-6.0-1.49","","<img src=""img/orange-r.png"" border=""10"">","null","trial","null","","0.4,0.6","4:nogo_d","1",""
"null","","html-keyboard-response","369","552401","0.0-6.0-2.49","","<div style=""font-size:60px;"">+</div>","null","","","","","","",""
"null","","image-keyboard-response","370","553914","0.0-6.0-0.50","","img/pink.png","null","trial","32","false","0.6,0.4","3:go_c","",""
"null","","html-keyboard-response","371","554925","0.0-6.0-1.50","","<img src=""img/pink-n.png"">","null","trial","32","","0.6,0.4","3:go_c","0",""
"null","","html-keyboard-response","372","555933","0.0-6.0-2.50","","<div style=""font-size:60px;"">+</div>","null","","","","","","",""
"1072.5","","image-keyboard-response","373","557006","0.0-6.0-0.51","","img/blue.png","32","trial","32","true","0.6,0.4","1:go_a","",""
"null","","html-keyboard-response","374","558014","0.0-6.0-1.51","","<img src=""img/blue-n.png"" border=""10"">","null","trial","32","","0.6,0.4","1:go_a","0",""
"null","","html-keyboard-response","375","559017","0.0-6.0-2.51","","<div style=""font-size:60px;"">+</div>","null","","","","","","",""
"null","","image-keyboard-response","376","560532","0.0-6.0-0.52","","img/blue.png","null","trial","32","false","0.6,0.4","1:go_a","",""
"null","","html-keyboard-response","377","561541","0.0-6.0-1.52","","<img src=""img/blue-r.png"">","null","trial","32","","0.6,0.4","1:go_a","1",""
"null","","html-keyboard-response","378","562542","0.0-6.0-2.52","","<div style=""font-size:60px;"">+</div>","null","","","","","","",""
"null","","image-keyboard-response","379","564052","0.0-6.0-0.53","","img/pink.png","null","trial","32","false","0.6,0.4","3:go_c","",""
"null","","html-keyboard-response","380","565067","0.0-6.0-1.53","","<img src=""img/pink-r.png"">","null","trial","32","","0.6,0.4","3:go_c","1",""
"null","","html-keyboard-response","381","566078","0.0-6.0-2.53","","<div style=""font-size:60px;"">+</div>","null","","","","","","",""
"null","","image-keyboard-response","382","567585","0.0-6.0-0.54","","img/grey.png","null","trial","null","true","0.4,0.6","2:nogo_b","",""
"null","","html-keyboard-response","383","568593","0.0-6.0-1.54","","<img src=""img/grey-n.png"">","null","trial","null","","0.4,0.6","2:nogo_b","0",""
"null","","html-keyboard-response","384","569601","0.0-6.0-2.54","","<div style=""font-size:60px;"">+</div>","null","","","","","","",""
"1215.2999999970198","","image-keyboard-response","385","570817","0.0-6.0-0.55","","img/orange.png","32","trial","null","false","0.4,0.6","4:nogo_d","",""
"null","","html-keyboard-response","386","571831","0.0-6.0-1.55","","<img src=""img/orange-r.png"" border=""10"">","null","trial","null","","0.4,0.6","4:nogo_d","1",""
"null","","html-keyboard-response","387","572843","0.0-6.0-2.55","","<div style=""font-size:60px;"">+</div>","null","","","","","","",""
"837.0999999940395","","image-keyboard-response","388","573680","0.0-6.0-0.56","","img/grey.png","32","trial","null","false","0.4,0.6","2:nogo_b","",""
"null","","html-keyboard-response","389","574695","0.0-6.0-1.56","","<img src=""img/grey-r.png"" border=""10"">","null","trial","null","","0.4,0.6","2:nogo_b","1",""
"null","","html-keyboard-response","390","575708","0.0-6.0-2.56","","<div style=""font-size:60px;"">+</div>","null","","","","","","",""
"null","","image-keyboard-response","391","577215","0.0-6.0-0.57","","img/blue.png","null","trial","32","false","0.6,0.4","1:go_a","",""
"null","","html-keyboard-response","392","578227","0.0-6.0-1.57","","<img src=""img/blue-n.png"">","null","trial","32","","0.6,0.4","1:go_a","0",""
"null","","html-keyboard-response","393","579238","0.0-6.0-2.57","","<div style=""font-size:60px;"">+</div>","null","","","","","","",""
"917.2000000029802","","image-keyboard-response","394","580156","0.0-6.0-0.58","","img/orange.png","32","trial","null","false","0.4,0.6","4:nogo_d","",""
"null","","html-keyboard-response","395","581171","0.0-6.0-1.58","","<img src=""img/orange-r.png"" border=""10"">","null","trial","null","","0.4,0.6","4:nogo_d","1",""
"null","","html-keyboard-response","396","582179","0.0-6.0-2.58","","<div style=""font-size:60px;"">+</div>","null","","","","","","",""
"699.7000000029802","","image-keyboard-response","397","582879","0.0-6.0-0.59","","img/pink.png","32","trial","32","true","0.6,0.4","3:go_c","",""
"null","","html-keyboard-response","398","583888","0.0-6.0-1.59","","<img src=""img/pink-n.png"" border=""10"">","null","trial","32","","0.6,0.4","3:go_c","0",""
"null","","html-keyboard-response","399","584901","0.0-6.0-2.59","","<div style=""font-size:60px;"">+</div>","null","","","","","","",""
"966.8999999910593","","image-keyboard-response","400","585868","0.0-6.0-0.60","","img/orange.png","32","trial","null","false","0.4,0.6","4:nogo_d","",""
"null","","html-keyboard-response","401","586876","0.0-6.0-1.60","","<img src=""img/orange-r.png"" border=""10"">","null","trial","null","","0.4,0.6","4:nogo_d","1",""
"null","","html-keyboard-response","402","587881","0.0-6.0-2.60","","<div style=""font-size:60px;"">+</div>","null","","","","","","",""
"1136","","image-keyboard-response","403","589017","0.0-6.0-0.61","","img/pink.png","32","trial","32","true","0.6,0.4","3:go_c","",""
"null","","html-keyboard-response","404","590026","0.0-6.0-1.61","","<img src=""img/pink-n.png"" border=""10"">","null","trial","32","","0.6,0.4","3:go_c","0",""
"null","","html-keyboard-response","405","591037","0.0-6.0-2.61","","<div style=""font-size:60px;"">+</div>","null","","","","","","",""
"1254.7000000029802","","image-keyboard-response","406","592292","0.0-6.0-0.62","","img/grey.png","32","trial","null","false","0.4,0.6","2:nogo_b","",""
"null","","html-keyboard-response","407","593295","0.0-6.0-1.62","","<img src=""img/grey-n.png"" border=""10"">","null","trial","null","","0.4,0.6","2:nogo_b","0",""
"null","","html-keyboard-response","408","594307","0.0-6.0-2.62","","<div style=""font-size:60px;"">+</div>","null","","","","","","",""
"997","","image-keyboard-response","409","595304","0.0-6.0-0.63","","img/blue.png","32","trial","32","true","0.6,0.4","1:go_a","",""
"null","","html-keyboard-response","410","596307","0.0-6.0-1.63","","<img src=""img/blue-n.png"" border=""10"">","null","trial","32","","0.6,0.4","1:go_a","0",""
"null","","html-keyboard-response","411","597315","0.0-6.0-2.63","","<div style=""font-size:60px;"">+</div>","null","","","","","","",""
"1375.3999999910593","","image-keyboard-response","412","598691","0.0-6.0-0.64","","img/grey.png","32","trial","null","false","0.4,0.6","2:nogo_b","",""
"null","","html-keyboard-response","413","599694","0.0-6.0-1.64","","<img src=""img/grey-r.png"" border=""10"">","null","trial","null","","0.4,0.6","2:nogo_b","1",""
"null","","html-keyboard-response","414","600699","0.0-6.0-2.64","","<div style=""font-size:60px;"">+</div>","null","","","","","","",""
"1429.0999999940395","","image-keyboard-response","415","602128","0.0-6.0-0.65","","img/orange.png","32","trial","null","false","0.4,0.6","4:nogo_d","",""
"null","","html-keyboard-response","416","603138","0.0-6.0-1.65","","<img src=""img/orange-n.png"" border=""10"">","null","trial","null","","0.4,0.6","4:nogo_d","0",""
"null","","html-keyboard-response","417","604145","0.0-6.0-2.65","","<div style=""font-size:60px;"">+</div>","null","","","","","","",""
"1281.7999999970198","","image-keyboard-response","418","605428","0.0-6.0-0.66","","img/blue.png","32","trial","32","true","0.6,0.4","1:go_a","",""
"null","","html-keyboard-response","419","606429","0.0-6.0-1.66","","<img src=""img/blue-n.png"" border=""10"">","null","trial","32","","0.6,0.4","1:go_a","0",""
"null","","html-keyboard-response","420","607434","0.0-6.0-2.66","","<div style=""font-size:60px;"">+</div>","null","","","","","","",""
"1005.7000000029802","","image-keyboard-response","421","608440","0.0-6.0-0.67","","img/pink.png","32","trial","32","true","0.6,0.4","3:go_c","",""
"null","","html-keyboard-response","422","609449","0.0-6.0-1.67","","<img src=""img/pink-r.png"" border=""10"">","null","trial","32","","0.6,0.4","3:go_c","1",""
"null","","html-keyboard-response","423","610459","0.0-6.0-2.67","","<div style=""font-size:60px;"">+</div>","null","","","","","","",""
"null","","image-keyboard-response","424","611960","0.0-6.0-0.68","","img/orange.png","null","trial","null","true","0.4,0.6","4:nogo_d","",""
"null","","html-keyboard-response","425","612969","0.0-6.0-1.68","","<img src=""img/orange-r.png"">","null","trial","null","","0.4,0.6","4:nogo_d","1",""
"null","","html-keyboard-response","426","613981","0.0-6.0-2.68","","<div style=""font-size:60px;"">+</div>","null","","","","","","",""
"null","","image-keyboard-response","427","615490","0.0-6.0-0.69","","img/pink.png","null","trial","32","false","0.6,0.4","3:go_c","",""
"null","","html-keyboard-response","428","616491","0.0-6.0-1.69","","<img src=""img/pink-r.png"">","null","trial","32","","0.6,0.4","3:go_c","1",""
"null","","html-keyboard-response","429","617491","0.0-6.0-2.69","","<div style=""font-size:60px;"">+</div>","null","","","","","","",""
"null","","image-keyboard-response","430","619000","0.0-6.0-0.70","","img/grey.png","null","trial","null","true","0.4,0.6","2:nogo_b","",""
"null","","html-keyboard-response","431","620007","0.0-6.0-1.70","","<img src=""img/grey-n.png"">","null","trial","null","","0.4,0.6","2:nogo_b","0",""
"null","","html-keyboard-response","432","621011","0.0-6.0-2.70","","<div style=""font-size:60px;"">+</div>","null","","","","","","",""
"1216.5","","image-keyboard-response","433","622229","0.0-6.0-0.71","","img/blue.png","32","trial","32","true","0.6,0.4","1:go_a","",""
"null","","html-keyboard-response","434","623241","0.0-6.0-1.71","","<img src=""img/blue-r.png"" border=""10"">","null","trial","32","","0.6,0.4","1:go_a","1",""
"null","","html-keyboard-response","435","624248","0.0-6.0-2.71","","<div style=""font-size:60px;"">+</div>","null","","","","","","",""
"null","","image-keyboard-response","436","625764","0.0-6.0-0.72","","img/grey.png","null","trial","null","true","0.4,0.6","2:nogo_b","",""
"null","","html-keyboard-response","437","626765","0.0-6.0-1.72","","<img src=""img/grey-r.png"">","null","trial","null","","0.4,0.6","2:nogo_b","1",""
"null","","html-keyboard-response","438","627767","0.0-6.0-2.72","","<div style=""font-size:60px;"">+</div>","null","","","","","","",""
"860.1999999880791","","image-keyboard-response","439","628628","0.0-6.0-0.73","","img/pink.png","32","trial","32","true","0.6,0.4","3:go_c","",""
"null","","html-keyboard-response","440","629643","0.0-6.0-1.73","","<img src=""img/pink-r.png"" border=""10"">","null","trial","32","","0.6,0.4","3:go_c","1",""
"null","","html-keyboard-response","441","630646","0.0-6.0-2.73","","<div style=""font-size:60px;"">+</div>","null","","","","","","",""
"1205.7999999970198","","image-keyboard-response","442","631853","0.0-6.0-0.74","","img/blue.png","32","trial","32","true","0.6,0.4","1:go_a","",""
"null","","html-keyboard-response","443","632859","0.0-6.0-1.74","","<img src=""img/blue-r.png"" border=""10"">","null","trial","32","","0.6,0.4","1:go_a","1",""
"null","","html-keyboard-response","444","633869","0.0-6.0-2.74","","<div style=""font-size:60px;"">+</div>","null","","","","","","",""
"null","","image-keyboard-response","445","635378","0.0-6.0-0.75","","img/orange.png","null","trial","null","true","0.4,0.6","4:nogo_d","",""
"null","","html-keyboard-response","446","636390","0.0-6.0-1.75","","<img src=""img/orange-n.png"">","null","trial","null","","0.4,0.6","4:nogo_d","0",""
"null","","html-keyboard-response","447","637402","0.0-6.0-2.75","","<div style=""font-size:60px;"">+</div>","null","","","","","","",""
"null","","image-keyboard-response","448","638911","0.0-6.0-0.76","","img/pink.png","null","trial","32","false","0.6,0.4","3:go_c","",""
"null","","html-keyboard-response","449","639921","0.0-6.0-1.76","","<img src=""img/pink-n.png"">","null","trial","32","","0.6,0.4","3:go_c","0",""
"null","","html-keyboard-response","450","640929","0.0-6.0-2.76","","<div style=""font-size:60px;"">+</div>","null","","","","","","",""
"1249.8999999910593","","image-keyboard-response","451","642180","0.0-6.0-0.77","","img/orange.png","32","trial","null","false","0.4,0.6","4:nogo_d","",""
"null","","html-keyboard-response","452","643196","0.0-6.0-1.77","","<img src=""img/orange-n.png"" border=""10"">","null","trial","null","","0.4,0.6","4:nogo_d","0",""
"null","","html-keyboard-response","453","644205","0.0-6.0-2.77","","<div style=""font-size:60px;"">+</div>","null","","","","","","",""
"null","","image-keyboard-response","454","645715","0.0-6.0-0.78","","img/grey.png","null","trial","null","true","0.4,0.6","2:nogo_b","",""
"null","","html-keyboard-response","455","646727","0.0-6.0-1.78","","<img src=""img/grey-r.png"">","null","trial","null","","0.4,0.6","2:nogo_b","1",""
"null","","html-keyboard-response","456","647736","0.0-6.0-2.78","","<div style=""font-size:60px;"">+</div>","null","","","","","","",""
"1005","","image-keyboard-response","457","648742","0.0-6.0-0.79","","img/blue.png","32","trial","32","true","0.6,0.4","1:go_a","",""
"null","","html-keyboard-response","458","649753","0.0-6.0-1.79","","<img src=""img/blue-n.png"" border=""10"">","null","trial","32","","0.6,0.4","1:go_a","0",""
"null","","html-keyboard-response","459","650767","0.0-6.0-2.79","","<div style=""font-size:60px;"">+</div>","null","","","","","","",""
"null","","image-keyboard-response","460","652281","0.0-6.0-0.80","","img/grey.png","null","trial","null","true","0.4,0.6","2:nogo_b","",""
"null","","html-keyboard-response","461","653297","0.0-6.0-1.80","","<img src=""img/grey-r.png"">","null","trial","null","","0.4,0.6","2:nogo_b","1",""
"null","","html-keyboard-response","462","654304","0.0-6.0-2.80","","<div style=""font-size:60px;"">+</div>","null","","","","","","",""
"null","","image-keyboard-response","463","655816","0.0-6.0-0.81","","img/orange.png","null","trial","null","true","0.4,0.6","4:nogo_d","",""
"null","","html-keyboard-response","464","656819","0.0-6.0-1.81","","<img src=""img/orange-r.png"">","null","trial","null","","0.4,0.6","4:nogo_d","1",""
"null","","html-keyboard-response","465","657830","0.0-6.0-2.81","","<div style=""font-size:60px;"">+</div>","null","","","","","","",""
"null","","image-keyboard-response","466","659338","0.0-6.0-0.82","","img/pink.png","null","trial","32","false","0.6,0.4","3:go_c","",""
"null","","html-keyboard-response","467","660348","0.0-6.0-1.82","","<img src=""img/pink-n.png"">","null","trial","32","","0.6,0.4","3:go_c","0",""
"null","","html-keyboard-response","468","661360","0.0-6.0-2.82","","<div style=""font-size:60px;"">+</div>","null","","","","","","",""
"1431.2000000029802","","image-keyboard-response","469","662791","0.0-6.0-0.83","","img/blue.png","32","trial","32","true","0.6,0.4","1:go_a","",""
"null","","html-keyboard-response","470","663804","0.0-6.0-1.83","","<img src=""img/blue-r.png"" border=""10"">","null","trial","32","","0.6,0.4","1:go_a","1",""
"null","","html-keyboard-response","471","664810","0.0-6.0-2.83","","<div style=""font-size:60px;"">+</div>","null","","","","","","",""
"null","","image-keyboard-response","472","666319","0.0-6.0-0.84","","img/grey.png","null","trial","null","true","0.4,0.6","2:nogo_b","",""
"null","","html-keyboard-response","473","667328","0.0-6.0-1.84","","<img src=""img/grey-r.png"">","null","trial","null","","0.4,0.6","2:nogo_b","1",""
"null","","html-keyboard-response","474","668336","0.0-6.0-2.84","","<div style=""font-size:60px;"">+</div>","null","","","","","","",""
"null","","image-keyboard-response","475","669841","0.0-6.0-0.85","","img/pink.png","null","trial","32","false","0.6,0.4","3:go_c","",""
"null","","html-keyboard-response","476","670842","0.0-6.0-1.85","","<img src=""img/pink-r.png"">","null","trial","32","","0.6,0.4","3:go_c","1",""
"null","","html-keyboard-response","477","671851","0.0-6.0-2.85","","<div style=""font-size:60px;"">+</div>","null","","","","","","",""
"null","","image-keyboard-response","478","673357","0.0-6.0-0.86","","img/orange.png","null","trial","null","true","0.4,0.6","4:nogo_d","",""
"null","","html-keyboard-response","479","674369","0.0-6.0-1.86","","<img src=""img/orange-n.png"">","null","trial","null","","0.4,0.6","4:nogo_d","0",""
"null","","html-keyboard-response","480","675378","0.0-6.0-2.86","","<div style=""font-size:60px;"">+</div>","null","","","","","","",""
"1249.5999999940395","","image-keyboard-response","481","676628","0.0-6.0-0.87","","img/blue.png","32","trial","32","true","0.6,0.4","1:go_a","",""
"null","","html-keyboard-response","482","677635","0.0-6.0-1.87","","<img src=""img/blue-r.png"" border=""10"">","null","trial","32","","0.6,0.4","1:go_a","1",""
"null","","html-keyboard-response","483","678642","0.0-6.0-2.87","","<div style=""font-size:60px;"">+</div>","null","","","","","","",""
"924.1999999880791","","image-keyboard-response","484","679566","0.0-6.0-0.88","","img/blue.png","32","trial","32","true","0.6,0.4","1:go_a","",""
"null","","html-keyboard-response","485","680582","0.0-6.0-1.88","","<img src=""img/blue-n.png"" border=""10"">","null","trial","32","","0.6,0.4","1:go_a","0",""
"null","","html-keyboard-response","486","681590","0.0-6.0-2.88","","<div style=""font-size:60px;"">+</div>","null","","","","","","",""
"1412.7000000029802","","image-keyboard-response","487","683003","0.0-6.0-0.89","","img/orange.png","32","trial","null","false","0.4,0.6","4:nogo_d","",""
"null","","html-keyboard-response","488","684011","0.0-6.0-1.89","","<img src=""img/orange-n.png"" border=""10"">","null","trial","null","","0.4,0.6","4:nogo_d","0",""
"null","","html-keyboard-response","489","685026","0.0-6.0-2.89","","<div style=""font-size:60px;"">+</div>","null","","","","","","",""
"null","","image-keyboard-response","490","686531","0.0-6.0-0.90","","img/grey.png","null","trial","null","true","0.4,0.6","2:nogo_b","",""
"null","","html-keyboard-response","491","687533","0.0-6.0-1.90","","<img src=""img/grey-r.png"">","null","trial","null","","0.4,0.6","2:nogo_b","1",""
"null","","html-keyboard-response","492","688546","0.0-6.0-2.90","","<div style=""font-size:60px;"">+</div>","null","","","","","","",""
"null","","image-keyboard-response","493","690049","0.0-6.0-0.91","","img/pink.png","null","trial","32","false","0.6,0.4","3:go_c","",""
"null","","html-keyboard-response","494","691064","0.0-6.0-1.91","","<img src=""img/pink-r.png"">","null","trial","32","","0.6,0.4","3:go_c","1",""
"null","","html-keyboard-response","495","692071","0.0-6.0-2.91","","<div style=""font-size:60px;"">+</div>","null","","","","","","",""
"1194","","image-keyboard-response","496","693266","0.0-6.0-0.92","","img/blue.png","32","trial","32","true","0.6,0.4","1:go_a","",""
"null","","html-keyboard-response","497","694269","0.0-6.0-1.92","","<img src=""img/blue-r.png"" border=""10"">","null","trial","32","","0.6,0.4","1:go_a","1",""
"null","","html-keyboard-response","498","695280","0.0-6.0-2.92","","<div style=""font-size:60px;"">+</div>","null","","","","","","",""
"null","","image-keyboard-response","499","696783","0.0-6.0-0.93","","img/pink.png","null","trial","32","false","0.6,0.4","3:go_c","",""
"null","","html-keyboard-response","500","697793","0.0-6.0-1.93","","<img src=""img/pink-n.png"">","null","trial","32","","0.6,0.4","3:go_c","0",""
"null","","html-keyboard-response","501","698803","0.0-6.0-2.93","","<div style=""font-size:60px;"">+</div>","null","","","","","","",""
"975.2000000029802","","image-keyboard-response","502","699778","0.0-6.0-0.94","","img/grey.png","32","trial","null","false","0.4,0.6","2:nogo_b","",""
"null","","html-keyboard-response","503","700793","0.0-6.0-1.94","","<img src=""img/grey-n.png"" border=""10"">","null","trial","null","","0.4,0.6","2:nogo_b","0",""
"null","","html-keyboard-response","504","701804","0.0-6.0-2.94","","<div style=""font-size:60px;"">+</div>","null","","","","","","",""
"862.1000000089407","","image-keyboard-response","505","702666","0.0-6.0-0.95","","img/orange.png","32","trial","null","false","0.4,0.6","4:nogo_d","",""
"null","","html-keyboard-response","506","703672","0.0-6.0-1.95","","<img src=""img/orange-n.png"" border=""10"">","null","trial","null","","0.4,0.6","4:nogo_d","0",""
"null","","html-keyboard-response","507","704680","0.0-6.0-2.95","","<div style=""font-size:60px;"">+</div>","null","","","","","","",""
"872.5","","image-keyboard-response","508","705554","0.0-6.0-0.96","","img/blue.png","32","trial","32","true","0.6,0.4","1:go_a","",""
"null","","html-keyboard-response","509","706560","0.0-6.0-1.96","","<img src=""img/blue-r.png"" border=""10"">","null","trial","32","","0.6,0.4","1:go_a","1",""
"null","","html-keyboard-response","510","707569","0.0-6.0-2.96","","<div style=""font-size:60px;"">+</div>","null","","","","","","",""
"null","","image-keyboard-response","511","709073","0.0-6.0-0.97","","img/pink.png","null","trial","32","false","0.6,0.4","3:go_c","",""
"null","","html-keyboard-response","512","710076","0.0-6.0-1.97","","<img src=""img/pink-n.png"">","null","trial","32","","0.6,0.4","3:go_c","0",""
"null","","html-keyboard-response","513","711082","0.0-6.0-2.97","","<div style=""font-size:60px;"">+</div>","null","","","","","","",""
"null","","image-keyboard-response","514","712585","0.0-6.0-0.98","","img/grey.png","null","trial","null","true","0.4,0.6","2:nogo_b","",""
"null","","html-keyboard-response","515","713593","0.0-6.0-1.98","","<img src=""img/grey-n.png"">","null","trial","null","","0.4,0.6","2:nogo_b","0",""
"null","","html-keyboard-response","516","714604","0.0-6.0-2.98","","<div style=""font-size:60px;"">+</div>","null","","","","","","",""
"1225.9000000059605","","image-keyboard-response","517","715831","0.0-6.0-0.99","","img/orange.png","32","trial","null","false","0.4,0.6","4:nogo_d","",""
"null","","html-keyboard-response","518","716842","0.0-6.0-1.99","","<img src=""img/orange-n.png"" border=""10"">","null","trial","null","","0.4,0.6","4:nogo_d","0",""
"null","","html-keyboard-response","519","717847","0.0-6.0-2.99","","<div style=""font-size:60px;"">+</div>","null","","","","","","",""
"731.7000000029802","","image-keyboard-response","520","718579","0.0-6.0-0.100","","img/blue.png","32","trial","32","true","0.6,0.4","1:go_a","",""
"null","","html-keyboard-response","521","719586","0.0-6.0-1.100","","<img src=""img/blue-n.png"" border=""10"">","null","trial","32","","0.6,0.4","1:go_a","0",""
"null","","html-keyboard-response","522","720596","0.0-6.0-2.100","","<div style=""font-size:60px;"">+</div>","null","","","","","","",""
"1233.2000000029802","","image-keyboard-response","523","721829","0.0-6.0-0.101","","img/pink.png","32","trial","32","true","0.6,0.4","3:go_c","",""
"null","","html-keyboard-response","524","722837","0.0-6.0-1.101","","<img src=""img/pink-n.png"" border=""10"">","null","trial","32","","0.6,0.4","3:go_c","0",""
"null","","html-keyboard-response","525","723840","0.0-6.0-2.101","","<div style=""font-size:60px;"">+</div>","null","","","","","","",""
"1412.9000000059605","","image-keyboard-response","526","725253","0.0-6.0-0.102","","img/orange.png","32","trial","null","false","0.4,0.6","4:nogo_d","",""
"null","","html-keyboard-response","527","726257","0.0-6.0-1.102","","<img src=""img/orange-n.png"" border=""10"">","null","trial","null","","0.4,0.6","4:nogo_d","0",""
"null","","html-keyboard-response","528","727266","0.0-6.0-2.102","","<div style=""font-size:60px;"">+</div>","null","","","","","","",""
"null","","image-keyboard-response","529","728770","0.0-6.0-0.103","","img/grey.png","null","trial","null","true","0.4,0.6","2:nogo_b","",""
"null","","html-keyboard-response","530","729778","0.0-6.0-1.103","","<img src=""img/grey-n.png"">","null","trial","null","","0.4,0.6","2:nogo_b","0",""
"null","","html-keyboard-response","531","730786","0.0-6.0-2.103","","<div style=""font-size:60px;"">+</div>","null","","","","","","",""
"null","","image-keyboard-response","532","732288","0.0-6.0-0.104","","img/grey.png","null","trial","null","true","0.4,0.6","2:nogo_b","",""
"null","","html-keyboard-response","533","733298","0.0-6.0-1.104","","<img src=""img/grey-n.png"">","null","trial","null","","0.4,0.6","2:nogo_b","0",""
"null","","html-keyboard-response","534","734309","0.0-6.0-2.104","","<div style=""font-size:60px;"">+</div>","null","","","","","","",""
"893.8999999910593","","image-keyboard-response","535","735204","0.0-6.0-0.105","","img/pink.png","32","trial","32","true","0.6,0.4","3:go_c","",""
"null","","html-keyboard-response","536","736218","0.0-6.0-1.105","","<img src=""img/pink-n.png"" border=""10"">","null","trial","32","","0.6,0.4","3:go_c","0",""
"null","","html-keyboard-response","537","737228","0.0-6.0-2.105","","<div style=""font-size:60px;"">+</div>","null","","","","","","",""
"699.7999999970198","","image-keyboard-response","538","737928","0.0-6.0-0.106","","img/blue.png","32","trial","32","true","0.6,0.4","1:go_a","",""
"null","","html-keyboard-response","539","738930","0.0-6.0-1.106","","<img src=""img/blue-r.png"" border=""10"">","null","trial","32","","0.6,0.4","1:go_a","1",""
"null","","html-keyboard-response","540","739943","0.0-6.0-2.106","","<div style=""font-size:60px;"">+</div>","null","","","","","","",""
"1159.7999999970198","","image-keyboard-response","541","741103","0.0-6.0-0.107","","img/orange.png","32","trial","null","false","0.4,0.6","4:nogo_d","",""
"null","","html-keyboard-response","542","742112","0.0-6.0-1.107","","<img src=""img/orange-n.png"" border=""10"">","null","trial","null","","0.4,0.6","4:nogo_d","0",""
"null","","html-keyboard-response","543","743118","0.0-6.0-2.107","","<div style=""font-size:60px;"">+</div>","null","","","","","","",""
"1122.7000000029802","","image-keyboard-response","544","744241","0.0-6.0-0.108","","img/blue.png","32","trial","32","true","0.6,0.4","1:go_a","",""
"null","","html-keyboard-response","545","745244","0.0-6.0-1.108","","<img src=""img/blue-r.png"" border=""10"">","null","trial","32","","0.6,0.4","1:go_a","1",""
"null","","html-keyboard-response","546","746255","0.0-6.0-2.108","","<div style=""font-size:60px;"">+</div>","null","","","","","","",""
"null","","image-keyboard-response","547","747758","0.0-6.0-0.109","","img/orange.png","null","trial","null","true","0.4,0.6","4:nogo_d","",""
"null","","html-keyboard-response","548","748767","0.0-6.0-1.109","","<img src=""img/orange-n.png"">","null","trial","null","","0.4,0.6","4:nogo_d","0",""
"null","","html-keyboard-response","549","749767","0.0-6.0-2.109","","<div style=""font-size:60px;"">+</div>","null","","","","","","",""
"null","","image-keyboard-response","550","751283","0.0-6.0-0.110","","img/grey.png","null","trial","null","true","0.4,0.6","2:nogo_b","",""
"null","","html-keyboard-response","551","752292","0.0-6.0-1.110","","<img src=""img/grey-r.png"">","null","trial","null","","0.4,0.6","2:nogo_b","1",""
"null","","html-keyboard-response","552","753301","0.0-6.0-2.110","","<div style=""font-size:60px;"">+</div>","null","","","","","","",""
"1176.7000000029802","","image-keyboard-response","553","754479","0.0-6.0-0.111","","img/pink.png","32","trial","32","true","0.6,0.4","3:go_c","",""
"null","","html-keyboard-response","554","755491","0.0-6.0-1.111","","<img src=""img/pink-n.png"" border=""10"">","null","trial","32","","0.6,0.4","3:go_c","0",""
"null","","html-keyboard-response","555","756497","0.0-6.0-2.111","","<div style=""font-size:60px;"">+</div>","null","","","","","","",""
"null","","image-keyboard-response","556","758013","0.0-6.0-0.112","","img/grey.png","null","trial","null","true","0.4,0.6","2:nogo_b","",""
"null","","html-keyboard-response","557","759023","0.0-6.0-1.112","","<img src=""img/grey-r.png"">","null","trial","null","","0.4,0.6","2:nogo_b","1",""
"null","","html-keyboard-response","558","760034","0.0-6.0-2.112","","<div style=""font-size:60px;"">+</div>","null","","","","","","",""
"null","","image-keyboard-response","559","761541","0.0-6.0-0.113","","img/pink.png","null","trial","32","false","0.6,0.4","3:go_c","",""
"null","","html-keyboard-response","560","762550","0.0-6.0-1.113","","<img src=""img/pink-n.png"">","null","trial","32","","0.6,0.4","3:go_c","0",""
"null","","html-keyboard-response","561","763557","0.0-6.0-2.113","","<div style=""font-size:60px;"">+</div>","null","","","","","","",""
"null","","image-keyboard-response","562","765069","0.0-6.0-0.114","","img/orange.png","null","trial","null","true","0.4,0.6","4:nogo_d","",""
"null","","html-keyboard-response","563","766077","0.0-6.0-1.114","","<img src=""img/orange-r.png"">","null","trial","null","","0.4,0.6","4:nogo_d","1",""
"null","","html-keyboard-response","564","767088","0.0-6.0-2.114","","<div style=""font-size:60px;"">+</div>","null","","","","","","",""
"776.7000000029802","","image-keyboard-response","565","767866","0.0-6.0-0.115","","img/blue.png","32","trial","32","true","0.6,0.4","1:go_a","",""
"null","","html-keyboard-response","566","768871","0.0-6.0-1.115","","<img src=""img/blue-r.png"" border=""10"">","null","trial","32","","0.6,0.4","1:go_a","1",""
"null","","html-keyboard-response","567","769882","0.0-6.0-2.115","","<div style=""font-size:60px;"">+</div>","null","","","","","","",""
"null","","image-keyboard-response","568","771391","0.0-6.0-0.116","","img/orange.png","null","trial","null","true","0.4,0.6","4:nogo_d","",""
"null","","html-keyboard-response","569","772397","0.0-6.0-1.116","","<img src=""img/orange-n.png"">","null","trial","null","","0.4,0.6","4:nogo_d","0",""
"null","","html-keyboard-response","570","773405","0.0-6.0-2.116","","<div style=""font-size:60px;"">+</div>","null","","","","","","",""
"1072.8999999910593","","image-keyboard-response","571","774479","0.0-6.0-0.117","","img/blue.png","32","trial","32","true","0.6,0.4","1:go_a","",""
"null","","html-keyboard-response","572","775480","0.0-6.0-1.117","","<img src=""img/blue-n.png"" border=""10"">","null","trial","32","","0.6,0.4","1:go_a","0",""
"null","","html-keyboard-response","573","776494","0.0-6.0-2.117","","<div style=""font-size:60px;"">+</div>","null","","","","","","",""
"1171","","image-keyboard-response","574","777666","0.0-6.0-0.118","","img/pink.png","32","trial","32","true","0.6,0.4","3:go_c","",""
"null","","html-keyboard-response","575","778668","0.0-6.0-1.118","","<img src=""img/pink-r.png"" border=""10"">","null","trial","32","","0.6,0.4","3:go_c","1",""
"null","","html-keyboard-response","576","779674","0.0-6.0-2.118","","<div style=""font-size:60px;"">+</div>","null","","","","","","",""
"null","","image-keyboard-response","577","781181","0.0-6.0-0.119","","img/grey.png","null","trial","null","true","0.4,0.6","2:nogo_b","",""
"null","","html-keyboard-response","578","782186","0.0-6.0-1.119","","<img src=""img/grey-r.png"">","null","trial","null","","0.4,0.6","2:nogo_b","1",""
"null","","html-keyboard-response","579","783193","0.0-6.0-2.119","","<div style=""font-size:60px;"">+</div>","null","","","","","","",""
"5635.4000000059605","","instructions","580","788829","0.0-7.0","[{""page_index"":0,""viewing_time"":5635.100000008941}]","","","","","","","","",""
"null","","image-keyboard-response","581","790330","0.0-8.0-0.0","","img/pink.png","null","trial","null","true","0.2,0.8","4:nogo_d","",""
"null","","html-keyboard-response","582","791336","0.0-8.0-1.0","","<img src=""img/pink-r.png"">","null","trial","null","","0.2,0.8","4:nogo_d","1",""
"null","","html-keyboard-response","583","792346","0.0-8.0-2.0","","<div style=""font-size:60px;"">+</div>","null","","","","","","",""
"null","","image-keyboard-response","584","793849","0.0-8.0-0.1","","img/yellow.png","null","trial","32","false","0.8,0.2","3:go_c","",""
"null","","html-keyboard-response","585","794858","0.0-8.0-1.1","","<img src=""img/yellow-n.png"">","null","trial","32","","0.8,0.2","3:go_c","0",""
"null","","html-keyboard-response","586","795866","0.0-8.0-2.1","","<div style=""font-size:60px;"">+</div>","null","","","","","","",""
"null","","image-keyboard-response","587","797376","0.0-8.0-0.2","","img/green.png","null","trial","null","true","0.2,0.8","2:nogo_b","",""
"null","","html-keyboard-response","588","798383","0.0-8.0-1.2","","<img src=""img/green-n.png"">","null","trial","null","","0.2,0.8","2:nogo_b","0",""
"null","","html-keyboard-response","589","799391","0.0-8.0-2.2","","<div style=""font-size:60px;"">+</div>","null","","","","","","",""
"null","","image-keyboard-response","590","800898","0.0-8.0-0.3","","img/red.png","null","trial","32","false","0.8,0.2","1:go_a","",""
"null","","html-keyboard-response","591","801900","0.0-8.0-1.3","","<img src=""img/red-n.png"">","null","trial","32","","0.8,0.2","1:go_a","0",""
"null","","html-keyboard-response","592","802914","0.0-8.0-2.3","","<div style=""font-size:60px;"">+</div>","null","","","","","","",""
"null","","image-keyboard-response","593","804430","0.0-8.0-0.4","","img/red.png","null","trial","32","false","0.8,0.2","1:go_a","",""
"null","","html-keyboard-response","594","805443","0.0-8.0-1.4","","<img src=""img/red-n.png"">","null","trial","32","","0.8,0.2","1:go_a","0",""
"null","","html-keyboard-response","595","806455","0.0-8.0-2.4","","<div style=""font-size:60px;"">+</div>","null","","","","","","",""
"null","","image-keyboard-response","596","807960","0.0-8.0-0.5","","img/pink.png","null","trial","null","true","0.2,0.8","4:nogo_d","",""
"null","","html-keyboard-response","597","808969","0.0-8.0-1.5","","<img src=""img/pink-r.png"">","null","trial","null","","0.2,0.8","4:nogo_d","1",""
"null","","html-keyboard-response","598","809975","0.0-8.0-2.5","","<div style=""font-size:60px;"">+</div>","null","","","","","","",""
"null","","image-keyboard-response","599","811478","0.0-8.0-0.6","","img/green.png","null","trial","null","true","0.2,0.8","2:nogo_b","",""
"null","","html-keyboard-response","600","812484","0.0-8.0-1.6","","<img src=""img/green-r.png"">","null","trial","null","","0.2,0.8","2:nogo_b","1",""
"null","","html-keyboard-response","601","813493","0.0-8.0-2.6","","<div style=""font-size:60px;"">+</div>","null","","","","","","",""
"1184.7000000029802","","image-keyboard-response","602","814678","0.0-8.0-0.7","","img/yellow.png","32","trial","32","true","0.8,0.2","3:go_c","",""
"null","","html-keyboard-response","603","815686","0.0-8.0-1.7","","<img src=""img/yellow-n.png"" border=""10"">","null","trial","32","","0.8,0.2","3:go_c","0",""
"null","","html-keyboard-response","604","816697","0.0-8.0-2.7","","<div style=""font-size:60px;"">+</div>","null","","","","","","",""
"1080.3999999910593","","image-keyboard-response","605","817779","0.0-8.0-0.8","","img/red.png","32","trial","32","true","0.8,0.2","1:go_a","",""
"null","","html-keyboard-response","606","818785","0.0-8.0-1.8","","<img src=""img/red-r.png"" border=""10"">","null","trial","32","","0.8,0.2","1:go_a","1",""
"null","","html-keyboard-response","607","819800","0.0-8.0-2.8","","<div style=""font-size:60px;"">+</div>","null","","","","","","",""
"null","","image-keyboard-response","608","821302","0.0-8.0-0.9","","img/yellow.png","null","trial","32","false","0.8,0.2","3:go_c","",""
"null","","html-keyboard-response","609","822308","0.0-8.0-1.9","","<img src=""img/yellow-n.png"">","null","trial","32","","0.8,0.2","3:go_c","0",""
"null","","html-keyboard-response","610","823316","0.0-8.0-2.9","","<div style=""font-size:60px;"">+</div>","null","","","","","","",""
"1286.2999999970198","","image-keyboard-response","611","824603","0.0-8.0-0.10","","img/pink.png","32","trial","null","false","0.2,0.8","4:nogo_d","",""
"null","","html-keyboard-response","612","825614","0.0-8.0-1.10","","<img src=""img/pink-n.png"" border=""10"">","null","trial","null","","0.2,0.8","4:nogo_d","0",""
"null","","html-keyboard-response","613","826623","0.0-8.0-2.10","","<div style=""font-size:60px;"">+</div>","null","","","","","","",""
"null","","image-keyboard-response","614","828132","0.0-8.0-0.11","","img/green.png","null","trial","null","true","0.2,0.8","2:nogo_b","",""
"null","","html-keyboard-response","615","829141","0.0-8.0-1.11","","<img src=""img/green-r.png"">","null","trial","null","","0.2,0.8","2:nogo_b","1",""
"null","","html-keyboard-response","616","830148","0.0-8.0-2.11","","<div style=""font-size:60px;"">+</div>","null","","","","","","",""
"1217.1000000089407","","image-keyboard-response","617","831366","0.0-8.0-0.12","","img/pink.png","32","trial","null","false","0.2,0.8","4:nogo_d","",""
"null","","html-keyboard-response","618","832367","0.0-8.0-1.12","","<img src=""img/pink-n.png"" border=""10"">","null","trial","null","","0.2,0.8","4:nogo_d","0",""
"null","","html-keyboard-response","619","833368","0.0-8.0-2.12","","<div style=""font-size:60px;"">+</div>","null","","","","","","",""
"1346.7999999970198","","image-keyboard-response","620","834716","0.0-8.0-0.13","","img/yellow.png","32","trial","32","true","0.8,0.2","3:go_c","",""
"null","","html-keyboard-response","621","835722","0.0-8.0-1.13","","<img src=""img/yellow-r.png"" border=""10"">","null","trial","32","","0.8,0.2","3:go_c","1",""
"null","","html-keyboard-response","622","836734","0.0-8.0-2.13","","<div style=""font-size:60px;"">+</div>","null","","","","","","",""
"null","","image-keyboard-response","623","838239","0.0-8.0-0.14","","img/red.png","null","trial","32","false","0.8,0.2","1:go_a","",""
"null","","html-keyboard-response","624","839246","0.0-8.0-1.14","","<img src=""img/red-r.png"">","null","trial","32","","0.8,0.2","1:go_a","1",""
"null","","html-keyboard-response","625","840255","0.0-8.0-2.14","","<div style=""font-size:60px;"">+</div>","null","","","","","","",""
"null","","image-keyboard-response","626","841759","0.0-8.0-0.15","","img/green.png","null","trial","null","true","0.2,0.8","2:nogo_b","",""
"null","","html-keyboard-response","627","842767","0.0-8.0-1.15","","<img src=""img/green-r.png"">","null","trial","null","","0.2,0.8","2:nogo_b","1",""
"null","","html-keyboard-response","628","843767","0.0-8.0-2.15","","<div style=""font-size:60px;"">+</div>","null","","","","","","",""
"1461","","image-keyboard-response","629","845229","0.0-8.0-0.16","","img/yellow.png","32","trial","32","true","0.8,0.2","3:go_c","",""
"null","","html-keyboard-response","630","846241","0.0-8.0-1.16","","<img src=""img/yellow-r.png"" border=""10"">","null","trial","32","","0.8,0.2","3:go_c","1",""
"null","","html-keyboard-response","631","847254","0.0-8.0-2.16","","<div style=""font-size:60px;"">+</div>","null","","","","","","",""
"1335.3999999910593","","image-keyboard-response","632","848590","0.0-8.0-0.17","","img/red.png","32","trial","32","true","0.8,0.2","1:go_a","",""
"null","","html-keyboard-response","633","849602","0.0-8.0-1.17","","<img src=""img/red-r.png"" border=""10"">","null","trial","32","","0.8,0.2","1:go_a","1",""
"null","","html-keyboard-response","634","850613","0.0-8.0-2.17","","<div style=""font-size:60px;"">+</div>","null","","","","","","",""
"null","","image-keyboard-response","635","852116","0.0-8.0-0.18","","img/pink.png","null","trial","null","true","0.2,0.8","4:nogo_d","",""
"null","","html-keyboard-response","636","853128","0.0-8.0-1.18","","<img src=""img/pink-r.png"">","null","trial","null","","0.2,0.8","4:nogo_d","1",""
"null","","html-keyboard-response","637","854139","0.0-8.0-2.18","","<div style=""font-size:60px;"">+</div>","null","","","","","","",""
"null","","image-keyboard-response","638","855646","0.0-8.0-0.19","","img/green.png","null","trial","null","true","0.2,0.8","2:nogo_b","",""
"null","","html-keyboard-response","639","856659","0.0-8.0-1.19","","<img src=""img/green-r.png"">","null","trial","null","","0.2,0.8","2:nogo_b","1",""
"null","","html-keyboard-response","640","857666","0.0-8.0-2.19","","<div style=""font-size:60px;"">+</div>","null","","","","","","",""
"null","","image-keyboard-response","641","859171","0.0-8.0-0.20","","img/red.png","null","trial","32","false","0.8,0.2","1:go_a","",""
"null","","html-keyboard-response","642","860187","0.0-8.0-1.20","","<img src=""img/red-n.png"">","null","trial","32","","0.8,0.2","1:go_a","0",""
"null","","html-keyboard-response","643","861188","0.0-8.0-2.20","","<div style=""font-size:60px;"">+</div>","null","","","","","","",""
"1089.8999999910593","","image-keyboard-response","644","862278","0.0-8.0-0.21","","img/yellow.png","32","trial","32","true","0.8,0.2","3:go_c","",""
"null","","html-keyboard-response","645","863282","0.0-8.0-1.21","","<img src=""img/yellow-r.png"" border=""10"">","null","trial","32","","0.8,0.2","3:go_c","1",""
"null","","html-keyboard-response","646","864292","0.0-8.0-2.21","","<div style=""font-size:60px;"">+</div>","null","","","","","","",""
"1498.1000000089407","","image-keyboard-response","647","865791","0.0-8.0-0.22","","img/pink.png","32","trial","null","false","0.2,0.8","4:nogo_d","",""
"null","","html-keyboard-response","648","866794","0.0-8.0-1.22","","<img src=""img/pink-n.png"" border=""10"">","null","trial","null","","0.2,0.8","4:nogo_d","0",""
"null","","html-keyboard-response","649","867800","0.0-8.0-2.22","","<div style=""font-size:60px;"">+</div>","null","","","","","","",""
"1502.7000000029802","","image-keyboard-response","650","869304","0.0-8.0-0.23","","img/green.png","32","trial","null","false","0.2,0.8","2:nogo_b","",""
"null","","html-keyboard-response","651","870308","0.0-8.0-1.23","","<img src=""img/green-n.png"" border=""10"">","null","trial","null","","0.2,0.8","2:nogo_b","0",""
"null","","html-keyboard-response","652","871321","0.0-8.0-2.23","","<div style=""font-size:60px;"">+</div>","null","","","","","","",""
"1393.6000000089407","","image-keyboard-response","653","872716","0.0-8.0-0.24","","img/green.png","32","trial","null","false","0.2,0.8","2:nogo_b","",""
"null","","html-keyboard-response","654","873729","0.0-8.0-1.24","","<img src=""img/green-n.png"" border=""10"">","null","trial","null","","0.2,0.8","2:nogo_b","0",""
"null","","html-keyboard-response","655","874731","0.0-8.0-2.24","","<div style=""font-size:60px;"">+</div>","null","","","","","","",""
"null","","image-keyboard-response","656","876243","0.0-8.0-0.25","","img/red.png","null","trial","32","false","0.8,0.2","1:go_a","",""
"null","","html-keyboard-response","657","877252","0.0-8.0-1.25","","<img src=""img/red-n.png"">","null","trial","32","","0.8,0.2","1:go_a","0",""
"null","","html-keyboard-response","658","878258","0.0-8.0-2.25","","<div style=""font-size:60px;"">+</div>","null","","","","","","",""
"1381.8999999910593","","image-keyboard-response","659","879641","0.0-8.0-0.26","","img/yellow.png","32","trial","32","true","0.8,0.2","3:go_c","",""
"null","","html-keyboard-response","660","880642","0.0-8.0-1.26","","<img src=""img/yellow-r.png"" border=""10"">","null","trial","32","","0.8,0.2","3:go_c","1",""
"null","","html-keyboard-response","661","881651","0.0-8.0-2.26","","<div style=""font-size:60px;"">+</div>","null","","","","","","",""
"null","","image-keyboard-response","662","883157","0.0-8.0-0.27","","img/pink.png","null","trial","null","true","0.2,0.8","4:nogo_d","",""
"null","","html-keyboard-response","663","884166","0.0-8.0-1.27","","<img src=""img/pink-r.png"">","null","trial","null","","0.2,0.8","4:nogo_d","1",""
"null","","html-keyboard-response","664","885176","0.0-8.0-2.27","","<div style=""font-size:60px;"">+</div>","null","","","","","","",""
"1125.5999999940395","","image-keyboard-response","665","886302","0.0-8.0-0.28","","img/green.png","32","trial","null","false","0.2,0.8","2:nogo_b","",""
"null","","html-keyboard-response","666","887318","0.0-8.0-1.28","","<img src=""img/green-n.png"" border=""10"">","null","trial","null","","0.2,0.8","2:nogo_b","0",""
"null","","html-keyboard-response","667","888328","0.0-8.0-2.28","","<div style=""font-size:60px;"">+</div>","null","","","","","","",""
"1274","","image-keyboard-response","668","889603","0.0-8.0-0.29","","img/pink.png","32","trial","null","false","0.2,0.8","4:nogo_d","",""
"null","","html-keyboard-response","669","890606","0.0-8.0-1.29","","<img src=""img/pink-n.png"" border=""10"">","null","trial","null","","0.2,0.8","4:nogo_d","0",""
"null","","html-keyboard-response","670","891618","0.0-8.0-2.29","","<div style=""font-size:60px;"">+</div>","null","","","","","","",""
"1485.0999999940395","","image-keyboard-response","671","893104","0.0-8.0-0.30","","img/yellow.png","32","trial","32","true","0.8,0.2","3:go_c","",""
"null","","html-keyboard-response","672","894117","0.0-8.0-1.30","","<img src=""img/yellow-r.png"" border=""10"">","null","trial","32","","0.8,0.2","3:go_c","1",""
"null","","html-keyboard-response","673","895125","0.0-8.0-2.30","","<div style=""font-size:60px;"">+</div>","null","","","","","","",""
"863.7999999970198","","image-keyboard-response","674","895990","0.0-8.0-0.31","","img/red.png","32","trial","32","true","0.8,0.2","1:go_a","",""
"null","","html-keyboard-response","675","896993","0.0-8.0-1.31","","<img src=""img/red-r.png"" border=""10"">","null","trial","32","","0.8,0.2","1:go_a","1",""
"null","","html-keyboard-response","676","898002","0.0-8.0-2.31","","<div style=""font-size:60px;"">+</div>","null","","","","","","",""
"1100.2000000029802","","image-keyboard-response","677","899103","0.0-8.0-0.32","","img/red.png","32","trial","32","true","0.8,0.2","1:go_a","",""
"null","","html-keyboard-response","678","900114","0.0-8.0-1.32","","<img src=""img/red-r.png"" border=""10"">","null","trial","32","","0.8,0.2","1:go_a","1",""
"null","","html-keyboard-response","679","901129","0.0-8.0-2.32","","<div style=""font-size:60px;"">+</div>","null","","","","","","",""
"1049.7999999970198","","image-keyboard-response","680","902180","0.0-8.0-0.33","","img/yellow.png","32","trial","32","true","0.8,0.2","3:go_c","",""
"null","","html-keyboard-response","681","903185","0.0-8.0-1.33","","<img src=""img/yellow-r.png"" border=""10"">","null","trial","32","","0.8,0.2","3:go_c","1",""
"null","","html-keyboard-response","682","904190","0.0-8.0-2.33","","<div style=""font-size:60px;"">+</div>","null","","","","","","",""
