"rt","url","trial_type","trial_index","time_elapsed","internal_node_id","view_history","stimulus","key_press","test_part","correct_response","correct","use_rew","which_stim","reward","responses"
"10767","consent.html","external-html","0","10861","0.0-0.0","","","","","","","","","",""
"130855","","instructions","1","141720","0.0-1.0","[{""page_index"":0,""viewing_time"":1984},{""page_index"":1,""viewing_time"":20729},{""page_index"":2,""viewing_time"":7053},{""page_index"":3,""viewing_time"":25909},{""page_index"":4,""viewing_time"":30600},{""page_index"":5,""viewing_time"":4593},{""page_index"":6,""viewing_time"":39986}]","","","","","","","","",""
"622","","image-keyboard-response","2","142345","0.0-2.0-0.0","","img/test1.PNG","32","practice","32","true","","","",""
"null","","html-keyboard-response","3","143348","0.0-2.0-1.0","","<img src=""img/test1-reward.PNG"" border=""10px; grey"">","null","","","","","","",""
"null","","html-keyboard-response","4","144349","0.0-2.0-2.0","","<div style=""font-size:60px;"">+</div>","null","","","","","","",""
"null","","image-keyboard-response","5","145851","0.0-2.0-0.1","","img/test3.PNG","null","practice","null","true","","","",""
"null","","html-keyboard-response","6","146853","0.0-2.0-1.1","","<img src=""img/test3-reward.PNG"">","null","","","","","","",""
"null","","html-keyboard-response","7","147856","0.0-2.0-2.1","","<div style=""font-size:60px;"">+</div>","null","","","","","","",""
"null","","image-keyboard-response","8","149357","0.0-2.0-0.2","","img/test2.PNG","null","practice","null","true","","","",""
"null","","html-keyboard-response","9","150358","0.0-2.0-1.2","","<img src=""img/test2-reward.PNG"">","null","","","","","","",""
"null","","html-keyboard-response","10","151359","0.0-2.0-2.2","","<div style=""font-size:60px;"">+</div>","null","","","","","","",""
"null","","image-keyboard-response","11","152861","0.0-2.0-0.3","","img/test2.PNG","null","practice","null","true","","","",""
"null","","html-keyboard-response","12","153863","0.0-2.0-1.3","","<img src=""img/test2-reward.PNG"">","null","","","","","","",""
"null","","html-keyboard-response","13","154865","0.0-2.0-2.3","","<div style=""font-size:60px;"">+</div>","null","","","","","","",""
"428","","image-keyboard-response","14","155294","0.0-2.0-0.4","","img/test1.PNG","32","practice","32","true","","","",""
"null","","html-keyboard-response","15","156296","0.0-2.0-1.4","","<img src=""img/test1-reward.PNG"" border=""10px; grey"">","null","","","","","","",""
"null","","html-keyboard-response","16","157297","0.0-2.0-2.4","","<div style=""font-size:60px;"">+</div>","null","","","","","","",""
"null","","image-keyboard-response","17","158801","0.0-2.0-0.5","","img/test3.PNG","null","practice","null","true","","","",""
"null","","html-keyboard-response","18","159805","0.0-2.0-1.5","","<img src=""img/test3-reward.PNG"">","null","","","","","","",""
"null","","html-keyboard-response","19","160807","0.0-2.0-2.5","","<div style=""font-size:60px;"">+</div>","null","","","","","","",""
"null","","image-keyboard-response","20","162308","0.0-2.0-0.6","","img/test2.PNG","null","practice","null","true","","","",""
"null","","html-keyboard-response","21","163310","0.0-2.0-1.6","","<img src=""img/test2-reward.PNG"">","null","","","","","","",""
"null","","html-keyboard-response","22","164311","0.0-2.0-2.6","","<div style=""font-size:60px;"">+</div>","null","","","","","","",""
"437","","image-keyboard-response","23","164750","0.0-2.0-0.7","","img/test1.PNG","32","practice","32","true","","","",""
"null","","html-keyboard-response","24","165752","0.0-2.0-1.7","","<img src=""img/test1-reward.PNG"" border=""10px; grey"">","null","","","","","","",""
"null","","html-keyboard-response","25","166753","0.0-2.0-2.7","","<div style=""font-size:60px;"">+</div>","null","","","","","","",""
"null","","image-keyboard-response","26","168254","0.0-2.0-0.8","","img/test3.PNG","null","practice","null","true","","","",""
"null","","html-keyboard-response","27","169255","0.0-2.0-1.8","","<img src=""img/test3-reward.PNG"">","null","","","","","","",""
"null","","html-keyboard-response","28","170256","0.0-2.0-2.8","","<div style=""font-size:60px;"">+</div>","null","","","","","","",""
"null","","image-keyboard-response","29","171757","0.0-2.0-0.9","","img/test3.PNG","null","practice","null","true","","","",""
"null","","html-keyboard-response","30","172758","0.0-2.0-1.9","","<img src=""img/test3-reward.PNG"">","null","","","","","","",""
"null","","html-keyboard-response","31","173759","0.0-2.0-2.9","","<div style=""font-size:60px;"">+</div>","null","","","","","","",""
"null","","image-keyboard-response","32","175260","0.0-2.0-0.10","","img/test2.PNG","null","practice","null","true","","","",""
"null","","html-keyboard-response","33","176262","0.0-2.0-1.10","","<img src=""img/test2-reward.PNG"">","null","","","","","","",""
"null","","html-keyboard-response","34","177263","0.0-2.0-2.10","","<div style=""font-size:60px;"">+</div>","null","","","","","","",""
"536","","image-keyboard-response","35","177800","0.0-2.0-0.11","","img/test1.PNG","32","practice","32","true","","","",""
"null","","html-keyboard-response","36","178801","0.0-2.0-1.11","","<img src=""img/test1-reward.PNG"" border=""10px; grey"">","null","","","","","","",""
"null","","html-keyboard-response","37","179802","0.0-2.0-2.11","","<div style=""font-size:60px;"">+</div>","null","","","","","","",""
"111535","","instructions","38","291338","0.0-3.0","[{""page_index"":0,""viewing_time"":111535}]","","","","","","","","",""
"984","","image-keyboard-response","39","292327","0.0-4.0-0.0","","img/red.png","32","trial","null","false","0.2,0.8","2:nogo_b","",""
"null","","html-keyboard-response","40","293329","0.0-4.0-1.0","","<img src=""img/red-n.png"" border=""10"">","null","trial","null","","0.2,0.8","2:nogo_b","0",""
"null","","html-keyboard-response","41","294333","0.0-4.0-2.0","","<div style=""font-size:60px;"">+</div>","null","","","","","","",""
"907","","image-keyboard-response","42","295241","0.0-4.0-0.1","","img/green.png","32","trial","32","true","0.8,0.2","1:go_a","",""
"null","","html-keyboard-response","43","296245","0.0-4.0-1.1","","<img src=""img/green-r.png"" border=""10"">","null","trial","32","","0.8,0.2","1:go_a","1",""
"null","","html-keyboard-response","44","297246","0.0-4.0-2.1","","<div style=""font-size:60px;"">+</div>","null","","","","","","",""
"476","","image-keyboard-response","45","297723","0.0-4.0-0.2","","img/green.png","32","trial","32","true","0.8,0.2","1:go_a","",""
"null","","html-keyboard-response","46","298724","0.0-4.0-1.2","","<img src=""img/green-r.png"" border=""10"">","null","trial","32","","0.8,0.2","1:go_a","1",""
"null","","html-keyboard-response","47","299725","0.0-4.0-2.2","","<div style=""font-size:60px;"">+</div>","null","","","","","","",""
"null","","image-keyboard-response","48","301228","0.0-4.0-0.3","","img/red.png","null","trial","null","true","0.2,0.8","2:nogo_b","",""
"null","","html-keyboard-response","49","302230","0.0-4.0-1.3","","<img src=""img/red-r.png"">","null","trial","null","","0.2,0.8","2:nogo_b","1",""
"null","","html-keyboard-response","50","303232","0.0-4.0-2.3","","<div style=""font-size:60px;"">+</div>","null","","","","","","",""
"null","","image-keyboard-response","51","304734","0.0-4.0-0.4","","img/red.png","null","trial","null","true","0.2,0.8","2:nogo_b","",""
"null","","html-keyboard-response","52","305735","0.0-4.0-1.4","","<img src=""img/red-n.png"">","null","trial","null","","0.2,0.8","2:nogo_b","0",""
"null","","html-keyboard-response","53","306737","0.0-4.0-2.4","","<div style=""font-size:60px;"">+</div>","null","","","","","","",""
"436","","image-keyboard-response","54","307175","0.0-4.0-0.5","","img/green.png","32","trial","32","true","0.8,0.2","1:go_a","",""
"null","","html-keyboard-response","55","308178","0.0-4.0-1.5","","<img src=""img/green-r.png"" border=""10"">","null","trial","32","","0.8,0.2","1:go_a","1",""
"null","","html-keyboard-response","56","309180","0.0-4.0-2.5","","<div style=""font-size:60px;"">+</div>","null","","","","","","",""
"419","","image-keyboard-response","57","309600","0.0-4.0-0.6","","img/green.png","32","trial","32","true","0.8,0.2","1:go_a","",""
"null","","html-keyboard-response","58","310601","0.0-4.0-1.6","","<img src=""img/green-n.png"" border=""10"">","null","trial","32","","0.8,0.2","1:go_a","0",""
"null","","html-keyboard-response","59","311602","0.0-4.0-2.6","","<div style=""font-size:60px;"">+</div>","null","","","","","","",""
"null","","image-keyboard-response","60","313104","0.0-4.0-0.7","","img/red.png","null","trial","null","true","0.2,0.8","2:nogo_b","",""
"null","","html-keyboard-response","61","314106","0.0-4.0-1.7","","<img src=""img/red-r.png"">","null","trial","null","","0.2,0.8","2:nogo_b","1",""
"null","","html-keyboard-response","62","315107","0.0-4.0-2.7","","<div style=""font-size:60px;"">+</div>","null","","","","","","",""
"392","","image-keyboard-response","63","315501","0.0-4.0-0.8","","img/green.png","32","trial","32","true","0.8,0.2","1:go_a","",""
"null","","html-keyboard-response","64","316503","0.0-4.0-1.8","","<img src=""img/green-r.png"" border=""10"">","null","trial","32","","0.8,0.2","1:go_a","1",""
"null","","html-keyboard-response","65","317503","0.0-4.0-2.8","","<div style=""font-size:60px;"">+</div>","null","","","","","","",""
"null","","image-keyboard-response","66","319004","0.0-4.0-0.9","","img/red.png","null","trial","null","true","0.2,0.8","2:nogo_b","",""
"null","","html-keyboard-response","67","320007","0.0-4.0-1.9","","<img src=""img/red-r.png"">","null","trial","null","","0.2,0.8","2:nogo_b","1",""
"null","","html-keyboard-response","68","321008","0.0-4.0-2.9","","<div style=""font-size:60px;"">+</div>","null","","","","","","",""
"375","","image-keyboard-response","69","321385","0.0-4.0-0.10","","img/green.png","32","trial","32","true","0.8,0.2","1:go_a","",""
"null","","html-keyboard-response","70","322386","0.0-4.0-1.10","","<img src=""img/green-r.png"" border=""10"">","null","trial","32","","0.8,0.2","1:go_a","1",""
"null","","html-keyboard-response","71","323387","0.0-4.0-2.10","","<div style=""font-size:60px;"">+</div>","null","","","","","","",""
"null","","image-keyboard-response","72","324888","0.0-4.0-0.11","","img/red.png","null","trial","null","true","0.2,0.8","2:nogo_b","",""
"null","","html-keyboard-response","73","325890","0.0-4.0-1.11","","<img src=""img/red-r.png"">","null","trial","null","","0.2,0.8","2:nogo_b","1",""
"null","","html-keyboard-response","74","326891","0.0-4.0-2.11","","<div style=""font-size:60px;"">+</div>","null","","","","","","",""
"396","","image-keyboard-response","75","327291","0.0-4.0-0.12","","img/green.png","32","trial","32","true","0.8,0.2","1:go_a","",""
"null","","html-keyboard-response","76","328292","0.0-4.0-1.12","","<img src=""img/green-r.png"" border=""10"">","null","trial","32","","0.8,0.2","1:go_a","1",""
"null","","html-keyboard-response","77","329294","0.0-4.0-2.12","","<div style=""font-size:60px;"">+</div>","null","","","","","","",""
"null","","image-keyboard-response","78","330797","0.0-4.0-0.13","","img/red.png","null","trial","null","true","0.2,0.8","2:nogo_b","",""
"null","","html-keyboard-response","79","331799","0.0-4.0-1.13","","<img src=""img/red-r.png"">","null","trial","null","","0.2,0.8","2:nogo_b","1",""
"null","","html-keyboard-response","80","332800","0.0-4.0-2.13","","<div style=""font-size:60px;"">+</div>","null","","","","","","",""
"376","","image-keyboard-response","81","333177","0.0-4.0-0.14","","img/green.png","32","trial","32","true","0.8,0.2","1:go_a","",""
"null","","html-keyboard-response","82","334178","0.0-4.0-1.14","","<img src=""img/green-r.png"" border=""10"">","null","trial","32","","0.8,0.2","1:go_a","1",""
"null","","html-keyboard-response","83","335181","0.0-4.0-2.14","","<div style=""font-size:60px;"">+</div>","null","","","","","","",""
"null","","image-keyboard-response","84","336684","0.0-4.0-0.15","","img/red.png","null","trial","null","true","0.2,0.8","2:nogo_b","",""
"null","","html-keyboard-response","85","337686","0.0-4.0-1.15","","<img src=""img/red-r.png"">","null","trial","null","","0.2,0.8","2:nogo_b","1",""
"null","","html-keyboard-response","86","338687","0.0-4.0-2.15","","<div style=""font-size:60px;"">+</div>","null","","","","","","",""
"null","","image-keyboard-response","87","340189","0.0-4.0-0.16","","img/red.png","null","trial","null","true","0.2,0.8","2:nogo_b","",""
"null","","html-keyboard-response","88","341190","0.0-4.0-1.16","","<img src=""img/red-r.png"">","null","trial","null","","0.2,0.8","2:nogo_b","1",""
"null","","html-keyboard-response","89","342192","0.0-4.0-2.16","","<div style=""font-size:60px;"">+</div>","null","","","","","","",""
"472","","image-keyboard-response","90","342664","0.0-4.0-0.17","","img/green.png","32","trial","32","true","0.8,0.2","1:go_a","",""
"null","","html-keyboard-response","91","343667","0.0-4.0-1.17","","<img src=""img/green-r.png"" border=""10"">","null","trial","32","","0.8,0.2","1:go_a","1",""
"null","","html-keyboard-response","92","344668","0.0-4.0-2.17","","<div style=""font-size:60px;"">+</div>","null","","","","","","",""
"null","","image-keyboard-response","93","346170","0.0-4.0-0.18","","img/red.png","null","trial","null","true","0.2,0.8","2:nogo_b","",""
"null","","html-keyboard-response","94","347174","0.0-4.0-1.18","","<img src=""img/red-r.png"">","null","trial","null","","0.2,0.8","2:nogo_b","1",""
"null","","html-keyboard-response","95","348175","0.0-4.0-2.18","","<div style=""font-size:60px;"">+</div>","null","","","","","","",""
"401","","image-keyboard-response","96","348578","0.0-4.0-0.19","","img/green.png","32","trial","32","true","0.8,0.2","1:go_a","",""
"null","","html-keyboard-response","97","349579","0.0-4.0-1.19","","<img src=""img/green-r.png"" border=""10"">","null","trial","32","","0.8,0.2","1:go_a","1",""
"null","","html-keyboard-response","98","350580","0.0-4.0-2.19","","<div style=""font-size:60px;"">+</div>","null","","","","","","",""
"616","","image-keyboard-response","99","351198","0.0-4.0-0.20","","img/green.png","32","trial","32","true","0.8,0.2","1:go_a","",""
"null","","html-keyboard-response","100","352199","0.0-4.0-1.20","","<img src=""img/green-r.png"" border=""10"">","null","trial","32","","0.8,0.2","1:go_a","1",""
"null","","html-keyboard-response","101","353200","0.0-4.0-2.20","","<div style=""font-size:60px;"">+</div>","null","","","","","","",""
"null","","image-keyboard-response","102","354702","0.0-4.0-0.21","","img/red.png","null","trial","null","true","0.2,0.8","2:nogo_b","",""
"null","","html-keyboard-response","103","355702","0.0-4.0-1.21","","<img src=""img/red-r.png"">","null","trial","null","","0.2,0.8","2:nogo_b","1",""
"null","","html-keyboard-response","104","356703","0.0-4.0-2.21","","<div style=""font-size:60px;"">+</div>","null","","","","","","",""
"493","","image-keyboard-response","105","357198","0.0-4.0-0.22","","img/green.png","32","trial","32","true","0.8,0.2","1:go_a","",""
"null","","html-keyboard-response","106","358200","0.0-4.0-1.22","","<img src=""img/green-r.png"" border=""10"">","null","trial","32","","0.8,0.2","1:go_a","1",""
"null","","html-keyboard-response","107","359201","0.0-4.0-2.22","","<div style=""font-size:60px;"">+</div>","null","","","","","","",""
"null","","image-keyboard-response","108","360703","0.0-4.0-0.23","","img/red.png","null","trial","null","true","0.2,0.8","2:nogo_b","",""
"null","","html-keyboard-response","109","361704","0.0-4.0-1.23","","<img src=""img/red-r.png"">","null","trial","null","","0.2,0.8","2:nogo_b","1",""
"null","","html-keyboard-response","110","362705","0.0-4.0-2.23","","<div style=""font-size:60px;"">+</div>","null","","","","","","",""
"393","","image-keyboard-response","111","363099","0.0-4.0-0.24","","img/green.png","32","trial","32","true","0.8,0.2","1:go_a","",""
"null","","html-keyboard-response","112","364100","0.0-4.0-1.24","","<img src=""img/green-r.png"" border=""10"">","null","trial","32","","0.8,0.2","1:go_a","1",""
"null","","html-keyboard-response","113","365103","0.0-4.0-2.24","","<div style=""font-size:60px;"">+</div>","null","","","","","","",""
"null","","image-keyboard-response","114","366606","0.0-4.0-0.25","","img/red.png","null","trial","null","true","0.2,0.8","2:nogo_b","",""
"null","","html-keyboard-response","115","367607","0.0-4.0-1.25","","<img src=""img/red-r.png"">","null","trial","null","","0.2,0.8","2:nogo_b","1",""
"null","","html-keyboard-response","116","368608","0.0-4.0-2.25","","<div style=""font-size:60px;"">+</div>","null","","","","","","",""
"475","","image-keyboard-response","117","369086","0.0-4.0-0.26","","img/green.png","32","trial","32","true","0.8,0.2","1:go_a","",""
"null","","html-keyboard-response","118","370088","0.0-4.0-1.26","","<img src=""img/green-r.png"" border=""10"">","null","trial","32","","0.8,0.2","1:go_a","1",""
"null","","html-keyboard-response","119","371089","0.0-4.0-2.26","","<div style=""font-size:60px;"">+</div>","null","","","","","","",""
"null","","image-keyboard-response","120","372591","0.0-4.0-0.27","","img/red.png","null","trial","null","true","0.2,0.8","2:nogo_b","",""
"null","","html-keyboard-response","121","373591","0.0-4.0-1.27","","<img src=""img/red-r.png"">","null","trial","null","","0.2,0.8","2:nogo_b","1",""
"null","","html-keyboard-response","122","374592","0.0-4.0-2.27","","<div style=""font-size:60px;"">+</div>","null","","","","","","",""
"null","","image-keyboard-response","123","376094","0.0-4.0-0.28","","img/red.png","null","trial","null","true","0.2,0.8","2:nogo_b","",""
"null","","html-keyboard-response","124","377099","0.0-4.0-1.28","","<img src=""img/red-r.png"">","null","trial","null","","0.2,0.8","2:nogo_b","1",""
"null","","html-keyboard-response","125","378100","0.0-4.0-2.28","","<div style=""font-size:60px;"">+</div>","null","","","","","","",""
"465","","image-keyboard-response","126","378566","0.0-4.0-0.29","","img/green.png","32","trial","32","true","0.8,0.2","1:go_a","",""
"null","","html-keyboard-response","127","379568","0.0-4.0-1.29","","<img src=""img/green-r.png"" border=""10"">","null","trial","32","","0.8,0.2","1:go_a","1",""
"null","","html-keyboard-response","128","380569","0.0-4.0-2.29","","<div style=""font-size:60px;"">+</div>","null","","","","","","",""
"null","","image-keyboard-response","129","382070","0.0-4.0-0.30","","img/red.png","null","trial","null","true","0.2,0.8","2:nogo_b","",""
"null","","html-keyboard-response","130","383072","0.0-4.0-1.30","","<img src=""img/red-r.png"">","null","trial","null","","0.2,0.8","2:nogo_b","1",""
"null","","html-keyboard-response","131","384073","0.0-4.0-2.30","","<div style=""font-size:60px;"">+</div>","null","","","","","","",""
"397","","image-keyboard-response","132","384471","0.0-4.0-0.31","","img/green.png","32","trial","32","true","0.8,0.2","1:go_a","",""
"null","","html-keyboard-response","133","385473","0.0-4.0-1.31","","<img src=""img/green-r.png"" border=""10"">","null","trial","32","","0.8,0.2","1:go_a","1",""
"null","","html-keyboard-response","134","386473","0.0-4.0-2.31","","<div style=""font-size:60px;"">+</div>","null","","","","","","",""
"null","","image-keyboard-response","135","387975","0.0-4.0-0.32","","img/red.png","null","trial","null","true","0.2,0.8","2:nogo_b","",""
"null","","html-keyboard-response","136","388976","0.0-4.0-1.32","","<img src=""img/red-n.png"">","null","trial","null","","0.2,0.8","2:nogo_b","0",""
"null","","html-keyboard-response","137","389978","0.0-4.0-2.32","","<div style=""font-size:60px;"">+</div>","null","","","","","","",""
"398","","image-keyboard-response","138","390377","0.0-4.0-0.33","","img/green.png","32","trial","32","true","0.8,0.2","1:go_a","",""
"null","","html-keyboard-response","139","391379","0.0-4.0-1.33","","<img src=""img/green-r.png"" border=""10"">","null","trial","32","","0.8,0.2","1:go_a","1",""
"null","","html-keyboard-response","140","392380","0.0-4.0-2.33","","<div style=""font-size:60px;"">+</div>","null","","","","","","",""
"null","","image-keyboard-response","141","393882","0.0-4.0-0.34","","img/red.png","null","trial","null","true","0.2,0.8","2:nogo_b","",""
"null","","html-keyboard-response","142","394883","0.0-4.0-1.34","","<img src=""img/red-r.png"">","null","trial","null","","0.2,0.8","2:nogo_b","1",""
"null","","html-keyboard-response","143","395884","0.0-4.0-2.34","","<div style=""font-size:60px;"">+</div>","null","","","","","","",""
"367","","image-keyboard-response","144","396252","0.0-4.0-0.35","","img/green.png","32","trial","32","true","0.8,0.2","1:go_a","",""
"null","","html-keyboard-response","145","397254","0.0-4.0-1.35","","<img src=""img/green-r.png"" border=""10"">","null","trial","32","","0.8,0.2","1:go_a","1",""
"null","","html-keyboard-response","146","398256","0.0-4.0-2.35","","<div style=""font-size:60px;"">+</div>","null","","","","","","",""
"458","","image-keyboard-response","147","398715","0.0-4.0-0.36","","img/green.png","32","trial","32","true","0.8,0.2","1:go_a","",""
"null","","html-keyboard-response","148","399716","0.0-4.0-1.36","","<img src=""img/green-r.png"" border=""10"">","null","trial","32","","0.8,0.2","1:go_a","1",""
"null","","html-keyboard-response","149","400717","0.0-4.0-2.36","","<div style=""font-size:60px;"">+</div>","null","","","","","","",""
"null","","image-keyboard-response","150","402219","0.0-4.0-0.37","","img/red.png","null","trial","null","true","0.2,0.8","2:nogo_b","",""
"null","","html-keyboard-response","151","403220","0.0-4.0-1.37","","<img src=""img/red-r.png"">","null","trial","null","","0.2,0.8","2:nogo_b","1",""
"null","","html-keyboard-response","152","404222","0.0-4.0-2.37","","<div style=""font-size:60px;"">+</div>","null","","","","","","",""
"null","","image-keyboard-response","153","405723","0.0-4.0-0.38","","img/red.png","null","trial","null","true","0.2,0.8","2:nogo_b","",""
"null","","html-keyboard-response","154","406724","0.0-4.0-1.38","","<img src=""img/red-r.png"">","null","trial","null","","0.2,0.8","2:nogo_b","1",""
"null","","html-keyboard-response","155","407725","0.0-4.0-2.38","","<div style=""font-size:60px;"">+</div>","null","","","","","","",""
"772","","image-keyboard-response","156","408498","0.0-4.0-0.39","","img/green.png","32","trial","32","true","0.8,0.2","1:go_a","",""
"null","","html-keyboard-response","157","409500","0.0-4.0-1.39","","<img src=""img/green-r.png"" border=""10"">","null","trial","32","","0.8,0.2","1:go_a","1",""
"null","","html-keyboard-response","158","410500","0.0-4.0-2.39","","<div style=""font-size:60px;"">+</div>","null","","","","","","",""
"null","","image-keyboard-response","159","412002","0.0-4.0-0.40","","img/red.png","null","trial","null","true","0.2,0.8","2:nogo_b","",""
"null","","html-keyboard-response","160","413003","0.0-4.0-1.40","","<img src=""img/red-r.png"">","null","trial","null","","0.2,0.8","2:nogo_b","1",""
"null","","html-keyboard-response","161","414004","0.0-4.0-2.40","","<div style=""font-size:60px;"">+</div>","null","","","","","","",""
"431","","image-keyboard-response","162","414435","0.0-4.0-0.41","","img/green.png","32","trial","32","true","0.8,0.2","1:go_a","",""
"null","","html-keyboard-response","163","415438","0.0-4.0-1.41","","<img src=""img/green-r.png"" border=""10"">","null","trial","32","","0.8,0.2","1:go_a","1",""
"null","","html-keyboard-response","164","416438","0.0-4.0-2.41","","<div style=""font-size:60px;"">+</div>","null","","","","","","",""
"438","","image-keyboard-response","165","416878","0.0-4.0-0.42","","img/green.png","32","trial","32","true","0.8,0.2","1:go_a","",""
"null","","html-keyboard-response","166","417879","0.0-4.0-1.42","","<img src=""img/green-n.png"" border=""10"">","null","trial","32","","0.8,0.2","1:go_a","0",""
"null","","html-keyboard-response","167","418881","0.0-4.0-2.42","","<div style=""font-size:60px;"">+</div>","null","","","","","","",""
"null","","image-keyboard-response","168","420382","0.0-4.0-0.43","","img/red.png","null","trial","null","true","0.2,0.8","2:nogo_b","",""
"null","","html-keyboard-response","169","421386","0.0-4.0-1.43","","<img src=""img/red-r.png"">","null","trial","null","","0.2,0.8","2:nogo_b","1",""
"null","","html-keyboard-response","170","422387","0.0-4.0-2.43","","<div style=""font-size:60px;"">+</div>","null","","","","","","",""
"null","","image-keyboard-response","171","423888","0.0-4.0-0.44","","img/red.png","null","trial","null","true","0.2,0.8","2:nogo_b","",""
"null","","html-keyboard-response","172","424890","0.0-4.0-1.44","","<img src=""img/red-r.png"">","null","trial","null","","0.2,0.8","2:nogo_b","1",""
"null","","html-keyboard-response","173","425890","0.0-4.0-2.44","","<div style=""font-size:60px;"">+</div>","null","","","","","","",""
"338","","image-keyboard-response","174","426230","0.0-4.0-0.45","","img/green.png","32","trial","32","true","0.8,0.2","1:go_a","",""
"null","","html-keyboard-response","175","427231","0.0-4.0-1.45","","<img src=""img/green-r.png"" border=""10"">","null","trial","32","","0.8,0.2","1:go_a","1",""
"null","","html-keyboard-response","176","428233","0.0-4.0-2.45","","<div style=""font-size:60px;"">+</div>","null","","","","","","",""
"null","","image-keyboard-response","177","429734","0.0-4.0-0.46","","img/red.png","null","trial","null","true","0.2,0.8","2:nogo_b","",""
"null","","html-keyboard-response","178","430735","0.0-4.0-1.46","","<img src=""img/red-n.png"">","null","trial","null","","0.2,0.8","2:nogo_b","0",""
"null","","html-keyboard-response","179","431736","0.0-4.0-2.46","","<div style=""font-size:60px;"">+</div>","null","","","","","","",""
"410","","image-keyboard-response","180","432149","0.0-4.0-0.47","","img/green.png","32","trial","32","true","0.8,0.2","1:go_a","",""
"null","","html-keyboard-response","181","433149","0.0-4.0-1.47","","<img src=""img/green-r.png"" border=""10"">","null","trial","32","","0.8,0.2","1:go_a","1",""
"null","","html-keyboard-response","182","434151","0.0-4.0-2.47","","<div style=""font-size:60px;"">+</div>","null","","","","","","",""
"null","","image-keyboard-response","183","435651","0.0-4.0-0.48","","img/red.png","null","trial","null","true","0.2,0.8","2:nogo_b","",""
"null","","html-keyboard-response","184","436653","0.0-4.0-1.48","","<img src=""img/red-r.png"">","null","trial","null","","0.2,0.8","2:nogo_b","1",""
"null","","html-keyboard-response","185","437655","0.0-4.0-2.48","","<div style=""font-size:60px;"">+</div>","null","","","","","","",""
"403","","image-keyboard-response","186","438059","0.0-4.0-0.49","","img/green.png","32","trial","32","true","0.8,0.2","1:go_a","",""
"null","","html-keyboard-response","187","439061","0.0-4.0-1.49","","<img src=""img/green-r.png"" border=""10"">","null","trial","32","","0.8,0.2","1:go_a","1",""
"null","","html-keyboard-response","188","440062","0.0-4.0-2.49","","<div style=""font-size:60px;"">+</div>","null","","","","","","",""
"null","","image-keyboard-response","189","441564","0.0-4.0-0.50","","img/red.png","null","trial","null","true","0.2,0.8","2:nogo_b","",""
"null","","html-keyboard-response","190","442565","0.0-4.0-1.50","","<img src=""img/red-r.png"">","null","trial","null","","0.2,0.8","2:nogo_b","1",""
"null","","html-keyboard-response","191","443566","0.0-4.0-2.50","","<div style=""font-size:60px;"">+</div>","null","","","","","","",""
"403","","image-keyboard-response","192","443971","0.0-4.0-0.51","","img/green.png","32","trial","32","true","0.8,0.2","1:go_a","",""
"null","","html-keyboard-response","193","444974","0.0-4.0-1.51","","<img src=""img/green-r.png"" border=""10"">","null","trial","32","","0.8,0.2","1:go_a","1",""
"null","","html-keyboard-response","194","445977","0.0-4.0-2.51","","<div style=""font-size:60px;"">+</div>","null","","","","","","",""
"null","","image-keyboard-response","195","447478","0.0-4.0-0.52","","img/red.png","null","trial","null","true","0.2,0.8","2:nogo_b","",""
"null","","html-keyboard-response","196","448480","0.0-4.0-1.52","","<img src=""img/red-r.png"">","null","trial","null","","0.2,0.8","2:nogo_b","1",""
"null","","html-keyboard-response","197","449481","0.0-4.0-2.52","","<div style=""font-size:60px;"">+</div>","null","","","","","","",""
"377","","image-keyboard-response","198","449859","0.0-4.0-0.53","","img/green.png","32","trial","32","true","0.8,0.2","1:go_a","",""
"null","","html-keyboard-response","199","450865","0.0-4.0-1.53","","<img src=""img/green-r.png"" border=""10"">","null","trial","32","","0.8,0.2","1:go_a","1",""
"null","","html-keyboard-response","200","451866","0.0-4.0-2.53","","<div style=""font-size:60px;"">+</div>","null","","","","","","",""
"null","","image-keyboard-response","201","453369","0.0-4.0-0.54","","img/red.png","null","trial","null","true","0.2,0.8","2:nogo_b","",""
"null","","html-keyboard-response","202","454371","0.0-4.0-1.54","","<img src=""img/red-r.png"">","null","trial","null","","0.2,0.8","2:nogo_b","1",""
"null","","html-keyboard-response","203","455372","0.0-4.0-2.54","","<div style=""font-size:60px;"">+</div>","null","","","","","","",""
"357","","image-keyboard-response","204","455730","0.0-4.0-0.55","","img/green.png","32","trial","32","true","0.8,0.2","1:go_a","",""
"null","","html-keyboard-response","205","456733","0.0-4.0-1.55","","<img src=""img/green-r.png"" border=""10"">","null","trial","32","","0.8,0.2","1:go_a","1",""
"null","","html-keyboard-response","206","457734","0.0-4.0-2.55","","<div style=""font-size:60px;"">+</div>","null","","","","","","",""
"null","","image-keyboard-response","207","459235","0.0-4.0-0.56","","img/red.png","null","trial","null","true","0.2,0.8","2:nogo_b","",""
"null","","html-keyboard-response","208","460237","0.0-4.0-1.56","","<img src=""img/red-r.png"">","null","trial","null","","0.2,0.8","2:nogo_b","1",""
"null","","html-keyboard-response","209","461239","0.0-4.0-2.56","","<div style=""font-size:60px;"">+</div>","null","","","","","","",""
"375","","image-keyboard-response","210","461615","0.0-4.0-0.57","","img/green.png","32","trial","32","true","0.8,0.2","1:go_a","",""
"null","","html-keyboard-response","211","462617","0.0-4.0-1.57","","<img src=""img/green-r.png"" border=""10"">","null","trial","32","","0.8,0.2","1:go_a","1",""
"null","","html-keyboard-response","212","463618","0.0-4.0-2.57","","<div style=""font-size:60px;"">+</div>","null","","","","","","",""
"472","","image-keyboard-response","213","464091","0.0-4.0-0.58","","img/green.png","32","trial","32","true","0.8,0.2","1:go_a","",""
"null","","html-keyboard-response","214","465093","0.0-4.0-1.58","","<img src=""img/green-n.png"" border=""10"">","null","trial","32","","0.8,0.2","1:go_a","0",""
"null","","html-keyboard-response","215","466094","0.0-4.0-2.58","","<div style=""font-size:60px;"">+</div>","null","","","","","","",""
"null","","image-keyboard-response","216","467596","0.0-4.0-0.59","","img/red.png","null","trial","null","true","0.2,0.8","2:nogo_b","",""
"null","","html-keyboard-response","217","468599","0.0-4.0-1.59","","<img src=""img/red-r.png"">","null","trial","null","","0.2,0.8","2:nogo_b","1",""
"null","","html-keyboard-response","218","469600","0.0-4.0-2.59","","<div style=""font-size:60px;"">+</div>","null","","","","","","",""
"15844","","instructions","219","485444","0.0-5.0","[{""page_index"":0,""viewing_time"":15844}]","","","","","","","","",""
"658","","image-keyboard-response","220","486104","0.0-6.0-0.0","","img/blue.png","32","trial","32","true","0.8,0.2","1:go_a","",""
"null","","html-keyboard-response","221","487105","0.0-6.0-1.0","","<img src=""img/blue-r.png"" border=""10"">","null","trial","32","","0.8,0.2","1:go_a","1",""
"null","","html-keyboard-response","222","488106","0.0-6.0-2.0","","<div style=""font-size:60px;"">+</div>","null","","","","","","",""
"545","","image-keyboard-response","223","488652","0.0-6.0-0.1","","img/yellow.png","32","trial","null","false","0.2,0.8","2:nogo_b","",""
"null","","html-keyboard-response","224","489654","0.0-6.0-1.1","","<img src=""img/yellow-n.png"" border=""10"">","null","trial","null","","0.2,0.8","2:nogo_b","0",""
"null","","html-keyboard-response","225","490654","0.0-6.0-2.1","","<div style=""font-size:60px;"">+</div>","null","","","","","","",""
"null","","image-keyboard-response","226","492155","0.0-6.0-0.2","","img/grey.png","null","trial","null","true","0,1","4:nogo_d","",""
"null","","html-keyboard-response","227","493158","0.0-6.0-1.2","","<img src=""img/grey-r.png"">","null","trial","null","","0,1","4:nogo_d","1",""
"null","","html-keyboard-response","228","494159","0.0-6.0-2.2","","<div style=""font-size:60px;"">+</div>","null","","","","","","",""
"728","","image-keyboard-response","229","494890","0.0-6.0-0.3","","img/purple.png","32","trial","32","true","1,0","3:go_c","",""
"null","","html-keyboard-response","230","495892","0.0-6.0-1.3","","<img src=""img/purple-r.png"" border=""10"">","null","trial","32","","1,0","3:go_c","1",""
"null","","html-keyboard-response","231","496893","0.0-6.0-2.3","","<div style=""font-size:60px;"">+</div>","null","","","","","","",""
"458","","image-keyboard-response","232","497352","0.0-6.0-0.4","","img/purple.png","32","trial","32","true","1,0","3:go_c","",""
"null","","html-keyboard-response","233","498354","0.0-6.0-1.4","","<img src=""img/purple-r.png"" border=""10"">","null","trial","32","","1,0","3:go_c","1",""
"null","","html-keyboard-response","234","499355","0.0-6.0-2.4","","<div style=""font-size:60px;"">+</div>","null","","","","","","",""
"436","","image-keyboard-response","235","499792","0.0-6.0-0.5","","img/blue.png","32","trial","32","true","0.8,0.2","1:go_a","",""
"null","","html-keyboard-response","236","500793","0.0-6.0-1.5","","<img src=""img/blue-r.png"" border=""10"">","null","trial","32","","0.8,0.2","1:go_a","1",""
"null","","html-keyboard-response","237","501797","0.0-6.0-2.5","","<div style=""font-size:60px;"">+</div>","null","","","","","","",""
"null","","image-keyboard-response","238","503299","0.0-6.0-0.6","","img/yellow.png","null","trial","null","true","0.2,0.8","2:nogo_b","",""
"null","","html-keyboard-response","239","504303","0.0-6.0-1.6","","<img src=""img/yellow-n.png"">","null","trial","null","","0.2,0.8","2:nogo_b","0",""
"null","","html-keyboard-response","240","505304","0.0-6.0-2.6","","<div style=""font-size:60px;"">+</div>","null","","","","","","",""
"null","","image-keyboard-response","241","506806","0.0-6.0-0.7","","img/grey.png","null","trial","null","true","0,1","4:nogo_d","",""
"null","","html-keyboard-response","242","507807","0.0-6.0-1.7","","<img src=""img/grey-r.png"">","null","trial","null","","0,1","4:nogo_d","1",""
"null","","html-keyboard-response","243","508808","0.0-6.0-2.7","","<div style=""font-size:60px;"">+</div>","null","","","","","","",""
"413","","image-keyboard-response","244","509223","0.0-6.0-0.8","","img/blue.png","32","trial","32","true","0.8,0.2","1:go_a","",""
"null","","html-keyboard-response","245","510224","0.0-6.0-1.8","","<img src=""img/blue-r.png"" border=""10"">","null","trial","32","","0.8,0.2","1:go_a","1",""
"null","","html-keyboard-response","246","511225","0.0-6.0-2.8","","<div style=""font-size:60px;"">+</div>","null","","","","","","",""
"414","","image-keyboard-response","247","511641","0.0-6.0-0.9","","img/purple.png","32","trial","32","true","1,0","3:go_c","",""
"null","","html-keyboard-response","248","512644","0.0-6.0-1.9","","<img src=""img/purple-r.png"" border=""10"">","null","trial","32","","1,0","3:go_c","1",""
"null","","html-keyboard-response","249","513645","0.0-6.0-2.9","","<div style=""font-size:60px;"">+</div>","null","","","","","","",""
"null","","image-keyboard-response","250","515145","0.0-6.0-0.10","","img/yellow.png","null","trial","null","true","0.2,0.8","2:nogo_b","",""
"null","","html-keyboard-response","251","516147","0.0-6.0-1.10","","<img src=""img/yellow-r.png"">","null","trial","null","","0.2,0.8","2:nogo_b","1",""
"null","","html-keyboard-response","252","517148","0.0-6.0-2.10","","<div style=""font-size:60px;"">+</div>","null","","","","","","",""
"null","","image-keyboard-response","253","518649","0.0-6.0-0.11","","img/grey.png","null","trial","null","true","0,1","4:nogo_d","",""
"null","","html-keyboard-response","254","519651","0.0-6.0-1.11","","<img src=""img/grey-r.png"">","null","trial","null","","0,1","4:nogo_d","1",""
"null","","html-keyboard-response","255","520653","0.0-6.0-2.11","","<div style=""font-size:60px;"">+</div>","null","","","","","","",""
"502","","image-keyboard-response","256","521156","0.0-6.0-0.12","","img/purple.png","32","trial","32","true","1,0","3:go_c","",""
"null","","html-keyboard-response","257","522159","0.0-6.0-1.12","","<img src=""img/purple-r.png"" border=""10"">","null","trial","32","","1,0","3:go_c","1",""
"null","","html-keyboard-response","258","523160","0.0-6.0-2.12","","<div style=""font-size:60px;"">+</div>","null","","","","","","",""
"null","","image-keyboard-response","259","524661","0.0-6.0-0.13","","img/grey.png","null","trial","null","true","0,1","4:nogo_d","",""
"null","","html-keyboard-response","260","525664","0.0-6.0-1.13","","<img src=""img/grey-r.png"">","null","trial","null","","0,1","4:nogo_d","1",""
"null","","html-keyboard-response","261","526665","0.0-6.0-2.13","","<div style=""font-size:60px;"">+</div>","null","","","","","","",""
"415","","image-keyboard-response","262","527082","0.0-6.0-0.14","","img/blue.png","32","trial","32","true","0.8,0.2","1:go_a","",""
"null","","html-keyboard-response","263","528084","0.0-6.0-1.14","","<img src=""img/blue-r.png"" border=""10"">","null","trial","32","","0.8,0.2","1:go_a","1",""
"null","","html-keyboard-response","264","529086","0.0-6.0-2.14","","<div style=""font-size:60px;"">+</div>","null","","","","","","",""
"null","","image-keyboard-response","265","530587","0.0-6.0-0.15","","img/yellow.png","null","trial","null","true","0.2,0.8","2:nogo_b","",""
"null","","html-keyboard-response","266","531590","0.0-6.0-1.15","","<img src=""img/yellow-r.png"">","null","trial","null","","0.2,0.8","2:nogo_b","1",""
"null","","html-keyboard-response","267","532591","0.0-6.0-2.15","","<div style=""font-size:60px;"">+</div>","null","","","","","","",""
"null","","image-keyboard-response","268","534093","0.0-6.0-0.16","","img/grey.png","null","trial","null","true","0,1","4:nogo_d","",""
"null","","html-keyboard-response","269","535096","0.0-6.0-1.16","","<img src=""img/grey-r.png"">","null","trial","null","","0,1","4:nogo_d","1",""
"null","","html-keyboard-response","270","536097","0.0-6.0-2.16","","<div style=""font-size:60px;"">+</div>","null","","","","","","",""
"400","","image-keyboard-response","271","536499","0.0-6.0-0.17","","img/blue.png","32","trial","32","true","0.8,0.2","1:go_a","",""
"null","","html-keyboard-response","272","537500","0.0-6.0-1.17","","<img src=""img/blue-r.png"" border=""10"">","null","trial","32","","0.8,0.2","1:go_a","1",""
"null","","html-keyboard-response","273","538501","0.0-6.0-2.17","","<div style=""font-size:60px;"">+</div>","null","","","","","","",""
"539","","image-keyboard-response","274","539042","0.0-6.0-0.18","","img/purple.png","32","trial","32","true","1,0","3:go_c","",""
"null","","html-keyboard-response","275","540044","0.0-6.0-1.18","","<img src=""img/purple-r.png"" border=""10"">","null","trial","32","","1,0","3:go_c","1",""
"null","","html-keyboard-response","276","541044","0.0-6.0-2.18","","<div style=""font-size:60px;"">+</div>","null","","","","","","",""
"null","","image-keyboard-response","277","542546","0.0-6.0-0.19","","img/yellow.png","null","trial","null","true","0.2,0.8","2:nogo_b","",""
"null","","html-keyboard-response","278","543547","0.0-6.0-1.19","","<img src=""img/yellow-r.png"">","null","trial","null","","0.2,0.8","2:nogo_b","1",""
"null","","html-keyboard-response","279","544550","0.0-6.0-2.19","","<div style=""font-size:60px;"">+</div>","null","","","","","","",""
"null","","image-keyboard-response","280","546050","0.0-6.0-0.20","","img/yellow.png","null","trial","null","true","0.2,0.8","2:nogo_b","",""
"null","","html-keyboard-response","281","547054","0.0-6.0-1.20","","<img src=""img/yellow-n.png"">","null","trial","null","","0.2,0.8","2:nogo_b","0",""
"null","","html-keyboard-response","282","548055","0.0-6.0-2.20","","<div style=""font-size:60px;"">+</div>","null","","","","","","",""
"null","","image-keyboard-response","283","549558","0.0-6.0-0.21","","img/grey.png","null","trial","null","true","0,1","4:nogo_d","",""
"null","","html-keyboard-response","284","550562","0.0-6.0-1.21","","<img src=""img/grey-r.png"">","null","trial","null","","0,1","4:nogo_d","1",""
"null","","html-keyboard-response","285","551566","0.0-6.0-2.21","","<div style=""font-size:60px;"">+</div>","null","","","","","","",""
"387","","image-keyboard-response","286","551955","0.0-6.0-0.22","","img/blue.png","32","trial","32","true","0.8,0.2","1:go_a","",""
"null","","html-keyboard-response","287","552958","0.0-6.0-1.22","","<img src=""img/blue-r.png"" border=""10"">","null","trial","32","","0.8,0.2","1:go_a","1",""
"null","","html-keyboard-response","288","553959","0.0-6.0-2.22","","<div style=""font-size:60px;"">+</div>","null","","","","","","",""
"496","","image-keyboard-response","289","554456","0.0-6.0-0.23","","img/purple.png","32","trial","32","true","1,0","3:go_c","",""
"null","","html-keyboard-response","290","555458","0.0-6.0-1.23","","<img src=""img/purple-r.png"" border=""10"">","null","trial","32","","1,0","3:go_c","1",""
"null","","html-keyboard-response","291","556458","0.0-6.0-2.23","","<div style=""font-size:60px;"">+</div>","null","","","","","","",""
"null","","image-keyboard-response","292","557960","0.0-6.0-0.24","","img/yellow.png","null","trial","null","true","0.2,0.8","2:nogo_b","",""
"null","","html-keyboard-response","293","558962","0.0-6.0-1.24","","<img src=""img/yellow-r.png"">","null","trial","null","","0.2,0.8","2:nogo_b","1",""
"null","","html-keyboard-response","294","559963","0.0-6.0-2.24","","<div style=""font-size:60px;"">+</div>","null","","","","","","",""
"381","","image-keyboard-response","295","560345","0.0-6.0-0.25","","img/purple.png","32","trial","32","true","1,0","3:go_c","",""
"null","","html-keyboard-response","296","561346","0.0-6.0-1.25","","<img src=""img/purple-r.png"" border=""10"">","null","trial","32","","1,0","3:go_c","1",""
"null","","html-keyboard-response","297","562347","0.0-6.0-2.25","","<div style=""font-size:60px;"">+</div>","null","","","","","","",""
"null","","image-keyboard-response","298","563848","0.0-6.0-0.26","","img/grey.png","null","trial","null","true","0,1","4:nogo_d","",""
"null","","html-keyboard-response","299","564850","0.0-6.0-1.26","","<img src=""img/grey-r.png"">","null","trial","null","","0,1","4:nogo_d","1",""
"null","","html-keyboard-response","300","565851","0.0-6.0-2.26","","<div style=""font-size:60px;"">+</div>","null","","","","","","",""
"486","","image-keyboard-response","301","566339","0.0-6.0-0.27","","img/blue.png","32","trial","32","true","0.8,0.2","1:go_a","",""
"null","","html-keyboard-response","302","567340","0.0-6.0-1.27","","<img src=""img/blue-r.png"" border=""10"">","null","trial","32","","0.8,0.2","1:go_a","1",""
"null","","html-keyboard-response","303","568341","0.0-6.0-2.27","","<div style=""font-size:60px;"">+</div>","null","","","","","","",""
"401","","image-keyboard-response","304","568744","0.0-6.0-0.28","","img/blue.png","32","trial","32","true","0.8,0.2","1:go_a","",""
"null","","html-keyboard-response","305","569746","0.0-6.0-1.28","","<img src=""img/blue-r.png"" border=""10"">","null","trial","32","","0.8,0.2","1:go_a","1",""
"null","","html-keyboard-response","306","570747","0.0-6.0-2.28","","<div style=""font-size:60px;"">+</div>","null","","","","","","",""
"459","","image-keyboard-response","307","571208","0.0-6.0-0.29","","img/purple.png","32","trial","32","true","1,0","3:go_c","",""
"null","","html-keyboard-response","308","572210","0.0-6.0-1.29","","<img src=""img/purple-r.png"" border=""10"">","null","trial","32","","1,0","3:go_c","1",""
"null","","html-keyboard-response","309","573211","0.0-6.0-2.29","","<div style=""font-size:60px;"">+</div>","null","","","","","","",""
"null","","image-keyboard-response","310","574712","0.0-6.0-0.30","","img/grey.png","null","trial","null","true","0,1","4:nogo_d","",""
"null","","html-keyboard-response","311","575716","0.0-6.0-1.30","","<img src=""img/grey-r.png"">","null","trial","null","","0,1","4:nogo_d","1",""
"null","","html-keyboard-response","312","576717","0.0-6.0-2.30","","<div style=""font-size:60px;"">+</div>","null","","","","","","",""
"null","","image-keyboard-response","313","578219","0.0-6.0-0.31","","img/yellow.png","null","trial","null","true","0.2,0.8","2:nogo_b","",""
"null","","html-keyboard-response","314","579223","0.0-6.0-1.31","","<img src=""img/yellow-r.png"">","null","trial","null","","0.2,0.8","2:nogo_b","1",""
"null","","html-keyboard-response","315","580223","0.0-6.0-2.31","","<div style=""font-size:60px;"">+</div>","null","","","","","","",""
"null","","image-keyboard-response","316","581725","0.0-6.0-0.32","","img/yellow.png","null","trial","null","true","0.2,0.8","2:nogo_b","",""
"null","","html-keyboard-response","317","582726","0.0-6.0-1.32","","<img src=""img/yellow-n.png"">","null","trial","null","","0.2,0.8","2:nogo_b","0",""
"null","","html-keyboard-response","318","583727","0.0-6.0-2.32","","<div style=""font-size:60px;"">+</div>","null","","","","","","",""
"null","","image-keyboard-response","319","585229","0.0-6.0-0.33","","img/grey.png","null","trial","null","true","0,1","4:nogo_d","",""
"null","","html-keyboard-response","320","586231","0.0-6.0-1.33","","<img src=""img/grey-r.png"">","null","trial","null","","0,1","4:nogo_d","1",""
"null","","html-keyboard-response","321","587232","0.0-6.0-2.33","","<div style=""font-size:60px;"">+</div>","null","","","","","","",""
"510","","image-keyboard-response","322","587744","0.0-6.0-0.34","","img/purple.png","32","trial","32","true","1,0","3:go_c","",""
"null","","html-keyboard-response","323","588746","0.0-6.0-1.34","","<img src=""img/purple-r.png"" border=""10"">","null","trial","32","","1,0","3:go_c","1",""
"null","","html-keyboard-response","324","589747","0.0-6.0-2.34","","<div style=""font-size:60px;"">+</div>","null","","","","","","",""
"531","","image-keyboard-response","325","590281","0.0-6.0-0.35","","img/blue.png","32","trial","32","true","0.8,0.2","1:go_a","",""
"null","","html-keyboard-response","326","591282","0.0-6.0-1.35","","<img src=""img/blue-r.png"" border=""10"">","null","trial","32","","0.8,0.2","1:go_a","1",""
"null","","html-keyboard-response","327","592283","0.0-6.0-2.35","","<div style=""font-size:60px;"">+</div>","null","","","","","","",""
"400","","image-keyboard-response","328","592685","0.0-6.0-0.36","","img/blue.png","32","trial","32","true","0.8,0.2","1:go_a","",""
"null","","html-keyboard-response","329","593686","0.0-6.0-1.36","","<img src=""img/blue-n.png"" border=""10"">","null","trial","32","","0.8,0.2","1:go_a","0",""
"null","","html-keyboard-response","330","594687","0.0-6.0-2.36","","<div style=""font-size:60px;"">+</div>","null","","","","","","",""
"null","","image-keyboard-response","331","596189","0.0-6.0-0.37","","img/yellow.png","null","trial","null","true","0.2,0.8","2:nogo_b","",""
"null","","html-keyboard-response","332","597192","0.0-6.0-1.37","","<img src=""img/yellow-r.png"">","null","trial","null","","0.2,0.8","2:nogo_b","1",""
"null","","html-keyboard-response","333","598192","0.0-6.0-2.37","","<div style=""font-size:60px;"">+</div>","null","","","","","","",""
"439","","image-keyboard-response","334","598633","0.0-6.0-0.38","","img/purple.png","32","trial","32","true","1,0","3:go_c","",""
"null","","html-keyboard-response","335","599636","0.0-6.0-1.38","","<img src=""img/purple-r.png"" border=""10"">","null","trial","32","","1,0","3:go_c","1",""
"null","","html-keyboard-response","336","600639","0.0-6.0-2.38","","<div style=""font-size:60px;"">+</div>","null","","","","","","",""
"null","","image-keyboard-response","337","602140","0.0-6.0-0.39","","img/grey.png","null","trial","null","true","0,1","4:nogo_d","",""
"null","","html-keyboard-response","338","603142","0.0-6.0-1.39","","<img src=""img/grey-r.png"">","null","trial","null","","0,1","4:nogo_d","1",""
"null","","html-keyboard-response","339","604142","0.0-6.0-2.39","","<div style=""font-size:60px;"">+</div>","null","","","","","","",""
"468","","image-keyboard-response","340","604613","0.0-6.0-0.40","","img/purple.png","32","trial","32","true","1,0","3:go_c","",""
"null","","html-keyboard-response","341","605616","0.0-6.0-1.40","","<img src=""img/purple-r.png"" border=""10"">","null","trial","32","","1,0","3:go_c","1",""
"null","","html-keyboard-response","342","606617","0.0-6.0-2.40","","<div style=""font-size:60px;"">+</div>","null","","","","","","",""
"516","","image-keyboard-response","343","607134","0.0-6.0-0.41","","img/blue.png","32","trial","32","true","0.8,0.2","1:go_a","",""
"null","","html-keyboard-response","344","608138","0.0-6.0-1.41","","<img src=""img/blue-n.png"" border=""10"">","null","trial","32","","0.8,0.2","1:go_a","0",""
"null","","html-keyboard-response","345","609138","0.0-6.0-2.41","","<div style=""font-size:60px;"">+</div>","null","","","","","","",""
"null","","image-keyboard-response","346","610640","0.0-6.0-0.42","","img/yellow.png","null","trial","null","true","0.2,0.8","2:nogo_b","",""
"null","","html-keyboard-response","347","611642","0.0-6.0-1.42","","<img src=""img/yellow-r.png"">","null","trial","null","","0.2,0.8","2:nogo_b","1",""
"null","","html-keyboard-response","348","612644","0.0-6.0-2.42","","<div style=""font-size:60px;"">+</div>","null","","","","","","",""
"null","","image-keyboard-response","349","614146","0.0-6.0-0.43","","img/grey.png","null","trial","null","true","0,1","4:nogo_d","",""
"null","","html-keyboard-response","350","615148","0.0-6.0-1.43","","<img src=""img/grey-r.png"">","null","trial","null","","0,1","4:nogo_d","1",""
"null","","html-keyboard-response","351","616149","0.0-6.0-2.43","","<div style=""font-size:60px;"">+</div>","null","","","","","","",""
"430","","image-keyboard-response","352","616581","0.0-6.0-0.44","","img/yellow.png","32","trial","null","false","0.2,0.8","2:nogo_b","",""
"null","","html-keyboard-response","353","617582","0.0-6.0-1.44","","<img src=""img/yellow-n.png"" border=""10"">","null","trial","null","","0.2,0.8","2:nogo_b","0",""
"null","","html-keyboard-response","354","618583","0.0-6.0-2.44","","<div style=""font-size:60px;"">+</div>","null","","","","","","",""
"459","","image-keyboard-response","355","619044","0.0-6.0-0.45","","img/blue.png","32","trial","32","true","0.8,0.2","1:go_a","",""
"null","","html-keyboard-response","356","620045","0.0-6.0-1.45","","<img src=""img/blue-r.png"" border=""10"">","null","trial","32","","0.8,0.2","1:go_a","1",""
"null","","html-keyboard-response","357","621046","0.0-6.0-2.45","","<div style=""font-size:60px;"">+</div>","null","","","","","","",""
"471","","image-keyboard-response","358","621518","0.0-6.0-0.46","","img/purple.png","32","trial","32","true","1,0","3:go_c","",""
"null","","html-keyboard-response","359","622519","0.0-6.0-1.46","","<img src=""img/purple-r.png"" border=""10"">","null","trial","32","","1,0","3:go_c","1",""
"null","","html-keyboard-response","360","623522","0.0-6.0-2.46","","<div style=""font-size:60px;"">+</div>","null","","","","","","",""
"null","","image-keyboard-response","361","625023","0.0-6.0-0.47","","img/grey.png","null","trial","null","true","0,1","4:nogo_d","",""
"null","","html-keyboard-response","362","626024","0.0-6.0-1.47","","<img src=""img/grey-r.png"">","null","trial","null","","0,1","4:nogo_d","1",""
"null","","html-keyboard-response","363","627025","0.0-6.0-2.47","","<div style=""font-size:60px;"">+</div>","null","","","","","","",""
"null","","image-keyboard-response","364","628527","0.0-6.0-0.48","","img/yellow.png","null","trial","null","true","0.2,0.8","2:nogo_b","",""
"null","","html-keyboard-response","365","629528","0.0-6.0-1.48","","<img src=""img/yellow-r.png"">","null","trial","null","","0.2,0.8","2:nogo_b","1",""
"null","","html-keyboard-response","366","630529","0.0-6.0-2.48","","<div style=""font-size:60px;"">+</div>","null","","","","","","",""
"null","","image-keyboard-response","367","632030","0.0-6.0-0.49","","img/grey.png","null","trial","null","true","0,1","4:nogo_d","",""
"null","","html-keyboard-response","368","633033","0.0-6.0-1.49","","<img src=""img/grey-r.png"">","null","trial","null","","0,1","4:nogo_d","1",""
"null","","html-keyboard-response","369","634035","0.0-6.0-2.49","","<div style=""font-size:60px;"">+</div>","null","","","","","","",""
"535","","image-keyboard-response","370","634572","0.0-6.0-0.50","","img/blue.png","32","trial","32","true","0.8,0.2","1:go_a","",""
"null","","html-keyboard-response","371","635573","0.0-6.0-1.50","","<img src=""img/blue-n.png"" border=""10"">","null","trial","32","","0.8,0.2","1:go_a","0",""
"null","","html-keyboard-response","372","636574","0.0-6.0-2.50","","<div style=""font-size:60px;"">+</div>","null","","","","","","",""
"512","","image-keyboard-response","373","637087","0.0-6.0-0.51","","img/purple.png","32","trial","32","true","1,0","3:go_c","",""
"null","","html-keyboard-response","374","638089","0.0-6.0-1.51","","<img src=""img/purple-r.png"" border=""10"">","null","trial","32","","1,0","3:go_c","1",""
"null","","html-keyboard-response","375","639089","0.0-6.0-2.51","","<div style=""font-size:60px;"">+</div>","null","","","","","","",""
"null","","image-keyboard-response","376","640590","0.0-6.0-0.52","","img/yellow.png","null","trial","null","true","0.2,0.8","2:nogo_b","",""
"null","","html-keyboard-response","377","641593","0.0-6.0-1.52","","<img src=""img/yellow-r.png"">","null","trial","null","","0.2,0.8","2:nogo_b","1",""
"null","","html-keyboard-response","378","642594","0.0-6.0-2.52","","<div style=""font-size:60px;"">+</div>","null","","","","","","",""
"null","","image-keyboard-response","379","644095","0.0-6.0-0.53","","img/grey.png","null","trial","null","true","0,1","4:nogo_d","",""
"null","","html-keyboard-response","380","645098","0.0-6.0-1.53","","<img src=""img/grey-r.png"">","null","trial","null","","0,1","4:nogo_d","1",""
"null","","html-keyboard-response","381","646099","0.0-6.0-2.53","","<div style=""font-size:60px;"">+</div>","null","","","","","","",""
"487","","image-keyboard-response","382","646587","0.0-6.0-0.54","","img/blue.png","32","trial","32","true","0.8,0.2","1:go_a","",""
"null","","html-keyboard-response","383","647589","0.0-6.0-1.54","","<img src=""img/blue-r.png"" border=""10"">","null","trial","32","","0.8,0.2","1:go_a","1",""
"null","","html-keyboard-response","384","648591","0.0-6.0-2.54","","<div style=""font-size:60px;"">+</div>","null","","","","","","",""
"555","","image-keyboard-response","385","649147","0.0-6.0-0.55","","img/purple.png","32","trial","32","true","1,0","3:go_c","",""
"null","","html-keyboard-response","386","650148","0.0-6.0-1.55","","<img src=""img/purple-r.png"" border=""10"">","null","trial","32","","1,0","3:go_c","1",""
"null","","html-keyboard-response","387","651150","0.0-6.0-2.55","","<div style=""font-size:60px;"">+</div>","null","","","","","","",""
"null","","image-keyboard-response","388","652651","0.0-6.0-0.56","","img/grey.png","null","trial","null","true","0,1","4:nogo_d","",""
"null","","html-keyboard-response","389","653654","0.0-6.0-1.56","","<img src=""img/grey-r.png"">","null","trial","null","","0,1","4:nogo_d","1",""
"null","","html-keyboard-response","390","654654","0.0-6.0-2.56","","<div style=""font-size:60px;"">+</div>","null","","","","","","",""
"null","","image-keyboard-response","391","656157","0.0-6.0-0.57","","img/yellow.png","null","trial","null","true","0.2,0.8","2:nogo_b","",""
"null","","html-keyboard-response","392","657159","0.0-6.0-1.57","","<img src=""img/yellow-r.png"">","null","trial","null","","0.2,0.8","2:nogo_b","1",""
"null","","html-keyboard-response","393","658162","0.0-6.0-2.57","","<div style=""font-size:60px;"">+</div>","null","","","","","","",""
"446","","image-keyboard-response","394","658609","0.0-6.0-0.58","","img/purple.png","32","trial","32","true","1,0","3:go_c","",""
"null","","html-keyboard-response","395","659611","0.0-6.0-1.58","","<img src=""img/purple-r.png"" border=""10"">","null","trial","32","","1,0","3:go_c","1",""
"null","","html-keyboard-response","396","660611","0.0-6.0-2.58","","<div style=""font-size:60px;"">+</div>","null","","","","","","",""
"591","","image-keyboard-response","397","661204","0.0-6.0-0.59","","img/blue.png","32","trial","32","true","0.8,0.2","1:go_a","",""
"null","","html-keyboard-response","398","662205","0.0-6.0-1.59","","<img src=""img/blue-r.png"" border=""10"">","null","trial","32","","0.8,0.2","1:go_a","1",""
"null","","html-keyboard-response","399","663208","0.0-6.0-2.59","","<div style=""font-size:60px;"">+</div>","null","","","","","","",""
"410","","image-keyboard-response","400","663620","0.0-6.0-0.60","","img/blue.png","32","trial","32","true","0.8,0.2","1:go_a","",""
"null","","html-keyboard-response","401","664621","0.0-6.0-1.60","","<img src=""img/blue-r.png"" border=""10"">","null","trial","32","","0.8,0.2","1:go_a","1",""
"null","","html-keyboard-response","402","665622","0.0-6.0-2.60","","<div style=""font-size:60px;"">+</div>","null","","","","","","",""
"null","","image-keyboard-response","403","667124","0.0-6.0-0.61","","img/grey.png","null","trial","null","true","0,1","4:nogo_d","",""
"null","","html-keyboard-response","404","668125","0.0-6.0-1.61","","<img src=""img/grey-r.png"">","null","trial","null","","0,1","4:nogo_d","1",""
"null","","html-keyboard-response","405","669127","0.0-6.0-2.61","","<div style=""font-size:60px;"">+</div>","null","","","","","","",""
"471","","image-keyboard-response","406","669598","0.0-6.0-0.62","","img/purple.png","32","trial","32","true","1,0","3:go_c","",""
"null","","html-keyboard-response","407","670599","0.0-6.0-1.62","","<img src=""img/purple-r.png"" border=""10"">","null","trial","32","","1,0","3:go_c","1",""
"null","","html-keyboard-response","408","671600","0.0-6.0-2.62","","<div style=""font-size:60px;"">+</div>","null","","","","","","",""
"null","","image-keyboard-response","409","673101","0.0-6.0-0.63","","img/yellow.png","null","trial","null","true","0.2,0.8","2:nogo_b","",""
"null","","html-keyboard-response","410","674104","0.0-6.0-1.63","","<img src=""img/yellow-n.png"">","null","trial","null","","0.2,0.8","2:nogo_b","0",""
"null","","html-keyboard-response","411","675105","0.0-6.0-2.63","","<div style=""font-size:60px;"">+</div>","null","","","","","","",""
"null","","image-keyboard-response","412","676606","0.0-6.0-0.64","","img/yellow.png","null","trial","null","true","0.2,0.8","2:nogo_b","",""
"null","","html-keyboard-response","413","677608","0.0-6.0-1.64","","<img src=""img/yellow-n.png"">","null","trial","null","","0.2,0.8","2:nogo_b","0",""
"null","","html-keyboard-response","414","678609","0.0-6.0-2.64","","<div style=""font-size:60px;"">+</div>","null","","","","","","",""
"null","","image-keyboard-response","415","680111","0.0-6.0-0.65","","img/grey.png","null","trial","null","true","0,1","4:nogo_d","",""
"null","","html-keyboard-response","416","681113","0.0-6.0-1.65","","<img src=""img/grey-r.png"">","null","trial","null","","0,1","4:nogo_d","1",""
"null","","html-keyboard-response","417","682114","0.0-6.0-2.65","","<div style=""font-size:60px;"">+</div>","null","","","","","","",""
"503","","image-keyboard-response","418","682618","0.0-6.0-0.66","","img/blue.png","32","trial","32","true","0.8,0.2","1:go_a","",""
"null","","html-keyboard-response","419","683620","0.0-6.0-1.66","","<img src=""img/blue-r.png"" border=""10"">","null","trial","32","","0.8,0.2","1:go_a","1",""
"null","","html-keyboard-response","420","684620","0.0-6.0-2.66","","<div style=""font-size:60px;"">+</div>","null","","","","","","",""
"432","","image-keyboard-response","421","685053","0.0-6.0-0.67","","img/purple.png","32","trial","32","true","1,0","3:go_c","",""
"null","","html-keyboard-response","422","686055","0.0-6.0-1.67","","<img src=""img/purple-r.png"" border=""10"">","null","trial","32","","1,0","3:go_c","1",""
"null","","html-keyboard-response","423","687058","0.0-6.0-2.67","","<div style=""font-size:60px;"">+</div>","null","","","","","","",""
"452","","image-keyboard-response","424","687513","0.0-6.0-0.68","","img/blue.png","32","trial","32","true","0.8,0.2","1:go_a","",""
"null","","html-keyboard-response","425","688513","0.0-6.0-1.68","","<img src=""img/blue-n.png"" border=""10"">","null","trial","32","","0.8,0.2","1:go_a","0",""
"null","","html-keyboard-response","426","689515","0.0-6.0-2.68","","<div style=""font-size:60px;"">+</div>","null","","","","","","",""
"null","","image-keyboard-response","427","691016","0.0-6.0-0.69","","img/yellow.png","null","trial","null","true","0.2,0.8","2:nogo_b","",""
"null","","html-keyboard-response","428","692018","0.0-6.0-1.69","","<img src=""img/yellow-r.png"">","null","trial","null","","0.2,0.8","2:nogo_b","1",""
"null","","html-keyboard-response","429","693020","0.0-6.0-2.69","","<div style=""font-size:60px;"">+</div>","null","","","","","","",""
"null","","image-keyboard-response","430","694521","0.0-6.0-0.70","","img/grey.png","null","trial","null","true","0,1","4:nogo_d","",""
"null","","html-keyboard-response","431","695522","0.0-6.0-1.70","","<img src=""img/grey-r.png"">","null","trial","null","","0,1","4:nogo_d","1",""
"null","","html-keyboard-response","432","696524","0.0-6.0-2.70","","<div style=""font-size:60px;"">+</div>","null","","","","","","",""
"459","","image-keyboard-response","433","696984","0.0-6.0-0.71","","img/purple.png","32","trial","32","true","1,0","3:go_c","",""
"null","","html-keyboard-response","434","697986","0.0-6.0-1.71","","<img src=""img/purple-r.png"" border=""10"">","null","trial","32","","1,0","3:go_c","1",""
"null","","html-keyboard-response","435","698987","0.0-6.0-2.71","","<div style=""font-size:60px;"">+</div>","null","","","","","","",""
"null","","image-keyboard-response","436","700488","0.0-6.0-0.72","","img/yellow.png","null","trial","null","true","0.2,0.8","2:nogo_b","",""
"null","","html-keyboard-response","437","701490","0.0-6.0-1.72","","<img src=""img/yellow-n.png"">","null","trial","null","","0.2,0.8","2:nogo_b","0",""
"null","","html-keyboard-response","438","702491","0.0-6.0-2.72","","<div style=""font-size:60px;"">+</div>","null","","","","","","",""
"null","","image-keyboard-response","439","703993","0.0-6.0-0.73","","img/grey.png","null","trial","null","true","0,1","4:nogo_d","",""
"null","","html-keyboard-response","440","704995","0.0-6.0-1.73","","<img src=""img/grey-r.png"">","null","trial","null","","0,1","4:nogo_d","1",""
"null","","html-keyboard-response","441","705997","0.0-6.0-2.73","","<div style=""font-size:60px;"">+</div>","null","","","","","","",""
"449","","image-keyboard-response","442","706447","0.0-6.0-0.74","","img/purple.png","32","trial","32","true","1,0","3:go_c","",""
"null","","html-keyboard-response","443","707450","0.0-6.0-1.74","","<img src=""img/purple-r.png"" border=""10"">","null","trial","32","","1,0","3:go_c","1",""
"null","","html-keyboard-response","444","708451","0.0-6.0-2.74","","<div style=""font-size:60px;"">+</div>","null","","","","","","",""
"455","","image-keyboard-response","445","708907","0.0-6.0-0.75","","img/blue.png","32","trial","32","true","0.8,0.2","1:go_a","",""
"null","","html-keyboard-response","446","709909","0.0-6.0-1.75","","<img src=""img/blue-r.png"" border=""10"">","null","trial","32","","0.8,0.2","1:go_a","1",""
"null","","html-keyboard-response","447","710910","0.0-6.0-2.75","","<div style=""font-size:60px;"">+</div>","null","","","","","","",""
"null","","image-keyboard-response","448","712411","0.0-6.0-0.76","","img/yellow.png","null","trial","null","true","0.2,0.8","2:nogo_b","",""
"null","","html-keyboard-response","449","713414","0.0-6.0-1.76","","<img src=""img/yellow-r.png"">","null","trial","null","","0.2,0.8","2:nogo_b","1",""
"null","","html-keyboard-response","450","714416","0.0-6.0-2.76","","<div style=""font-size:60px;"">+</div>","null","","","","","","",""
"431","","image-keyboard-response","451","714850","0.0-6.0-0.77","","img/purple.png","32","trial","32","true","1,0","3:go_c","",""
"null","","html-keyboard-response","452","715852","0.0-6.0-1.77","","<img src=""img/purple-r.png"" border=""10"">","null","trial","32","","1,0","3:go_c","1",""
"null","","html-keyboard-response","453","716853","0.0-6.0-2.77","","<div style=""font-size:60px;"">+</div>","null","","","","","","",""
"null","","image-keyboard-response","454","718354","0.0-6.0-0.78","","img/grey.png","null","trial","null","true","0,1","4:nogo_d","",""
"null","","html-keyboard-response","455","719356","0.0-6.0-1.78","","<img src=""img/grey-r.png"">","null","trial","null","","0,1","4:nogo_d","1",""
"null","","html-keyboard-response","456","720358","0.0-6.0-2.78","","<div style=""font-size:60px;"">+</div>","null","","","","","","",""
"367","","image-keyboard-response","457","720725","0.0-6.0-0.79","","img/blue.png","32","trial","32","true","0.8,0.2","1:go_a","",""
"null","","html-keyboard-response","458","721727","0.0-6.0-1.79","","<img src=""img/blue-n.png"" border=""10"">","null","trial","32","","0.8,0.2","1:go_a","0",""
"null","","html-keyboard-response","459","722730","0.0-6.0-2.79","","<div style=""font-size:60px;"">+</div>","null","","","","","","",""
"628","","image-keyboard-response","460","723360","0.0-6.0-0.80","","img/purple.png","32","trial","32","true","1,0","3:go_c","",""
"null","","html-keyboard-response","461","724361","0.0-6.0-1.80","","<img src=""img/purple-r.png"" border=""10"">","null","trial","32","","1,0","3:go_c","1",""
"null","","html-keyboard-response","462","725364","0.0-6.0-2.80","","<div style=""font-size:60px;"">+</div>","null","","","","","","",""
"null","","image-keyboard-response","463","726864","0.0-6.0-0.81","","img/grey.png","null","trial","null","true","0,1","4:nogo_d","",""
"null","","html-keyboard-response","464","727867","0.0-6.0-1.81","","<img src=""img/grey-r.png"">","null","trial","null","","0,1","4:nogo_d","1",""
"null","","html-keyboard-response","465","728868","0.0-6.0-2.81","","<div style=""font-size:60px;"">+</div>","null","","","","","","",""
"392","","image-keyboard-response","466","729262","0.0-6.0-0.82","","img/blue.png","32","trial","32","true","0.8,0.2","1:go_a","",""
"null","","html-keyboard-response","467","730264","0.0-6.0-1.82","","<img src=""img/blue-r.png"" border=""10"">","null","trial","32","","0.8,0.2","1:go_a","1",""
"null","","html-keyboard-response","468","731267","0.0-6.0-2.82","","<div style=""font-size:60px;"">+</div>","null","","","","","","",""
"null","","image-keyboard-response","469","732768","0.0-6.0-0.83","","img/yellow.png","null","trial","null","true","0.2,0.8","2:nogo_b","",""
"null","","html-keyboard-response","470","733769","0.0-6.0-1.83","","<img src=""img/yellow-n.png"">","null","trial","null","","0.2,0.8","2:nogo_b","0",""
"null","","html-keyboard-response","471","734771","0.0-6.0-2.83","","<div style=""font-size:60px;"">+</div>","null","","","","","","",""
"null","","image-keyboard-response","472","736273","0.0-6.0-0.84","","img/grey.png","null","trial","null","true","0,1","4:nogo_d","",""
"null","","html-keyboard-response","473","737276","0.0-6.0-1.84","","<img src=""img/grey-r.png"">","null","trial","null","","0,1","4:nogo_d","1",""
"null","","html-keyboard-response","474","738277","0.0-6.0-2.84","","<div style=""font-size:60px;"">+</div>","null","","","","","","",""
"485","","image-keyboard-response","475","738763","0.0-6.0-0.85","","img/purple.png","32","trial","32","true","1,0","3:go_c","",""
"null","","html-keyboard-response","476","739765","0.0-6.0-1.85","","<img src=""img/purple-r.png"" border=""10"">","null","trial","32","","1,0","3:go_c","1",""
"null","","html-keyboard-response","477","740765","0.0-6.0-2.85","","<div style=""font-size:60px;"">+</div>","null","","","","","","",""
"466","","image-keyboard-response","478","741233","0.0-6.0-0.86","","img/blue.png","32","trial","32","true","0.8,0.2","1:go_a","",""
"null","","html-keyboard-response","479","742234","0.0-6.0-1.86","","<img src=""img/blue-r.png"" border=""10"">","null","trial","32","","0.8,0.2","1:go_a","1",""
"null","","html-keyboard-response","480","743235","0.0-6.0-2.86","","<div style=""font-size:60px;"">+</div>","null","","","","","","",""
"null","","image-keyboard-response","481","744737","0.0-6.0-0.87","","img/yellow.png","null","trial","null","true","0.2,0.8","2:nogo_b","",""
"null","","html-keyboard-response","482","745739","0.0-6.0-1.87","","<img src=""img/yellow-r.png"">","null","trial","null","","0.2,0.8","2:nogo_b","1",""
"null","","html-keyboard-response","483","746741","0.0-6.0-2.87","","<div style=""font-size:60px;"">+</div>","null","","","","","","",""
"415","","image-keyboard-response","484","747157","0.0-6.0-0.88","","img/blue.png","32","trial","32","true","0.8,0.2","1:go_a","",""
"null","","html-keyboard-response","485","748161","0.0-6.0-1.88","","<img src=""img/blue-r.png"" border=""10"">","null","trial","32","","0.8,0.2","1:go_a","1",""
"null","","html-keyboard-response","486","749162","0.0-6.0-2.88","","<div style=""font-size:60px;"">+</div>","null","","","","","","",""
"440","","image-keyboard-response","487","749602","0.0-6.0-0.89","","img/purple.png","32","trial","32","true","1,0","3:go_c","",""
"null","","html-keyboard-response","488","750603","0.0-6.0-1.89","","<img src=""img/purple-r.png"" border=""10"">","null","trial","32","","1,0","3:go_c","1",""
"null","","html-keyboard-response","489","751604","0.0-6.0-2.89","","<div style=""font-size:60px;"">+</div>","null","","","","","","",""
"null","","image-keyboard-response","490","753106","0.0-6.0-0.90","","img/yellow.png","null","trial","null","true","0.2,0.8","2:nogo_b","",""
"null","","html-keyboard-response","491","754107","0.0-6.0-1.90","","<img src=""img/yellow-n.png"">","null","trial","null","","0.2,0.8","2:nogo_b","0",""
"null","","html-keyboard-response","492","755109","0.0-6.0-2.90","","<div style=""font-size:60px;"">+</div>","null","","","","","","",""
"null","","image-keyboard-response","493","756610","0.0-6.0-0.91","","img/grey.png","null","trial","null","true","0,1","4:nogo_d","",""
"null","","html-keyboard-response","494","757612","0.0-6.0-1.91","","<img src=""img/grey-r.png"">","null","trial","null","","0,1","4:nogo_d","1",""
"null","","html-keyboard-response","495","758613","0.0-6.0-2.91","","<div style=""font-size:60px;"">+</div>","null","","","","","","",""
"474","","image-keyboard-response","496","759088","0.0-6.0-0.92","","img/blue.png","32","trial","32","true","0.8,0.2","1:go_a","",""
"null","","html-keyboard-response","497","760091","0.0-6.0-1.92","","<img src=""img/blue-n.png"" border=""10"">","null","trial","32","","0.8,0.2","1:go_a","0",""
"null","","html-keyboard-response","498","761091","0.0-6.0-2.92","","<div style=""font-size:60px;"">+</div>","null","","","","","","",""
"null","","image-keyboard-response","499","762593","0.0-6.0-0.93","","img/grey.png","null","trial","null","true","0,1","4:nogo_d","",""
"null","","html-keyboard-response","500","763595","0.0-6.0-1.93","","<img src=""img/grey-r.png"">","null","trial","null","","0,1","4:nogo_d","1",""
"null","","html-keyboard-response","501","764597","0.0-6.0-2.93","","<div style=""font-size:60px;"">+</div>","null","","","","","","",""
"471","","image-keyboard-response","502","765070","0.0-6.0-0.94","","img/purple.png","32","trial","32","true","1,0","3:go_c","",""
"null","","html-keyboard-response","503","766072","0.0-6.0-1.94","","<img src=""img/purple-r.png"" border=""10"">","null","trial","32","","1,0","3:go_c","1",""
"null","","html-keyboard-response","504","767074","0.0-6.0-2.94","","<div style=""font-size:60px;"">+</div>","null","","","","","","",""
"null","","image-keyboard-response","505","768575","0.0-6.0-0.95","","img/yellow.png","null","trial","null","true","0.2,0.8","2:nogo_b","",""
"null","","html-keyboard-response","506","769577","0.0-6.0-1.95","","<img src=""img/yellow-r.png"">","null","trial","null","","0.2,0.8","2:nogo_b","1",""
"null","","html-keyboard-response","507","770578","0.0-6.0-2.95","","<div style=""font-size:60px;"">+</div>","null","","","","","","",""
"458","","image-keyboard-response","508","771036","0.0-6.0-0.96","","img/blue.png","32","trial","32","true","0.8,0.2","1:go_a","",""
"null","","html-keyboard-response","509","772038","0.0-6.0-1.96","","<img src=""img/blue-r.png"" border=""10"">","null","trial","32","","0.8,0.2","1:go_a","1",""
"null","","html-keyboard-response","510","773040","0.0-6.0-2.96","","<div style=""font-size:60px;"">+</div>","null","","","","","","",""
"null","","image-keyboard-response","511","774542","0.0-6.0-0.97","","img/yellow.png","null","trial","null","true","0.2,0.8","2:nogo_b","",""
"null","","html-keyboard-response","512","775543","0.0-6.0-1.97","","<img src=""img/yellow-n.png"">","null","trial","null","","0.2,0.8","2:nogo_b","0",""
"null","","html-keyboard-response","513","776545","0.0-6.0-2.97","","<div style=""font-size:60px;"">+</div>","null","","","","","","",""
"null","","image-keyboard-response","514","778047","0.0-6.0-0.98","","img/grey.png","null","trial","null","true","0,1","4:nogo_d","",""
"null","","html-keyboard-response","515","779050","0.0-6.0-1.98","","<img src=""img/grey-r.png"">","null","trial","null","","0,1","4:nogo_d","1",""
"null","","html-keyboard-response","516","780051","0.0-6.0-2.98","","<div style=""font-size:60px;"">+</div>","null","","","","","","",""
"470","","image-keyboard-response","517","780524","0.0-6.0-0.99","","img/purple.png","32","trial","32","true","1,0","3:go_c","",""
"null","","html-keyboard-response","518","781525","0.0-6.0-1.99","","<img src=""img/purple-r.png"" border=""10"">","null","trial","32","","1,0","3:go_c","1",""
"null","","html-keyboard-response","519","782526","0.0-6.0-2.99","","<div style=""font-size:60px;"">+</div>","null","","","","","","",""
"null","","image-keyboard-response","520","784028","0.0-6.0-0.100","","img/yellow.png","null","trial","null","true","0.2,0.8","2:nogo_b","",""
"null","","html-keyboard-response","521","785030","0.0-6.0-1.100","","<img src=""img/yellow-n.png"">","null","trial","null","","0.2,0.8","2:nogo_b","0",""
"null","","html-keyboard-response","522","786031","0.0-6.0-2.100","","<div style=""font-size:60px;"">+</div>","null","","","","","","",""
"445","","image-keyboard-response","523","786477","0.0-6.0-0.101","","img/blue.png","32","trial","32","true","0.8,0.2","1:go_a","",""
"null","","html-keyboard-response","524","787479","0.0-6.0-1.101","","<img src=""img/blue-r.png"" border=""10"">","null","trial","32","","0.8,0.2","1:go_a","1",""
"null","","html-keyboard-response","525","788480","0.0-6.0-2.101","","<div style=""font-size:60px;"">+</div>","null","","","","","","",""
"586","","image-keyboard-response","526","789066","0.0-6.0-0.102","","img/purple.png","32","trial","32","true","1,0","3:go_c","",""
"null","","html-keyboard-response","527","790070","0.0-6.0-1.102","","<img src=""img/purple-r.png"" border=""10"">","null","trial","32","","1,0","3:go_c","1",""
"null","","html-keyboard-response","528","791071","0.0-6.0-2.102","","<div style=""font-size:60px;"">+</div>","null","","","","","","",""
"null","","image-keyboard-response","529","792573","0.0-6.0-0.103","","img/grey.png","null","trial","null","true","0,1","4:nogo_d","",""
"null","","html-keyboard-response","530","793576","0.0-6.0-1.103","","<img src=""img/grey-r.png"">","null","trial","null","","0,1","4:nogo_d","1",""
"null","","html-keyboard-response","531","794577","0.0-6.0-2.103","","<div style=""font-size:60px;"">+</div>","null","","","","","","",""
"410","","image-keyboard-response","532","794989","0.0-6.0-0.104","","img/blue.png","32","trial","32","true","0.8,0.2","1:go_a","",""
"null","","html-keyboard-response","533","795992","0.0-6.0-1.104","","<img src=""img/blue-n.png"" border=""10"">","null","trial","32","","0.8,0.2","1:go_a","0",""
"null","","html-keyboard-response","534","796993","0.0-6.0-2.104","","<div style=""font-size:60px;"">+</div>","null","","","","","","",""
"498","","image-keyboard-response","535","797493","0.0-6.0-0.105","","img/purple.png","32","trial","32","true","1,0","3:go_c","",""
"null","","html-keyboard-response","536","798495","0.0-6.0-1.105","","<img src=""img/purple-r.png"" border=""10"">","null","trial","32","","1,0","3:go_c","1",""
"null","","html-keyboard-response","537","799497","0.0-6.0-2.105","","<div style=""font-size:60px;"">+</div>","null","","","","","","",""
"null","","image-keyboard-response","538","800998","0.0-6.0-0.106","","img/yellow.png","null","trial","null","true","0.2,0.8","2:nogo_b","",""
"null","","html-keyboard-response","539","802001","0.0-6.0-1.106","","<img src=""img/yellow-r.png"">","null","trial","null","","0.2,0.8","2:nogo_b","1",""
"null","","html-keyboard-response","540","803002","0.0-6.0-2.106","","<div style=""font-size:60px;"">+</div>","null","","","","","","",""
"null","","image-keyboard-response","541","804503","0.0-6.0-0.107","","img/grey.png","null","trial","null","true","0,1","4:nogo_d","",""
"null","","html-keyboard-response","542","805505","0.0-6.0-1.107","","<img src=""img/grey-r.png"">","null","trial","null","","0,1","4:nogo_d","1",""
"null","","html-keyboard-response","543","806506","0.0-6.0-2.107","","<div style=""font-size:60px;"">+</div>","null","","","","","","",""
"null","","image-keyboard-response","544","808007","0.0-6.0-0.108","","img/grey.png","null","trial","null","true","0,1","4:nogo_d","",""
"null","","html-keyboard-response","545","809010","0.0-6.0-1.108","","<img src=""img/grey-r.png"">","null","trial","null","","0,1","4:nogo_d","1",""
"null","","html-keyboard-response","546","810010","0.0-6.0-2.108","","<div style=""font-size:60px;"">+</div>","null","","","","","","",""
"null","","image-keyboard-response","547","811512","0.0-6.0-0.109","","img/yellow.png","null","trial","null","true","0.2,0.8","2:nogo_b","",""
"null","","html-keyboard-response","548","812515","0.0-6.0-1.109","","<img src=""img/yellow-r.png"">","null","trial","null","","0.2,0.8","2:nogo_b","1",""
"null","","html-keyboard-response","549","813517","0.0-6.0-2.109","","<div style=""font-size:60px;"">+</div>","null","","","","","","",""
"440","","image-keyboard-response","550","813958","0.0-6.0-0.110","","img/blue.png","32","trial","32","true","0.8,0.2","1:go_a","",""
"null","","html-keyboard-response","551","814960","0.0-6.0-1.110","","<img src=""img/blue-r.png"" border=""10"">","null","trial","32","","0.8,0.2","1:go_a","1",""
"null","","html-keyboard-response","552","815962","0.0-6.0-2.110","","<div style=""font-size:60px;"">+</div>","null","","","","","","",""
"447","","image-keyboard-response","553","816410","0.0-6.0-0.111","","img/purple.png","32","trial","32","true","1,0","3:go_c","",""
"null","","html-keyboard-response","554","817411","0.0-6.0-1.111","","<img src=""img/purple-r.png"" border=""10"">","null","trial","32","","1,0","3:go_c","1",""
"null","","html-keyboard-response","555","818413","0.0-6.0-2.111","","<div style=""font-size:60px;"">+</div>","null","","","","","","",""
"null","","image-keyboard-response","556","819915","0.0-6.0-0.112","","img/yellow.png","null","trial","null","true","0.2,0.8","2:nogo_b","",""
"null","","html-keyboard-response","557","820917","0.0-6.0-1.112","","<img src=""img/yellow-r.png"">","null","trial","null","","0.2,0.8","2:nogo_b","1",""
"null","","html-keyboard-response","558","821918","0.0-6.0-2.112","","<div style=""font-size:60px;"">+</div>","null","","","","","","",""
"null","","image-keyboard-response","559","823420","0.0-6.0-0.113","","img/grey.png","null","trial","null","true","0,1","4:nogo_d","",""
"null","","html-keyboard-response","560","824421","0.0-6.0-1.113","","<img src=""img/grey-r.png"">","null","trial","null","","0,1","4:nogo_d","1",""
"null","","html-keyboard-response","561","825422","0.0-6.0-2.113","","<div style=""font-size:60px;"">+</div>","null","","","","","","",""
"439","","image-keyboard-response","562","825862","0.0-6.0-0.114","","img/purple.png","32","trial","32","true","1,0","3:go_c","",""
"null","","html-keyboard-response","563","826864","0.0-6.0-1.114","","<img src=""img/purple-r.png"" border=""10"">","null","trial","32","","1,0","3:go_c","1",""
"null","","html-keyboard-response","564","827865","0.0-6.0-2.114","","<div style=""font-size:60px;"">+</div>","null","","","","","","",""
"532","","image-keyboard-response","565","828398","0.0-6.0-0.115","","img/blue.png","32","trial","32","true","0.8,0.2","1:go_a","",""
"null","","html-keyboard-response","566","829400","0.0-6.0-1.115","","<img src=""img/blue-r.png"" border=""10"">","null","trial","32","","0.8,0.2","1:go_a","1",""
"null","","html-keyboard-response","567","830403","0.0-6.0-2.115","","<div style=""font-size:60px;"">+</div>","null","","","","","","",""
"434","","image-keyboard-response","568","830838","0.0-6.0-0.116","","img/purple.png","32","trial","32","true","1,0","3:go_c","",""
"null","","html-keyboard-response","569","831839","0.0-6.0-1.116","","<img src=""img/purple-r.png"" border=""10"">","null","trial","32","","1,0","3:go_c","1",""
"null","","html-keyboard-response","570","832841","0.0-6.0-2.116","","<div style=""font-size:60px;"">+</div>","null","","","","","","",""
"null","","image-keyboard-response","571","834342","0.0-6.0-0.117","","img/yellow.png","null","trial","null","true","0.2,0.8","2:nogo_b","",""
"null","","html-keyboard-response","572","835343","0.0-6.0-1.117","","<img src=""img/yellow-r.png"">","null","trial","null","","0.2,0.8","2:nogo_b","1",""
"null","","html-keyboard-response","573","836344","0.0-6.0-2.117","","<div style=""font-size:60px;"">+</div>","null","","","","","","",""
"null","","image-keyboard-response","574","837846","0.0-6.0-0.118","","img/grey.png","null","trial","null","true","0,1","4:nogo_d","",""
"null","","html-keyboard-response","575","838848","0.0-6.0-1.118","","<img src=""img/grey-r.png"">","null","trial","null","","0,1","4:nogo_d","1",""
"null","","html-keyboard-response","576","839849","0.0-6.0-2.118","","<div style=""font-size:60px;"">+</div>","null","","","","","","",""
"415","","image-keyboard-response","577","840264","0.0-6.0-0.119","","img/blue.png","32","trial","32","true","0.8,0.2","1:go_a","",""
"null","","html-keyboard-response","578","841267","0.0-6.0-1.119","","<img src=""img/blue-r.png"" border=""10"">","null","trial","32","","0.8,0.2","1:go_a","1",""
"null","","html-keyboard-response","579","842269","0.0-6.0-2.119","","<div style=""font-size:60px;"">+</div>","null","","","","","","",""
"9554","","instructions","580","851824","0.0-7.0","[{""page_index"":0,""viewing_time"":9554}]","","","","","","","","",""
"457","","image-keyboard-response","581","852283","0.0-8.0-0.0","","img/orange.png","32","trial","null","false","0.4,0.6","4:nogo_d","",""
"null","","html-keyboard-response","582","853284","0.0-8.0-1.0","","<img src=""img/orange-r.png"" border=""10"">","null","trial","null","","0.4,0.6","4:nogo_d","1",""
"null","","html-keyboard-response","583","854285","0.0-8.0-2.0","","<div style=""font-size:60px;"">+</div>","null","","","","","","",""
"419","","image-keyboard-response","584","854707","0.0-8.0-0.1","","img/green.png","32","trial","32","true","0.6,0.4","1:go_a","",""
"null","","html-keyboard-response","585","855709","0.0-8.0-1.1","","<img src=""img/green-r.png"" border=""10"">","null","trial","32","","0.6,0.4","1:go_a","1",""
"null","","html-keyboard-response","586","856710","0.0-8.0-2.1","","<div style=""font-size:60px;"">+</div>","null","","","","","","",""
"null","","image-keyboard-response","587","858211","0.0-8.0-0.2","","img/red.png","null","trial","null","true","0.4,0.6","2:nogo_b","",""
"null","","html-keyboard-response","588","859212","0.0-8.0-1.2","","<img src=""img/red-r.png"">","null","trial","null","","0.4,0.6","2:nogo_b","1",""
"null","","html-keyboard-response","589","860213","0.0-8.0-2.2","","<div style=""font-size:60px;"">+</div>","null","","","","","","",""
"null","","image-keyboard-response","590","861715","0.0-8.0-0.3","","img/blue.png","null","trial","32","false","0.6,0.4","3:go_c","",""
"null","","html-keyboard-response","591","862717","0.0-8.0-1.3","","<img src=""img/blue-r.png"">","null","trial","32","","0.6,0.4","3:go_c","1",""
"null","","html-keyboard-response","592","863718","0.0-8.0-2.3","","<div style=""font-size:60px;"">+</div>","null","","","","","","",""
"508","","image-keyboard-response","593","864228","0.0-8.0-0.4","","img/orange.png","32","trial","null","false","0.4,0.6","4:nogo_d","",""
"null","","html-keyboard-response","594","865230","0.0-8.0-1.4","","<img src=""img/orange-n.png"" border=""10"">","null","trial","null","","0.4,0.6","4:nogo_d","0",""
"null","","html-keyboard-response","595","866231","0.0-8.0-2.4","","<div style=""font-size:60px;"">+</div>","null","","","","","","",""
"null","","image-keyboard-response","596","867734","0.0-8.0-0.5","","img/red.png","null","trial","null","true","0.4,0.6","2:nogo_b","",""
"null","","html-keyboard-response","597","868736","0.0-8.0-1.5","","<img src=""img/red-r.png"">","null","trial","null","","0.4,0.6","2:nogo_b","1",""
"null","","html-keyboard-response","598","869737","0.0-8.0-2.5","","<div style=""font-size:60px;"">+</div>","null","","","","","","",""
"452","","image-keyboard-response","599","870192","0.0-8.0-0.6","","img/green.png","32","trial","32","true","0.6,0.4","1:go_a","",""
"null","","html-keyboard-response","600","871193","0.0-8.0-1.6","","<img src=""img/green-n.png"" border=""10"">","null","trial","32","","0.6,0.4","1:go_a","0",""
"null","","html-keyboard-response","601","872194","0.0-8.0-2.6","","<div style=""font-size:60px;"">+</div>","null","","","","","","",""
"null","","image-keyboard-response","602","873696","0.0-8.0-0.7","","img/blue.png","null","trial","32","false","0.6,0.4","3:go_c","",""
"null","","html-keyboard-response","603","874697","0.0-8.0-1.7","","<img src=""img/blue-n.png"">","null","trial","32","","0.6,0.4","3:go_c","0",""
"null","","html-keyboard-response","604","875699","0.0-8.0-2.7","","<div style=""font-size:60px;"">+</div>","null","","","","","","",""
"null","","image-keyboard-response","605","877200","0.0-8.0-0.8","","img/red.png","null","trial","null","true","0.4,0.6","2:nogo_b","",""
"null","","html-keyboard-response","606","878201","0.0-8.0-1.8","","<img src=""img/red-n.png"">","null","trial","null","","0.4,0.6","2:nogo_b","0",""
"null","","html-keyboard-response","607","879203","0.0-8.0-2.8","","<div style=""font-size:60px;"">+</div>","null","","","","","","",""
"null","","image-keyboard-response","608","880705","0.0-8.0-0.9","","img/green.png","null","trial","32","false","0.6,0.4","1:go_a","",""
"null","","html-keyboard-response","609","881707","0.0-8.0-1.9","","<img src=""img/green-n.png"">","null","trial","32","","0.6,0.4","1:go_a","0",""
"null","","html-keyboard-response","610","882708","0.0-8.0-2.9","","<div style=""font-size:60px;"">+</div>","null","","","","","","",""
"null","","image-keyboard-response","611","884209","0.0-8.0-0.10","","img/blue.png","null","trial","32","false","0.6,0.4","3:go_c","",""
"null","","html-keyboard-response","612","885211","0.0-8.0-1.10","","<img src=""img/blue-n.png"">","null","trial","32","","0.6,0.4","3:go_c","0",""
"null","","html-keyboard-response","613","886212","0.0-8.0-2.10","","<div style=""font-size:60px;"">+</div>","null","","","","","","",""
"null","","image-keyboard-response","614","887715","0.0-8.0-0.11","","img/orange.png","null","trial","null","true","0.4,0.6","4:nogo_d","",""
"null","","html-keyboard-response","615","888717","0.0-8.0-1.11","","<img src=""img/orange-r.png"">","null","trial","null","","0.4,0.6","4:nogo_d","1",""
"null","","html-keyboard-response","616","889719","0.0-8.0-2.11","","<div style=""font-size:60px;"">+</div>","null","","","","","","",""
"null","","image-keyboard-response","617","891220","0.0-8.0-0.12","","img/orange.png","null","trial","null","true","0.4,0.6","4:nogo_d","",""
"null","","html-keyboard-response","618","892222","0.0-8.0-1.12","","<img src=""img/orange-r.png"">","null","trial","null","","0.4,0.6","4:nogo_d","1",""
"null","","html-keyboard-response","619","893223","0.0-8.0-2.12","","<div style=""font-size:60px;"">+</div>","null","","","","","","",""
"659","","image-keyboard-response","620","893883","0.0-8.0-0.13","","img/blue.png","32","trial","32","true","0.6,0.4","3:go_c","",""
"null","","html-keyboard-response","621","894886","0.0-8.0-1.13","","<img src=""img/blue-n.png"" border=""10"">","null","trial","32","","0.6,0.4","3:go_c","0",""
"null","","html-keyboard-response","622","895887","0.0-8.0-2.13","","<div style=""font-size:60px;"">+</div>","null","","","","","","",""
"null","","image-keyboard-response","623","897389","0.0-8.0-0.14","","img/green.png","null","trial","32","false","0.6,0.4","1:go_a","",""
"null","","html-keyboard-response","624","898391","0.0-8.0-1.14","","<img src=""img/green-r.png"">","null","trial","32","","0.6,0.4","1:go_a","1",""
"null","","html-keyboard-response","625","899392","0.0-8.0-2.14","","<div style=""font-size:60px;"">+</div>","null","","","","","","",""
"452","","image-keyboard-response","626","899846","0.0-8.0-0.15","","img/red.png","32","trial","null","false","0.4,0.6","2:nogo_b","",""
"null","","html-keyboard-response","627","900848","0.0-8.0-1.15","","<img src=""img/red-n.png"" border=""10"">","null","trial","null","","0.4,0.6","2:nogo_b","0",""
"null","","html-keyboard-response","628","901849","0.0-8.0-2.15","","<div style=""font-size:60px;"">+</div>","null","","","","","","",""
"693","","image-keyboard-response","629","902543","0.0-8.0-0.16","","img/blue.png","32","trial","32","true","0.6,0.4","3:go_c","",""
"null","","html-keyboard-response","630","903544","0.0-8.0-1.16","","<img src=""img/blue-r.png"" border=""10"">","null","trial","32","","0.6,0.4","3:go_c","1",""
"null","","html-keyboard-response","631","904546","0.0-8.0-2.16","","<div style=""font-size:60px;"">+</div>","null","","","","","","",""
"506","","image-keyboard-response","632","905052","0.0-8.0-0.17","","img/red.png","32","trial","null","false","0.4,0.6","2:nogo_b","",""
"null","","html-keyboard-response","633","906054","0.0-8.0-1.17","","<img src=""img/red-n.png"" border=""10"">","null","trial","null","","0.4,0.6","2:nogo_b","0",""
"null","","html-keyboard-response","634","907055","0.0-8.0-2.17","","<div style=""font-size:60px;"">+</div>","null","","","","","","",""
"null","","image-keyboard-response","635","908557","0.0-8.0-0.18","","img/orange.png","null","trial","null","true","0.4,0.6","4:nogo_d","",""
"null","","html-keyboard-response","636","909560","0.0-8.0-1.18","","<img src=""img/orange-r.png"">","null","trial","null","","0.4,0.6","4:nogo_d","1",""
"null","","html-keyboard-response","637","910561","0.0-8.0-2.18","","<div style=""font-size:60px;"">+</div>","null","","","","","","",""
"null","","image-keyboard-response","638","912063","0.0-8.0-0.19","","img/green.png","null","trial","32","false","0.6,0.4","1:go_a","",""
"null","","html-keyboard-response","639","913065","0.0-8.0-1.19","","<img src=""img/green-n.png"">","null","trial","32","","0.6,0.4","1:go_a","0",""
"null","","html-keyboard-response","640","914065","0.0-8.0-2.19","","<div style=""font-size:60px;"">+</div>","null","","","","","","",""
"null","","image-keyboard-response","641","915568","0.0-8.0-0.20","","img/green.png","null","trial","32","false","0.6,0.4","1:go_a","",""
"null","","html-keyboard-response","642","916570","0.0-8.0-1.20","","<img src=""img/green-n.png"">","null","trial","32","","0.6,0.4","1:go_a","0",""
"null","","html-keyboard-response","643","917571","0.0-8.0-2.20","","<div style=""font-size:60px;"">+</div>","null","","","","","","",""
"null","","image-keyboard-response","644","919072","0.0-8.0-0.21","","img/orange.png","null","trial","null","true","0.4,0.6","4:nogo_d","",""
"null","","html-keyboard-response","645","920073","0.0-8.0-1.21","","<img src=""img/orange-n.png"">","null","trial","null","","0.4,0.6","4:nogo_d","0",""
"null","","html-keyboard-response","646","921075","0.0-8.0-2.21","","<div style=""font-size:60px;"">+</div>","null","","","","","","",""
"786","","image-keyboard-response","647","921862","0.0-8.0-0.22","","img/red.png","32","trial","null","false","0.4,0.6","2:nogo_b","",""
"null","","html-keyboard-response","648","922865","0.0-8.0-1.22","","<img src=""img/red-r.png"" border=""10"">","null","trial","null","","0.4,0.6","2:nogo_b","1",""
"null","","html-keyboard-response","649","923866","0.0-8.0-2.22","","<div style=""font-size:60px;"">+</div>","null","","","","","","",""
"456","","image-keyboard-response","650","924323","0.0-8.0-0.23","","img/blue.png","32","trial","32","true","0.6,0.4","3:go_c","",""
"null","","html-keyboard-response","651","925324","0.0-8.0-1.23","","<img src=""img/blue-r.png"" border=""10"">","null","trial","32","","0.6,0.4","3:go_c","1",""
"null","","html-keyboard-response","652","926325","0.0-8.0-2.23","","<div style=""font-size:60px;"">+</div>","null","","","","","","",""
"481","","image-keyboard-response","653","926808","0.0-8.0-0.24","","img/red.png","32","trial","null","false","0.4,0.6","2:nogo_b","",""
"null","","html-keyboard-response","654","927810","0.0-8.0-1.24","","<img src=""img/red-r.png"" border=""10"">","null","trial","null","","0.4,0.6","2:nogo_b","1",""
"null","","html-keyboard-response","655","928812","0.0-8.0-2.24","","<div style=""font-size:60px;"">+</div>","null","","","","","","",""
"null","","image-keyboard-response","656","930313","0.0-8.0-0.25","","img/orange.png","null","trial","null","true","0.4,0.6","4:nogo_d","",""
"null","","html-keyboard-response","657","931315","0.0-8.0-1.25","","<img src=""img/orange-n.png"">","null","trial","null","","0.4,0.6","4:nogo_d","0",""
"null","","html-keyboard-response","658","932318","0.0-8.0-2.25","","<div style=""font-size:60px;"">+</div>","null","","","","","","",""
"507","","image-keyboard-response","659","932826","0.0-8.0-0.26","","img/blue.png","32","trial","32","true","0.6,0.4","3:go_c","",""
"null","","html-keyboard-response","660","933828","0.0-8.0-1.26","","<img src=""img/blue-n.png"" border=""10"">","null","trial","32","","0.6,0.4","3:go_c","0",""
"null","","html-keyboard-response","661","934830","0.0-8.0-2.26","","<div style=""font-size:60px;"">+</div>","null","","","","","","",""
"null","","image-keyboard-response","662","936331","0.0-8.0-0.27","","img/green.png","null","trial","32","false","0.6,0.4","1:go_a","",""
"null","","html-keyboard-response","663","937333","0.0-8.0-1.27","","<img src=""img/green-r.png"">","null","trial","32","","0.6,0.4","1:go_a","1",""
"null","","html-keyboard-response","664","938335","0.0-8.0-2.27","","<div style=""font-size:60px;"">+</div>","null","","","","","","",""
"476","","image-keyboard-response","665","938814","0.0-8.0-0.28","","img/blue.png","32","trial","32","true","0.6,0.4","3:go_c","",""
"null","","html-keyboard-response","666","939815","0.0-8.0-1.28","","<img src=""img/blue-r.png"" border=""10"">","null","trial","32","","0.6,0.4","3:go_c","1",""
"null","","html-keyboard-response","667","940818","0.0-8.0-2.28","","<div style=""font-size:60px;"">+</div>","null","","","","","","",""
"453","","image-keyboard-response","668","941276","0.0-8.0-0.29","","img/red.png","32","trial","null","false","0.4,0.6","2:nogo_b","",""
"null","","html-keyboard-response","669","942278","0.0-8.0-1.29","","<img src=""img/red-n.png"" border=""10"">","null","trial","null","","0.4,0.6","2:nogo_b","0",""
"null","","html-keyboard-response","670","943280","0.0-8.0-2.29","","<div style=""font-size:60px;"">+</div>","null","","","","","","",""
"null","","image-keyboard-response","671","944782","0.0-8.0-0.30","","img/green.png","null","trial","32","false","0.6,0.4","1:go_a","",""
"null","","html-keyboard-response","672","945783","0.0-8.0-1.30","","<img src=""img/green-n.png"">","null","trial","32","","0.6,0.4","1:go_a","0",""
"null","","html-keyboard-response","673","946785","0.0-8.0-2.30","","<div style=""font-size:60px;"">+</div>","null","","","","","","",""
"null","","image-keyboard-response","674","948287","0.0-8.0-0.31","","img/orange.png","null","trial","null","true","0.4,0.6","4:nogo_d","",""
"null","","html-keyboard-response","675","949288","0.0-8.0-1.31","","<img src=""img/orange-n.png"">","null","trial","null","","0.4,0.6","4:nogo_d","0",""
"null","","html-keyboard-response","676","950290","0.0-8.0-2.31","","<div style=""font-size:60px;"">+</div>","null","","","","","","",""
"null","","image-keyboard-response","677","951790","0.0-8.0-0.32","","img/orange.png","null","trial","null","true","0.4,0.6","4:nogo_d","",""
"null","","html-keyboard-response","678","952794","0.0-8.0-1.32","","<img src=""img/orange-n.png"">","null","trial","null","","0.4,0.6","4:nogo_d","0",""
"null","","html-keyboard-response","679","953795","0.0-8.0-2.32","","<div style=""font-size:60px;"">+</div>","null","","","","","","",""
"null","","image-keyboard-response","680","955296","0.0-8.0-0.33","","img/green.png","null","trial","32","false","0.6,0.4","1:go_a","",""
"null","","html-keyboard-response","681","956298","0.0-8.0-1.33","","<img src=""img/green-r.png"">","null","trial","32","","0.6,0.4","1:go_a","1",""
"null","","html-keyboard-response","682","957299","0.0-8.0-2.33","","<div style=""font-size:60px;"">+</div>","null","","","","","","",""
"786","","image-keyboard-response","683","958086","0.0-8.0-0.34","","img/blue.png","32","trial","32","true","0.6,0.4","3:go_c","",""
"null","","html-keyboard-response","684","959088","0.0-8.0-1.34","","<img src=""img/blue-n.png"" border=""10"">","null","trial","32","","0.6,0.4","3:go_c","0",""
"null","","html-keyboard-response","685","960089","0.0-8.0-2.34","","<div style=""font-size:60px;"">+</div>","null","","","","","","",""
"476","","image-keyboard-response","686","960567","0.0-8.0-0.35","","img/red.png","32","trial","null","false","0.4,0.6","2:nogo_b","",""
"null","","html-keyboard-response","687","961570","0.0-8.0-1.35","","<img src=""img/red-r.png"" border=""10"">","null","trial","null","","0.4,0.6","2:nogo_b","1",""
"null","","html-keyboard-response","688","962572","0.0-8.0-2.35","","<div style=""font-size:60px;"">+</div>","null","","","","","","",""
"null","","image-keyboard-response","689","964072","0.0-8.0-0.36","","img/blue.png","null","trial","32","false","0.6,0.4","3:go_c","",""
"null","","html-keyboard-response","690","965073","0.0-8.0-1.36","","<img src=""img/blue-r.png"">","null","trial","32","","0.6,0.4","3:go_c","1",""
"null","","html-keyboard-response","691","966074","0.0-8.0-2.36","","<div style=""font-size:60px;"">+</div>","null","","","","","","",""
"null","","image-keyboard-response","692","967576","0.0-8.0-0.37","","img/green.png","null","trial","32","false","0.6,0.4","1:go_a","",""
"null","","html-keyboard-response","693","968578","0.0-8.0-1.37","","<img src=""img/green-n.png"">","null","trial","32","","0.6,0.4","1:go_a","0",""
"null","","html-keyboard-response","694","969579","0.0-8.0-2.37","","<div style=""font-size:60px;"">+</div>","null","","","","","","",""
"474","","image-keyboard-response","695","970055","0.0-8.0-0.38","","img/red.png","32","trial","null","false","0.4,0.6","2:nogo_b","",""
"null","","html-keyboard-response","696","971057","0.0-8.0-1.38","","<img src=""img/red-r.png"" border=""10"">","null","trial","null","","0.4,0.6","2:nogo_b","1",""
"null","","html-keyboard-response","697","972059","0.0-8.0-2.38","","<div style=""font-size:60px;"">+</div>","null","","","","","","",""
"484","","image-keyboard-response","698","972545","0.0-8.0-0.39","","img/orange.png","32","trial","null","false","0.4,0.6","4:nogo_d","",""
