"rt","url","trial_type","trial_index","time_elapsed","internal_node_id","view_history","stimulus","key_press","test_part","correct_response","correct","use_rew","which_stim","reward","responses"
"22003.499999991618","consent.html","external-html","0","22135","0.0-0.0","","","","","","","","","",""
"352082.58499999647","","instructions","1","374221","0.0-1.0","[{""page_index"":0,""viewing_time"":4232.415000005858},{""page_index"":1,""viewing_time"":69960.34999997937},{""page_index"":2,""viewing_time"":17288.014999998268},{""page_index"":3,""viewing_time"":37991.775000002235},{""page_index"":4,""viewing_time"":23632.400000002235},{""page_index"":5,""viewing_time"":11487.965000007534},{""page_index"":6,""viewing_time"":187487.99500000314}]","","","","","","","","",""
"null","","image-keyboard-response","2","375725","0.0-2.0-0.0","","img/test3.PNG","null","practice","null","true","","","",""
"null","","html-keyboard-response","3","376727","0.0-2.0-1.0","","<img src=""img/test3-reward.PNG"">","null","","","","","","",""
"null","","html-keyboard-response","4","377729","0.0-2.0-2.0","","<div style=""font-size:60px;"">+</div>","null","","","","","","",""
"428.3550000109244","","image-keyboard-response","5","378160","0.0-2.0-0.1","","img/test1.PNG","32","practice","32","true","","","",""
"null","","html-keyboard-response","6","379164","0.0-2.0-1.1","","<img src=""img/test1-reward.PNG"" border=""10px; grey"">","null","","","","","","",""
"null","","html-keyboard-response","7","380166","0.0-2.0-2.1","","<div style=""font-size:60px;"">+</div>","null","","","","","","",""
"null","","image-keyboard-response","8","381669","0.0-2.0-0.2","","img/test2.PNG","null","practice","null","true","","","",""
"null","","html-keyboard-response","9","382676","0.0-2.0-1.2","","<img src=""img/test2-reward.PNG"">","null","","","","","","",""
"null","","html-keyboard-response","10","383678","0.0-2.0-2.2","","<div style=""font-size:60px;"">+</div>","null","","","","","","",""
"417.2449999896344","","image-keyboard-response","11","384099","0.0-2.0-0.3","","img/test1.PNG","32","practice","32","true","","","",""
"null","","html-keyboard-response","12","385102","0.0-2.0-1.3","","<img src=""img/test1-reward.PNG"" border=""10px; grey"">","null","","","","","","",""
"null","","html-keyboard-response","13","386104","0.0-2.0-2.3","","<div style=""font-size:60px;"">+</div>","null","","","","","","",""
"452.6800000166986","","image-keyboard-response","14","386559","0.0-2.0-0.4","","img/test3.PNG","32","practice","null","false","","","",""
"null","","html-keyboard-response","15","387561","0.0-2.0-1.4","","<img src=""img/test3-neutral.PNG"" border=""10px; grey"">","null","","","","","","",""
"null","","html-keyboard-response","16","388564","0.0-2.0-2.4","","<div style=""font-size:60px;"">+</div>","null","","","","","","",""
"null","","image-keyboard-response","17","390068","0.0-2.0-0.5","","img/test2.PNG","null","practice","null","true","","","",""
"null","","html-keyboard-response","18","391071","0.0-2.0-1.5","","<img src=""img/test2-reward.PNG"">","null","","","","","","",""
"null","","html-keyboard-response","19","392073","0.0-2.0-2.5","","<div style=""font-size:60px;"">+</div>","null","","","","","","",""
"844.7449999803212","","image-keyboard-response","20","392919","0.0-2.0-0.6","","img/test1.PNG","32","practice","32","true","","","",""
"null","","html-keyboard-response","21","393922","0.0-2.0-1.6","","<img src=""img/test1-reward.PNG"" border=""10px; grey"">","null","","","","","","",""
"null","","html-keyboard-response","22","394924","0.0-2.0-2.6","","<div style=""font-size:60px;"">+</div>","null","","","","","","",""
"null","","image-keyboard-response","23","396428","0.0-2.0-0.7","","img/test3.PNG","null","practice","null","true","","","",""
"null","","html-keyboard-response","24","397431","0.0-2.0-1.7","","<img src=""img/test3-reward.PNG"">","null","","","","","","",""
"null","","html-keyboard-response","25","398433","0.0-2.0-2.7","","<div style=""font-size:60px;"">+</div>","null","","","","","","",""
"602.5049999880139","","image-keyboard-response","26","399039","0.0-2.0-0.8","","img/test2.PNG","32","practice","null","false","","","",""
"null","","html-keyboard-response","27","400042","0.0-2.0-1.8","","<img src=""img/test2-neutral.PNG"" border=""10px; grey"">","null","","","","","","",""
"null","","html-keyboard-response","28","401044","0.0-2.0-2.8","","<div style=""font-size:60px;"">+</div>","null","","","","","","",""
"null","","image-keyboard-response","29","402547","0.0-2.0-0.9","","img/test2.PNG","null","practice","null","true","","","",""
"null","","html-keyboard-response","30","403550","0.0-2.0-1.9","","<img src=""img/test2-reward.PNG"">","null","","","","","","",""
"null","","html-keyboard-response","31","404553","0.0-2.0-2.9","","<div style=""font-size:60px;"">+</div>","null","","","","","","",""
"614.8650000104681","","image-keyboard-response","32","405172","0.0-2.0-0.10","","img/test1.PNG","32","practice","32","true","","","",""
"null","","html-keyboard-response","33","406175","0.0-2.0-1.10","","<img src=""img/test1-reward.PNG"" border=""10px; grey"">","null","","","","","","",""
"null","","html-keyboard-response","34","407177","0.0-2.0-2.10","","<div style=""font-size:60px;"">+</div>","null","","","","","","",""
"null","","image-keyboard-response","35","408680","0.0-2.0-0.11","","img/test3.PNG","null","practice","null","true","","","",""
"null","","html-keyboard-response","36","409683","0.0-2.0-1.11","","<img src=""img/test3-reward.PNG"">","null","","","","","","",""
"null","","html-keyboard-response","37","410685","0.0-2.0-2.11","","<div style=""font-size:60px;"">+</div>","null","","","","","","",""
"26628.649999998743","","instructions","38","437316","0.0-3.0","[{""page_index"":0,""viewing_time"":26627.905000001192}]","","","","","","","","",""
"1046.8450000043958","","image-keyboard-response","39","438366","0.0-4.0-0.0","","img/grey.png","32","trial","32","true","0.8,0.2","1:go_a","",""
"null","","html-keyboard-response","40","439370","0.0-4.0-1.0","","<img src=""img/grey-r.png"" border=""10"">","null","trial","32","","0.8,0.2","1:go_a","1",""
"null","","html-keyboard-response","41","440375","0.0-4.0-2.0","","<div style=""font-size:60px;"">+</div>","null","","","","","","",""
"403.7649999954738","","image-keyboard-response","42","440782","0.0-4.0-0.1","","img/pink.png","32","trial","null","false","0.2,0.8","2:nogo_b","",""
"null","","html-keyboard-response","43","441785","0.0-4.0-1.1","","<img src=""img/pink-n.png"" border=""10"">","null","trial","null","","0.2,0.8","2:nogo_b","0",""
"null","","html-keyboard-response","44","442786","0.0-4.0-2.1","","<div style=""font-size:60px;"">+</div>","null","","","","","","",""
"null","","image-keyboard-response","45","444290","0.0-4.0-0.2","","img/pink.png","null","trial","null","true","0.2,0.8","2:nogo_b","",""
"null","","html-keyboard-response","46","445294","0.0-4.0-1.2","","<img src=""img/pink-n.png"">","null","trial","null","","0.2,0.8","2:nogo_b","0",""
"null","","html-keyboard-response","47","446296","0.0-4.0-2.2","","<div style=""font-size:60px;"">+</div>","null","","","","","","",""
"378.80500001483597","","image-keyboard-response","48","446678","0.0-4.0-0.3","","img/grey.png","32","trial","32","true","0.8,0.2","1:go_a","",""
"null","","html-keyboard-response","49","447681","0.0-4.0-1.3","","<img src=""img/grey-r.png"" border=""10"">","null","trial","32","","0.8,0.2","1:go_a","1",""
"null","","html-keyboard-response","50","448684","0.0-4.0-2.3","","<div style=""font-size:60px;"">+</div>","null","","","","","","",""
"null","","image-keyboard-response","51","450187","0.0-4.0-0.4","","img/pink.png","null","trial","null","true","0.2,0.8","2:nogo_b","",""
"null","","html-keyboard-response","52","451193","0.0-4.0-1.4","","<img src=""img/pink-n.png"">","null","trial","null","","0.2,0.8","2:nogo_b","0",""
"null","","html-keyboard-response","53","452195","0.0-4.0-2.4","","<div style=""font-size:60px;"">+</div>","null","","","","","","",""
"771.8000000168104","","image-keyboard-response","54","452968","0.0-4.0-0.5","","img/grey.png","32","trial","32","true","0.8,0.2","1:go_a","",""
"null","","html-keyboard-response","55","453972","0.0-4.0-1.5","","<img src=""img/grey-r.png"" border=""10"">","null","trial","32","","0.8,0.2","1:go_a","1",""
"null","","html-keyboard-response","56","454976","0.0-4.0-2.5","","<div style=""font-size:60px;"">+</div>","null","","","","","","",""
"null","","image-keyboard-response","57","456480","0.0-4.0-0.6","","img/pink.png","null","trial","null","true","0.2,0.8","2:nogo_b","",""
"null","","html-keyboard-response","58","457484","0.0-4.0-1.6","","<img src=""img/pink-r.png"">","null","trial","null","","0.2,0.8","2:nogo_b","1",""
"null","","html-keyboard-response","59","458489","0.0-4.0-2.6","","<div style=""font-size:60px;"">+</div>","null","","","","","","",""
"529.8499999917112","","image-keyboard-response","60","459021","0.0-4.0-0.7","","img/grey.png","32","trial","32","true","0.8,0.2","1:go_a","",""
"null","","html-keyboard-response","61","460025","0.0-4.0-1.7","","<img src=""img/grey-r.png"" border=""10"">","null","trial","32","","0.8,0.2","1:go_a","1",""
"null","","html-keyboard-response","62","461028","0.0-4.0-2.7","","<div style=""font-size:60px;"">+</div>","null","","","","","","",""
"515.255000005709","","image-keyboard-response","63","461546","0.0-4.0-0.8","","img/grey.png","32","trial","32","true","0.8,0.2","1:go_a","",""
"null","","html-keyboard-response","64","462549","0.0-4.0-1.8","","<img src=""img/grey-r.png"" border=""10"">","null","trial","32","","0.8,0.2","1:go_a","1",""
"null","","html-keyboard-response","65","463552","0.0-4.0-2.8","","<div style=""font-size:60px;"">+</div>","null","","","","","","",""
"null","","image-keyboard-response","66","465055","0.0-4.0-0.9","","img/pink.png","null","trial","null","true","0.2,0.8","2:nogo_b","",""
"null","","html-keyboard-response","67","466059","0.0-4.0-1.9","","<img src=""img/pink-r.png"">","null","trial","null","","0.2,0.8","2:nogo_b","1",""
"null","","html-keyboard-response","68","467065","0.0-4.0-2.9","","<div style=""font-size:60px;"">+</div>","null","","","","","","",""
"475.7649999810383","","image-keyboard-response","69","467551","0.0-4.0-0.10","","img/grey.png","32","trial","32","true","0.8,0.2","1:go_a","",""
"null","","html-keyboard-response","70","468554","0.0-4.0-1.10","","<img src=""img/grey-r.png"" border=""10"">","null","trial","32","","0.8,0.2","1:go_a","1",""
"null","","html-keyboard-response","71","469556","0.0-4.0-2.10","","<div style=""font-size:60px;"">+</div>","null","","","","","","",""
"582.8849999816157","","image-keyboard-response","72","470141","0.0-4.0-0.11","","img/pink.png","32","trial","null","false","0.2,0.8","2:nogo_b","",""
"null","","html-keyboard-response","73","471146","0.0-4.0-1.11","","<img src=""img/pink-n.png"" border=""10"">","null","trial","null","","0.2,0.8","2:nogo_b","0",""
"null","","html-keyboard-response","74","472148","0.0-4.0-2.11","","<div style=""font-size:60px;"">+</div>","null","","","","","","",""
"null","","image-keyboard-response","75","473651","0.0-4.0-0.12","","img/pink.png","null","trial","null","true","0.2,0.8","2:nogo_b","",""
"null","","html-keyboard-response","76","474656","0.0-4.0-1.12","","<img src=""img/pink-r.png"">","null","trial","null","","0.2,0.8","2:nogo_b","1",""
"null","","html-keyboard-response","77","475658","0.0-4.0-2.12","","<div style=""font-size:60px;"">+</div>","null","","","","","","",""
"477.8900000092108","","image-keyboard-response","78","476138","0.0-4.0-0.13","","img/grey.png","32","trial","32","true","0.8,0.2","1:go_a","",""
"null","","html-keyboard-response","79","477142","0.0-4.0-1.13","","<img src=""img/grey-n.png"" border=""10"">","null","trial","32","","0.8,0.2","1:go_a","0",""
"null","","html-keyboard-response","80","478143","0.0-4.0-2.13","","<div style=""font-size:60px;"">+</div>","null","","","","","","",""
"490.4300000052899","","image-keyboard-response","81","478636","0.0-4.0-0.14","","img/pink.png","32","trial","null","false","0.2,0.8","2:nogo_b","",""
"null","","html-keyboard-response","82","479639","0.0-4.0-1.14","","<img src=""img/pink-n.png"" border=""10"">","null","trial","null","","0.2,0.8","2:nogo_b","0",""
"null","","html-keyboard-response","83","480641","0.0-4.0-2.14","","<div style=""font-size:60px;"">+</div>","null","","","","","","",""
"545.0899999996182","","image-keyboard-response","84","481188","0.0-4.0-0.15","","img/grey.png","32","trial","32","true","0.8,0.2","1:go_a","",""
"null","","html-keyboard-response","85","482192","0.0-4.0-1.15","","<img src=""img/grey-r.png"" border=""10"">","null","trial","32","","0.8,0.2","1:go_a","1",""
"null","","html-keyboard-response","86","483194","0.0-4.0-2.15","","<div style=""font-size:60px;"">+</div>","null","","","","","","",""
"431.06999999145046","","image-keyboard-response","87","483628","0.0-4.0-0.16","","img/pink.png","32","trial","null","false","0.2,0.8","2:nogo_b","",""
"null","","html-keyboard-response","88","484630","0.0-4.0-1.16","","<img src=""img/pink-n.png"" border=""10"">","null","trial","null","","0.2,0.8","2:nogo_b","0",""
"null","","html-keyboard-response","89","485632","0.0-4.0-2.16","","<div style=""font-size:60px;"">+</div>","null","","","","","","",""
"490.07499997969717","","image-keyboard-response","90","486125","0.0-4.0-0.17","","img/grey.png","32","trial","32","true","0.8,0.2","1:go_a","",""
"null","","html-keyboard-response","91","487127","0.0-4.0-1.17","","<img src=""img/grey-r.png"" border=""10"">","null","trial","32","","0.8,0.2","1:go_a","1",""
"null","","html-keyboard-response","92","488130","0.0-4.0-2.17","","<div style=""font-size:60px;"">+</div>","null","","","","","","",""
"384.04000000446104","","image-keyboard-response","93","488516","0.0-4.0-0.18","","img/pink.png","32","trial","null","false","0.2,0.8","2:nogo_b","",""
"null","","html-keyboard-response","94","489519","0.0-4.0-1.18","","<img src=""img/pink-n.png"" border=""10"">","null","trial","null","","0.2,0.8","2:nogo_b","0",""
"null","","html-keyboard-response","95","490522","0.0-4.0-2.18","","<div style=""font-size:60px;"">+</div>","null","","","","","","",""
"378.41500001377426","","image-keyboard-response","96","490904","0.0-4.0-0.19","","img/grey.png","32","trial","32","true","0.8,0.2","1:go_a","",""
"null","","html-keyboard-response","97","491907","0.0-4.0-1.19","","<img src=""img/grey-r.png"" border=""10"">","null","trial","32","","0.8,0.2","1:go_a","1",""
"null","","html-keyboard-response","98","492909","0.0-4.0-2.19","","<div style=""font-size:60px;"">+</div>","null","","","","","","",""
"555.1749999867752","","image-keyboard-response","99","493466","0.0-4.0-0.20","","img/pink.png","32","trial","null","false","0.2,0.8","2:nogo_b","",""
"null","","html-keyboard-response","100","494469","0.0-4.0-1.20","","<img src=""img/pink-n.png"" border=""10"">","null","trial","null","","0.2,0.8","2:nogo_b","0",""
"null","","html-keyboard-response","101","495472","0.0-4.0-2.20","","<div style=""font-size:60px;"">+</div>","null","","","","","","",""
"470.52000000257976","","image-keyboard-response","102","495945","0.0-4.0-0.21","","img/grey.png","32","trial","32","true","0.8,0.2","1:go_a","",""
"null","","html-keyboard-response","103","496948","0.0-4.0-1.21","","<img src=""img/grey-r.png"" border=""10"">","null","trial","32","","0.8,0.2","1:go_a","1",""
"null","","html-keyboard-response","104","497950","0.0-4.0-2.21","","<div style=""font-size:60px;"">+</div>","null","","","","","","",""
"498.3000000065658","","image-keyboard-response","105","498451","0.0-4.0-0.22","","img/grey.png","32","trial","32","true","0.8,0.2","1:go_a","",""
"null","","html-keyboard-response","106","499454","0.0-4.0-1.22","","<img src=""img/grey-r.png"" border=""10"">","null","trial","32","","0.8,0.2","1:go_a","1",""
"null","","html-keyboard-response","107","500457","0.0-4.0-2.22","","<div style=""font-size:60px;"">+</div>","null","","","","","","",""
"null","","image-keyboard-response","108","501960","0.0-4.0-0.23","","img/pink.png","null","trial","null","true","0.2,0.8","2:nogo_b","",""
"null","","html-keyboard-response","109","502963","0.0-4.0-1.23","","<img src=""img/pink-r.png"">","null","trial","null","","0.2,0.8","2:nogo_b","1",""
"null","","html-keyboard-response","110","503967","0.0-4.0-2.23","","<div style=""font-size:60px;"">+</div>","null","","","","","","",""
"446.85500001651235","","image-keyboard-response","111","504417","0.0-4.0-0.24","","img/grey.png","32","trial","32","true","0.8,0.2","1:go_a","",""
"null","","html-keyboard-response","112","505420","0.0-4.0-1.24","","<img src=""img/grey-r.png"" border=""10"">","null","trial","32","","0.8,0.2","1:go_a","1",""
"null","","html-keyboard-response","113","506422","0.0-4.0-2.24","","<div style=""font-size:60px;"">+</div>","null","","","","","","",""
"null","","image-keyboard-response","114","507925","0.0-4.0-0.25","","img/pink.png","null","trial","null","true","0.2,0.8","2:nogo_b","",""
"null","","html-keyboard-response","115","508929","0.0-4.0-1.25","","<img src=""img/pink-r.png"">","null","trial","null","","0.2,0.8","2:nogo_b","1",""
"null","","html-keyboard-response","116","509931","0.0-4.0-2.25","","<div style=""font-size:60px;"">+</div>","null","","","","","","",""
"358.894999983022","","image-keyboard-response","117","510293","0.0-4.0-0.26","","img/grey.png","32","trial","32","true","0.8,0.2","1:go_a","",""
"null","","html-keyboard-response","118","511295","0.0-4.0-1.26","","<img src=""img/grey-r.png"" border=""10"">","null","trial","32","","0.8,0.2","1:go_a","1",""
"null","","html-keyboard-response","119","512297","0.0-4.0-2.26","","<div style=""font-size:60px;"">+</div>","null","","","","","","",""
"410.0850000104401","","image-keyboard-response","120","512709","0.0-4.0-0.27","","img/pink.png","32","trial","null","false","0.2,0.8","2:nogo_b","",""
"null","","html-keyboard-response","121","513712","0.0-4.0-1.27","","<img src=""img/pink-n.png"" border=""10"">","null","trial","null","","0.2,0.8","2:nogo_b","0",""
"null","","html-keyboard-response","122","514714","0.0-4.0-2.27","","<div style=""font-size:60px;"">+</div>","null","","","","","","",""
"973.1150000006892","","image-keyboard-response","123","515690","0.0-4.0-0.28","","img/pink.png","32","trial","null","false","0.2,0.8","2:nogo_b","",""
"null","","html-keyboard-response","124","516692","0.0-4.0-1.28","","<img src=""img/pink-n.png"" border=""10"">","null","trial","null","","0.2,0.8","2:nogo_b","0",""
"null","","html-keyboard-response","125","517695","0.0-4.0-2.28","","<div style=""font-size:60px;"">+</div>","null","","","","","","",""
"398.37000000989065","","image-keyboard-response","126","518096","0.0-4.0-0.29","","img/grey.png","32","trial","32","true","0.8,0.2","1:go_a","",""
"null","","html-keyboard-response","127","519099","0.0-4.0-1.29","","<img src=""img/grey-r.png"" border=""10"">","null","trial","32","","0.8,0.2","1:go_a","1",""
"null","","html-keyboard-response","128","520101","0.0-4.0-2.29","","<div style=""font-size:60px;"">+</div>","null","","","","","","",""
"null","","image-keyboard-response","129","521604","0.0-4.0-0.30","","img/pink.png","null","trial","null","true","0.2,0.8","2:nogo_b","",""
"null","","html-keyboard-response","130","522609","0.0-4.0-1.30","","<img src=""img/pink-r.png"">","null","trial","null","","0.2,0.8","2:nogo_b","1",""
"null","","html-keyboard-response","131","523611","0.0-4.0-2.30","","<div style=""font-size:60px;"">+</div>","null","","","","","","",""
"446.204999985639","","image-keyboard-response","132","524060","0.0-4.0-0.31","","img/grey.png","32","trial","32","true","0.8,0.2","1:go_a","",""
"null","","html-keyboard-response","133","525064","0.0-4.0-1.31","","<img src=""img/grey-r.png"" border=""10"">","null","trial","32","","0.8,0.2","1:go_a","1",""
"null","","html-keyboard-response","134","526067","0.0-4.0-2.31","","<div style=""font-size:60px;"">+</div>","null","","","","","","",""
"551.0949999734294","","image-keyboard-response","135","526621","0.0-4.0-0.32","","img/pink.png","32","trial","null","false","0.2,0.8","2:nogo_b","",""
"null","","html-keyboard-response","136","527626","0.0-4.0-1.32","","<img src=""img/pink-n.png"" border=""10"">","null","trial","null","","0.2,0.8","2:nogo_b","0",""
"null","","html-keyboard-response","137","528628","0.0-4.0-2.32","","<div style=""font-size:60px;"">+</div>","null","","","","","","",""
"380.9049999981653","","image-keyboard-response","138","529011","0.0-4.0-0.33","","img/grey.png","32","trial","32","true","0.8,0.2","1:go_a","",""
"null","","html-keyboard-response","139","530014","0.0-4.0-1.33","","<img src=""img/grey-r.png"" border=""10"">","null","trial","32","","0.8,0.2","1:go_a","1",""
"null","","html-keyboard-response","140","531016","0.0-4.0-2.33","","<div style=""font-size:60px;"">+</div>","null","","","","","","",""
"414.92000001017004","","image-keyboard-response","141","531434","0.0-4.0-0.34","","img/grey.png","32","trial","32","true","0.8,0.2","1:go_a","",""
"null","","html-keyboard-response","142","532437","0.0-4.0-1.34","","<img src=""img/grey-n.png"" border=""10"">","null","trial","32","","0.8,0.2","1:go_a","0",""
"null","","html-keyboard-response","143","533439","0.0-4.0-2.34","","<div style=""font-size:60px;"">+</div>","null","","","","","","",""
"410.05500001483597","","image-keyboard-response","144","533852","0.0-4.0-0.35","","img/pink.png","32","trial","null","false","0.2,0.8","2:nogo_b","",""
"null","","html-keyboard-response","145","534855","0.0-4.0-1.35","","<img src=""img/pink-r.png"" border=""10"">","null","trial","null","","0.2,0.8","2:nogo_b","1",""
"null","","html-keyboard-response","146","535857","0.0-4.0-2.35","","<div style=""font-size:60px;"">+</div>","null","","","","","","",""
"523.3400000142865","","image-keyboard-response","147","536384","0.0-4.0-0.36","","img/grey.png","32","trial","32","true","0.8,0.2","1:go_a","",""
"null","","html-keyboard-response","148","537387","0.0-4.0-1.36","","<img src=""img/grey-n.png"" border=""10"">","null","trial","32","","0.8,0.2","1:go_a","0",""
"null","","html-keyboard-response","149","538390","0.0-4.0-2.36","","<div style=""font-size:60px;"">+</div>","null","","","","","","",""
"445.0549999892246","","image-keyboard-response","150","538837","0.0-4.0-0.37","","img/pink.png","32","trial","null","false","0.2,0.8","2:nogo_b","",""
"null","","html-keyboard-response","151","539840","0.0-4.0-1.37","","<img src=""img/pink-n.png"" border=""10"">","null","trial","null","","0.2,0.8","2:nogo_b","0",""
"null","","html-keyboard-response","152","540842","0.0-4.0-2.37","","<div style=""font-size:60px;"">+</div>","null","","","","","","",""
"322.455000015907","","image-keyboard-response","153","541167","0.0-4.0-0.38","","img/grey.png","32","trial","32","true","0.8,0.2","1:go_a","",""
"null","","html-keyboard-response","154","542172","0.0-4.0-1.38","","<img src=""img/grey-r.png"" border=""10"">","null","trial","32","","0.8,0.2","1:go_a","1",""
"null","","html-keyboard-response","155","543177","0.0-4.0-2.38","","<div style=""font-size:60px;"">+</div>","null","","","","","","",""
"null","","image-keyboard-response","156","544680","0.0-4.0-0.39","","img/pink.png","null","trial","null","true","0.2,0.8","2:nogo_b","",""
"null","","html-keyboard-response","157","545685","0.0-4.0-1.39","","<img src=""img/pink-r.png"">","null","trial","null","","0.2,0.8","2:nogo_b","1",""
"null","","html-keyboard-response","158","546687","0.0-4.0-2.39","","<div style=""font-size:60px;"">+</div>","null","","","","","","",""
"508.82499999715947","","image-keyboard-response","159","547199","0.0-4.0-0.40","","img/grey.png","32","trial","32","true","0.8,0.2","1:go_a","",""
"null","","html-keyboard-response","160","548202","0.0-4.0-1.40","","<img src=""img/grey-r.png"" border=""10"">","null","trial","32","","0.8,0.2","1:go_a","1",""
"null","","html-keyboard-response","161","549205","0.0-4.0-2.40","","<div style=""font-size:60px;"">+</div>","null","","","","","","",""
"415.4149999958463","","image-keyboard-response","162","549622","0.0-4.0-0.41","","img/pink.png","32","trial","null","false","0.2,0.8","2:nogo_b","",""
"null","","html-keyboard-response","163","550625","0.0-4.0-1.41","","<img src=""img/pink-n.png"" border=""10"">","null","trial","null","","0.2,0.8","2:nogo_b","0",""
"null","","html-keyboard-response","164","551627","0.0-4.0-2.41","","<div style=""font-size:60px;"">+</div>","null","","","","","","",""
"320.5700000107754","","image-keyboard-response","165","551949","0.0-4.0-0.42","","img/pink.png","32","trial","null","false","0.2,0.8","2:nogo_b","",""
"null","","html-keyboard-response","166","552952","0.0-4.0-1.42","","<img src=""img/pink-n.png"" border=""10"">","null","trial","null","","0.2,0.8","2:nogo_b","0",""
"null","","html-keyboard-response","167","553954","0.0-4.0-2.42","","<div style=""font-size:60px;"">+</div>","null","","","","","","",""
"343.48000001045875","","image-keyboard-response","168","554299","0.0-4.0-0.43","","img/grey.png","32","trial","32","true","0.8,0.2","1:go_a","",""
"null","","html-keyboard-response","169","555302","0.0-4.0-1.43","","<img src=""img/grey-r.png"" border=""10"">","null","trial","32","","0.8,0.2","1:go_a","1",""
"null","","html-keyboard-response","170","556304","0.0-4.0-2.43","","<div style=""font-size:60px;"">+</div>","null","","","","","","",""
"433.1250000104774","","image-keyboard-response","171","556739","0.0-4.0-0.44","","img/grey.png","32","trial","32","true","0.8,0.2","1:go_a","",""
"null","","html-keyboard-response","172","557742","0.0-4.0-1.44","","<img src=""img/grey-n.png"" border=""10"">","null","trial","32","","0.8,0.2","1:go_a","0",""
"null","","html-keyboard-response","173","558744","0.0-4.0-2.44","","<div style=""font-size:60px;"">+</div>","null","","","","","","",""
"null","","image-keyboard-response","174","560247","0.0-4.0-0.45","","img/pink.png","null","trial","null","true","0.2,0.8","2:nogo_b","",""
"null","","html-keyboard-response","175","561251","0.0-4.0-1.45","","<img src=""img/pink-r.png"">","null","trial","null","","0.2,0.8","2:nogo_b","1",""
"null","","html-keyboard-response","176","562253","0.0-4.0-2.45","","<div style=""font-size:60px;"">+</div>","null","","","","","","",""
"564.0750000020489","","image-keyboard-response","177","562820","0.0-4.0-0.46","","img/grey.png","32","trial","32","true","0.8,0.2","1:go_a","",""
"null","","html-keyboard-response","178","563822","0.0-4.0-1.46","","<img src=""img/grey-r.png"" border=""10"">","null","trial","32","","0.8,0.2","1:go_a","1",""
"null","","html-keyboard-response","179","564825","0.0-4.0-2.46","","<div style=""font-size:60px;"">+</div>","null","","","","","","",""
"null","","image-keyboard-response","180","566326","0.0-4.0-0.47","","img/pink.png","null","trial","null","true","0.2,0.8","2:nogo_b","",""
"null","","html-keyboard-response","181","567330","0.0-4.0-1.47","","<img src=""img/pink-r.png"">","null","trial","null","","0.2,0.8","2:nogo_b","1",""
"null","","html-keyboard-response","182","568332","0.0-4.0-2.47","","<div style=""font-size:60px;"">+</div>","null","","","","","","",""
"733.9199999987613","","image-keyboard-response","183","569069","0.0-4.0-0.48","","img/pink.png","32","trial","null","false","0.2,0.8","2:nogo_b","",""
"null","","html-keyboard-response","184","570071","0.0-4.0-1.48","","<img src=""img/pink-n.png"" border=""10"">","null","trial","null","","0.2,0.8","2:nogo_b","0",""
"null","","html-keyboard-response","185","571076","0.0-4.0-2.48","","<div style=""font-size:60px;"">+</div>","null","","","","","","",""
"500.10499998461455","","image-keyboard-response","186","571578","0.0-4.0-0.49","","img/grey.png","32","trial","32","true","0.8,0.2","1:go_a","",""
"null","","html-keyboard-response","187","572581","0.0-4.0-1.49","","<img src=""img/grey-r.png"" border=""10"">","null","trial","32","","0.8,0.2","1:go_a","1",""
"null","","html-keyboard-response","188","573583","0.0-4.0-2.49","","<div style=""font-size:60px;"">+</div>","null","","","","","","",""
"378.28500001342036","","image-keyboard-response","189","573963","0.0-4.0-0.50","","img/pink.png","32","trial","null","false","0.2,0.8","2:nogo_b","",""
"null","","html-keyboard-response","190","574966","0.0-4.0-1.50","","<img src=""img/pink-r.png"" border=""10"">","null","trial","null","","0.2,0.8","2:nogo_b","1",""
"null","","html-keyboard-response","191","575969","0.0-4.0-2.50","","<div style=""font-size:60px;"">+</div>","null","","","","","","",""
"503.56499999179505","","image-keyboard-response","192","576475","0.0-4.0-0.51","","img/grey.png","32","trial","32","true","0.8,0.2","1:go_a","",""
"null","","html-keyboard-response","193","577478","0.0-4.0-1.51","","<img src=""img/grey-r.png"" border=""10"">","null","trial","32","","0.8,0.2","1:go_a","1",""
"null","","html-keyboard-response","194","578480","0.0-4.0-2.51","","<div style=""font-size:60px;"">+</div>","null","","","","","","",""
"348.7549999845214","","image-keyboard-response","195","578831","0.0-4.0-0.52","","img/grey.png","32","trial","32","true","0.8,0.2","1:go_a","",""
"null","","html-keyboard-response","196","579834","0.0-4.0-1.52","","<img src=""img/grey-r.png"" border=""10"">","null","trial","32","","0.8,0.2","1:go_a","1",""
"null","","html-keyboard-response","197","580835","0.0-4.0-2.52","","<div style=""font-size:60px;"">+</div>","null","","","","","","",""
"355.3050000045914","","image-keyboard-response","198","581193","0.0-4.0-0.53","","img/pink.png","32","trial","null","false","0.2,0.8","2:nogo_b","",""
"null","","html-keyboard-response","199","582196","0.0-4.0-1.53","","<img src=""img/pink-n.png"" border=""10"">","null","trial","null","","0.2,0.8","2:nogo_b","0",""
"null","","html-keyboard-response","200","583198","0.0-4.0-2.53","","<div style=""font-size:60px;"">+</div>","null","","","","","","",""
"317.2949999861885","","image-keyboard-response","201","583517","0.0-4.0-0.54","","img/pink.png","32","trial","null","false","0.2,0.8","2:nogo_b","",""
"null","","html-keyboard-response","202","584521","0.0-4.0-1.54","","<img src=""img/pink-n.png"" border=""10"">","null","trial","null","","0.2,0.8","2:nogo_b","0",""
"null","","html-keyboard-response","203","585522","0.0-4.0-2.54","","<div style=""font-size:60px;"">+</div>","null","","","","","","",""
"391.20500002172776","","image-keyboard-response","204","585916","0.0-4.0-0.55","","img/grey.png","32","trial","32","true","0.8,0.2","1:go_a","",""
"null","","html-keyboard-response","205","586919","0.0-4.0-1.55","","<img src=""img/grey-r.png"" border=""10"">","null","trial","32","","0.8,0.2","1:go_a","1",""
"null","","html-keyboard-response","206","587921","0.0-4.0-2.55","","<div style=""font-size:60px;"">+</div>","null","","","","","","",""
"311.4999999816064","","image-keyboard-response","207","588235","0.0-4.0-0.56","","img/grey.png","32","trial","32","true","0.8,0.2","1:go_a","",""
"null","","html-keyboard-response","208","589238","0.0-4.0-1.56","","<img src=""img/grey-n.png"" border=""10"">","null","trial","32","","0.8,0.2","1:go_a","0",""
"null","","html-keyboard-response","209","590240","0.0-4.0-2.56","","<div style=""font-size:60px;"">+</div>","null","","","","","","",""
"386.67499998700805","","image-keyboard-response","210","590630","0.0-4.0-0.57","","img/pink.png","32","trial","null","false","0.2,0.8","2:nogo_b","",""
"null","","html-keyboard-response","211","591633","0.0-4.0-1.57","","<img src=""img/pink-n.png"" border=""10"">","null","trial","null","","0.2,0.8","2:nogo_b","0",""
"null","","html-keyboard-response","212","592635","0.0-4.0-2.57","","<div style=""font-size:60px;"">+</div>","null","","","","","","",""
"486.7649999796413","","image-keyboard-response","213","593124","0.0-4.0-0.58","","img/pink.png","32","trial","null","false","0.2,0.8","2:nogo_b","",""
"null","","html-keyboard-response","214","594127","0.0-4.0-1.58","","<img src=""img/pink-n.png"" border=""10"">","null","trial","null","","0.2,0.8","2:nogo_b","0",""
"null","","html-keyboard-response","215","595129","0.0-4.0-2.58","","<div style=""font-size:60px;"">+</div>","null","","","","","","",""
"381.3699999882374","","image-keyboard-response","216","595513","0.0-4.0-0.59","","img/grey.png","32","trial","32","true","0.8,0.2","1:go_a","",""
"null","","html-keyboard-response","217","596518","0.0-4.0-1.59","","<img src=""img/grey-n.png"" border=""10"">","null","trial","32","","0.8,0.2","1:go_a","0",""
"null","","html-keyboard-response","218","597520","0.0-4.0-2.59","","<div style=""font-size:60px;"">+</div>","null","","","","","","",""
"59827.03999997466","","instructions","219","657348","0.0-5.0","[{""page_index"":0,""viewing_time"":59826.364999986254}]","","","","","","","","",""
"693.120000010822","","image-keyboard-response","220","658044","0.0-6.0-0.0","","img/grey.png","32","trial","null","false","0.2,0.8","2:nogo_b","",""
"null","","html-keyboard-response","221","659047","0.0-6.0-1.0","","<img src=""img/grey-n.png"" border=""10"">","null","trial","null","","0.2,0.8","2:nogo_b","0",""
"null","","html-keyboard-response","222","660049","0.0-6.0-2.0","","<div style=""font-size:60px;"">+</div>","null","","","","","","",""
"477.4699999834411","","image-keyboard-response","223","660528","0.0-6.0-0.1","","img/yellow.png","32","trial","null","false","0,1","4:nogo_d","",""
"null","","html-keyboard-response","224","661531","0.0-6.0-1.1","","<img src=""img/yellow-n.png"" border=""10"">","null","trial","null","","0,1","4:nogo_d","0",""
"null","","html-keyboard-response","225","662534","0.0-6.0-2.1","","<div style=""font-size:60px;"">+</div>","null","","","","","","",""
"421.10500001581386","","image-keyboard-response","226","662957","0.0-6.0-0.2","","img/green.png","32","trial","32","true","1,0","3:go_c","",""
"null","","html-keyboard-response","227","663961","0.0-6.0-1.2","","<img src=""img/green-r.png"" border=""10"">","null","trial","32","","1,0","3:go_c","1",""
"null","","html-keyboard-response","228","664963","0.0-6.0-2.2","","<div style=""font-size:60px;"">+</div>","null","","","","","","",""
"459.1800000052899","","image-keyboard-response","229","665424","0.0-6.0-0.3","","img/red.png","32","trial","32","true","0.8,0.2","1:go_a","",""
"null","","html-keyboard-response","230","666427","0.0-6.0-1.3","","<img src=""img/red-r.png"" border=""10"">","null","trial","32","","0.8,0.2","1:go_a","1",""
"null","","html-keyboard-response","231","667430","0.0-6.0-2.3","","<div style=""font-size:60px;"">+</div>","null","","","","","","",""
"569.6199999947567","","image-keyboard-response","232","668002","0.0-6.0-0.4","","img/green.png","32","trial","32","true","1,0","3:go_c","",""
"null","","html-keyboard-response","233","669007","0.0-6.0-1.4","","<img src=""img/green-r.png"" border=""10"">","null","trial","32","","1,0","3:go_c","1",""
"null","","html-keyboard-response","234","670009","0.0-6.0-2.4","","<div style=""font-size:60px;"">+</div>","null","","","","","","",""
"495.39500000537373","","image-keyboard-response","235","670507","0.0-6.0-0.5","","img/red.png","32","trial","32","true","0.8,0.2","1:go_a","",""
"null","","html-keyboard-response","236","671510","0.0-6.0-1.5","","<img src=""img/red-r.png"" border=""10"">","null","trial","32","","0.8,0.2","1:go_a","1",""
"null","","html-keyboard-response","237","672512","0.0-6.0-2.5","","<div style=""font-size:60px;"">+</div>","null","","","","","","",""
"null","","image-keyboard-response","238","674015","0.0-6.0-0.6","","img/grey.png","null","trial","null","true","0.2,0.8","2:nogo_b","",""
"null","","html-keyboard-response","239","675021","0.0-6.0-1.6","","<img src=""img/grey-n.png"">","null","trial","null","","0.2,0.8","2:nogo_b","0",""
"null","","html-keyboard-response","240","676024","0.0-6.0-2.6","","<div style=""font-size:60px;"">+</div>","null","","","","","","",""
"null","","image-keyboard-response","241","677526","0.0-6.0-0.7","","img/yellow.png","null","trial","null","true","0,1","4:nogo_d","",""
"null","","html-keyboard-response","242","678532","0.0-6.0-1.7","","<img src=""img/yellow-r.png"">","null","trial","null","","0,1","4:nogo_d","1",""
"null","","html-keyboard-response","243","679534","0.0-6.0-2.7","","<div style=""font-size:60px;"">+</div>","null","","","","","","",""
"504.25499997800216","","image-keyboard-response","244","680041","0.0-6.0-0.8","","img/red.png","32","trial","32","true","0.8,0.2","1:go_a","",""
"null","","html-keyboard-response","245","681045","0.0-6.0-1.8","","<img src=""img/red-r.png"" border=""10"">","null","trial","32","","0.8,0.2","1:go_a","1",""
"null","","html-keyboard-response","246","682046","0.0-6.0-2.8","","<div style=""font-size:60px;"">+</div>","null","","","","","","",""
"376.589999999851","","image-keyboard-response","247","682425","0.0-6.0-0.9","","img/green.png","32","trial","32","true","1,0","3:go_c","",""
"null","","html-keyboard-response","248","683428","0.0-6.0-1.9","","<img src=""img/green-r.png"" border=""10"">","null","trial","32","","1,0","3:go_c","1",""
"null","","html-keyboard-response","249","684430","0.0-6.0-2.9","","<div style=""font-size:60px;"">+</div>","null","","","","","","",""
"null","","image-keyboard-response","250","685933","0.0-6.0-0.10","","img/grey.png","null","trial","null","true","0.2,0.8","2:nogo_b","",""
"null","","html-keyboard-response","251","686938","0.0-6.0-1.10","","<img src=""img/grey-r.png"">","null","trial","null","","0.2,0.8","2:nogo_b","1",""
"null","","html-keyboard-response","252","687940","0.0-6.0-2.10","","<div style=""font-size:60px;"">+</div>","null","","","","","","",""
"535.1249999948777","","image-keyboard-response","253","688478","0.0-6.0-0.11","","img/yellow.png","32","trial","null","false","0,1","4:nogo_d","",""
"null","","html-keyboard-response","254","689480","0.0-6.0-1.11","","<img src=""img/yellow-n.png"" border=""10"">","null","trial","null","","0,1","4:nogo_d","0",""
"null","","html-keyboard-response","255","690483","0.0-6.0-2.11","","<div style=""font-size:60px;"">+</div>","null","","","","","","",""
"521.0800000058953","","image-keyboard-response","256","691006","0.0-6.0-0.12","","img/grey.png","32","trial","null","false","0.2,0.8","2:nogo_b","",""
"null","","html-keyboard-response","257","692009","0.0-6.0-1.12","","<img src=""img/grey-n.png"" border=""10"">","null","trial","null","","0.2,0.8","2:nogo_b","0",""
"null","","html-keyboard-response","258","693011","0.0-6.0-2.12","","<div style=""font-size:60px;"">+</div>","null","","","","","","",""
"413.765000004787","","image-keyboard-response","259","693428","0.0-6.0-0.13","","img/green.png","32","trial","32","true","1,0","3:go_c","",""
"null","","html-keyboard-response","260","694430","0.0-6.0-1.13","","<img src=""img/green-r.png"" border=""10"">","null","trial","32","","1,0","3:go_c","1",""
"null","","html-keyboard-response","261","695432","0.0-6.0-2.13","","<div style=""font-size:60px;"">+</div>","null","","","","","","",""
"412.9700000048615","","image-keyboard-response","262","695848","0.0-6.0-0.14","","img/yellow.png","32","trial","null","false","0,1","4:nogo_d","",""
"null","","html-keyboard-response","263","696851","0.0-6.0-1.14","","<img src=""img/yellow-n.png"" border=""10"">","null","trial","null","","0,1","4:nogo_d","0",""
"null","","html-keyboard-response","264","697853","0.0-6.0-2.14","","<div style=""font-size:60px;"">+</div>","null","","","","","","",""
"429.12499999511056","","image-keyboard-response","265","698285","0.0-6.0-0.15","","img/red.png","32","trial","32","true","0.8,0.2","1:go_a","",""
"null","","html-keyboard-response","266","699289","0.0-6.0-1.15","","<img src=""img/red-r.png"" border=""10"">","null","trial","32","","0.8,0.2","1:go_a","1",""
"null","","html-keyboard-response","267","700291","0.0-6.0-2.15","","<div style=""font-size:60px;"">+</div>","null","","","","","","",""
"null","","image-keyboard-response","268","701793","0.0-6.0-0.16","","img/grey.png","null","trial","null","true","0.2,0.8","2:nogo_b","",""
"null","","html-keyboard-response","269","702796","0.0-6.0-1.16","","<img src=""img/grey-r.png"">","null","trial","null","","0.2,0.8","2:nogo_b","1",""
"null","","html-keyboard-response","270","703798","0.0-6.0-2.16","","<div style=""font-size:60px;"">+</div>","null","","","","","","",""
"433.3700000133831","","image-keyboard-response","271","704233","0.0-6.0-0.17","","img/red.png","32","trial","32","true","0.8,0.2","1:go_a","",""
"null","","html-keyboard-response","272","705236","0.0-6.0-1.17","","<img src=""img/red-r.png"" border=""10"">","null","trial","32","","0.8,0.2","1:go_a","1",""
"null","","html-keyboard-response","273","706238","0.0-6.0-2.17","","<div style=""font-size:60px;"">+</div>","null","","","","","","",""
"721.079999988433","","image-keyboard-response","274","706962","0.0-6.0-0.18","","img/yellow.png","32","trial","null","false","0,1","4:nogo_d","",""
"null","","html-keyboard-response","275","707965","0.0-6.0-1.18","","<img src=""img/yellow-n.png"" border=""10"">","null","trial","null","","0,1","4:nogo_d","0",""
"null","","html-keyboard-response","276","708966","0.0-6.0-2.18","","<div style=""font-size:60px;"">+</div>","null","","","","","","",""
"424.53499999828637","","image-keyboard-response","277","709393","0.0-6.0-0.19","","img/green.png","32","trial","32","true","1,0","3:go_c","",""
"null","","html-keyboard-response","278","710396","0.0-6.0-1.19","","<img src=""img/green-r.png"" border=""10"">","null","trial","32","","1,0","3:go_c","1",""
"null","","html-keyboard-response","279","711398","0.0-6.0-2.19","","<div style=""font-size:60px;"">+</div>","null","","","","","","",""
"516.6000000026543","","image-keyboard-response","280","711916","0.0-6.0-0.20","","img/red.png","32","trial","32","true","0.8,0.2","1:go_a","",""
"null","","html-keyboard-response","281","712919","0.0-6.0-1.20","","<img src=""img/red-r.png"" border=""10"">","null","trial","32","","0.8,0.2","1:go_a","1",""
"null","","html-keyboard-response","282","713921","0.0-6.0-2.20","","<div style=""font-size:60px;"">+</div>","null","","","","","","",""
"null","","image-keyboard-response","283","715424","0.0-6.0-0.21","","img/yellow.png","null","trial","null","true","0,1","4:nogo_d","",""
"null","","html-keyboard-response","284","716430","0.0-6.0-1.21","","<img src=""img/yellow-r.png"">","null","trial","null","","0,1","4:nogo_d","1",""
"null","","html-keyboard-response","285","717431","0.0-6.0-2.21","","<div style=""font-size:60px;"">+</div>","null","","","","","","",""
"null","","image-keyboard-response","286","718934","0.0-6.0-0.22","","img/grey.png","null","trial","null","true","0.2,0.8","2:nogo_b","",""
"null","","html-keyboard-response","287","719938","0.0-6.0-1.22","","<img src=""img/grey-r.png"">","null","trial","null","","0.2,0.8","2:nogo_b","1",""
"null","","html-keyboard-response","288","720939","0.0-6.0-2.22","","<div style=""font-size:60px;"">+</div>","null","","","","","","",""
"473.25999999884516","","image-keyboard-response","289","721415","0.0-6.0-0.23","","img/green.png","32","trial","32","true","1,0","3:go_c","",""
"null","","html-keyboard-response","290","722420","0.0-6.0-1.23","","<img src=""img/green-r.png"" border=""10"">","null","trial","32","","1,0","3:go_c","1",""
"null","","html-keyboard-response","291","723422","0.0-6.0-2.23","","<div style=""font-size:60px;"">+</div>","null","","","","","","",""
"397.76500000152737","","image-keyboard-response","292","723823","0.0-6.0-0.24","","img/red.png","32","trial","32","true","0.8,0.2","1:go_a","",""
"null","","html-keyboard-response","293","724826","0.0-6.0-1.24","","<img src=""img/red-r.png"" border=""10"">","null","trial","32","","0.8,0.2","1:go_a","1",""
"null","","html-keyboard-response","294","725829","0.0-6.0-2.24","","<div style=""font-size:60px;"">+</div>","null","","","","","","",""
"522.4149999849033","","image-keyboard-response","295","726355","0.0-6.0-0.25","","img/yellow.png","32","trial","null","false","0,1","4:nogo_d","",""
"null","","html-keyboard-response","296","727358","0.0-6.0-1.25","","<img src=""img/yellow-n.png"" border=""10"">","null","trial","null","","0,1","4:nogo_d","0",""
"null","","html-keyboard-response","297","728360","0.0-6.0-2.25","","<div style=""font-size:60px;"">+</div>","null","","","","","","",""
"362.8749999916181","","image-keyboard-response","298","728726","0.0-6.0-0.26","","img/grey.png","32","trial","null","false","0.2,0.8","2:nogo_b","",""
"null","","html-keyboard-response","299","729729","0.0-6.0-1.26","","<img src=""img/grey-n.png"" border=""10"">","null","trial","null","","0.2,0.8","2:nogo_b","0",""
"null","","html-keyboard-response","300","730731","0.0-6.0-2.26","","<div style=""font-size:60px;"">+</div>","null","","","","","","",""
"345.1599999971222","","image-keyboard-response","301","731079","0.0-6.0-0.27","","img/green.png","32","trial","32","true","1,0","3:go_c","",""
"null","","html-keyboard-response","302","732083","0.0-6.0-1.27","","<img src=""img/green-r.png"" border=""10"">","null","trial","32","","1,0","3:go_c","1",""
"null","","html-keyboard-response","303","733085","0.0-6.0-2.27","","<div style=""font-size:60px;"">+</div>","null","","","","","","",""
"359.7799999988638","","image-keyboard-response","304","733446","0.0-6.0-0.28","","img/green.png","32","trial","32","true","1,0","3:go_c","",""
"null","","html-keyboard-response","305","734450","0.0-6.0-1.28","","<img src=""img/green-r.png"" border=""10"">","null","trial","32","","1,0","3:go_c","1",""
"null","","html-keyboard-response","306","735452","0.0-6.0-2.28","","<div style=""font-size:60px;"">+</div>","null","","","","","","",""
"567.0899999968242","","image-keyboard-response","307","736022","0.0-6.0-0.29","","img/yellow.png","32","trial","null","false","0,1","4:nogo_d","",""
"null","","html-keyboard-response","308","737025","0.0-6.0-1.29","","<img src=""img/yellow-n.png"" border=""10"">","null","trial","null","","0,1","4:nogo_d","0",""
"null","","html-keyboard-response","309","738027","0.0-6.0-2.29","","<div style=""font-size:60px;"">+</div>","null","","","","","","",""
"386.20999999693595","","image-keyboard-response","310","738416","0.0-6.0-0.30","","img/grey.png","32","trial","null","false","0.2,0.8","2:nogo_b","",""
"null","","html-keyboard-response","311","739420","0.0-6.0-1.30","","<img src=""img/grey-n.png"" border=""10"">","null","trial","null","","0.2,0.8","2:nogo_b","0",""
"null","","html-keyboard-response","312","740422","0.0-6.0-2.30","","<div style=""font-size:60px;"">+</div>","null","","","","","","",""
"475.99500001524575","","image-keyboard-response","313","740901","0.0-6.0-0.31","","img/red.png","32","trial","32","true","0.8,0.2","1:go_a","",""
"null","","html-keyboard-response","314","741904","0.0-6.0-1.31","","<img src=""img/red-r.png"" border=""10"">","null","trial","32","","0.8,0.2","1:go_a","1",""
"null","","html-keyboard-response","315","742906","0.0-6.0-2.31","","<div style=""font-size:60px;"">+</div>","null","","","","","","",""
"1008.7749999947846","","image-keyboard-response","316","743918","0.0-6.0-0.32","","img/yellow.png","32","trial","null","false","0,1","4:nogo_d","",""
"null","","html-keyboard-response","317","744920","0.0-6.0-1.32","","<img src=""img/yellow-n.png"" border=""10"">","null","trial","null","","0,1","4:nogo_d","0",""
"null","","html-keyboard-response","318","745922","0.0-6.0-2.32","","<div style=""font-size:60px;"">+</div>","null","","","","","","",""
"445.52499998826534","","image-keyboard-response","319","746371","0.0-6.0-0.33","","img/red.png","32","trial","32","true","0.8,0.2","1:go_a","",""
"null","","html-keyboard-response","320","747375","0.0-6.0-1.33","","<img src=""img/red-r.png"" border=""10"">","null","trial","32","","0.8,0.2","1:go_a","1",""
"null","","html-keyboard-response","321","748376","0.0-6.0-2.33","","<div style=""font-size:60px;"">+</div>","null","","","","","","",""
"488.7849999940954","","image-keyboard-response","322","748867","0.0-6.0-0.34","","img/green.png","32","trial","32","true","1,0","3:go_c","",""
"null","","html-keyboard-response","323","749870","0.0-6.0-1.34","","<img src=""img/green-r.png"" border=""10"">","null","trial","32","","1,0","3:go_c","1",""
"null","","html-keyboard-response","324","750875","0.0-6.0-2.34","","<div style=""font-size:60px;"">+</div>","null","","","","","","",""
"null","","image-keyboard-response","325","752377","0.0-6.0-0.35","","img/grey.png","null","trial","null","true","0.2,0.8","2:nogo_b","",""
"null","","html-keyboard-response","326","753382","0.0-6.0-1.35","","<img src=""img/grey-r.png"">","null","trial","null","","0.2,0.8","2:nogo_b","1",""
"null","","html-keyboard-response","327","754385","0.0-6.0-2.35","","<div style=""font-size:60px;"">+</div>","null","","","","","","",""
"497.64000001596287","","image-keyboard-response","328","754886","0.0-6.0-0.36","","img/red.png","32","trial","32","true","0.8,0.2","1:go_a","",""
"null","","html-keyboard-response","329","755890","0.0-6.0-1.36","","<img src=""img/red-r.png"" border=""10"">","null","trial","32","","0.8,0.2","1:go_a","1",""
"null","","html-keyboard-response","330","756892","0.0-6.0-2.36","","<div style=""font-size:60px;"">+</div>","null","","","","","","",""
"null","","image-keyboard-response","331","758396","0.0-6.0-0.37","","img/grey.png","null","trial","null","true","0.2,0.8","2:nogo_b","",""
"null","","html-keyboard-response","332","759402","0.0-6.0-1.37","","<img src=""img/grey-n.png"">","null","trial","null","","0.2,0.8","2:nogo_b","0",""
"null","","html-keyboard-response","333","760405","0.0-6.0-2.37","","<div style=""font-size:60px;"">+</div>","null","","","","","","",""
"430.71000001509674","","image-keyboard-response","334","760838","0.0-6.0-0.38","","img/green.png","32","trial","32","true","1,0","3:go_c","",""
"null","","html-keyboard-response","335","761841","0.0-6.0-1.38","","<img src=""img/green-r.png"" border=""10"">","null","trial","32","","1,0","3:go_c","1",""
"null","","html-keyboard-response","336","762843","0.0-6.0-2.38","","<div style=""font-size:60px;"">+</div>","null","","","","","","",""
"null","","image-keyboard-response","337","764346","0.0-6.0-0.39","","img/yellow.png","null","trial","null","true","0,1","4:nogo_d","",""
"null","","html-keyboard-response","338","765351","0.0-6.0-1.39","","<img src=""img/yellow-r.png"">","null","trial","null","","0,1","4:nogo_d","1",""
"null","","html-keyboard-response","339","766353","0.0-6.0-2.39","","<div style=""font-size:60px;"">+</div>","null","","","","","","",""
"453.975000011269","","image-keyboard-response","340","766810","0.0-6.0-0.40","","img/green.png","32","trial","32","true","1,0","3:go_c","",""
"null","","html-keyboard-response","341","767816","0.0-6.0-1.40","","<img src=""img/green-r.png"" border=""10"">","null","trial","32","","1,0","3:go_c","1",""
"null","","html-keyboard-response","342","768818","0.0-6.0-2.40","","<div style=""font-size:60px;"">+</div>","null","","","","","","",""
"683.5199999914039","","image-keyboard-response","343","769504","0.0-6.0-0.41","","img/yellow.png","32","trial","null","false","0,1","4:nogo_d","",""
"null","","html-keyboard-response","344","770507","0.0-6.0-1.41","","<img src=""img/yellow-n.png"" border=""10"">","null","trial","null","","0,1","4:nogo_d","0",""
"null","","html-keyboard-response","345","771510","0.0-6.0-2.41","","<div style=""font-size:60px;"">+</div>","null","","","","","","",""
"null","","image-keyboard-response","346","773013","0.0-6.0-0.42","","img/grey.png","null","trial","null","true","0.2,0.8","2:nogo_b","",""
"null","","html-keyboard-response","347","774018","0.0-6.0-1.42","","<img src=""img/grey-r.png"">","null","trial","null","","0.2,0.8","2:nogo_b","1",""
"null","","html-keyboard-response","348","775020","0.0-6.0-2.42","","<div style=""font-size:60px;"">+</div>","null","","","","","","",""
"483.669999986887","","image-keyboard-response","349","775506","0.0-6.0-0.43","","img/red.png","32","trial","32","true","0.8,0.2","1:go_a","",""
"null","","html-keyboard-response","350","776509","0.0-6.0-1.43","","<img src=""img/red-r.png"" border=""10"">","null","trial","32","","0.8,0.2","1:go_a","1",""
"null","","html-keyboard-response","351","777511","0.0-6.0-2.43","","<div style=""font-size:60px;"">+</div>","null","","","","","","",""
"null","","image-keyboard-response","352","779014","0.0-6.0-0.44","","img/grey.png","null","trial","null","true","0.2,0.8","2:nogo_b","",""
"null","","html-keyboard-response","353","780018","0.0-6.0-1.44","","<img src=""img/grey-r.png"">","null","trial","null","","0.2,0.8","2:nogo_b","1",""
"null","","html-keyboard-response","354","781020","0.0-6.0-2.44","","<div style=""font-size:60px;"">+</div>","null","","","","","","",""
"667.8299999912269","","image-keyboard-response","355","781690","0.0-6.0-0.45","","img/red.png","32","trial","32","true","0.8,0.2","1:go_a","",""
"null","","html-keyboard-response","356","782693","0.0-6.0-1.45","","<img src=""img/red-r.png"" border=""10"">","null","trial","32","","0.8,0.2","1:go_a","1",""
"null","","html-keyboard-response","357","783695","0.0-6.0-2.45","","<div style=""font-size:60px;"">+</div>","null","","","","","","",""
"479.8799999989569","","image-keyboard-response","358","784178","0.0-6.0-0.46","","img/green.png","32","trial","32","true","1,0","3:go_c","",""
"null","","html-keyboard-response","359","785181","0.0-6.0-1.46","","<img src=""img/green-r.png"" border=""10"">","null","trial","32","","1,0","3:go_c","1",""
"null","","html-keyboard-response","360","786183","0.0-6.0-2.46","","<div style=""font-size:60px;"">+</div>","null","","","","","","",""
"450.1450000097975","","image-keyboard-response","361","786635","0.0-6.0-0.47","","img/yellow.png","32","trial","null","false","0,1","4:nogo_d","",""
"null","","html-keyboard-response","362","787638","0.0-6.0-1.47","","<img src=""img/yellow-n.png"" border=""10"">","null","trial","null","","0,1","4:nogo_d","0",""
"null","","html-keyboard-response","363","788641","0.0-6.0-2.47","","<div style=""font-size:60px;"">+</div>","null","","","","","","",""
"547.6499999931548","","image-keyboard-response","364","789191","0.0-6.0-0.48","","img/yellow.png","32","trial","null","false","0,1","4:nogo_d","",""
"null","","html-keyboard-response","365","790197","0.0-6.0-1.48","","<img src=""img/yellow-n.png"" border=""10"">","null","trial","null","","0,1","4:nogo_d","0",""
"null","","html-keyboard-response","366","791199","0.0-6.0-2.48","","<div style=""font-size:60px;"">+</div>","null","","","","","","",""
"450.8300000161398","","image-keyboard-response","367","791653","0.0-6.0-0.49","","img/green.png","32","trial","32","true","1,0","3:go_c","",""
"null","","html-keyboard-response","368","792656","0.0-6.0-1.49","","<img src=""img/green-r.png"" border=""10"">","null","trial","32","","1,0","3:go_c","1",""
"null","","html-keyboard-response","369","793658","0.0-6.0-2.49","","<div style=""font-size:60px;"">+</div>","null","","","","","","",""
"null","","image-keyboard-response","370","795164","0.0-6.0-0.50","","img/grey.png","null","trial","null","true","0.2,0.8","2:nogo_b","",""
"null","","html-keyboard-response","371","796170","0.0-6.0-1.50","","<img src=""img/grey-r.png"">","null","trial","null","","0.2,0.8","2:nogo_b","1",""
"null","","html-keyboard-response","372","797172","0.0-6.0-2.50","","<div style=""font-size:60px;"">+</div>","null","","","","","","",""
"464.92999998736195","","image-keyboard-response","373","797651","0.0-6.0-0.51","","img/red.png","32","trial","32","true","0.8,0.2","1:go_a","",""
"null","","html-keyboard-response","374","798654","0.0-6.0-1.51","","<img src=""img/red-r.png"" border=""10"">","null","trial","32","","0.8,0.2","1:go_a","1",""
"null","","html-keyboard-response","375","799657","0.0-6.0-2.51","","<div style=""font-size:60px;"">+</div>","null","","","","","","",""
"382.7000000164844","","image-keyboard-response","376","800043","0.0-6.0-0.52","","img/green.png","32","trial","32","true","1,0","3:go_c","",""
"null","","html-keyboard-response","377","801046","0.0-6.0-1.52","","<img src=""img/green-r.png"" border=""10"">","null","trial","32","","1,0","3:go_c","1",""
"null","","html-keyboard-response","378","802049","0.0-6.0-2.52","","<div style=""font-size:60px;"">+</div>","null","","","","","","",""
"699.800000002142","","image-keyboard-response","379","802751","0.0-6.0-0.53","","img/yellow.png","32","trial","null","false","0,1","4:nogo_d","",""
"null","","html-keyboard-response","380","803754","0.0-6.0-1.53","","<img src=""img/yellow-n.png"" border=""10"">","null","trial","null","","0,1","4:nogo_d","0",""
"null","","html-keyboard-response","381","804756","0.0-6.0-2.53","","<div style=""font-size:60px;"">+</div>","null","","","","","","",""
"466.4150000025984","","image-keyboard-response","382","805225","0.0-6.0-0.54","","img/red.png","32","trial","32","true","0.8,0.2","1:go_a","",""
"null","","html-keyboard-response","383","806228","0.0-6.0-1.54","","<img src=""img/red-n.png"" border=""10"">","null","trial","32","","0.8,0.2","1:go_a","0",""
"null","","html-keyboard-response","384","807230","0.0-6.0-2.54","","<div style=""font-size:60px;"">+</div>","null","","","","","","",""
"null","","image-keyboard-response","385","808733","0.0-6.0-0.55","","img/grey.png","null","trial","null","true","0.2,0.8","2:nogo_b","",""
"null","","html-keyboard-response","386","809738","0.0-6.0-1.55","","<img src=""img/grey-r.png"">","null","trial","null","","0.2,0.8","2:nogo_b","1",""
"null","","html-keyboard-response","387","810741","0.0-6.0-2.55","","<div style=""font-size:60px;"">+</div>","null","","","","","","",""
"403.5349999903701","","image-keyboard-response","388","811147","0.0-6.0-0.56","","img/red.png","32","trial","32","true","0.8,0.2","1:go_a","",""
"null","","html-keyboard-response","389","812150","0.0-6.0-1.56","","<img src=""img/red-r.png"" border=""10"">","null","trial","32","","0.8,0.2","1:go_a","1",""
"null","","html-keyboard-response","390","813153","0.0-6.0-2.56","","<div style=""font-size:60px;"">+</div>","null","","","","","","",""
"446.24000001931563","","image-keyboard-response","391","813601","0.0-6.0-0.57","","img/green.png","32","trial","32","true","1,0","3:go_c","",""
"null","","html-keyboard-response","392","814604","0.0-6.0-1.57","","<img src=""img/green-r.png"" border=""10"">","null","trial","32","","1,0","3:go_c","1",""
"null","","html-keyboard-response","393","815606","0.0-6.0-2.57","","<div style=""font-size:60px;"">+</div>","null","","","","","","",""
"589.7499999846332","","image-keyboard-response","394","816199","0.0-6.0-0.58","","img/yellow.png","32","trial","null","false","0,1","4:nogo_d","",""
"null","","html-keyboard-response","395","817202","0.0-6.0-1.58","","<img src=""img/yellow-n.png"" border=""10"">","null","trial","null","","0,1","4:nogo_d","0",""
"null","","html-keyboard-response","396","818204","0.0-6.0-2.58","","<div style=""font-size:60px;"">+</div>","null","","","","","","",""
"455.0450000097044","","image-keyboard-response","397","818661","0.0-6.0-0.59","","img/grey.png","32","trial","null","false","0.2,0.8","2:nogo_b","",""
"null","","html-keyboard-response","398","819665","0.0-6.0-1.59","","<img src=""img/grey-n.png"" border=""10"">","null","trial","null","","0.2,0.8","2:nogo_b","0",""
"null","","html-keyboard-response","399","820667","0.0-6.0-2.59","","<div style=""font-size:60px;"">+</div>","null","","","","","","",""
"626.0400000028312","","image-keyboard-response","400","821296","0.0-6.0-0.60","","img/yellow.png","32","trial","null","false","0,1","4:nogo_d","",""
"null","","html-keyboard-response","401","822299","0.0-6.0-1.60","","<img src=""img/yellow-n.png"" border=""10"">","null","trial","null","","0,1","4:nogo_d","0",""
"null","","html-keyboard-response","402","823301","0.0-6.0-2.60","","<div style=""font-size:60px;"">+</div>","null","","","","","","",""
"369.6850000123959","","image-keyboard-response","403","823673","0.0-6.0-0.61","","img/red.png","32","trial","32","true","0.8,0.2","1:go_a","",""
"null","","html-keyboard-response","404","824677","0.0-6.0-1.61","","<img src=""img/red-r.png"" border=""10"">","null","trial","32","","0.8,0.2","1:go_a","1",""
"null","","html-keyboard-response","405","825679","0.0-6.0-2.61","","<div style=""font-size:60px;"">+</div>","null","","","","","","",""
"null","","image-keyboard-response","406","827182","0.0-6.0-0.62","","img/grey.png","null","trial","null","true","0.2,0.8","2:nogo_b","",""
"null","","html-keyboard-response","407","828187","0.0-6.0-1.62","","<img src=""img/grey-r.png"">","null","trial","null","","0.2,0.8","2:nogo_b","1",""
"null","","html-keyboard-response","408","829189","0.0-6.0-2.62","","<div style=""font-size:60px;"">+</div>","null","","","","","","",""
"417.4300000013318","","image-keyboard-response","409","829609","0.0-6.0-0.63","","img/green.png","32","trial","32","true","1,0","3:go_c","",""
"null","","html-keyboard-response","410","830612","0.0-6.0-1.63","","<img src=""img/green-r.png"" border=""10"">","null","trial","32","","1,0","3:go_c","1",""
"null","","html-keyboard-response","411","831614","0.0-6.0-2.63","","<div style=""font-size:60px;"">+</div>","null","","","","","","",""
"405.76499997405335","","image-keyboard-response","412","832023","0.0-6.0-0.64","","img/red.png","32","trial","32","true","0.8,0.2","1:go_a","",""
"null","","html-keyboard-response","413","833026","0.0-6.0-1.64","","<img src=""img/red-r.png"" border=""10"">","null","trial","32","","0.8,0.2","1:go_a","1",""
"null","","html-keyboard-response","414","834029","0.0-6.0-2.64","","<div style=""font-size:60px;"">+</div>","null","","","","","","",""
"439.2200000002049","","image-keyboard-response","415","834470","0.0-6.0-0.65","","img/grey.png","32","trial","null","false","0.2,0.8","2:nogo_b","",""
"null","","html-keyboard-response","416","835473","0.0-6.0-1.65","","<img src=""img/grey-n.png"" border=""10"">","null","trial","null","","0.2,0.8","2:nogo_b","0",""
"null","","html-keyboard-response","417","836475","0.0-6.0-2.65","","<div style=""font-size:60px;"">+</div>","null","","","","","","",""
"353.4450000151992","","image-keyboard-response","418","836831","0.0-6.0-0.66","","img/yellow.png","32","trial","null","false","0,1","4:nogo_d","",""
"null","","html-keyboard-response","419","837835","0.0-6.0-1.66","","<img src=""img/yellow-n.png"" border=""10"">","null","trial","null","","0,1","4:nogo_d","0",""
"null","","html-keyboard-response","420","838847","0.0-6.0-2.66","","<div style=""font-size:60px;"">+</div>","null","","","","","","",""
"470.34999998868443","","image-keyboard-response","421","839320","0.0-6.0-0.67","","img/green.png","32","trial","32","true","1,0","3:go_c","",""
"null","","html-keyboard-response","422","840323","0.0-6.0-1.67","","<img src=""img/green-r.png"" border=""10"">","null","trial","32","","1,0","3:go_c","1",""
"null","","html-keyboard-response","423","841325","0.0-6.0-2.67","","<div style=""font-size:60px;"">+</div>","null","","","","","","",""
"440.1500000094529","","image-keyboard-response","424","841767","0.0-6.0-0.68","","img/green.png","32","trial","32","true","1,0","3:go_c","",""
"null","","html-keyboard-response","425","842770","0.0-6.0-1.68","","<img src=""img/green-r.png"" border=""10"">","null","trial","32","","1,0","3:go_c","1",""
"null","","html-keyboard-response","426","843772","0.0-6.0-2.68","","<div style=""font-size:60px;"">+</div>","null","","","","","","",""
"585.7600000163075","","image-keyboard-response","427","844360","0.0-6.0-0.69","","img/yellow.png","32","trial","null","false","0,1","4:nogo_d","",""
"null","","html-keyboard-response","428","845363","0.0-6.0-1.69","","<img src=""img/yellow-n.png"" border=""10"">","null","trial","null","","0,1","4:nogo_d","0",""
"null","","html-keyboard-response","429","846365","0.0-6.0-2.69","","<div style=""font-size:60px;"">+</div>","null","","","","","","",""
"434.87999998615123","","image-keyboard-response","430","846803","0.0-6.0-0.70","","img/red.png","32","trial","32","true","0.8,0.2","1:go_a","",""
"null","","html-keyboard-response","431","847806","0.0-6.0-1.70","","<img src=""img/red-n.png"" border=""10"">","null","trial","32","","0.8,0.2","1:go_a","0",""
"null","","html-keyboard-response","432","848808","0.0-6.0-2.70","","<div style=""font-size:60px;"">+</div>","null","","","","","","",""
"365.5000000144355","","image-keyboard-response","433","849176","0.0-6.0-0.71","","img/grey.png","32","trial","null","false","0.2,0.8","2:nogo_b","",""
"null","","html-keyboard-response","434","850179","0.0-6.0-1.71","","<img src=""img/grey-r.png"" border=""10"">","null","trial","null","","0.2,0.8","2:nogo_b","1",""
"null","","html-keyboard-response","435","851181","0.0-6.0-2.71","","<div style=""font-size:60px;"">+</div>","null","","","","","","",""
"452.04499998362735","","image-keyboard-response","436","851636","0.0-6.0-0.72","","img/yellow.png","32","trial","null","false","0,1","4:nogo_d","",""
"null","","html-keyboard-response","437","852639","0.0-6.0-1.72","","<img src=""img/yellow-n.png"" border=""10"">","null","trial","null","","0,1","4:nogo_d","0",""
"null","","html-keyboard-response","438","853641","0.0-6.0-2.72","","<div style=""font-size:60px;"">+</div>","null","","","","","","",""
"391.60000000265427","","image-keyboard-response","439","854035","0.0-6.0-0.73","","img/green.png","32","trial","32","true","1,0","3:go_c","",""
"null","","html-keyboard-response","440","855038","0.0-6.0-1.73","","<img src=""img/green-r.png"" border=""10"">","null","trial","32","","1,0","3:go_c","1",""
"null","","html-keyboard-response","441","856041","0.0-6.0-2.73","","<div style=""font-size:60px;"">+</div>","null","","","","","","",""
"null","","image-keyboard-response","442","857544","0.0-6.0-0.74","","img/grey.png","null","trial","null","true","0.2,0.8","2:nogo_b","",""
"null","","html-keyboard-response","443","858548","0.0-6.0-1.74","","<img src=""img/grey-n.png"">","null","trial","null","","0.2,0.8","2:nogo_b","0",""
"null","","html-keyboard-response","444","859550","0.0-6.0-2.74","","<div style=""font-size:60px;"">+</div>","null","","","","","","",""
"381.9050000165589","","image-keyboard-response","445","859935","0.0-6.0-0.75","","img/red.png","32","trial","32","true","0.8,0.2","1:go_a","",""
"null","","html-keyboard-response","446","860938","0.0-6.0-1.75","","<img src=""img/red-r.png"" border=""10"">","null","trial","32","","0.8,0.2","1:go_a","1",""
"null","","html-keyboard-response","447","861940","0.0-6.0-2.75","","<div style=""font-size:60px;"">+</div>","null","","","","","","",""
"394.7950000001583","","image-keyboard-response","448","862337","0.0-6.0-0.76","","img/red.png","32","trial","32","true","0.8,0.2","1:go_a","",""
"null","","html-keyboard-response","449","863340","0.0-6.0-1.76","","<img src=""img/red-n.png"" border=""10"">","null","trial","32","","0.8,0.2","1:go_a","0",""
"null","","html-keyboard-response","450","864342","0.0-6.0-2.76","","<div style=""font-size:60px;"">+</div>","null","","","","","","",""
"null","","image-keyboard-response","451","865845","0.0-6.0-0.77","","img/grey.png","null","trial","null","true","0.2,0.8","2:nogo_b","",""
"null","","html-keyboard-response","452","866850","0.0-6.0-1.77","","<img src=""img/grey-r.png"">","null","trial","null","","0.2,0.8","2:nogo_b","1",""
"null","","html-keyboard-response","453","867853","0.0-6.0-2.77","","<div style=""font-size:60px;"">+</div>","null","","","","","","",""
"400.16999997897074","","image-keyboard-response","454","868255","0.0-6.0-0.78","","img/green.png","32","trial","32","true","1,0","3:go_c","",""
"null","","html-keyboard-response","455","869259","0.0-6.0-1.78","","<img src=""img/green-r.png"" border=""10"">","null","trial","32","","1,0","3:go_c","1",""
"null","","html-keyboard-response","456","870261","0.0-6.0-2.78","","<div style=""font-size:60px;"">+</div>","null","","","","","","",""
"397.59000000776723","","image-keyboard-response","457","870661","0.0-6.0-0.79","","img/yellow.png","32","trial","null","false","0,1","4:nogo_d","",""
"null","","html-keyboard-response","458","871664","0.0-6.0-1.79","","<img src=""img/yellow-n.png"" border=""10"">","null","trial","null","","0,1","4:nogo_d","0",""
"null","","html-keyboard-response","459","872666","0.0-6.0-2.79","","<div style=""font-size:60px;"">+</div>","null","","","","","","",""
"612.2249999898486","","image-keyboard-response","460","873281","0.0-6.0-0.80","","img/red.png","32","trial","32","true","0.8,0.2","1:go_a","",""
"null","","html-keyboard-response","461","874285","0.0-6.0-1.80","","<img src=""img/red-r.png"" border=""10"">","null","trial","32","","0.8,0.2","1:go_a","1",""
"null","","html-keyboard-response","462","875287","0.0-6.0-2.80","","<div style=""font-size:60px;"">+</div>","null","","","","","","",""
"null","","image-keyboard-response","463","876791","0.0-6.0-0.81","","img/grey.png","null","trial","null","true","0.2,0.8","2:nogo_b","",""
"null","","html-keyboard-response","464","877795","0.0-6.0-1.81","","<img src=""img/grey-r.png"">","null","trial","null","","0.2,0.8","2:nogo_b","1",""
"null","","html-keyboard-response","465","878797","0.0-6.0-2.81","","<div style=""font-size:60px;"">+</div>","null","","","","","","",""
"420.19999999320135","","image-keyboard-response","466","879220","0.0-6.0-0.82","","img/green.png","32","trial","32","true","1,0","3:go_c","",""
"null","","html-keyboard-response","467","880223","0.0-6.0-1.82","","<img src=""img/green-r.png"" border=""10"">","null","trial","32","","1,0","3:go_c","1",""
"null","","html-keyboard-response","468","881226","0.0-6.0-2.82","","<div style=""font-size:60px;"">+</div>","null","","","","","","",""
"711.9700000039302","","image-keyboard-response","469","881940","0.0-6.0-0.83","","img/yellow.png","32","trial","null","false","0,1","4:nogo_d","",""
"null","","html-keyboard-response","470","882944","0.0-6.0-1.83","","<img src=""img/yellow-n.png"" border=""10"">","null","trial","null","","0,1","4:nogo_d","0",""
"null","","html-keyboard-response","471","883948","0.0-6.0-2.83","","<div style=""font-size:60px;"">+</div>","null","","","","","","",""
"429.1850000154227","","image-keyboard-response","472","884380","0.0-6.0-0.84","","img/green.png","32","trial","32","true","1,0","3:go_c","",""
"null","","html-keyboard-response","473","885384","0.0-6.0-1.84","","<img src=""img/green-r.png"" border=""10"">","null","trial","32","","1,0","3:go_c","1",""
"null","","html-keyboard-response","474","886386","0.0-6.0-2.84","","<div style=""font-size:60px;"">+</div>","null","","","","","","",""
"480.69999998551793","","image-keyboard-response","475","886870","0.0-6.0-0.85","","img/grey.png","32","trial","null","false","0.2,0.8","2:nogo_b","",""
"null","","html-keyboard-response","476","887875","0.0-6.0-1.85","","<img src=""img/grey-n.png"" border=""10"">","null","trial","null","","0.2,0.8","2:nogo_b","0",""
"null","","html-keyboard-response","477","888877","0.0-6.0-2.85","","<div style=""font-size:60px;"">+</div>","null","","","","","","",""
"380.3900000057183","","image-keyboard-response","478","889261","0.0-6.0-0.86","","img/yellow.png","32","trial","null","false","0,1","4:nogo_d","",""
"null","","html-keyboard-response","479","890265","0.0-6.0-1.86","","<img src=""img/yellow-n.png"" border=""10"">","null","trial","null","","0,1","4:nogo_d","0",""
"null","","html-keyboard-response","480","891268","0.0-6.0-2.86","","<div style=""font-size:60px;"">+</div>","null","","","","","","",""
"787.1699999959674","","image-keyboard-response","481","892057","0.0-6.0-0.87","","img/red.png","32","trial","32","true","0.8,0.2","1:go_a","",""
"null","","html-keyboard-response","482","893060","0.0-6.0-1.87","","<img src=""img/red-r.png"" border=""10"">","null","trial","32","","0.8,0.2","1:go_a","1",""
"null","","html-keyboard-response","483","894063","0.0-6.0-2.87","","<div style=""font-size:60px;"">+</div>","null","","","","","","",""
"null","","image-keyboard-response","484","895566","0.0-6.0-0.88","","img/grey.png","null","trial","null","true","0.2,0.8","2:nogo_b","",""
"null","","html-keyboard-response","485","896571","0.0-6.0-1.88","","<img src=""img/grey-r.png"">","null","trial","null","","0.2,0.8","2:nogo_b","1",""
"null","","html-keyboard-response","486","897575","0.0-6.0-2.88","","<div style=""font-size:60px;"">+</div>","null","","","","","","",""
"619.5100000186358","","image-keyboard-response","487","898197","0.0-6.0-0.89","","img/green.png","32","trial","32","true","1,0","3:go_c","",""
"null","","html-keyboard-response","488","899201","0.0-6.0-1.89","","<img src=""img/green-r.png"" border=""10"">","null","trial","32","","1,0","3:go_c","1",""
"null","","html-keyboard-response","489","900203","0.0-6.0-2.89","","<div style=""font-size:60px;"">+</div>","null","","","","","","",""
"442.47499998891726","","image-keyboard-response","490","900648","0.0-6.0-0.90","","img/red.png","32","trial","32","true","0.8,0.2","1:go_a","",""
"null","","html-keyboard-response","491","901651","0.0-6.0-1.90","","<img src=""img/red-n.png"" border=""10"">","null","trial","32","","0.8,0.2","1:go_a","0",""
"null","","html-keyboard-response","492","902653","0.0-6.0-2.90","","<div style=""font-size:60px;"">+</div>","null","","","","","","",""
"770.8649999985937","","image-keyboard-response","493","903427","0.0-6.0-0.91","","img/yellow.png","32","trial","null","false","0,1","4:nogo_d","",""
"null","","html-keyboard-response","494","904429","0.0-6.0-1.91","","<img src=""img/yellow-n.png"" border=""10"">","null","trial","null","","0,1","4:nogo_d","0",""
"null","","html-keyboard-response","495","905432","0.0-6.0-2.91","","<div style=""font-size:60px;"">+</div>","null","","","","","","",""
"454.425000003539","","image-keyboard-response","496","905889","0.0-6.0-0.92","","img/grey.png","32","trial","null","false","0.2,0.8","2:nogo_b","",""
"null","","html-keyboard-response","497","906892","0.0-6.0-1.92","","<img src=""img/grey-n.png"" border=""10"">","null","trial","null","","0.2,0.8","2:nogo_b","0",""
"null","","html-keyboard-response","498","907894","0.0-6.0-2.92","","<div style=""font-size:60px;"">+</div>","null","","","","","","",""
"449.37999997637235","","image-keyboard-response","499","908346","0.0-6.0-0.93","","img/red.png","32","trial","32","true","0.8,0.2","1:go_a","",""
"null","","html-keyboard-response","500","909351","0.0-6.0-1.93","","<img src=""img/red-r.png"" border=""10"">","null","trial","32","","0.8,0.2","1:go_a","1",""
"null","","html-keyboard-response","501","910353","0.0-6.0-2.93","","<div style=""font-size:60px;"">+</div>","null","","","","","","",""
"null","","image-keyboard-response","502","911856","0.0-6.0-0.94","","img/yellow.png","null","trial","null","true","0,1","4:nogo_d","",""
"null","","html-keyboard-response","503","912859","0.0-6.0-1.94","","<img src=""img/yellow-r.png"">","null","trial","null","","0,1","4:nogo_d","1",""
"null","","html-keyboard-response","504","913863","0.0-6.0-2.94","","<div style=""font-size:60px;"">+</div>","null","","","","","","",""
"566.7849999736063","","image-keyboard-response","505","914433","0.0-6.0-0.95","","img/green.png","32","trial","32","true","1,0","3:go_c","",""
"null","","html-keyboard-response","506","915436","0.0-6.0-1.95","","<img src=""img/green-r.png"" border=""10"">","null","trial","32","","1,0","3:go_c","1",""
"null","","html-keyboard-response","507","916438","0.0-6.0-2.95","","<div style=""font-size:60px;"">+</div>","null","","","","","","",""
"null","","image-keyboard-response","508","917941","0.0-6.0-0.96","","img/grey.png","null","trial","null","true","0.2,0.8","2:nogo_b","",""
"null","","html-keyboard-response","509","918945","0.0-6.0-1.96","","<img src=""img/grey-n.png"">","null","trial","null","","0.2,0.8","2:nogo_b","0",""
"null","","html-keyboard-response","510","919947","0.0-6.0-2.96","","<div style=""font-size:60px;"">+</div>","null","","","","","","",""
"504.56500001018867","","image-keyboard-response","511","920454","0.0-6.0-0.97","","img/yellow.png","32","trial","null","false","0,1","4:nogo_d","",""
"null","","html-keyboard-response","512","921458","0.0-6.0-1.97","","<img src=""img/yellow-n.png"" border=""10"">","null","trial","null","","0,1","4:nogo_d","0",""
"null","","html-keyboard-response","513","922461","0.0-6.0-2.97","","<div style=""font-size:60px;"">+</div>","null","","","","","","",""
"398.83000002009794","","image-keyboard-response","514","922862","0.0-6.0-0.98","","img/green.png","32","trial","32","true","1,0","3:go_c","",""
"null","","html-keyboard-response","515","923865","0.0-6.0-1.98","","<img src=""img/green-r.png"" border=""10"">","null","trial","32","","1,0","3:go_c","1",""
"null","","html-keyboard-response","516","924867","0.0-6.0-2.98","","<div style=""font-size:60px;"">+</div>","null","","","","","","",""
"411.20000000228174","","image-keyboard-response","517","925280","0.0-6.0-0.99","","img/red.png","32","trial","32","true","0.8,0.2","1:go_a","",""
"null","","html-keyboard-response","518","926283","0.0-6.0-1.99","","<img src=""img/red-r.png"" border=""10"">","null","trial","32","","0.8,0.2","1:go_a","1",""
"null","","html-keyboard-response","519","927286","0.0-6.0-2.99","","<div style=""font-size:60px;"">+</div>","null","","","","","","",""
"null","","image-keyboard-response","520","928790","0.0-6.0-0.100","","img/grey.png","null","trial","null","true","0.2,0.8","2:nogo_b","",""
"null","","html-keyboard-response","521","929794","0.0-6.0-1.100","","<img src=""img/grey-r.png"">","null","trial","null","","0.2,0.8","2:nogo_b","1",""
"null","","html-keyboard-response","522","930798","0.0-6.0-2.100","","<div style=""font-size:60px;"">+</div>","null","","","","","","",""
"413.88999999617226","","image-keyboard-response","523","931215","0.0-6.0-0.101","","img/red.png","32","trial","32","true","0.8,0.2","1:go_a","",""
"null","","html-keyboard-response","524","932218","0.0-6.0-1.101","","<img src=""img/red-r.png"" border=""10"">","null","trial","32","","0.8,0.2","1:go_a","1",""
"null","","html-keyboard-response","525","933220","0.0-6.0-2.101","","<div style=""font-size:60px;"">+</div>","null","","","","","","",""
"472.99500001827255","","image-keyboard-response","526","933696","0.0-6.0-0.102","","img/green.png","32","trial","32","true","1,0","3:go_c","",""
"null","","html-keyboard-response","527","934699","0.0-6.0-1.102","","<img src=""img/green-r.png"" border=""10"">","null","trial","32","","1,0","3:go_c","1",""
"null","","html-keyboard-response","528","935701","0.0-6.0-2.102","","<div style=""font-size:60px;"">+</div>","null","","","","","","",""
"null","","image-keyboard-response","529","937204","0.0-6.0-0.103","","img/yellow.png","null","trial","null","true","0,1","4:nogo_d","",""
"null","","html-keyboard-response","530","938208","0.0-6.0-1.103","","<img src=""img/yellow-r.png"">","null","trial","null","","0,1","4:nogo_d","1",""
"null","","html-keyboard-response","531","939211","0.0-6.0-2.103","","<div style=""font-size:60px;"">+</div>","null","","","","","","",""
"686.2449999898672","","image-keyboard-response","532","939900","0.0-6.0-0.104","","img/yellow.png","32","trial","null","false","0,1","4:nogo_d","",""
"null","","html-keyboard-response","533","940903","0.0-6.0-1.104","","<img src=""img/yellow-n.png"" border=""10"">","null","trial","null","","0,1","4:nogo_d","0",""
"null","","html-keyboard-response","534","941905","0.0-6.0-2.104","","<div style=""font-size:60px;"">+</div>","null","","","","","","",""
"418.1399999943096","","image-keyboard-response","535","942325","0.0-6.0-0.105","","img/red.png","32","trial","32","true","0.8,0.2","1:go_a","",""
"null","","html-keyboard-response","536","943327","0.0-6.0-1.105","","<img src=""img/red-r.png"" border=""10"">","null","trial","32","","0.8,0.2","1:go_a","1",""
"null","","html-keyboard-response","537","944330","0.0-6.0-2.105","","<div style=""font-size:60px;"">+</div>","null","","","","","","",""
"null","","image-keyboard-response","538","945833","0.0-6.0-0.106","","img/grey.png","null","trial","null","true","0.2,0.8","2:nogo_b","",""
"null","","html-keyboard-response","539","946838","0.0-6.0-1.106","","<img src=""img/grey-r.png"">","null","trial","null","","0.2,0.8","2:nogo_b","1",""
"null","","html-keyboard-response","540","947840","0.0-6.0-2.106","","<div style=""font-size:60px;"">+</div>","null","","","","","","",""
"431.9799999939278","","image-keyboard-response","541","948274","0.0-6.0-0.107","","img/green.png","32","trial","32","true","1,0","3:go_c","",""
"null","","html-keyboard-response","542","949277","0.0-6.0-1.107","","<img src=""img/green-r.png"" border=""10"">","null","trial","32","","1,0","3:go_c","1",""
"null","","html-keyboard-response","543","950279","0.0-6.0-2.107","","<div style=""font-size:60px;"">+</div>","null","","","","","","",""
"453.15000001573935","","image-keyboard-response","544","950735","0.0-6.0-0.108","","img/red.png","32","trial","32","true","0.8,0.2","1:go_a","",""
"null","","html-keyboard-response","545","951737","0.0-6.0-1.108","","<img src=""img/red-r.png"" border=""10"">","null","trial","32","","0.8,0.2","1:go_a","1",""
"null","","html-keyboard-response","546","952740","0.0-6.0-2.108","","<div style=""font-size:60px;"">+</div>","null","","","","","","",""
"432.7049999847077","","image-keyboard-response","547","953176","0.0-6.0-0.109","","img/yellow.png","32","trial","null","false","0,1","4:nogo_d","",""
"null","","html-keyboard-response","548","954180","0.0-6.0-1.109","","<img src=""img/yellow-n.png"" border=""10"">","null","trial","null","","0,1","4:nogo_d","0",""
"null","","html-keyboard-response","549","955182","0.0-6.0-2.109","","<div style=""font-size:60px;"">+</div>","null","","","","","","",""
"420.1650000177324","","image-keyboard-response","550","955604","0.0-6.0-0.110","","img/grey.png","32","trial","null","false","0.2,0.8","2:nogo_b","",""
"null","","html-keyboard-response","551","956608","0.0-6.0-1.110","","<img src=""img/grey-n.png"" border=""10"">","null","trial","null","","0.2,0.8","2:nogo_b","0",""
"null","","html-keyboard-response","552","957610","0.0-6.0-2.110","","<div style=""font-size:60px;"">+</div>","null","","","","","","",""
"437.2599999769591","","image-keyboard-response","553","958050","0.0-6.0-0.111","","img/green.png","32","trial","32","true","1,0","3:go_c","",""
"null","","html-keyboard-response","554","959053","0.0-6.0-1.111","","<img src=""img/green-r.png"" border=""10"">","null","trial","32","","1,0","3:go_c","1",""
"null","","html-keyboard-response","555","960055","0.0-6.0-2.111","","<div style=""font-size:60px;"">+</div>","null","","","","","","",""
"731.4100000075996","","image-keyboard-response","556","960789","0.0-6.0-0.112","","img/yellow.png","32","trial","null","false","0,1","4:nogo_d","",""
"null","","html-keyboard-response","557","961792","0.0-6.0-1.112","","<img src=""img/yellow-n.png"" border=""10"">","null","trial","null","","0,1","4:nogo_d","0",""
"null","","html-keyboard-response","558","962794","0.0-6.0-2.112","","<div style=""font-size:60px;"">+</div>","null","","","","","","",""
"339.0099999960512","","image-keyboard-response","559","963135","0.0-6.0-0.113","","img/grey.png","32","trial","null","false","0.2,0.8","2:nogo_b","",""
"null","","html-keyboard-response","560","964138","0.0-6.0-1.113","","<img src=""img/grey-r.png"" border=""10"">","null","trial","null","","0.2,0.8","2:nogo_b","1",""
"null","","html-keyboard-response","561","965140","0.0-6.0-2.113","","<div style=""font-size:60px;"">+</div>","null","","","","","","",""
"364.25499999313615","","image-keyboard-response","562","965508","0.0-6.0-0.114","","img/red.png","32","trial","32","true","0.8,0.2","1:go_a","",""
"null","","html-keyboard-response","563","966512","0.0-6.0-1.114","","<img src=""img/red-r.png"" border=""10"">","null","trial","32","","0.8,0.2","1:go_a","1",""
"null","","html-keyboard-response","564","967514","0.0-6.0-2.114","","<div style=""font-size:60px;"">+</div>","null","","","","","","",""
"420.7450000103563","","image-keyboard-response","565","967938","0.0-6.0-0.115","","img/green.png","32","trial","32","true","1,0","3:go_c","",""
"null","","html-keyboard-response","566","968942","0.0-6.0-1.115","","<img src=""img/green-r.png"" border=""10"">","null","trial","32","","1,0","3:go_c","1",""
"null","","html-keyboard-response","567","969946","0.0-6.0-2.115","","<div style=""font-size:60px;"">+</div>","null","","","","","","",""
"409.6199999912642","","image-keyboard-response","568","970358","0.0-6.0-0.116","","img/grey.png","32","trial","null","false","0.2,0.8","2:nogo_b","",""
"null","","html-keyboard-response","569","971361","0.0-6.0-1.116","","<img src=""img/grey-n.png"" border=""10"">","null","trial","null","","0.2,0.8","2:nogo_b","0",""
"null","","html-keyboard-response","570","972364","0.0-6.0-2.116","","<div style=""font-size:60px;"">+</div>","null","","","","","","",""
"456.0449999989942","","image-keyboard-response","571","972823","0.0-6.0-0.117","","img/yellow.png","32","trial","null","false","0,1","4:nogo_d","",""
"null","","html-keyboard-response","572","973826","0.0-6.0-1.117","","<img src=""img/yellow-n.png"" border=""10"">","null","trial","null","","0,1","4:nogo_d","0",""
"null","","html-keyboard-response","573","974828","0.0-6.0-2.117","","<div style=""font-size:60px;"">+</div>","null","","","","","","",""
"396.28499999525957","","image-keyboard-response","574","975227","0.0-6.0-0.118","","img/red.png","32","trial","32","true","0.8,0.2","1:go_a","",""
"null","","html-keyboard-response","575","976230","0.0-6.0-1.118","","<img src=""img/red-n.png"" border=""10"">","null","trial","32","","0.8,0.2","1:go_a","0",""
"null","","html-keyboard-response","576","977232","0.0-6.0-2.118","","<div style=""font-size:60px;"">+</div>","null","","","","","","",""
"372.43499999749474","","image-keyboard-response","577","977607","0.0-6.0-0.119","","img/green.png","32","trial","32","true","1,0","3:go_c","",""
"null","","html-keyboard-response","578","978611","0.0-6.0-1.119","","<img src=""img/green-r.png"" border=""10"">","null","trial","32","","1,0","3:go_c","1",""
"null","","html-keyboard-response","579","979613","0.0-6.0-2.119","","<div style=""font-size:60px;"">+</div>","null","","","","","","",""
"184990.1649999956","","instructions","580","1164604","0.0-7.0","[{""page_index"":0,""viewing_time"":184989.2449999752}]","","","","","","","","",""
"790.00499995891","","image-keyboard-response","581","1165397","0.0-8.0-0.0","","img/yellow.png","32","trial","null","false","0.4,0.6","4:nogo_d","",""
"null","","html-keyboard-response","582","1166400","0.0-8.0-1.0","","<img src=""img/yellow-n.png"" border=""10"">","null","trial","null","","0.4,0.6","4:nogo_d","0",""
"null","","html-keyboard-response","583","1167403","0.0-8.0-2.0","","<div style=""font-size:60px;"">+</div>","null","","","","","","",""
"326.0899999877438","","image-keyboard-response","584","1167731","0.0-8.0-0.1","","img/pink.png","32","trial","32","true","0.6,0.4","3:go_c","",""
"null","","html-keyboard-response","585","1168736","0.0-8.0-1.1","","<img src=""img/pink-r.png"" border=""10"">","null","trial","32","","0.6,0.4","3:go_c","1",""
"null","","html-keyboard-response","586","1169739","0.0-8.0-2.1","","<div style=""font-size:60px;"">+</div>","null","","","","","","",""
"396.9550000037998","","image-keyboard-response","587","1170138","0.0-8.0-0.2","","img/red.png","32","trial","32","true","0.6,0.4","1:go_a","",""
"null","","html-keyboard-response","588","1171143","0.0-8.0-1.2","","<img src=""img/red-r.png"" border=""10"">","null","trial","32","","0.6,0.4","1:go_a","1",""
"null","","html-keyboard-response","589","1172145","0.0-8.0-2.2","","<div style=""font-size:60px;"">+</div>","null","","","","","","",""
"499.10000001545995","","image-keyboard-response","590","1172647","0.0-8.0-0.3","","img/grey.png","32","trial","null","false","0.4,0.6","2:nogo_b","",""
"null","","html-keyboard-response","591","1173651","0.0-8.0-1.3","","<img src=""img/grey-n.png"" border=""10"">","null","trial","null","","0.4,0.6","2:nogo_b","0",""
"null","","html-keyboard-response","592","1174653","0.0-8.0-2.3","","<div style=""font-size:60px;"">+</div>","null","","","","","","",""
"385.89500001398847","","image-keyboard-response","593","1175042","0.0-8.0-0.4","","img/red.png","32","trial","32","true","0.6,0.4","1:go_a","",""
"null","","html-keyboard-response","594","1176045","0.0-8.0-1.4","","<img src=""img/red-r.png"" border=""10"">","null","trial","32","","0.6,0.4","1:go_a","1",""
"null","","html-keyboard-response","595","1177047","0.0-8.0-2.4","","<div style=""font-size:60px;"">+</div>","null","","","","","","",""
"null","","image-keyboard-response","596","1178550","0.0-8.0-0.5","","img/grey.png","null","trial","null","true","0.4,0.6","2:nogo_b","",""
"null","","html-keyboard-response","597","1179555","0.0-8.0-1.5","","<img src=""img/grey-n.png"">","null","trial","null","","0.4,0.6","2:nogo_b","0",""
"null","","html-keyboard-response","598","1180557","0.0-8.0-2.5","","<div style=""font-size:60px;"">+</div>","null","","","","","","",""
"597.719999961555","","image-keyboard-response","599","1181157","0.0-8.0-0.6","","img/yellow.png","32","trial","null","false","0.4,0.6","4:nogo_d","",""
"null","","html-keyboard-response","600","1182162","0.0-8.0-1.6","","<img src=""img/yellow-n.png"" border=""10"">","null","trial","null","","0.4,0.6","4:nogo_d","0",""
"null","","html-keyboard-response","601","1183165","0.0-8.0-2.6","","<div style=""font-size:60px;"">+</div>","null","","","","","","",""
"538.9750000322238","","image-keyboard-response","602","1183707","0.0-8.0-0.7","","img/pink.png","32","trial","32","true","0.6,0.4","3:go_c","",""
"null","","html-keyboard-response","603","1184710","0.0-8.0-1.7","","<img src=""img/pink-n.png"" border=""10"">","null","trial","32","","0.6,0.4","3:go_c","0",""
"null","","html-keyboard-response","604","1185713","0.0-8.0-2.7","","<div style=""font-size:60px;"">+</div>","null","","","","","","",""
"377.3700000019744","","image-keyboard-response","605","1186101","0.0-8.0-0.8","","img/pink.png","32","trial","32","true","0.6,0.4","3:go_c","",""
"null","","html-keyboard-response","606","1187104","0.0-8.0-1.8","","<img src=""img/pink-r.png"" border=""10"">","null","trial","32","","0.6,0.4","3:go_c","1",""
"null","","html-keyboard-response","607","1188107","0.0-8.0-2.8","","<div style=""font-size:60px;"">+</div>","null","","","","","","",""
"465.55000002263114","","image-keyboard-response","608","1188575","0.0-8.0-0.9","","img/red.png","32","trial","32","true","0.6,0.4","1:go_a","",""
"null","","html-keyboard-response","609","1189578","0.0-8.0-1.9","","<img src=""img/red-r.png"" border=""10"">","null","trial","32","","0.6,0.4","1:go_a","1",""
"null","","html-keyboard-response","610","1190581","0.0-8.0-2.9","","<div style=""font-size:60px;"">+</div>","null","","","","","","",""
"null","","image-keyboard-response","611","1192084","0.0-8.0-0.10","","img/yellow.png","null","trial","null","true","0.4,0.6","4:nogo_d","",""
"null","","html-keyboard-response","612","1193090","0.0-8.0-1.10","","<img src=""img/yellow-r.png"">","null","trial","null","","0.4,0.6","4:nogo_d","1",""
"null","","html-keyboard-response","613","1194092","0.0-8.0-2.10","","<div style=""font-size:60px;"">+</div>","null","","","","","","",""
"null","","image-keyboard-response","614","1195596","0.0-8.0-0.11","","img/grey.png","null","trial","null","true","0.4,0.6","2:nogo_b","",""
"null","","html-keyboard-response","615","1196600","0.0-8.0-1.11","","<img src=""img/grey-r.png"">","null","trial","null","","0.4,0.6","2:nogo_b","1",""
"null","","html-keyboard-response","616","1197602","0.0-8.0-2.11","","<div style=""font-size:60px;"">+</div>","null","","","","","","",""
"null","","image-keyboard-response","617","1199106","0.0-8.0-0.12","","img/yellow.png","null","trial","null","true","0.4,0.6","4:nogo_d","",""
"null","","html-keyboard-response","618","1200110","0.0-8.0-1.12","","<img src=""img/yellow-r.png"">","null","trial","null","","0.4,0.6","4:nogo_d","1",""
"null","","html-keyboard-response","619","1201113","0.0-8.0-2.12","","<div style=""font-size:60px;"">+</div>","null","","","","","","",""
"483.87500003445894","","image-keyboard-response","620","1201600","0.0-8.0-0.13","","img/red.png","32","trial","32","true","0.6,0.4","1:go_a","",""
"null","","html-keyboard-response","621","1202602","0.0-8.0-1.13","","<img src=""img/red-n.png"" border=""10"">","null","trial","32","","0.6,0.4","1:go_a","0",""
"null","","html-keyboard-response","622","1203607","0.0-8.0-2.13","","<div style=""font-size:60px;"">+</div>","null","","","","","","",""
"null","","image-keyboard-response","623","1205111","0.0-8.0-0.14","","img/grey.png","null","trial","null","true","0.4,0.6","2:nogo_b","",""
"null","","html-keyboard-response","624","1206116","0.0-8.0-1.14","","<img src=""img/grey-r.png"">","null","trial","null","","0.4,0.6","2:nogo_b","1",""
"null","","html-keyboard-response","625","1207118","0.0-8.0-2.14","","<div style=""font-size:60px;"">+</div>","null","","","","","","",""
"510.89000003412366","","image-keyboard-response","626","1207633","0.0-8.0-0.15","","img/pink.png","32","trial","32","true","0.6,0.4","3:go_c","",""
"null","","html-keyboard-response","627","1208636","0.0-8.0-1.15","","<img src=""img/pink-r.png"" border=""10"">","null","trial","32","","0.6,0.4","3:go_c","1",""
"null","","html-keyboard-response","628","1209638","0.0-8.0-2.15","","<div style=""font-size:60px;"">+</div>","null","","","","","","",""
"391.84499997645617","","image-keyboard-response","629","1210032","0.0-8.0-0.16","","img/yellow.png","32","trial","null","false","0.4,0.6","4:nogo_d","",""
"null","","html-keyboard-response","630","1211036","0.0-8.0-1.16","","<img src=""img/yellow-r.png"" border=""10"">","null","trial","null","","0.4,0.6","4:nogo_d","1",""
"null","","html-keyboard-response","631","1212038","0.0-8.0-2.16","","<div style=""font-size:60px;"">+</div>","null","","","","","","",""
"414.27000000840053","","image-keyboard-response","632","1212455","0.0-8.0-0.17","","img/grey.png","32","trial","null","false","0.4,0.6","2:nogo_b","",""
"null","","html-keyboard-response","633","1213458","0.0-8.0-1.17","","<img src=""img/grey-r.png"" border=""10"">","null","trial","null","","0.4,0.6","2:nogo_b","1",""
"null","","html-keyboard-response","634","1214461","0.0-8.0-2.17","","<div style=""font-size:60px;"">+</div>","null","","","","","","",""
"null","","image-keyboard-response","635","1215964","0.0-8.0-0.18","","img/red.png","null","trial","32","false","0.6,0.4","1:go_a","",""
"null","","html-keyboard-response","636","1216969","0.0-8.0-1.18","","<img src=""img/red-n.png"">","null","trial","32","","0.6,0.4","1:go_a","0",""
"null","","html-keyboard-response","637","1217971","0.0-8.0-2.18","","<div style=""font-size:60px;"">+</div>","null","","","","","","",""
"524.0200000116602","","image-keyboard-response","638","1218498","0.0-8.0-0.19","","img/pink.png","32","trial","32","true","0.6,0.4","3:go_c","",""
"null","","html-keyboard-response","639","1219501","0.0-8.0-1.19","","<img src=""img/pink-r.png"" border=""10"">","null","trial","32","","0.6,0.4","3:go_c","1",""
"null","","html-keyboard-response","640","1220504","0.0-8.0-2.19","","<div style=""font-size:60px;"">+</div>","null","","","","","","",""
"522.8299999726005","","image-keyboard-response","641","1221030","0.0-8.0-0.20","","img/pink.png","32","trial","32","true","0.6,0.4","3:go_c","",""
"null","","html-keyboard-response","642","1222033","0.0-8.0-1.20","","<img src=""img/pink-r.png"" border=""10"">","null","trial","32","","0.6,0.4","3:go_c","1",""
"null","","html-keyboard-response","643","1223036","0.0-8.0-2.20","","<div style=""font-size:60px;"">+</div>","null","","","","","","",""
"null","","image-keyboard-response","644","1224539","0.0-8.0-0.21","","img/red.png","null","trial","32","false","0.6,0.4","1:go_a","",""
"null","","html-keyboard-response","645","1225543","0.0-8.0-1.21","","<img src=""img/red-n.png"">","null","trial","32","","0.6,0.4","1:go_a","0",""
"null","","html-keyboard-response","646","1226546","0.0-8.0-2.21","","<div style=""font-size:60px;"">+</div>","null","","","","","","",""
"668.9100000075996","","image-keyboard-response","647","1227217","0.0-8.0-0.22","","img/grey.png","32","trial","null","false","0.4,0.6","2:nogo_b","",""
"null","","html-keyboard-response","648","1228221","0.0-8.0-1.22","","<img src=""img/grey-r.png"" border=""10"">","null","trial","null","","0.4,0.6","2:nogo_b","1",""
"null","","html-keyboard-response","649","1229224","0.0-8.0-2.22","","<div style=""font-size:60px;"">+</div>","null","","","","","","",""
"336.7650000145659","","image-keyboard-response","650","1229564","0.0-8.0-0.23","","img/yellow.png","32","trial","null","false","0.4,0.6","4:nogo_d","",""
"null","","html-keyboard-response","651","1230568","0.0-8.0-1.23","","<img src=""img/yellow-n.png"" border=""10"">","null","trial","null","","0.4,0.6","4:nogo_d","0",""
"null","","html-keyboard-response","652","1231570","0.0-8.0-2.23","","<div style=""font-size:60px;"">+</div>","null","","","","","","",""
"466.5050000185147","","image-keyboard-response","653","1232040","0.0-8.0-0.24","","img/grey.png","32","trial","null","false","0.4,0.6","2:nogo_b","",""
"null","","html-keyboard-response","654","1233044","0.0-8.0-1.24","","<img src=""img/grey-r.png"" border=""10"">","null","trial","null","","0.4,0.6","2:nogo_b","1",""
"null","","html-keyboard-response","655","1234046","0.0-8.0-2.24","","<div style=""font-size:60px;"">+</div>","null","","","","","","",""
"597.0000000088476","","image-keyboard-response","656","1234646","0.0-8.0-0.25","","img/yellow.png","32","trial","null","false","0.4,0.6","4:nogo_d","",""
"null","","html-keyboard-response","657","1235649","0.0-8.0-1.25","","<img src=""img/yellow-n.png"" border=""10"">","null","trial","null","","0.4,0.6","4:nogo_d","0",""
"null","","html-keyboard-response","658","1236651","0.0-8.0-2.25","","<div style=""font-size:60px;"">+</div>","null","","","","","","",""
"439.97000000672415","","image-keyboard-response","659","1237093","0.0-8.0-0.26","","img/pink.png","32","trial","32","true","0.6,0.4","3:go_c","",""
"null","","html-keyboard-response","660","1238098","0.0-8.0-1.26","","<img src=""img/pink-n.png"" border=""10"">","null","trial","32","","0.6,0.4","3:go_c","0",""
"null","","html-keyboard-response","661","1239101","0.0-8.0-2.26","","<div style=""font-size:60px;"">+</div>","null","","","","","","",""
"null","","image-keyboard-response","662","1240606","0.0-8.0-0.27","","img/red.png","null","trial","32","false","0.6,0.4","1:go_a","",""
"null","","html-keyboard-response","663","1241611","0.0-8.0-1.27","","<img src=""img/red-r.png"">","null","trial","32","","0.6,0.4","1:go_a","1",""
"null","","html-keyboard-response","664","1242613","0.0-8.0-2.27","","<div style=""font-size:60px;"">+</div>","null","","","","","","",""
"468.5049999970943","","image-keyboard-response","665","1243084","0.0-8.0-0.28","","img/pink.png","32","trial","32","true","0.6,0.4","3:go_c","",""
"null","","html-keyboard-response","666","1244089","0.0-8.0-1.28","","<img src=""img/pink-r.png"" border=""10"">","null","trial","32","","0.6,0.4","3:go_c","1",""
"null","","html-keyboard-response","667","1245092","0.0-8.0-2.28","","<div style=""font-size:60px;"">+</div>","null","","","","","","",""
"394.7150000021793","","image-keyboard-response","668","1245490","0.0-8.0-0.29","","img/yellow.png","32","trial","null","false","0.4,0.6","4:nogo_d","",""
"null","","html-keyboard-response","669","1246493","0.0-8.0-1.29","","<img src=""img/yellow-n.png"" border=""10"">","null","trial","null","","0.4,0.6","4:nogo_d","0",""
"null","","html-keyboard-response","670","1247495","0.0-8.0-2.29","","<div style=""font-size:60px;"">+</div>","null","","","","","","",""
"372.52000003354624","","image-keyboard-response","671","1247875","0.0-8.0-0.30","","img/red.png","32","trial","32","true","0.6,0.4","1:go_a","",""
"null","","html-keyboard-response","672","1248878","0.0-8.0-1.30","","<img src=""img/red-n.png"" border=""10"">","null","trial","32","","0.6,0.4","1:go_a","0",""
"null","","html-keyboard-response","673","1249881","0.0-8.0-2.30","","<div style=""font-size:60px;"">+</div>","null","","","","","","",""
"1010.9950000187382","","image-keyboard-response","674","1250894","0.0-8.0-0.31","","img/grey.png","32","trial","null","false","0.4,0.6","2:nogo_b","",""
