"rt","url","trial_type","trial_index","time_elapsed","internal_node_id","view_history","stimulus","key_press","test_part","correct_response","correct","use_rew","which_stim","reward","responses"
"26617.975000001024","consent.html","external-html","0","27287","0.0-0.0","","","","","","","","","",""
"238967.0849999966","","instructions","1","266264","0.0-1.0","[{""page_index"":0,""viewing_time"":4379.264999995939},{""page_index"":1,""viewing_time"":24754.03499999811},{""page_index"":2,""viewing_time"":7350.900000004913},{""page_index"":3,""viewing_time"":121763.98999999947},{""page_index"":4,""viewing_time"":21442.4549999967},{""page_index"":3,""viewing_time"":10886.265000001004},{""page_index"":2,""viewing_time"":4904.145000000426},{""page_index"":3,""viewing_time"":1528.5100000037346},{""page_index"":2,""viewing_time"":3107.140000000072},{""page_index"":3,""viewing_time"":2589.524999995774},{""page_index"":4,""viewing_time"":4351.5950000000885},{""page_index"":5,""viewing_time"":10416.510000002745},{""page_index"":6,""viewing_time"":21489.94500000117}]","","","","","","","","",""
"null","","image-keyboard-response","2","267771","0.0-2.0-0.0","","img/test2.PNG","null","practice","null","true","","","",""
"null","","html-keyboard-response","3","268777","0.0-2.0-1.0","","<img src=""img/test2-reward.PNG"">","null","","","","","","",""
"null","","html-keyboard-response","4","269780","0.0-2.0-2.0","","<div style=""font-size:60px;"">+</div>","null","","","","","","",""
"null","","image-keyboard-response","5","271289","0.0-2.0-0.1","","img/test3.PNG","null","practice","null","true","","","",""
"null","","html-keyboard-response","6","272292","0.0-2.0-1.1","","<img src=""img/test3-reward.PNG"">","null","","","","","","",""
"null","","html-keyboard-response","7","273295","0.0-2.0-2.1","","<div style=""font-size:60px;"">+</div>","null","","","","","","",""
"523.669999995036","","image-keyboard-response","8","273823","0.0-2.0-0.2","","img/test1.PNG","32","practice","32","true","","","",""
"null","","html-keyboard-response","9","274827","0.0-2.0-1.2","","<img src=""img/test1-reward.PNG"" border=""10px; grey"">","null","","","","","","",""
"null","","html-keyboard-response","10","275830","0.0-2.0-2.2","","<div style=""font-size:60px;"">+</div>","null","","","","","","",""
"null","","image-keyboard-response","11","277335","0.0-2.0-0.3","","img/test3.PNG","null","practice","null","true","","","",""
"null","","html-keyboard-response","12","278338","0.0-2.0-1.3","","<img src=""img/test3-reward.PNG"">","null","","","","","","",""
"null","","html-keyboard-response","13","279341","0.0-2.0-2.3","","<div style=""font-size:60px;"">+</div>","null","","","","","","",""
"487.15500000253087","","image-keyboard-response","14","279832","0.0-2.0-0.4","","img/test1.PNG","32","practice","32","true","","","",""
"null","","html-keyboard-response","15","280836","0.0-2.0-1.4","","<img src=""img/test1-reward.PNG"" border=""10px; grey"">","null","","","","","","",""
"null","","html-keyboard-response","16","281838","0.0-2.0-2.4","","<div style=""font-size:60px;"">+</div>","null","","","","","","",""
"null","","image-keyboard-response","17","283341","0.0-2.0-0.5","","img/test2.PNG","null","practice","null","true","","","",""
"null","","html-keyboard-response","18","284351","0.0-2.0-1.5","","<img src=""img/test2-reward.PNG"">","null","","","","","","",""
"null","","html-keyboard-response","19","285354","0.0-2.0-2.5","","<div style=""font-size:60px;"">+</div>","null","","","","","","",""
"null","","image-keyboard-response","20","286857","0.0-2.0-0.6","","img/test3.PNG","null","practice","null","true","","","",""
"null","","html-keyboard-response","21","287860","0.0-2.0-1.6","","<img src=""img/test3-reward.PNG"">","null","","","","","","",""
"null","","html-keyboard-response","22","288863","0.0-2.0-2.6","","<div style=""font-size:60px;"">+</div>","null","","","","","","",""
"null","","image-keyboard-response","23","290367","0.0-2.0-0.7","","img/test2.PNG","null","practice","null","true","","","",""
"null","","html-keyboard-response","24","291370","0.0-2.0-1.7","","<img src=""img/test2-reward.PNG"">","null","","","","","","",""
"null","","html-keyboard-response","25","292373","0.0-2.0-2.7","","<div style=""font-size:60px;"">+</div>","null","","","","","","",""
"450.28499999898486","","image-keyboard-response","26","292827","0.0-2.0-0.8","","img/test1.PNG","32","practice","32","true","","","",""
"null","","html-keyboard-response","27","293831","0.0-2.0-1.8","","<img src=""img/test1-reward.PNG"" border=""10px; grey"">","null","","","","","","",""
"null","","html-keyboard-response","28","294835","0.0-2.0-2.8","","<div style=""font-size:60px;"">+</div>","null","","","","","","",""
"null","","image-keyboard-response","29","296339","0.0-2.0-0.9","","img/test2.PNG","null","practice","null","true","","","",""
"null","","html-keyboard-response","30","297341","0.0-2.0-1.9","","<img src=""img/test2-reward.PNG"">","null","","","","","","",""
"null","","html-keyboard-response","31","298343","0.0-2.0-2.9","","<div style=""font-size:60px;"">+</div>","null","","","","","","",""
"null","","image-keyboard-response","32","299857","0.0-2.0-0.10","","img/test3.PNG","null","practice","null","true","","","",""
"null","","html-keyboard-response","33","300869","0.0-2.0-1.10","","<img src=""img/test3-reward.PNG"">","null","","","","","","",""
"null","","html-keyboard-response","34","301881","0.0-2.0-2.10","","<div style=""font-size:60px;"">+</div>","null","","","","","","",""
"466.9900000008056","","image-keyboard-response","35","302351","0.0-2.0-0.11","","img/test1.PNG","32","practice","32","true","","","",""
"null","","html-keyboard-response","36","303353","0.0-2.0-1.11","","<img src=""img/test1-reward.PNG"" border=""10px; grey"">","null","","","","","","",""
"null","","html-keyboard-response","37","304356","0.0-2.0-2.11","","<div style=""font-size:60px;"">+</div>","null","","","","","","",""
"4369.59499999648","","instructions","38","308726","0.0-3.0","[{""page_index"":0,""viewing_time"":4368.679999999586}]","","","","","","","","",""
"null","","image-keyboard-response","39","310234","0.0-4.0-0.0","","img/grey.png","null","trial","null","true","0.2,0.8","2:nogo_b","",""
"null","","html-keyboard-response","40","311259","0.0-4.0-1.0","","<img src=""img/grey-r.png"">","null","trial","null","","0.2,0.8","2:nogo_b","1",""
"null","","html-keyboard-response","41","312263","0.0-4.0-2.0","","<div style=""font-size:60px;"">+</div>","null","","","","","","",""
"null","","image-keyboard-response","42","313766","0.0-4.0-0.1","","img/pink.png","null","trial","32","false","0.8,0.2","1:go_a","",""
"null","","html-keyboard-response","43","314771","0.0-4.0-1.1","","<img src=""img/pink-n.png"">","null","trial","32","","0.8,0.2","1:go_a","0",""
"null","","html-keyboard-response","44","315775","0.0-4.0-2.1","","<div style=""font-size:60px;"">+</div>","null","","","","","","",""
"799.1000000038184","","image-keyboard-response","45","316577","0.0-4.0-0.2","","img/grey.png","32","trial","null","false","0.2,0.8","2:nogo_b","",""
"null","","html-keyboard-response","46","317599","0.0-4.0-1.2","","<img src=""img/grey-r.png"" border=""10"">","null","trial","null","","0.2,0.8","2:nogo_b","1",""
"null","","html-keyboard-response","47","318601","0.0-4.0-2.2","","<div style=""font-size:60px;"">+</div>","null","","","","","","",""
"465.81000000151107","","image-keyboard-response","48","319070","0.0-4.0-0.3","","img/pink.png","32","trial","32","true","0.8,0.2","1:go_a","",""
"null","","html-keyboard-response","49","320075","0.0-4.0-1.3","","<img src=""img/pink-r.png"" border=""10"">","null","trial","32","","0.8,0.2","1:go_a","1",""
"null","","html-keyboard-response","50","321081","0.0-4.0-2.3","","<div style=""font-size:60px;"">+</div>","null","","","","","","",""
"null","","image-keyboard-response","51","322584","0.0-4.0-0.4","","img/grey.png","null","trial","null","true","0.2,0.8","2:nogo_b","",""
"null","","html-keyboard-response","52","323590","0.0-4.0-1.4","","<img src=""img/grey-r.png"">","null","trial","null","","0.2,0.8","2:nogo_b","1",""
"null","","html-keyboard-response","53","324592","0.0-4.0-2.4","","<div style=""font-size:60px;"">+</div>","null","","","","","","",""
"739.9499999955879","","image-keyboard-response","54","325334","0.0-4.0-0.5","","img/pink.png","32","trial","32","true","0.8,0.2","1:go_a","",""
"null","","html-keyboard-response","55","326339","0.0-4.0-1.5","","<img src=""img/pink-n.png"" border=""10"">","null","trial","32","","0.8,0.2","1:go_a","0",""
"null","","html-keyboard-response","56","327343","0.0-4.0-2.5","","<div style=""font-size:60px;"">+</div>","null","","","","","","",""
"668.4349999995902","","image-keyboard-response","57","328014","0.0-4.0-0.6","","img/pink.png","32","trial","32","true","0.8,0.2","1:go_a","",""
"null","","html-keyboard-response","58","329018","0.0-4.0-1.6","","<img src=""img/pink-r.png"" border=""10"">","null","trial","32","","0.8,0.2","1:go_a","1",""
"null","","html-keyboard-response","59","330021","0.0-4.0-2.6","","<div style=""font-size:60px;"">+</div>","null","","","","","","",""
"647.3499999992782","","image-keyboard-response","60","330671","0.0-4.0-0.7","","img/grey.png","32","trial","null","false","0.2,0.8","2:nogo_b","",""
"null","","html-keyboard-response","61","331675","0.0-4.0-1.7","","<img src=""img/grey-n.png"" border=""10"">","null","trial","null","","0.2,0.8","2:nogo_b","0",""
"null","","html-keyboard-response","62","332678","0.0-4.0-2.7","","<div style=""font-size:60px;"">+</div>","null","","","","","","",""
"652.989999995043","","image-keyboard-response","63","333335","0.0-4.0-0.8","","img/grey.png","32","trial","null","false","0.2,0.8","2:nogo_b","",""
"null","","html-keyboard-response","64","334338","0.0-4.0-1.8","","<img src=""img/grey-n.png"" border=""10"">","null","trial","null","","0.2,0.8","2:nogo_b","0",""
"null","","html-keyboard-response","65","335342","0.0-4.0-2.8","","<div style=""font-size:60px;"">+</div>","null","","","","","","",""
"625.4649999973481","","image-keyboard-response","66","335970","0.0-4.0-0.9","","img/pink.png","32","trial","32","true","0.8,0.2","1:go_a","",""
"null","","html-keyboard-response","67","336975","0.0-4.0-1.9","","<img src=""img/pink-r.png"" border=""10"">","null","trial","32","","0.8,0.2","1:go_a","1",""
"null","","html-keyboard-response","68","337979","0.0-4.0-2.9","","<div style=""font-size:60px;"">+</div>","null","","","","","","",""
"null","","image-keyboard-response","69","339486","0.0-4.0-0.10","","img/grey.png","null","trial","null","true","0.2,0.8","2:nogo_b","",""
"null","","html-keyboard-response","70","340501","0.0-4.0-1.10","","<img src=""img/grey-r.png"">","null","trial","null","","0.2,0.8","2:nogo_b","1",""
"null","","html-keyboard-response","71","341504","0.0-4.0-2.10","","<div style=""font-size:60px;"">+</div>","null","","","","","","",""
"498.1550000011339","","image-keyboard-response","72","342005","0.0-4.0-0.11","","img/pink.png","32","trial","32","true","0.8,0.2","1:go_a","",""
"null","","html-keyboard-response","73","343010","0.0-4.0-1.11","","<img src=""img/pink-r.png"" border=""10"">","null","trial","32","","0.8,0.2","1:go_a","1",""
"null","","html-keyboard-response","74","344013","0.0-4.0-2.11","","<div style=""font-size:60px;"">+</div>","null","","","","","","",""
"527.5599999949918","","image-keyboard-response","75","344543","0.0-4.0-0.12","","img/pink.png","32","trial","32","true","0.8,0.2","1:go_a","",""
"null","","html-keyboard-response","76","345549","0.0-4.0-1.12","","<img src=""img/pink-n.png"" border=""10"">","null","trial","32","","0.8,0.2","1:go_a","0",""
"null","","html-keyboard-response","77","346552","0.0-4.0-2.12","","<div style=""font-size:60px;"">+</div>","null","","","","","","",""
"1211.4299999957439","","image-keyboard-response","78","347766","0.0-4.0-0.13","","img/grey.png","32","trial","null","false","0.2,0.8","2:nogo_b","",""
"null","","html-keyboard-response","79","348772","0.0-4.0-1.13","","<img src=""img/grey-n.png"" border=""10"">","null","trial","null","","0.2,0.8","2:nogo_b","0",""
"null","","html-keyboard-response","80","349775","0.0-4.0-2.13","","<div style=""font-size:60px;"">+</div>","null","","","","","","",""
"814.2150000057882","","image-keyboard-response","81","350592","0.0-4.0-0.14","","img/grey.png","32","trial","null","false","0.2,0.8","2:nogo_b","",""
"null","","html-keyboard-response","82","351596","0.0-4.0-1.14","","<img src=""img/grey-n.png"" border=""10"">","null","trial","null","","0.2,0.8","2:nogo_b","0",""
"null","","html-keyboard-response","83","352606","0.0-4.0-2.14","","<div style=""font-size:60px;"">+</div>","null","","","","","","",""
"1095.3200000003562","","image-keyboard-response","84","353705","0.0-4.0-0.15","","img/pink.png","32","trial","32","true","0.8,0.2","1:go_a","",""
"null","","html-keyboard-response","85","354710","0.0-4.0-1.15","","<img src=""img/pink-n.png"" border=""10"">","null","trial","32","","0.8,0.2","1:go_a","0",""
"null","","html-keyboard-response","86","355713","0.0-4.0-2.15","","<div style=""font-size:60px;"">+</div>","null","","","","","","",""
"1194.2249999992782","","image-keyboard-response","87","356910","0.0-4.0-0.16","","img/grey.png","32","trial","null","false","0.2,0.8","2:nogo_b","",""
"null","","html-keyboard-response","88","357917","0.0-4.0-1.16","","<img src=""img/grey-n.png"" border=""10"">","null","trial","null","","0.2,0.8","2:nogo_b","0",""
"null","","html-keyboard-response","89","358919","0.0-4.0-2.16","","<div style=""font-size:60px;"">+</div>","null","","","","","","",""
"662.2599999973318","","image-keyboard-response","90","359584","0.0-4.0-0.17","","img/pink.png","32","trial","32","true","0.8,0.2","1:go_a","",""
"null","","html-keyboard-response","91","360589","0.0-4.0-1.17","","<img src=""img/pink-r.png"" border=""10"">","null","trial","32","","0.8,0.2","1:go_a","1",""
"null","","html-keyboard-response","92","361592","0.0-4.0-2.17","","<div style=""font-size:60px;"">+</div>","null","","","","","","",""
"null","","image-keyboard-response","93","363095","0.0-4.0-0.18","","img/grey.png","null","trial","null","true","0.2,0.8","2:nogo_b","",""
"null","","html-keyboard-response","94","364100","0.0-4.0-1.18","","<img src=""img/grey-r.png"">","null","trial","null","","0.2,0.8","2:nogo_b","1",""
"null","","html-keyboard-response","95","365103","0.0-4.0-2.18","","<div style=""font-size:60px;"">+</div>","null","","","","","","",""
"974.7099999949569","","image-keyboard-response","96","366080","0.0-4.0-0.19","","img/pink.png","32","trial","32","true","0.8,0.2","1:go_a","",""
"null","","html-keyboard-response","97","367084","0.0-4.0-1.19","","<img src=""img/pink-r.png"" border=""10"">","null","trial","32","","0.8,0.2","1:go_a","1",""
"null","","html-keyboard-response","98","368089","0.0-4.0-2.19","","<div style=""font-size:60px;"">+</div>","null","","","","","","",""
"703.4899999998743","","image-keyboard-response","99","368796","0.0-4.0-0.20","","img/pink.png","32","trial","32","true","0.8,0.2","1:go_a","",""
"null","","html-keyboard-response","100","369803","0.0-4.0-1.20","","<img src=""img/pink-n.png"" border=""10"">","null","trial","32","","0.8,0.2","1:go_a","0",""
"null","","html-keyboard-response","101","370807","0.0-4.0-2.20","","<div style=""font-size:60px;"">+</div>","null","","","","","","",""
"null","","image-keyboard-response","102","372309","0.0-4.0-0.21","","img/grey.png","null","trial","null","true","0.2,0.8","2:nogo_b","",""
"null","","html-keyboard-response","103","373313","0.0-4.0-1.21","","<img src=""img/grey-n.png"">","null","trial","null","","0.2,0.8","2:nogo_b","0",""
"null","","html-keyboard-response","104","374330","0.0-4.0-2.21","","<div style=""font-size:60px;"">+</div>","null","","","","","","",""
"null","","image-keyboard-response","105","375835","0.0-4.0-0.22","","img/pink.png","null","trial","32","false","0.8,0.2","1:go_a","",""
"null","","html-keyboard-response","106","376848","0.0-4.0-1.22","","<img src=""img/pink-n.png"">","null","trial","32","","0.8,0.2","1:go_a","0",""
"null","","html-keyboard-response","107","377851","0.0-4.0-2.22","","<div style=""font-size:60px;"">+</div>","null","","","","","","",""
"460.5349999983446","","image-keyboard-response","108","378319","0.0-4.0-0.23","","img/grey.png","32","trial","null","false","0.2,0.8","2:nogo_b","",""
"null","","html-keyboard-response","109","379332","0.0-4.0-1.23","","<img src=""img/grey-n.png"" border=""10"">","null","trial","null","","0.2,0.8","2:nogo_b","0",""
"null","","html-keyboard-response","110","380335","0.0-4.0-2.23","","<div style=""font-size:60px;"">+</div>","null","","","","","","",""
"862.2749999994994","","image-keyboard-response","111","381200","0.0-4.0-0.24","","img/grey.png","32","trial","null","false","0.2,0.8","2:nogo_b","",""
"null","","html-keyboard-response","112","382206","0.0-4.0-1.24","","<img src=""img/grey-n.png"" border=""10"">","null","trial","null","","0.2,0.8","2:nogo_b","0",""
"null","","html-keyboard-response","113","383217","0.0-4.0-2.24","","<div style=""font-size:60px;"">+</div>","null","","","","","","",""
"533.5550000017975","","image-keyboard-response","114","383753","0.0-4.0-0.25","","img/pink.png","32","trial","32","true","0.8,0.2","1:go_a","",""
"null","","html-keyboard-response","115","384763","0.0-4.0-1.25","","<img src=""img/pink-r.png"" border=""10"">","null","trial","32","","0.8,0.2","1:go_a","1",""
"null","","html-keyboard-response","116","385765","0.0-4.0-2.25","","<div style=""font-size:60px;"">+</div>","null","","","","","","",""
"412.25999999733176","","image-keyboard-response","117","386181","0.0-4.0-0.26","","img/grey.png","32","trial","null","false","0.2,0.8","2:nogo_b","",""
"null","","html-keyboard-response","118","387186","0.0-4.0-1.26","","<img src=""img/grey-n.png"" border=""10"">","null","trial","null","","0.2,0.8","2:nogo_b","0",""
"null","","html-keyboard-response","119","388190","0.0-4.0-2.26","","<div style=""font-size:60px;"">+</div>","null","","","","","","",""
"549.0350000036415","","image-keyboard-response","120","388742","0.0-4.0-0.27","","img/pink.png","32","trial","32","true","0.8,0.2","1:go_a","",""
"null","","html-keyboard-response","121","389746","0.0-4.0-1.27","","<img src=""img/pink-r.png"" border=""10"">","null","trial","32","","0.8,0.2","1:go_a","1",""
"null","","html-keyboard-response","122","390749","0.0-4.0-2.27","","<div style=""font-size:60px;"">+</div>","null","","","","","","",""
"506.5249999970547","","image-keyboard-response","123","391258","0.0-4.0-0.28","","img/pink.png","32","trial","32","true","0.8,0.2","1:go_a","",""
"null","","html-keyboard-response","124","392262","0.0-4.0-1.28","","<img src=""img/pink-n.png"" border=""10"">","null","trial","32","","0.8,0.2","1:go_a","0",""
"null","","html-keyboard-response","125","393265","0.0-4.0-2.28","","<div style=""font-size:60px;"">+</div>","null","","","","","","",""
"null","","image-keyboard-response","126","394769","0.0-4.0-0.29","","img/grey.png","null","trial","null","true","0.2,0.8","2:nogo_b","",""
"null","","html-keyboard-response","127","395774","0.0-4.0-1.29","","<img src=""img/grey-r.png"">","null","trial","null","","0.2,0.8","2:nogo_b","1",""
"null","","html-keyboard-response","128","396777","0.0-4.0-2.29","","<div style=""font-size:60px;"">+</div>","null","","","","","","",""
"null","","image-keyboard-response","129","398281","0.0-4.0-0.30","","img/grey.png","null","trial","null","true","0.2,0.8","2:nogo_b","",""
"null","","html-keyboard-response","130","399313","0.0-4.0-1.30","","<img src=""img/grey-r.png"">","null","trial","null","","0.2,0.8","2:nogo_b","1",""
"null","","html-keyboard-response","131","400319","0.0-4.0-2.30","","<div style=""font-size:60px;"">+</div>","null","","","","","","",""
"null","","image-keyboard-response","132","401821","0.0-4.0-0.31","","img/pink.png","null","trial","32","false","0.8,0.2","1:go_a","",""
"null","","html-keyboard-response","133","402824","0.0-4.0-1.31","","<img src=""img/pink-r.png"">","null","trial","32","","0.8,0.2","1:go_a","1",""
"null","","html-keyboard-response","134","403827","0.0-4.0-2.31","","<div style=""font-size:60px;"">+</div>","null","","","","","","",""
"580.0149999995483","","image-keyboard-response","135","404409","0.0-4.0-0.32","","img/pink.png","32","trial","32","true","0.8,0.2","1:go_a","",""
"null","","html-keyboard-response","136","405414","0.0-4.0-1.32","","<img src=""img/pink-r.png"" border=""10"">","null","trial","32","","0.8,0.2","1:go_a","1",""
"null","","html-keyboard-response","137","406417","0.0-4.0-2.32","","<div style=""font-size:60px;"">+</div>","null","","","","","","",""
"838.9699999970617","","image-keyboard-response","138","407260","0.0-4.0-0.33","","img/grey.png","32","trial","null","false","0.2,0.8","2:nogo_b","",""
"null","","html-keyboard-response","139","408265","0.0-4.0-1.33","","<img src=""img/grey-n.png"" border=""10"">","null","trial","null","","0.2,0.8","2:nogo_b","0",""
"null","","html-keyboard-response","140","409270","0.0-4.0-2.33","","<div style=""font-size:60px;"">+</div>","null","","","","","","",""
"729.4949999995879","","image-keyboard-response","141","410002","0.0-4.0-0.34","","img/grey.png","32","trial","null","false","0.2,0.8","2:nogo_b","",""
"null","","html-keyboard-response","142","411008","0.0-4.0-1.34","","<img src=""img/grey-r.png"" border=""10"">","null","trial","null","","0.2,0.8","2:nogo_b","1",""
"null","","html-keyboard-response","143","412012","0.0-4.0-2.34","","<div style=""font-size:60px;"">+</div>","null","","","","","","",""
"723.6899999988964","","image-keyboard-response","144","412738","0.0-4.0-0.35","","img/pink.png","32","trial","32","true","0.8,0.2","1:go_a","",""
"null","","html-keyboard-response","145","413742","0.0-4.0-1.35","","<img src=""img/pink-r.png"" border=""10"">","null","trial","32","","0.8,0.2","1:go_a","1",""
"null","","html-keyboard-response","146","414745","0.0-4.0-2.35","","<div style=""font-size:60px;"">+</div>","null","","","","","","",""
"790.3999999980442","","image-keyboard-response","147","415537","0.0-4.0-0.36","","img/grey.png","32","trial","null","false","0.2,0.8","2:nogo_b","",""
"null","","html-keyboard-response","148","416556","0.0-4.0-1.36","","<img src=""img/grey-r.png"" border=""10"">","null","trial","null","","0.2,0.8","2:nogo_b","1",""
"null","","html-keyboard-response","149","417560","0.0-4.0-2.36","","<div style=""font-size:60px;"">+</div>","null","","","","","","",""
"600.1800000012736","","image-keyboard-response","150","418163","0.0-4.0-0.37","","img/pink.png","32","trial","32","true","0.8,0.2","1:go_a","",""
"null","","html-keyboard-response","151","419170","0.0-4.0-1.37","","<img src=""img/pink-r.png"" border=""10"">","null","trial","32","","0.8,0.2","1:go_a","1",""
"null","","html-keyboard-response","152","420183","0.0-4.0-2.37","","<div style=""font-size:60px;"">+</div>","null","","","","","","",""
"null","","image-keyboard-response","153","421687","0.0-4.0-0.38","","img/grey.png","null","trial","null","true","0.2,0.8","2:nogo_b","",""
"null","","html-keyboard-response","154","422692","0.0-4.0-1.38","","<img src=""img/grey-n.png"">","null","trial","null","","0.2,0.8","2:nogo_b","0",""
"null","","html-keyboard-response","155","423700","0.0-4.0-2.38","","<div style=""font-size:60px;"">+</div>","null","","","","","","",""
"612.2999999934109","","image-keyboard-response","156","424315","0.0-4.0-0.39","","img/pink.png","32","trial","32","true","0.8,0.2","1:go_a","",""
"null","","html-keyboard-response","157","425320","0.0-4.0-1.39","","<img src=""img/pink-r.png"" border=""10"">","null","trial","32","","0.8,0.2","1:go_a","1",""
"null","","html-keyboard-response","158","426324","0.0-4.0-2.39","","<div style=""font-size:60px;"">+</div>","null","","","","","","",""
"512.669999996433","","image-keyboard-response","159","426839","0.0-4.0-0.40","","img/pink.png","32","trial","32","true","0.8,0.2","1:go_a","",""
"null","","html-keyboard-response","160","427843","0.0-4.0-1.40","","<img src=""img/pink-r.png"" border=""10"">","null","trial","32","","0.8,0.2","1:go_a","1",""
"null","","html-keyboard-response","161","428846","0.0-4.0-2.40","","<div style=""font-size:60px;"">+</div>","null","","","","","","",""
"740.7100000054925","","image-keyboard-response","162","429589","0.0-4.0-0.41","","img/grey.png","32","trial","null","false","0.2,0.8","2:nogo_b","",""
"null","","html-keyboard-response","163","430594","0.0-4.0-1.41","","<img src=""img/grey-n.png"" border=""10"">","null","trial","null","","0.2,0.8","2:nogo_b","0",""
"null","","html-keyboard-response","164","431604","0.0-4.0-2.41","","<div style=""font-size:60px;"">+</div>","null","","","","","","",""
"null","","image-keyboard-response","165","433107","0.0-4.0-0.42","","img/grey.png","null","trial","null","true","0.2,0.8","2:nogo_b","",""
"null","","html-keyboard-response","166","434112","0.0-4.0-1.42","","<img src=""img/grey-n.png"">","null","trial","null","","0.2,0.8","2:nogo_b","0",""
"null","","html-keyboard-response","167","435115","0.0-4.0-2.42","","<div style=""font-size:60px;"">+</div>","null","","","","","","",""
"530.1700000054552","","image-keyboard-response","168","435648","0.0-4.0-0.43","","img/pink.png","32","trial","32","true","0.8,0.2","1:go_a","",""
"null","","html-keyboard-response","169","436659","0.0-4.0-1.43","","<img src=""img/pink-r.png"" border=""10"">","null","trial","32","","0.8,0.2","1:go_a","1",""
"null","","html-keyboard-response","170","437664","0.0-4.0-2.43","","<div style=""font-size:60px;"">+</div>","null","","","","","","",""
"878.2799999971758","","image-keyboard-response","171","438547","0.0-4.0-0.44","","img/grey.png","32","trial","null","false","0.2,0.8","2:nogo_b","",""
"null","","html-keyboard-response","172","439552","0.0-4.0-1.44","","<img src=""img/grey-r.png"" border=""10"">","null","trial","null","","0.2,0.8","2:nogo_b","1",""
"null","","html-keyboard-response","173","440555","0.0-4.0-2.44","","<div style=""font-size:60px;"">+</div>","null","","","","","","",""
"763.3749999949941","","image-keyboard-response","174","441321","0.0-4.0-0.45","","img/pink.png","32","trial","32","true","0.8,0.2","1:go_a","",""
"null","","html-keyboard-response","175","442326","0.0-4.0-1.45","","<img src=""img/pink-r.png"" border=""10"">","null","trial","32","","0.8,0.2","1:go_a","1",""
"null","","html-keyboard-response","176","443330","0.0-4.0-2.45","","<div style=""font-size:60px;"">+</div>","null","","","","","","",""
"630.7349999988219","","image-keyboard-response","177","443963","0.0-4.0-0.46","","img/pink.png","32","trial","32","true","0.8,0.2","1:go_a","",""
"null","","html-keyboard-response","178","444968","0.0-4.0-1.46","","<img src=""img/pink-r.png"" border=""10"">","null","trial","32","","0.8,0.2","1:go_a","1",""
"null","","html-keyboard-response","179","445971","0.0-4.0-2.46","","<div style=""font-size:60px;"">+</div>","null","","","","","","",""
"null","","image-keyboard-response","180","447474","0.0-4.0-0.47","","img/grey.png","null","trial","null","true","0.2,0.8","2:nogo_b","",""
"null","","html-keyboard-response","181","448478","0.0-4.0-1.47","","<img src=""img/grey-r.png"">","null","trial","null","","0.2,0.8","2:nogo_b","1",""
"null","","html-keyboard-response","182","449482","0.0-4.0-2.47","","<div style=""font-size:60px;"">+</div>","null","","","","","","",""
"null","","image-keyboard-response","183","450986","0.0-4.0-0.48","","img/pink.png","null","trial","32","false","0.8,0.2","1:go_a","",""
"null","","html-keyboard-response","184","451990","0.0-4.0-1.48","","<img src=""img/pink-n.png"">","null","trial","32","","0.8,0.2","1:go_a","0",""
"null","","html-keyboard-response","185","452993","0.0-4.0-2.48","","<div style=""font-size:60px;"">+</div>","null","","","","","","",""
"null","","image-keyboard-response","186","454497","0.0-4.0-0.49","","img/grey.png","null","trial","null","true","0.2,0.8","2:nogo_b","",""
"null","","html-keyboard-response","187","455501","0.0-4.0-1.49","","<img src=""img/grey-r.png"">","null","trial","null","","0.2,0.8","2:nogo_b","1",""
"null","","html-keyboard-response","188","456503","0.0-4.0-2.49","","<div style=""font-size:60px;"">+</div>","null","","","","","","",""
"null","","image-keyboard-response","189","458008","0.0-4.0-0.50","","img/grey.png","null","trial","null","true","0.2,0.8","2:nogo_b","",""
"null","","html-keyboard-response","190","459012","0.0-4.0-1.50","","<img src=""img/grey-n.png"">","null","trial","null","","0.2,0.8","2:nogo_b","0",""
"null","","html-keyboard-response","191","460015","0.0-4.0-2.50","","<div style=""font-size:60px;"">+</div>","null","","","","","","",""
"410.06499999639345","","image-keyboard-response","192","460428","0.0-4.0-0.51","","img/pink.png","32","trial","32","true","0.8,0.2","1:go_a","",""
"null","","html-keyboard-response","193","461434","0.0-4.0-1.51","","<img src=""img/pink-r.png"" border=""10"">","null","trial","32","","0.8,0.2","1:go_a","1",""
"null","","html-keyboard-response","194","462451","0.0-4.0-2.51","","<div style=""font-size:60px;"">+</div>","null","","","","","","",""
"587.7000000036787","","image-keyboard-response","195","463042","0.0-4.0-0.52","","img/pink.png","32","trial","32","true","0.8,0.2","1:go_a","",""
"null","","html-keyboard-response","196","464047","0.0-4.0-1.52","","<img src=""img/pink-r.png"" border=""10"">","null","trial","32","","0.8,0.2","1:go_a","1",""
"null","","html-keyboard-response","197","465053","0.0-4.0-2.52","","<div style=""font-size:60px;"">+</div>","null","","","","","","",""
"524.6299999998882","","image-keyboard-response","198","465582","0.0-4.0-0.53","","img/grey.png","32","trial","null","false","0.2,0.8","2:nogo_b","",""
"null","","html-keyboard-response","199","466588","0.0-4.0-1.53","","<img src=""img/grey-n.png"" border=""10"">","null","trial","null","","0.2,0.8","2:nogo_b","0",""
"null","","html-keyboard-response","200","467590","0.0-4.0-2.53","","<div style=""font-size:60px;"">+</div>","null","","","","","","",""
"396.3999999978114","","image-keyboard-response","201","467991","0.0-4.0-0.54","","img/pink.png","32","trial","32","true","0.8,0.2","1:go_a","",""
"null","","html-keyboard-response","202","468997","0.0-4.0-1.54","","<img src=""img/pink-r.png"" border=""10"">","null","trial","32","","0.8,0.2","1:go_a","1",""
"null","","html-keyboard-response","203","470004","0.0-4.0-2.54","","<div style=""font-size:60px;"">+</div>","null","","","","","","",""
"649.6449999976903","","image-keyboard-response","204","470657","0.0-4.0-0.55","","img/grey.png","32","trial","null","false","0.2,0.8","2:nogo_b","",""
"null","","html-keyboard-response","205","471662","0.0-4.0-1.55","","<img src=""img/grey-r.png"" border=""10"">","null","trial","null","","0.2,0.8","2:nogo_b","1",""
"null","","html-keyboard-response","206","472665","0.0-4.0-2.55","","<div style=""font-size:60px;"">+</div>","null","","","","","","",""
"673.0199999947217","","image-keyboard-response","207","473340","0.0-4.0-0.56","","img/grey.png","32","trial","null","false","0.2,0.8","2:nogo_b","",""
"null","","html-keyboard-response","208","474344","0.0-4.0-1.56","","<img src=""img/grey-n.png"" border=""10"">","null","trial","null","","0.2,0.8","2:nogo_b","0",""
"null","","html-keyboard-response","209","475347","0.0-4.0-2.56","","<div style=""font-size:60px;"">+</div>","null","","","","","","",""
"398.7199999974109","","image-keyboard-response","210","475748","0.0-4.0-0.57","","img/pink.png","32","trial","32","true","0.8,0.2","1:go_a","",""
"null","","html-keyboard-response","211","476752","0.0-4.0-1.57","","<img src=""img/pink-r.png"" border=""10"">","null","trial","32","","0.8,0.2","1:go_a","1",""
"null","","html-keyboard-response","212","477761","0.0-4.0-2.57","","<div style=""font-size:60px;"">+</div>","null","","","","","","",""
"432.41000000125496","","image-keyboard-response","213","478196","0.0-4.0-0.58","","img/pink.png","32","trial","32","true","0.8,0.2","1:go_a","",""
"null","","html-keyboard-response","214","479201","0.0-4.0-1.58","","<img src=""img/pink-r.png"" border=""10"">","null","trial","32","","0.8,0.2","1:go_a","1",""
"null","","html-keyboard-response","215","480207","0.0-4.0-2.58","","<div style=""font-size:60px;"">+</div>","null","","","","","","",""
"462.69500000198605","","image-keyboard-response","216","480676","0.0-4.0-0.59","","img/grey.png","32","trial","null","false","0.2,0.8","2:nogo_b","",""
"null","","html-keyboard-response","217","481680","0.0-4.0-1.59","","<img src=""img/grey-n.png"" border=""10"">","null","trial","null","","0.2,0.8","2:nogo_b","0",""
"null","","html-keyboard-response","218","482683","0.0-4.0-2.59","","<div style=""font-size:60px;"">+</div>","null","","","","","","",""
"6254.099999998289","","instructions","219","488941","0.0-5.0","[{""page_index"":0,""viewing_time"":6253.2199999986915}]","","","","","","","","",""
"1184.4899999996414","","image-keyboard-response","220","490131","0.0-6.0-0.0","","img/yellow.png","32","trial","32","true","1,0","3:go_c","",""
"null","","html-keyboard-response","221","491135","0.0-6.0-1.0","","<img src=""img/yellow-r.png"" border=""10"">","null","trial","32","","1,0","3:go_c","1",""
"null","","html-keyboard-response","222","492138","0.0-6.0-2.0","","<div style=""font-size:60px;"">+</div>","null","","","","","","",""
"409.14000000339","","image-keyboard-response","223","492551","0.0-6.0-0.1","","img/red.png","32","trial","null","false","0.2,0.8","2:nogo_b","",""
"null","","html-keyboard-response","224","493557","0.0-6.0-1.1","","<img src=""img/red-n.png"" border=""10"">","null","trial","null","","0.2,0.8","2:nogo_b","0",""
"null","","html-keyboard-response","225","494559","0.0-6.0-2.1","","<div style=""font-size:60px;"">+</div>","null","","","","","","",""
"672.405000004801","","image-keyboard-response","226","495234","0.0-6.0-0.2","","img/grey.png","32","trial","null","false","0,1","4:nogo_d","",""
"null","","html-keyboard-response","227","496242","0.0-6.0-1.2","","<img src=""img/grey-n.png"" border=""10"">","null","trial","null","","0,1","4:nogo_d","0",""
"null","","html-keyboard-response","228","497244","0.0-6.0-2.2","","<div style=""font-size:60px;"">+</div>","null","","","","","","",""
"581.4250000039465","","image-keyboard-response","229","497828","0.0-6.0-0.3","","img/orange.png","32","trial","32","true","0.8,0.2","1:go_a","",""
"null","","html-keyboard-response","230","498833","0.0-6.0-1.3","","<img src=""img/orange-r.png"" border=""10"">","null","trial","32","","0.8,0.2","1:go_a","1",""
"null","","html-keyboard-response","231","499836","0.0-6.0-2.3","","<div style=""font-size:60px;"">+</div>","null","","","","","","",""
"766.6700000045239","","image-keyboard-response","232","500605","0.0-6.0-0.4","","img/yellow.png","32","trial","32","true","1,0","3:go_c","",""
"null","","html-keyboard-response","233","501620","0.0-6.0-1.4","","<img src=""img/yellow-r.png"" border=""10"">","null","trial","32","","1,0","3:go_c","1",""
"null","","html-keyboard-response","234","502622","0.0-6.0-2.4","","<div style=""font-size:60px;"">+</div>","null","","","","","","",""
"804.2449999993551","","image-keyboard-response","235","503429","0.0-6.0-0.5","","img/orange.png","32","trial","32","true","0.8,0.2","1:go_a","",""
"null","","html-keyboard-response","236","504434","0.0-6.0-1.5","","<img src=""img/orange-n.png"" border=""10"">","null","trial","32","","0.8,0.2","1:go_a","0",""
"null","","html-keyboard-response","237","505436","0.0-6.0-2.5","","<div style=""font-size:60px;"">+</div>","null","","","","","","",""
"496.0799999971641","","image-keyboard-response","238","505936","0.0-6.0-0.6","","img/grey.png","32","trial","null","false","0,1","4:nogo_d","",""
"null","","html-keyboard-response","239","506941","0.0-6.0-1.6","","<img src=""img/grey-n.png"" border=""10"">","null","trial","null","","0,1","4:nogo_d","0",""
"null","","html-keyboard-response","240","507946","0.0-6.0-2.6","","<div style=""font-size:60px;"">+</div>","null","","","","","","",""
"769.5450000028359","","image-keyboard-response","241","508718","0.0-6.0-0.7","","img/red.png","32","trial","null","false","0.2,0.8","2:nogo_b","",""
"null","","html-keyboard-response","242","509723","0.0-6.0-1.7","","<img src=""img/red-r.png"" border=""10"">","null","trial","null","","0.2,0.8","2:nogo_b","1",""
"null","","html-keyboard-response","243","510726","0.0-6.0-2.7","","<div style=""font-size:60px;"">+</div>","null","","","","","","",""
"1112.7500000002328","","image-keyboard-response","244","511843","0.0-6.0-0.8","","img/grey.png","32","trial","null","false","0,1","4:nogo_d","",""
"null","","html-keyboard-response","245","512847","0.0-6.0-1.8","","<img src=""img/grey-n.png"" border=""10"">","null","trial","null","","0,1","4:nogo_d","0",""
"null","","html-keyboard-response","246","513850","0.0-6.0-2.8","","<div style=""font-size:60px;"">+</div>","null","","","","","","",""
"686.6900000022724","","image-keyboard-response","247","514539","0.0-6.0-0.9","","img/yellow.png","32","trial","32","true","1,0","3:go_c","",""
"null","","html-keyboard-response","248","515544","0.0-6.0-1.9","","<img src=""img/yellow-r.png"" border=""10"">","null","trial","32","","1,0","3:go_c","1",""
"null","","html-keyboard-response","249","516547","0.0-6.0-2.9","","<div style=""font-size:60px;"">+</div>","null","","","","","","",""
"946.910000006028","","image-keyboard-response","250","517500","0.0-6.0-0.10","","img/red.png","32","trial","null","false","0.2,0.8","2:nogo_b","",""
"null","","html-keyboard-response","251","518510","0.0-6.0-1.10","","<img src=""img/red-r.png"" border=""10"">","null","trial","null","","0.2,0.8","2:nogo_b","1",""
"null","","html-keyboard-response","252","519522","0.0-6.0-2.10","","<div style=""font-size:60px;"">+</div>","null","","","","","","",""
"null","","image-keyboard-response","253","521024","0.0-6.0-0.11","","img/orange.png","null","trial","32","false","0.8,0.2","1:go_a","",""
"null","","html-keyboard-response","254","522030","0.0-6.0-1.11","","<img src=""img/orange-n.png"">","null","trial","32","","0.8,0.2","1:go_a","0",""
"null","","html-keyboard-response","255","523033","0.0-6.0-2.11","","<div style=""font-size:60px;"">+</div>","null","","","","","","",""
"null","","image-keyboard-response","256","524537","0.0-6.0-0.12","","img/yellow.png","null","trial","32","false","1,0","3:go_c","",""
"null","","html-keyboard-response","257","525544","0.0-6.0-1.12","","<img src=""img/yellow-n.png"">","null","trial","32","","1,0","3:go_c","0",""
"null","","html-keyboard-response","258","526550","0.0-6.0-2.12","","<div style=""font-size:60px;"">+</div>","null","","","","","","",""
"788.3399999991525","","image-keyboard-response","259","527342","0.0-6.0-0.13","","img/grey.png","32","trial","null","false","0,1","4:nogo_d","",""
"null","","html-keyboard-response","260","528348","0.0-6.0-1.13","","<img src=""img/grey-n.png"" border=""10"">","null","trial","null","","0,1","4:nogo_d","0",""
"null","","html-keyboard-response","261","529351","0.0-6.0-2.13","","<div style=""font-size:60px;"">+</div>","null","","","","","","",""
"372.4849999998696","","image-keyboard-response","262","529729","0.0-6.0-0.14","","img/orange.png","32","trial","32","true","0.8,0.2","1:go_a","",""
"null","","html-keyboard-response","263","530734","0.0-6.0-1.14","","<img src=""img/orange-r.png"" border=""10"">","null","trial","32","","0.8,0.2","1:go_a","1",""
"null","","html-keyboard-response","264","531737","0.0-6.0-2.14","","<div style=""font-size:60px;"">+</div>","null","","","","","","",""
"613.549999994575","","image-keyboard-response","265","532355","0.0-6.0-0.15","","img/red.png","32","trial","null","false","0.2,0.8","2:nogo_b","",""
"null","","html-keyboard-response","266","533361","0.0-6.0-1.15","","<img src=""img/red-n.png"" border=""10"">","null","trial","null","","0.2,0.8","2:nogo_b","0",""
"null","","html-keyboard-response","267","534364","0.0-6.0-2.15","","<div style=""font-size:60px;"">+</div>","null","","","","","","",""
"582.9850000009174","","image-keyboard-response","268","534950","0.0-6.0-0.16","","img/yellow.png","32","trial","32","true","1,0","3:go_c","",""
"null","","html-keyboard-response","269","535953","0.0-6.0-1.16","","<img src=""img/yellow-r.png"" border=""10"">","null","trial","32","","1,0","3:go_c","1",""
"null","","html-keyboard-response","270","536958","0.0-6.0-2.16","","<div style=""font-size:60px;"">+</div>","null","","","","","","",""
"504.42499999923166","","image-keyboard-response","271","537464","0.0-6.0-0.17","","img/red.png","32","trial","null","false","0.2,0.8","2:nogo_b","",""
"null","","html-keyboard-response","272","538469","0.0-6.0-1.17","","<img src=""img/red-n.png"" border=""10"">","null","trial","null","","0.2,0.8","2:nogo_b","0",""
"null","","html-keyboard-response","273","539472","0.0-6.0-2.17","","<div style=""font-size:60px;"">+</div>","null","","","","","","",""
"756.464999998454","","image-keyboard-response","274","540231","0.0-6.0-0.18","","img/orange.png","32","trial","32","true","0.8,0.2","1:go_a","",""
"null","","html-keyboard-response","275","541236","0.0-6.0-1.18","","<img src=""img/orange-r.png"" border=""10"">","null","trial","32","","0.8,0.2","1:go_a","1",""
"null","","html-keyboard-response","276","542249","0.0-6.0-2.18","","<div style=""font-size:60px;"">+</div>","null","","","","","","",""
"null","","image-keyboard-response","277","543753","0.0-6.0-0.19","","img/grey.png","null","trial","null","true","0,1","4:nogo_d","",""
"null","","html-keyboard-response","278","544758","0.0-6.0-1.19","","<img src=""img/grey-r.png"">","null","trial","null","","0,1","4:nogo_d","1",""
"null","","html-keyboard-response","279","545764","0.0-6.0-2.19","","<div style=""font-size:60px;"">+</div>","null","","","","","","",""
"955.4199999984121","","image-keyboard-response","280","546723","0.0-6.0-0.20","","img/yellow.png","32","trial","32","true","1,0","3:go_c","",""
"null","","html-keyboard-response","281","547728","0.0-6.0-1.20","","<img src=""img/yellow-r.png"" border=""10"">","null","trial","32","","1,0","3:go_c","1",""
"null","","html-keyboard-response","282","548731","0.0-6.0-2.20","","<div style=""font-size:60px;"">+</div>","null","","","","","","",""
"994.054999995511","","image-keyboard-response","283","549728","0.0-6.0-0.21","","img/orange.png","32","trial","32","true","0.8,0.2","1:go_a","",""
"null","","html-keyboard-response","284","550733","0.0-6.0-1.21","","<img src=""img/orange-r.png"" border=""10"">","null","trial","32","","0.8,0.2","1:go_a","1",""
"null","","html-keyboard-response","285","551736","0.0-6.0-2.21","","<div style=""font-size:60px;"">+</div>","null","","","","","","",""
"null","","image-keyboard-response","286","553240","0.0-6.0-0.22","","img/grey.png","null","trial","null","true","0,1","4:nogo_d","",""
"null","","html-keyboard-response","287","554245","0.0-6.0-1.22","","<img src=""img/grey-r.png"">","null","trial","null","","0,1","4:nogo_d","1",""
"null","","html-keyboard-response","288","555262","0.0-6.0-2.22","","<div style=""font-size:60px;"">+</div>","null","","","","","","",""
"null","","image-keyboard-response","289","556767","0.0-6.0-0.23","","img/red.png","null","trial","null","true","0.2,0.8","2:nogo_b","",""
"null","","html-keyboard-response","290","557772","0.0-6.0-1.23","","<img src=""img/red-n.png"">","null","trial","null","","0.2,0.8","2:nogo_b","0",""
"null","","html-keyboard-response","291","558774","0.0-6.0-2.23","","<div style=""font-size:60px;"">+</div>","null","","","","","","",""
"808.3999999945518","","image-keyboard-response","292","559586","0.0-6.0-0.24","","img/orange.png","32","trial","32","true","0.8,0.2","1:go_a","",""
"null","","html-keyboard-response","293","560596","0.0-6.0-1.24","","<img src=""img/orange-r.png"" border=""10"">","null","trial","32","","0.8,0.2","1:go_a","1",""
"null","","html-keyboard-response","294","561598","0.0-6.0-2.24","","<div style=""font-size:60px;"">+</div>","null","","","","","","",""
"null","","image-keyboard-response","295","563101","0.0-6.0-0.25","","img/red.png","null","trial","null","true","0.2,0.8","2:nogo_b","",""
"null","","html-keyboard-response","296","564107","0.0-6.0-1.25","","<img src=""img/red-n.png"">","null","trial","null","","0.2,0.8","2:nogo_b","0",""
"null","","html-keyboard-response","297","565109","0.0-6.0-2.25","","<div style=""font-size:60px;"">+</div>","null","","","","","","",""
"null","","image-keyboard-response","298","566612","0.0-6.0-0.26","","img/grey.png","null","trial","null","true","0,1","4:nogo_d","",""
"null","","html-keyboard-response","299","567617","0.0-6.0-1.26","","<img src=""img/grey-r.png"">","null","trial","null","","0,1","4:nogo_d","1",""
"null","","html-keyboard-response","300","568619","0.0-6.0-2.26","","<div style=""font-size:60px;"">+</div>","null","","","","","","",""
"461.7249999936903","","image-keyboard-response","301","569083","0.0-6.0-0.27","","img/yellow.png","32","trial","32","true","1,0","3:go_c","",""
"null","","html-keyboard-response","302","570094","0.0-6.0-1.27","","<img src=""img/yellow-r.png"" border=""10"">","null","trial","32","","1,0","3:go_c","1",""
"null","","html-keyboard-response","303","571098","0.0-6.0-2.27","","<div style=""font-size:60px;"">+</div>","null","","","","","","",""
"615.4650000025285","","image-keyboard-response","304","571716","0.0-6.0-0.28","","img/yellow.png","32","trial","32","true","1,0","3:go_c","",""
"null","","html-keyboard-response","305","572720","0.0-6.0-1.28","","<img src=""img/yellow-r.png"" border=""10"">","null","trial","32","","1,0","3:go_c","1",""
"null","","html-keyboard-response","306","573724","0.0-6.0-2.28","","<div style=""font-size:60px;"">+</div>","null","","","","","","",""
"629.3699999952223","","image-keyboard-response","307","574356","0.0-6.0-0.29","","img/red.png","32","trial","null","false","0.2,0.8","2:nogo_b","",""
"null","","html-keyboard-response","308","575368","0.0-6.0-1.29","","<img src=""img/red-n.png"" border=""10"">","null","trial","null","","0.2,0.8","2:nogo_b","0",""
"null","","html-keyboard-response","309","576370","0.0-6.0-2.29","","<div style=""font-size:60px;"">+</div>","null","","","","","","",""
"447.24999999743886","","image-keyboard-response","310","576821","0.0-6.0-0.30","","img/orange.png","32","trial","32","true","0.8,0.2","1:go_a","",""
"null","","html-keyboard-response","311","577836","0.0-6.0-1.30","","<img src=""img/orange-r.png"" border=""10"">","null","trial","32","","0.8,0.2","1:go_a","1",""
"null","","html-keyboard-response","312","578841","0.0-6.0-2.30","","<div style=""font-size:60px;"">+</div>","null","","","","","","",""
"null","","image-keyboard-response","313","580345","0.0-6.0-0.31","","img/grey.png","null","trial","null","true","0,1","4:nogo_d","",""
"null","","html-keyboard-response","314","581349","0.0-6.0-1.31","","<img src=""img/grey-r.png"">","null","trial","null","","0,1","4:nogo_d","1",""
"null","","html-keyboard-response","315","582354","0.0-6.0-2.31","","<div style=""font-size:60px;"">+</div>","null","","","","","","",""
"882.7050000036834","","image-keyboard-response","316","583240","0.0-6.0-0.32","","img/grey.png","32","trial","null","false","0,1","4:nogo_d","",""
"null","","html-keyboard-response","317","584243","0.0-6.0-1.32","","<img src=""img/grey-n.png"" border=""10"">","null","trial","null","","0,1","4:nogo_d","0",""
"null","","html-keyboard-response","318","585247","0.0-6.0-2.32","","<div style=""font-size:60px;"">+</div>","null","","","","","","",""
"null","","image-keyboard-response","319","586750","0.0-6.0-0.33","","img/red.png","null","trial","null","true","0.2,0.8","2:nogo_b","",""
"null","","html-keyboard-response","320","587758","0.0-6.0-1.33","","<img src=""img/red-n.png"">","null","trial","null","","0.2,0.8","2:nogo_b","0",""
"null","","html-keyboard-response","321","588760","0.0-6.0-2.33","","<div style=""font-size:60px;"">+</div>","null","","","","","","",""
"419.1350000037346","","image-keyboard-response","322","589183","0.0-6.0-0.34","","img/yellow.png","32","trial","32","true","1,0","3:go_c","",""
"null","","html-keyboard-response","323","590187","0.0-6.0-1.34","","<img src=""img/yellow-r.png"" border=""10"">","null","trial","32","","1,0","3:go_c","1",""
"null","","html-keyboard-response","324","591190","0.0-6.0-2.34","","<div style=""font-size:60px;"">+</div>","null","","","","","","",""
"582.6499999966472","","image-keyboard-response","325","591776","0.0-6.0-0.35","","img/orange.png","32","trial","32","true","0.8,0.2","1:go_a","",""
"null","","html-keyboard-response","326","592783","0.0-6.0-1.35","","<img src=""img/orange-r.png"" border=""10"">","null","trial","32","","0.8,0.2","1:go_a","1",""
"null","","html-keyboard-response","327","593785","0.0-6.0-2.35","","<div style=""font-size:60px;"">+</div>","null","","","","","","",""
"683.9899999976624","","image-keyboard-response","328","594473","0.0-6.0-0.36","","img/yellow.png","32","trial","32","true","1,0","3:go_c","",""
"null","","html-keyboard-response","329","595477","0.0-6.0-1.36","","<img src=""img/yellow-r.png"" border=""10"">","null","trial","32","","1,0","3:go_c","1",""
"null","","html-keyboard-response","330","596480","0.0-6.0-2.36","","<div style=""font-size:60px;"">+</div>","null","","","","","","",""
"null","","image-keyboard-response","331","597983","0.0-6.0-0.37","","img/grey.png","null","trial","null","true","0,1","4:nogo_d","",""
"null","","html-keyboard-response","332","598987","0.0-6.0-1.37","","<img src=""img/grey-r.png"">","null","trial","null","","0,1","4:nogo_d","1",""
"null","","html-keyboard-response","333","599991","0.0-6.0-2.37","","<div style=""font-size:60px;"">+</div>","null","","","","","","",""
"846.5199999990873","","image-keyboard-response","334","600840","0.0-6.0-0.38","","img/red.png","32","trial","null","false","0.2,0.8","2:nogo_b","",""
"null","","html-keyboard-response","335","601845","0.0-6.0-1.38","","<img src=""img/red-n.png"" border=""10"">","null","trial","null","","0.2,0.8","2:nogo_b","0",""
"null","","html-keyboard-response","336","602848","0.0-6.0-2.38","","<div style=""font-size:60px;"">+</div>","null","","","","","","",""
"645.4300000041258","","image-keyboard-response","337","603496","0.0-6.0-0.39","","img/orange.png","32","trial","32","true","0.8,0.2","1:go_a","",""
"null","","html-keyboard-response","338","604500","0.0-6.0-1.39","","<img src=""img/orange-r.png"" border=""10"">","null","trial","32","","0.8,0.2","1:go_a","1",""
"null","","html-keyboard-response","339","605503","0.0-6.0-2.39","","<div style=""font-size:60px;"">+</div>","null","","","","","","",""
"1126.7800000058487","","image-keyboard-response","340","606632","0.0-6.0-0.40","","img/orange.png","32","trial","32","true","0.8,0.2","1:go_a","",""
"null","","html-keyboard-response","341","607637","0.0-6.0-1.40","","<img src=""img/orange-r.png"" border=""10"">","null","trial","32","","0.8,0.2","1:go_a","1",""
"null","","html-keyboard-response","342","608640","0.0-6.0-2.40","","<div style=""font-size:60px;"">+</div>","null","","","","","","",""
"526.1849999951664","","image-keyboard-response","343","609169","0.0-6.0-0.41","","img/yellow.png","32","trial","32","true","1,0","3:go_c","",""
"null","","html-keyboard-response","344","610175","0.0-6.0-1.41","","<img src=""img/yellow-r.png"" border=""10"">","null","trial","32","","1,0","3:go_c","1",""
"null","","html-keyboard-response","345","611179","0.0-6.0-2.41","","<div style=""font-size:60px;"">+</div>","null","","","","","","",""
"null","","image-keyboard-response","346","612683","0.0-6.0-0.42","","img/red.png","null","trial","null","true","0.2,0.8","2:nogo_b","",""
"null","","html-keyboard-response","347","613688","0.0-6.0-1.42","","<img src=""img/red-r.png"">","null","trial","null","","0.2,0.8","2:nogo_b","1",""
"null","","html-keyboard-response","348","614691","0.0-6.0-2.42","","<div style=""font-size:60px;"">+</div>","null","","","","","","",""
"411.054999996908","","image-keyboard-response","349","615105","0.0-6.0-0.43","","img/grey.png","32","trial","null","false","0,1","4:nogo_d","",""
"null","","html-keyboard-response","350","616110","0.0-6.0-1.43","","<img src=""img/grey-n.png"" border=""10"">","null","trial","null","","0,1","4:nogo_d","0",""
"null","","html-keyboard-response","351","617114","0.0-6.0-2.43","","<div style=""font-size:60px;"">+</div>","null","","","","","","",""
"594.1650000022491","","image-keyboard-response","352","617713","0.0-6.0-0.44","","img/orange.png","32","trial","32","true","0.8,0.2","1:go_a","",""
"null","","html-keyboard-response","353","618722","0.0-6.0-1.44","","<img src=""img/orange-r.png"" border=""10"">","null","trial","32","","0.8,0.2","1:go_a","1",""
"null","","html-keyboard-response","354","619728","0.0-6.0-2.44","","<div style=""font-size:60px;"">+</div>","null","","","","","","",""
"1059.6599999989849","","image-keyboard-response","355","620791","0.0-6.0-0.45","","img/red.png","32","trial","null","false","0.2,0.8","2:nogo_b","",""
"null","","html-keyboard-response","356","621797","0.0-6.0-1.45","","<img src=""img/red-n.png"" border=""10"">","null","trial","null","","0.2,0.8","2:nogo_b","0",""
"null","","html-keyboard-response","357","622800","0.0-6.0-2.45","","<div style=""font-size:60px;"">+</div>","null","","","","","","",""
"916.7200000010198","","image-keyboard-response","358","623721","0.0-6.0-0.46","","img/yellow.png","32","trial","32","true","1,0","3:go_c","",""
"null","","html-keyboard-response","359","624726","0.0-6.0-1.46","","<img src=""img/yellow-r.png"" border=""10"">","null","trial","32","","1,0","3:go_c","1",""
"null","","html-keyboard-response","360","625729","0.0-6.0-2.46","","<div style=""font-size:60px;"">+</div>","null","","","","","","",""
"717.3850000036182","","image-keyboard-response","361","626449","0.0-6.0-0.47","","img/grey.png","32","trial","null","false","0,1","4:nogo_d","",""
"null","","html-keyboard-response","362","627454","0.0-6.0-1.47","","<img src=""img/grey-n.png"" border=""10"">","null","trial","null","","0,1","4:nogo_d","0",""
"null","","html-keyboard-response","363","628458","0.0-6.0-2.47","","<div style=""font-size:60px;"">+</div>","null","","","","","","",""
"548.7399999983609","","image-keyboard-response","364","629009","0.0-6.0-0.48","","img/orange.png","32","trial","32","true","0.8,0.2","1:go_a","",""
"null","","html-keyboard-response","365","630014","0.0-6.0-1.48","","<img src=""img/orange-r.png"" border=""10"">","null","trial","32","","0.8,0.2","1:go_a","1",""
"null","","html-keyboard-response","366","631020","0.0-6.0-2.48","","<div style=""font-size:60px;"">+</div>","null","","","","","","",""
"818.964999998454","","image-keyboard-response","367","631842","0.0-6.0-0.49","","img/red.png","32","trial","null","false","0.2,0.8","2:nogo_b","",""
"null","","html-keyboard-response","368","632848","0.0-6.0-1.49","","<img src=""img/red-r.png"" border=""10"">","null","trial","null","","0.2,0.8","2:nogo_b","1",""
"null","","html-keyboard-response","369","633851","0.0-6.0-2.49","","<div style=""font-size:60px;"">+</div>","null","","","","","","",""
"null","","image-keyboard-response","370","635354","0.0-6.0-0.50","","img/grey.png","null","trial","null","true","0,1","4:nogo_d","",""
"null","","html-keyboard-response","371","636358","0.0-6.0-1.50","","<img src=""img/grey-r.png"">","null","trial","null","","0,1","4:nogo_d","1",""
"null","","html-keyboard-response","372","637362","0.0-6.0-2.50","","<div style=""font-size:60px;"">+</div>","null","","","","","","",""
"704.9200000036508","","image-keyboard-response","373","638071","0.0-6.0-0.51","","img/yellow.png","32","trial","32","true","1,0","3:go_c","",""
"null","","html-keyboard-response","374","639078","0.0-6.0-1.51","","<img src=""img/yellow-r.png"" border=""10"">","null","trial","32","","1,0","3:go_c","1",""
"null","","html-keyboard-response","375","640081","0.0-6.0-2.51","","<div style=""font-size:60px;"">+</div>","null","","","","","","",""
"null","","image-keyboard-response","376","641585","0.0-6.0-0.52","","img/grey.png","null","trial","null","true","0,1","4:nogo_d","",""
"null","","html-keyboard-response","377","642592","0.0-6.0-1.52","","<img src=""img/grey-r.png"">","null","trial","null","","0,1","4:nogo_d","1",""
"null","","html-keyboard-response","378","643595","0.0-6.0-2.52","","<div style=""font-size:60px;"">+</div>","null","","","","","","",""
"595.6349999977974","","image-keyboard-response","379","644193","0.0-6.0-0.53","","img/yellow.png","32","trial","32","true","1,0","3:go_c","",""
"null","","html-keyboard-response","380","645198","0.0-6.0-1.53","","<img src=""img/yellow-r.png"" border=""10"">","null","trial","32","","1,0","3:go_c","1",""
"null","","html-keyboard-response","381","646200","0.0-6.0-2.53","","<div style=""font-size:60px;"">+</div>","null","","","","","","",""
"494.8850000000093","","image-keyboard-response","382","646697","0.0-6.0-0.54","","img/red.png","32","trial","null","false","0.2,0.8","2:nogo_b","",""
"null","","html-keyboard-response","383","647702","0.0-6.0-1.54","","<img src=""img/red-n.png"" border=""10"">","null","trial","null","","0.2,0.8","2:nogo_b","0",""
"null","","html-keyboard-response","384","648716","0.0-6.0-2.54","","<div style=""font-size:60px;"">+</div>","null","","","","","","",""
"760.2350000014994","","image-keyboard-response","385","649480","0.0-6.0-0.55","","img/orange.png","32","trial","32","true","0.8,0.2","1:go_a","",""
"null","","html-keyboard-response","386","650485","0.0-6.0-1.55","","<img src=""img/orange-r.png"" border=""10"">","null","trial","32","","0.8,0.2","1:go_a","1",""
"null","","html-keyboard-response","387","651488","0.0-6.0-2.55","","<div style=""font-size:60px;"">+</div>","null","","","","","","",""
"1335.8100000041304","","image-keyboard-response","388","652826","0.0-6.0-0.56","","img/orange.png","32","trial","32","true","0.8,0.2","1:go_a","",""
"null","","html-keyboard-response","389","653833","0.0-6.0-1.56","","<img src=""img/orange-n.png"" border=""10"">","null","trial","32","","0.8,0.2","1:go_a","0",""
"null","","html-keyboard-response","390","654835","0.0-6.0-2.56","","<div style=""font-size:60px;"">+</div>","null","","","","","","",""
"756.2800000014249","","image-keyboard-response","391","655594","0.0-6.0-0.57","","img/yellow.png","32","trial","32","true","1,0","3:go_c","",""
"null","","html-keyboard-response","392","656600","0.0-6.0-1.57","","<img src=""img/yellow-r.png"" border=""10"">","null","trial","32","","1,0","3:go_c","1",""
"null","","html-keyboard-response","393","657605","0.0-6.0-2.57","","<div style=""font-size:60px;"">+</div>","null","","","","","","",""
"770.3599999949802","","image-keyboard-response","394","658380","0.0-6.0-0.58","","img/red.png","32","trial","null","false","0.2,0.8","2:nogo_b","",""
"null","","html-keyboard-response","395","659383","0.0-6.0-1.58","","<img src=""img/red-n.png"" border=""10"">","null","trial","null","","0.2,0.8","2:nogo_b","0",""
"null","","html-keyboard-response","396","660386","0.0-6.0-2.58","","<div style=""font-size:60px;"">+</div>","null","","","","","","",""
"1031.0649999956368","","image-keyboard-response","397","661420","0.0-6.0-0.59","","img/grey.png","32","trial","null","false","0,1","4:nogo_d","",""
"null","","html-keyboard-response","398","662424","0.0-6.0-1.59","","<img src=""img/grey-n.png"" border=""10"">","null","trial","null","","0,1","4:nogo_d","0",""
"null","","html-keyboard-response","399","663426","0.0-6.0-2.59","","<div style=""font-size:60px;"">+</div>","null","","","","","","",""
"1037.209999994957","","image-keyboard-response","400","664466","0.0-6.0-0.60","","img/yellow.png","32","trial","32","true","1,0","3:go_c","",""
"null","","html-keyboard-response","401","665470","0.0-6.0-1.60","","<img src=""img/yellow-r.png"" border=""10"">","null","trial","32","","1,0","3:go_c","1",""
"null","","html-keyboard-response","402","666473","0.0-6.0-2.60","","<div style=""font-size:60px;"">+</div>","null","","","","","","",""
"486.94999999855645","","image-keyboard-response","403","666963","0.0-6.0-0.61","","img/red.png","32","trial","null","false","0.2,0.8","2:nogo_b","",""
"null","","html-keyboard-response","404","667967","0.0-6.0-1.61","","<img src=""img/red-n.png"" border=""10"">","null","trial","null","","0.2,0.8","2:nogo_b","0",""
"null","","html-keyboard-response","405","668970","0.0-6.0-2.61","","<div style=""font-size:60px;"">+</div>","null","","","","","","",""
"695.1750000007451","","image-keyboard-response","406","669667","0.0-6.0-0.62","","img/grey.png","32","trial","null","false","0,1","4:nogo_d","",""
"null","","html-keyboard-response","407","670672","0.0-6.0-1.62","","<img src=""img/grey-n.png"" border=""10"">","null","trial","null","","0,1","4:nogo_d","0",""
"null","","html-keyboard-response","408","671675","0.0-6.0-2.62","","<div style=""font-size:60px;"">+</div>","null","","","","","","",""
"709.399999999674","","image-keyboard-response","409","672387","0.0-6.0-0.63","","img/orange.png","32","trial","32","true","0.8,0.2","1:go_a","",""
"null","","html-keyboard-response","410","673393","0.0-6.0-1.63","","<img src=""img/orange-r.png"" border=""10"">","null","trial","32","","0.8,0.2","1:go_a","1",""
"null","","html-keyboard-response","411","674395","0.0-6.0-2.63","","<div style=""font-size:60px;"">+</div>","null","","","","","","",""
"1109.2250000002095","","image-keyboard-response","412","675507","0.0-6.0-0.64","","img/red.png","32","trial","null","false","0.2,0.8","2:nogo_b","",""
"null","","html-keyboard-response","413","676513","0.0-6.0-1.64","","<img src=""img/red-n.png"" border=""10"">","null","trial","null","","0.2,0.8","2:nogo_b","0",""
"null","","html-keyboard-response","414","677528","0.0-6.0-2.64","","<div style=""font-size:60px;"">+</div>","null","","","","","","",""
"832.8249999977415","","image-keyboard-response","415","678363","0.0-6.0-0.65","","img/orange.png","32","trial","32","true","0.8,0.2","1:go_a","",""
"null","","html-keyboard-response","416","679370","0.0-6.0-1.65","","<img src=""img/orange-r.png"" border=""10"">","null","trial","32","","0.8,0.2","1:go_a","1",""
"null","","html-keyboard-response","417","680373","0.0-6.0-2.65","","<div style=""font-size:60px;"">+</div>","null","","","","","","",""
"908.9250000033062","","image-keyboard-response","418","681286","0.0-6.0-0.66","","img/grey.png","32","trial","null","false","0,1","4:nogo_d","",""
"null","","html-keyboard-response","419","682292","0.0-6.0-1.66","","<img src=""img/grey-n.png"" border=""10"">","null","trial","null","","0,1","4:nogo_d","0",""
"null","","html-keyboard-response","420","683294","0.0-6.0-2.66","","<div style=""font-size:60px;"">+</div>","null","","","","","","",""
"942.7050000013551","","image-keyboard-response","421","684240","0.0-6.0-0.67","","img/yellow.png","32","trial","32","true","1,0","3:go_c","",""
"null","","html-keyboard-response","422","685247","0.0-6.0-1.67","","<img src=""img/yellow-r.png"" border=""10"">","null","trial","32","","1,0","3:go_c","1",""
"null","","html-keyboard-response","423","686250","0.0-6.0-2.67","","<div style=""font-size:60px;"">+</div>","null","","","","","","",""
"675.5249999987427","","image-keyboard-response","424","686928","0.0-6.0-0.68","","img/yellow.png","32","trial","32","true","1,0","3:go_c","",""
"null","","html-keyboard-response","425","687937","0.0-6.0-1.68","","<img src=""img/yellow-r.png"" border=""10"">","null","trial","32","","1,0","3:go_c","1",""
"null","","html-keyboard-response","426","688943","0.0-6.0-2.68","","<div style=""font-size:60px;"">+</div>","null","","","","","","",""
"1364.8699999975506","","image-keyboard-response","427","690312","0.0-6.0-0.69","","img/orange.png","32","trial","32","true","0.8,0.2","1:go_a","",""
"null","","html-keyboard-response","428","691317","0.0-6.0-1.69","","<img src=""img/orange-n.png"" border=""10"">","null","trial","32","","0.8,0.2","1:go_a","0",""
"null","","html-keyboard-response","429","692320","0.0-6.0-2.69","","<div style=""font-size:60px;"">+</div>","null","","","","","","",""
"481.19499999296386","","image-keyboard-response","430","692804","0.0-6.0-0.70","","img/grey.png","32","trial","null","false","0,1","4:nogo_d","",""
"null","","html-keyboard-response","431","693808","0.0-6.0-1.70","","<img src=""img/grey-n.png"" border=""10"">","null","trial","null","","0,1","4:nogo_d","0",""
"null","","html-keyboard-response","432","694819","0.0-6.0-2.70","","<div style=""font-size:60px;"">+</div>","null","","","","","","",""
"633.69999999844","","image-keyboard-response","433","695460","0.0-6.0-0.71","","img/red.png","32","trial","null","false","0.2,0.8","2:nogo_b","",""
"null","","html-keyboard-response","434","696471","0.0-6.0-1.71","","<img src=""img/red-n.png"" border=""10"">","null","trial","null","","0.2,0.8","2:nogo_b","0",""
"null","","html-keyboard-response","435","697474","0.0-6.0-2.71","","<div style=""font-size:60px;"">+</div>","null","","","","","","",""
"null","","image-keyboard-response","436","698983","0.0-6.0-0.72","","img/grey.png","null","trial","null","true","0,1","4:nogo_d","",""
"null","","html-keyboard-response","437","699992","0.0-6.0-1.72","","<img src=""img/grey-r.png"">","null","trial","null","","0,1","4:nogo_d","1",""
"null","","html-keyboard-response","438","701006","0.0-6.0-2.72","","<div style=""font-size:60px;"">+</div>","null","","","","","","",""
"788.0050000022165","","image-keyboard-response","439","701797","0.0-6.0-0.73","","img/yellow.png","32","trial","32","true","1,0","3:go_c","",""
"null","","html-keyboard-response","440","702803","0.0-6.0-1.73","","<img src=""img/yellow-r.png"" border=""10"">","null","trial","32","","1,0","3:go_c","1",""
"null","","html-keyboard-response","441","703806","0.0-6.0-2.73","","<div style=""font-size:60px;"">+</div>","null","","","","","","",""
"515.1349999941885","","image-keyboard-response","442","704324","0.0-6.0-0.74","","img/red.png","32","trial","null","false","0.2,0.8","2:nogo_b","",""
"null","","html-keyboard-response","443","705329","0.0-6.0-1.74","","<img src=""img/red-r.png"" border=""10"">","null","trial","null","","0.2,0.8","2:nogo_b","1",""
"null","","html-keyboard-response","444","706333","0.0-6.0-2.74","","<div style=""font-size:60px;"">+</div>","null","","","","","","",""
"565.5250000054948","","image-keyboard-response","445","706902","0.0-6.0-0.75","","img/orange.png","32","trial","32","true","0.8,0.2","1:go_a","",""
"null","","html-keyboard-response","446","707907","0.0-6.0-1.75","","<img src=""img/orange-r.png"" border=""10"">","null","trial","32","","0.8,0.2","1:go_a","1",""
"null","","html-keyboard-response","447","708911","0.0-6.0-2.75","","<div style=""font-size:60px;"">+</div>","null","","","","","","",""
"712.7800000016578","","image-keyboard-response","448","709626","0.0-6.0-0.76","","img/red.png","32","trial","null","false","0.2,0.8","2:nogo_b","",""
"null","","html-keyboard-response","449","710630","0.0-6.0-1.76","","<img src=""img/red-n.png"" border=""10"">","null","trial","null","","0.2,0.8","2:nogo_b","0",""
"null","","html-keyboard-response","450","711634","0.0-6.0-2.76","","<div style=""font-size:60px;"">+</div>","null","","","","","","",""
"521.3700000022072","","image-keyboard-response","451","712157","0.0-6.0-0.77","","img/yellow.png","32","trial","32","true","1,0","3:go_c","",""
"null","","html-keyboard-response","452","713163","0.0-6.0-1.77","","<img src=""img/yellow-r.png"" border=""10"">","null","trial","32","","1,0","3:go_c","1",""
"null","","html-keyboard-response","453","714165","0.0-6.0-2.77","","<div style=""font-size:60px;"">+</div>","null","","","","","","",""
"501.02500000502914","","image-keyboard-response","454","714668","0.0-6.0-0.78","","img/orange.png","32","trial","32","true","0.8,0.2","1:go_a","",""
"null","","html-keyboard-response","455","715673","0.0-6.0-1.78","","<img src=""img/orange-n.png"" border=""10"">","null","trial","32","","0.8,0.2","1:go_a","0",""
"null","","html-keyboard-response","456","716676","0.0-6.0-2.78","","<div style=""font-size:60px;"">+</div>","null","","","","","","",""
"773.1500000008382","","image-keyboard-response","457","717452","0.0-6.0-0.79","","img/grey.png","32","trial","null","false","0,1","4:nogo_d","",""
"null","","html-keyboard-response","458","718461","0.0-6.0-1.79","","<img src=""img/grey-n.png"" border=""10"">","null","trial","null","","0,1","4:nogo_d","0",""
"null","","html-keyboard-response","459","719469","0.0-6.0-2.79","","<div style=""font-size:60px;"">+</div>","null","","","","","","",""
"874.2599999969825","","image-keyboard-response","460","720346","0.0-6.0-0.80","","img/yellow.png","32","trial","32","true","1,0","3:go_c","",""
"null","","html-keyboard-response","461","721362","0.0-6.0-1.80","","<img src=""img/yellow-r.png"" border=""10"">","null","trial","32","","1,0","3:go_c","1",""
"null","","html-keyboard-response","462","722365","0.0-6.0-2.80","","<div style=""font-size:60px;"">+</div>","null","","","","","","",""
"805.6349999969825","","image-keyboard-response","463","723173","0.0-6.0-0.81","","img/grey.png","32","trial","null","false","0,1","4:nogo_d","",""
"null","","html-keyboard-response","464","724177","0.0-6.0-1.81","","<img src=""img/grey-n.png"" border=""10"">","null","trial","null","","0,1","4:nogo_d","0",""
"null","","html-keyboard-response","465","725180","0.0-6.0-2.81","","<div style=""font-size:60px;"">+</div>","null","","","","","","",""
"null","","image-keyboard-response","466","726683","0.0-6.0-0.82","","img/red.png","null","trial","null","true","0.2,0.8","2:nogo_b","",""
"null","","html-keyboard-response","467","727687","0.0-6.0-1.82","","<img src=""img/red-r.png"">","null","trial","null","","0.2,0.8","2:nogo_b","1",""
"null","","html-keyboard-response","468","728690","0.0-6.0-2.82","","<div style=""font-size:60px;"">+</div>","null","","","","","","",""
"742.259999999078","","image-keyboard-response","469","729439","0.0-6.0-0.83","","img/orange.png","32","trial","32","true","0.8,0.2","1:go_a","",""
"null","","html-keyboard-response","470","730443","0.0-6.0-1.83","","<img src=""img/orange-r.png"" border=""10"">","null","trial","32","","0.8,0.2","1:go_a","1",""
"null","","html-keyboard-response","471","731446","0.0-6.0-2.83","","<div style=""font-size:60px;"">+</div>","null","","","","","","",""
"null","","image-keyboard-response","472","732950","0.0-6.0-0.84","","img/orange.png","null","trial","32","false","0.8,0.2","1:go_a","",""
"null","","html-keyboard-response","473","733954","0.0-6.0-1.84","","<img src=""img/orange-n.png"">","null","trial","32","","0.8,0.2","1:go_a","0",""
"null","","html-keyboard-response","474","734957","0.0-6.0-2.84","","<div style=""font-size:60px;"">+</div>","null","","","","","","",""
"542.0200000007171","","image-keyboard-response","475","735502","0.0-6.0-0.85","","img/grey.png","32","trial","null","false","0,1","4:nogo_d","",""
"null","","html-keyboard-response","476","736507","0.0-6.0-1.85","","<img src=""img/grey-n.png"" border=""10"">","null","trial","null","","0,1","4:nogo_d","0",""
"null","","html-keyboard-response","477","737514","0.0-6.0-2.85","","<div style=""font-size:60px;"">+</div>","null","","","","","","",""
"null","","image-keyboard-response","478","739018","0.0-6.0-0.86","","img/red.png","null","trial","null","true","0.2,0.8","2:nogo_b","",""
"null","","html-keyboard-response","479","740024","0.0-6.0-1.86","","<img src=""img/red-r.png"">","null","trial","null","","0.2,0.8","2:nogo_b","1",""
"null","","html-keyboard-response","480","741041","0.0-6.0-2.86","","<div style=""font-size:60px;"">+</div>","null","","","","","","",""
"659.5200000011828","","image-keyboard-response","481","741703","0.0-6.0-0.87","","img/yellow.png","32","trial","32","true","1,0","3:go_c","",""
"null","","html-keyboard-response","482","742707","0.0-6.0-1.87","","<img src=""img/yellow-r.png"" border=""10"">","null","trial","32","","1,0","3:go_c","1",""
"null","","html-keyboard-response","483","743710","0.0-6.0-2.87","","<div style=""font-size:60px;"">+</div>","null","","","","","","",""
"620.9200000013225","","image-keyboard-response","484","744333","0.0-6.0-0.88","","img/grey.png","32","trial","null","false","0,1","4:nogo_d","",""
"null","","html-keyboard-response","485","745337","0.0-6.0-1.88","","<img src=""img/grey-n.png"" border=""10"">","null","trial","null","","0,1","4:nogo_d","0",""
"null","","html-keyboard-response","486","746340","0.0-6.0-2.88","","<div style=""font-size:60px;"">+</div>","null","","","","","","",""
"564.5150000054855","","image-keyboard-response","487","746909","0.0-6.0-0.89","","img/yellow.png","32","trial","32","true","1,0","3:go_c","",""
"null","","html-keyboard-response","488","747914","0.0-6.0-1.89","","<img src=""img/yellow-r.png"" border=""10"">","null","trial","32","","1,0","3:go_c","1",""
"null","","html-keyboard-response","489","748917","0.0-6.0-2.89","","<div style=""font-size:60px;"">+</div>","null","","","","","","",""
"678.8950000045588","","image-keyboard-response","490","749598","0.0-6.0-0.90","","img/red.png","32","trial","null","false","0.2,0.8","2:nogo_b","",""
"null","","html-keyboard-response","491","750605","0.0-6.0-1.90","","<img src=""img/red-r.png"" border=""10"">","null","trial","null","","0.2,0.8","2:nogo_b","1",""
"null","","html-keyboard-response","492","751608","0.0-6.0-2.90","","<div style=""font-size:60px;"">+</div>","null","","","","","","",""
"380.26499999978114","","image-keyboard-response","493","751991","0.0-6.0-0.91","","img/orange.png","32","trial","32","true","0.8,0.2","1:go_a","",""
"null","","html-keyboard-response","494","753011","0.0-6.0-1.91","","<img src=""img/orange-r.png"" border=""10"">","null","trial","32","","0.8,0.2","1:go_a","1",""
"null","","html-keyboard-response","495","754014","0.0-6.0-2.91","","<div style=""font-size:60px;"">+</div>","null","","","","","","",""
"null","","image-keyboard-response","496","755520","0.0-6.0-0.92","","img/orange.png","null","trial","32","false","0.8,0.2","1:go_a","",""
"null","","html-keyboard-response","497","756529","0.0-6.0-1.92","","<img src=""img/orange-n.png"">","null","trial","32","","0.8,0.2","1:go_a","0",""
"null","","html-keyboard-response","498","757539","0.0-6.0-2.92","","<div style=""font-size:60px;"">+</div>","null","","","","","","",""
"null","","image-keyboard-response","499","759043","0.0-6.0-0.93","","img/red.png","null","trial","null","true","0.2,0.8","2:nogo_b","",""
"null","","html-keyboard-response","500","760050","0.0-6.0-1.93","","<img src=""img/red-n.png"">","null","trial","null","","0.2,0.8","2:nogo_b","0",""
"null","","html-keyboard-response","501","761054","0.0-6.0-2.93","","<div style=""font-size:60px;"">+</div>","null","","","","","","",""
"529.0900000035763","","image-keyboard-response","502","761585","0.0-6.0-0.94","","img/grey.png","32","trial","null","false","0,1","4:nogo_d","",""
"null","","html-keyboard-response","503","762590","0.0-6.0-1.94","","<img src=""img/grey-n.png"" border=""10"">","null","trial","null","","0,1","4:nogo_d","0",""
"null","","html-keyboard-response","504","763593","0.0-6.0-2.94","","<div style=""font-size:60px;"">+</div>","null","","","","","","",""
"666.5450000000419","","image-keyboard-response","505","764262","0.0-6.0-0.95","","img/yellow.png","32","trial","32","true","1,0","3:go_c","",""
"null","","html-keyboard-response","506","765267","0.0-6.0-1.95","","<img src=""img/yellow-r.png"" border=""10"">","null","trial","32","","1,0","3:go_c","1",""
"null","","html-keyboard-response","507","766271","0.0-6.0-2.95","","<div style=""font-size:60px;"">+</div>","null","","","","","","",""
"745.9149999994552","","image-keyboard-response","508","767022","0.0-6.0-0.96","","img/grey.png","32","trial","null","false","0,1","4:nogo_d","",""
"null","","html-keyboard-response","509","768034","0.0-6.0-1.96","","<img src=""img/grey-n.png"" border=""10"">","null","trial","null","","0,1","4:nogo_d","0",""
"null","","html-keyboard-response","510","769036","0.0-6.0-2.96","","<div style=""font-size:60px;"">+</div>","null","","","","","","",""
"null","","image-keyboard-response","511","770540","0.0-6.0-0.97","","img/orange.png","null","trial","32","false","0.8,0.2","1:go_a","",""
"null","","html-keyboard-response","512","771544","0.0-6.0-1.97","","<img src=""img/orange-n.png"">","null","trial","32","","0.8,0.2","1:go_a","0",""
"null","","html-keyboard-response","513","772547","0.0-6.0-2.97","","<div style=""font-size:60px;"">+</div>","null","","","","","","",""
"793.024999999092","","image-keyboard-response","514","773342","0.0-6.0-0.98","","img/yellow.png","32","trial","32","true","1,0","3:go_c","",""
"null","","html-keyboard-response","515","774347","0.0-6.0-1.98","","<img src=""img/yellow-r.png"" border=""10"">","null","trial","32","","1,0","3:go_c","1",""
"null","","html-keyboard-response","516","775349","0.0-6.0-2.98","","<div style=""font-size:60px;"">+</div>","null","","","","","","",""
"780.8250000016997","","image-keyboard-response","517","776133","0.0-6.0-0.99","","img/red.png","32","trial","null","false","0.2,0.8","2:nogo_b","",""
"null","","html-keyboard-response","518","777138","0.0-6.0-1.99","","<img src=""img/red-n.png"" border=""10"">","null","trial","null","","0.2,0.8","2:nogo_b","0",""
"null","","html-keyboard-response","519","778148","0.0-6.0-2.99","","<div style=""font-size:60px;"">+</div>","null","","","","","","",""
"727.7999999932945","","image-keyboard-response","520","778879","0.0-6.0-0.100","","img/yellow.png","32","trial","32","true","1,0","3:go_c","",""
"null","","html-keyboard-response","521","779883","0.0-6.0-1.100","","<img src=""img/yellow-r.png"" border=""10"">","null","trial","32","","1,0","3:go_c","1",""
"null","","html-keyboard-response","522","780887","0.0-6.0-2.100","","<div style=""font-size:60px;"">+</div>","null","","","","","","",""
"717.9050000049174","","image-keyboard-response","523","781607","0.0-6.0-0.101","","img/orange.png","32","trial","32","true","0.8,0.2","1:go_a","",""
"null","","html-keyboard-response","524","782612","0.0-6.0-1.101","","<img src=""img/orange-r.png"" border=""10"">","null","trial","32","","0.8,0.2","1:go_a","1",""
"null","","html-keyboard-response","525","783616","0.0-6.0-2.101","","<div style=""font-size:60px;"">+</div>","null","","","","","","",""
"375.3549999964889","","image-keyboard-response","526","783995","0.0-6.0-0.102","","img/red.png","32","trial","null","false","0.2,0.8","2:nogo_b","",""
"null","","html-keyboard-response","527","785001","0.0-6.0-1.102","","<img src=""img/red-r.png"" border=""10"">","null","trial","null","","0.2,0.8","2:nogo_b","1",""
"null","","html-keyboard-response","528","786005","0.0-6.0-2.102","","<div style=""font-size:60px;"">+</div>","null","","","","","","",""
"640.3149999969173","","image-keyboard-response","529","786647","0.0-6.0-0.103","","img/grey.png","32","trial","null","false","0,1","4:nogo_d","",""
"null","","html-keyboard-response","530","787669","0.0-6.0-1.103","","<img src=""img/grey-n.png"" border=""10"">","null","trial","null","","0,1","4:nogo_d","0",""
"null","","html-keyboard-response","531","788672","0.0-6.0-2.103","","<div style=""font-size:60px;"">+</div>","null","","","","","","",""
"604.8100000044797","","image-keyboard-response","532","789281","0.0-6.0-0.104","","img/yellow.png","32","trial","32","true","1,0","3:go_c","",""
"null","","html-keyboard-response","533","790289","0.0-6.0-1.104","","<img src=""img/yellow-r.png"" border=""10"">","null","trial","32","","1,0","3:go_c","1",""
"null","","html-keyboard-response","534","791291","0.0-6.0-2.104","","<div style=""font-size:60px;"">+</div>","null","","","","","","",""
"null","","image-keyboard-response","535","792796","0.0-6.0-0.105","","img/orange.png","null","trial","32","false","0.8,0.2","1:go_a","",""
"null","","html-keyboard-response","536","793801","0.0-6.0-1.105","","<img src=""img/orange-n.png"">","null","trial","32","","0.8,0.2","1:go_a","0",""
"null","","html-keyboard-response","537","794805","0.0-6.0-2.105","","<div style=""font-size:60px;"">+</div>","null","","","","","","",""
"null","","image-keyboard-response","538","796309","0.0-6.0-0.106","","img/red.png","null","trial","null","true","0.2,0.8","2:nogo_b","",""
"null","","html-keyboard-response","539","797315","0.0-6.0-1.106","","<img src=""img/red-r.png"">","null","trial","null","","0.2,0.8","2:nogo_b","1",""
"null","","html-keyboard-response","540","798318","0.0-6.0-2.106","","<div style=""font-size:60px;"">+</div>","null","","","","","","",""
"446.5200000050245","","image-keyboard-response","541","798766","0.0-6.0-0.107","","img/grey.png","32","trial","null","false","0,1","4:nogo_d","",""
"null","","html-keyboard-response","542","799770","0.0-6.0-1.107","","<img src=""img/grey-n.png"" border=""10"">","null","trial","null","","0,1","4:nogo_d","0",""
"null","","html-keyboard-response","543","800774","0.0-6.0-2.107","","<div style=""font-size:60px;"">+</div>","null","","","","","","",""
"null","","image-keyboard-response","544","802277","0.0-6.0-0.108","","img/orange.png","null","trial","32","false","0.8,0.2","1:go_a","",""
"null","","html-keyboard-response","545","803283","0.0-6.0-1.108","","<img src=""img/orange-n.png"">","null","trial","32","","0.8,0.2","1:go_a","0",""
"null","","html-keyboard-response","546","804289","0.0-6.0-2.108","","<div style=""font-size:60px;"">+</div>","null","","","","","","",""
"642.3500000019558","","image-keyboard-response","547","804934","0.0-6.0-0.109","","img/yellow.png","32","trial","32","true","1,0","3:go_c","",""
"null","","html-keyboard-response","548","805941","0.0-6.0-1.109","","<img src=""img/yellow-r.png"" border=""10"">","null","trial","32","","1,0","3:go_c","1",""
"null","","html-keyboard-response","549","806950","0.0-6.0-2.109","","<div style=""font-size:60px;"">+</div>","null","","","","","","",""
"910.264999998617","","image-keyboard-response","550","807865","0.0-6.0-0.110","","img/grey.png","32","trial","null","false","0,1","4:nogo_d","",""
"null","","html-keyboard-response","551","808872","0.0-6.0-1.110","","<img src=""img/grey-n.png"" border=""10"">","null","trial","null","","0,1","4:nogo_d","0",""
"null","","html-keyboard-response","552","809876","0.0-6.0-2.110","","<div style=""font-size:60px;"">+</div>","null","","","","","","",""
"null","","image-keyboard-response","553","811384","0.0-6.0-0.111","","img/red.png","null","trial","null","true","0.2,0.8","2:nogo_b","",""
"null","","html-keyboard-response","554","812387","0.0-6.0-1.111","","<img src=""img/red-r.png"">","null","trial","null","","0.2,0.8","2:nogo_b","1",""
"null","","html-keyboard-response","555","813390","0.0-6.0-2.111","","<div style=""font-size:60px;"">+</div>","null","","","","","","",""
"612.9349999972619","","image-keyboard-response","556","814006","0.0-6.0-0.112","","img/yellow.png","32","trial","32","true","1,0","3:go_c","",""
"null","","html-keyboard-response","557","815019","0.0-6.0-1.112","","<img src=""img/yellow-r.png"" border=""10"">","null","trial","32","","1,0","3:go_c","1",""
"null","","html-keyboard-response","558","816024","0.0-6.0-2.112","","<div style=""font-size:60px;"">+</div>","null","","","","","","",""
"728.2999999951571","","image-keyboard-response","559","816755","0.0-6.0-0.113","","img/red.png","32","trial","null","false","0.2,0.8","2:nogo_b","",""
"null","","html-keyboard-response","560","817760","0.0-6.0-1.113","","<img src=""img/red-n.png"" border=""10"">","null","trial","null","","0.2,0.8","2:nogo_b","0",""
"null","","html-keyboard-response","561","818763","0.0-6.0-2.113","","<div style=""font-size:60px;"">+</div>","null","","","","","","",""
"916.1400000011781","","image-keyboard-response","562","819682","0.0-6.0-0.114","","img/grey.png","32","trial","null","false","0,1","4:nogo_d","",""
"null","","html-keyboard-response","563","820687","0.0-6.0-1.114","","<img src=""img/grey-n.png"" border=""10"">","null","trial","null","","0,1","4:nogo_d","0",""
"null","","html-keyboard-response","564","821690","0.0-6.0-2.114","","<div style=""font-size:60px;"">+</div>","null","","","","","","",""
"null","","image-keyboard-response","565","823193","0.0-6.0-0.115","","img/orange.png","null","trial","32","false","0.8,0.2","1:go_a","",""
"null","","html-keyboard-response","566","824198","0.0-6.0-1.115","","<img src=""img/orange-n.png"">","null","trial","32","","0.8,0.2","1:go_a","0",""
"null","","html-keyboard-response","567","825202","0.0-6.0-2.115","","<div style=""font-size:60px;"">+</div>","null","","","","","","",""
"667.9099999965401","","image-keyboard-response","568","825873","0.0-6.0-0.116","","img/yellow.png","32","trial","32","true","1,0","3:go_c","",""
"null","","html-keyboard-response","569","826878","0.0-6.0-1.116","","<img src=""img/yellow-r.png"" border=""10"">","null","trial","32","","1,0","3:go_c","1",""
"null","","html-keyboard-response","570","827881","0.0-6.0-2.116","","<div style=""font-size:60px;"">+</div>","null","","","","","","",""
"null","","image-keyboard-response","571","829384","0.0-6.0-0.117","","img/red.png","null","trial","null","true","0.2,0.8","2:nogo_b","",""
"null","","html-keyboard-response","572","830388","0.0-6.0-1.117","","<img src=""img/red-r.png"">","null","trial","null","","0.2,0.8","2:nogo_b","1",""
"null","","html-keyboard-response","573","831392","0.0-6.0-2.117","","<div style=""font-size:60px;"">+</div>","null","","","","","","",""
"443.69999999622814","","image-keyboard-response","574","831839","0.0-6.0-0.118","","img/grey.png","32","trial","null","false","0,1","4:nogo_d","",""
"null","","html-keyboard-response","575","832845","0.0-6.0-1.118","","<img src=""img/grey-n.png"" border=""10"">","null","trial","null","","0,1","4:nogo_d","0",""
"null","","html-keyboard-response","576","833851","0.0-6.0-2.118","","<div style=""font-size:60px;"">+</div>","null","","","","","","",""
"null","","image-keyboard-response","577","835354","0.0-6.0-0.119","","img/orange.png","null","trial","32","false","0.8,0.2","1:go_a","",""
"null","","html-keyboard-response","578","836358","0.0-6.0-1.119","","<img src=""img/orange-n.png"">","null","trial","32","","0.8,0.2","1:go_a","0",""
"null","","html-keyboard-response","579","837361","0.0-6.0-2.119","","<div style=""font-size:60px;"">+</div>","null","","","","","","",""
"4654.244999998016","","instructions","580","842016","0.0-7.0","[{""page_index"":0,""viewing_time"":4653.435000000289}]","","","","","","","","",""
"1388.1000000038184","","image-keyboard-response","581","843408","0.0-8.0-0.0","","img/pink.png","32","trial","null","false","0.4,0.6","4:nogo_d","",""
"null","","html-keyboard-response","582","844412","0.0-8.0-1.0","","<img src=""img/pink-r.png"" border=""10"">","null","trial","null","","0.4,0.6","4:nogo_d","1",""
"null","","html-keyboard-response","583","845416","0.0-8.0-2.0","","<div style=""font-size:60px;"">+</div>","null","","","","","","",""
"null","","image-keyboard-response","584","846920","0.0-8.0-0.1","","img/grey.png","null","trial","32","false","0.6,0.4","3:go_c","",""
"null","","html-keyboard-response","585","847924","0.0-8.0-1.1","","<img src=""img/grey-n.png"">","null","trial","32","","0.6,0.4","3:go_c","0",""
"null","","html-keyboard-response","586","848927","0.0-8.0-2.1","","<div style=""font-size:60px;"">+</div>","null","","","","","","",""
"1111.6550000007264","","image-keyboard-response","587","850041","0.0-8.0-0.2","","img/yellow.png","32","trial","null","false","0.2,0.8","2:nogo_b","",""
"null","","html-keyboard-response","588","851045","0.0-8.0-1.2","","<img src=""img/yellow-r.png"" border=""10"">","null","trial","null","","0.2,0.8","2:nogo_b","1",""
"null","","html-keyboard-response","589","852048","0.0-8.0-2.2","","<div style=""font-size:60px;"">+</div>","null","","","","","","",""
"null","","image-keyboard-response","590","853551","0.0-8.0-0.3","","img/green.png","null","trial","32","false","0.8,0.2","1:go_a","",""
"null","","html-keyboard-response","591","854555","0.0-8.0-1.3","","<img src=""img/green-r.png"">","null","trial","32","","0.8,0.2","1:go_a","1",""
"null","","html-keyboard-response","592","855557","0.0-8.0-2.3","","<div style=""font-size:60px;"">+</div>","null","","","","","","",""
"null","","image-keyboard-response","593","857062","0.0-8.0-0.4","","img/grey.png","null","trial","32","false","0.6,0.4","3:go_c","",""
"null","","html-keyboard-response","594","858070","0.0-8.0-1.4","","<img src=""img/grey-n.png"">","null","trial","32","","0.6,0.4","3:go_c","0",""
"null","","html-keyboard-response","595","859072","0.0-8.0-2.4","","<div style=""font-size:60px;"">+</div>","null","","","","","","",""
"null","","image-keyboard-response","596","860574","0.0-8.0-0.5","","img/yellow.png","null","trial","null","true","0.2,0.8","2:nogo_b","",""
"null","","html-keyboard-response","597","861579","0.0-8.0-1.5","","<img src=""img/yellow-n.png"">","null","trial","null","","0.2,0.8","2:nogo_b","0",""
"null","","html-keyboard-response","598","862583","0.0-8.0-2.5","","<div style=""font-size:60px;"">+</div>","null","","","","","","",""
"null","","image-keyboard-response","599","864088","0.0-8.0-0.6","","img/green.png","null","trial","32","false","0.8,0.2","1:go_a","",""
"null","","html-keyboard-response","600","865093","0.0-8.0-1.6","","<img src=""img/green-r.png"">","null","trial","32","","0.8,0.2","1:go_a","1",""
"null","","html-keyboard-response","601","866096","0.0-8.0-2.6","","<div style=""font-size:60px;"">+</div>","null","","","","","","",""
"1230.295000001206","","image-keyboard-response","602","867330","0.0-8.0-0.7","","img/pink.png","32","trial","null","false","0.4,0.6","4:nogo_d","",""
"null","","html-keyboard-response","603","868338","0.0-8.0-1.7","","<img src=""img/pink-n.png"" border=""10"">","null","trial","null","","0.4,0.6","4:nogo_d","0",""
"null","","html-keyboard-response","604","869343","0.0-8.0-2.7","","<div style=""font-size:60px;"">+</div>","null","","","","","","",""
"824.7449999980163","","image-keyboard-response","605","870170","0.0-8.0-0.8","","img/grey.png","32","trial","32","true","0.6,0.4","3:go_c","",""
"null","","html-keyboard-response","606","871176","0.0-8.0-1.8","","<img src=""img/grey-r.png"" border=""10"">","null","trial","32","","0.6,0.4","3:go_c","1",""
"null","","html-keyboard-response","607","872179","0.0-8.0-2.8","","<div style=""font-size:60px;"">+</div>","null","","","","","","",""
"587.9249999998137","","image-keyboard-response","608","872770","0.0-8.0-0.9","","img/yellow.png","32","trial","null","false","0.2,0.8","2:nogo_b","",""
"null","","html-keyboard-response","609","873774","0.0-8.0-1.9","","<img src=""img/yellow-r.png"" border=""10"">","null","trial","null","","0.2,0.8","2:nogo_b","1",""
"null","","html-keyboard-response","610","874784","0.0-8.0-2.9","","<div style=""font-size:60px;"">+</div>","null","","","","","","",""
"630.7400000005728","","image-keyboard-response","611","875417","0.0-8.0-0.10","","img/green.png","32","trial","32","true","0.8,0.2","1:go_a","",""
"null","","html-keyboard-response","612","876426","0.0-8.0-1.10","","<img src=""img/green-r.png"" border=""10"">","null","trial","32","","0.8,0.2","1:go_a","1",""
"null","","html-keyboard-response","613","877438","0.0-8.0-2.10","","<div style=""font-size:60px;"">+</div>","null","","","","","","",""
"null","","image-keyboard-response","614","878941","0.0-8.0-0.11","","img/pink.png","null","trial","null","true","0.4,0.6","4:nogo_d","",""
"null","","html-keyboard-response","615","879946","0.0-8.0-1.11","","<img src=""img/pink-n.png"">","null","trial","null","","0.4,0.6","4:nogo_d","0",""
"null","","html-keyboard-response","616","880950","0.0-8.0-2.11","","<div style=""font-size:60px;"">+</div>","null","","","","","","",""
"null","","image-keyboard-response","617","882453","0.0-8.0-0.12","","img/green.png","null","trial","32","false","0.8,0.2","1:go_a","",""
"null","","html-keyboard-response","618","883459","0.0-8.0-1.12","","<img src=""img/green-n.png"">","null","trial","32","","0.8,0.2","1:go_a","0",""
"null","","html-keyboard-response","619","884462","0.0-8.0-2.12","","<div style=""font-size:60px;"">+</div>","null","","","","","","",""
"712.2250000030035","","image-keyboard-response","620","885178","0.0-8.0-0.13","","img/yellow.png","32","trial","null","false","0.2,0.8","2:nogo_b","",""
"null","","html-keyboard-response","621","886183","0.0-8.0-1.13","","<img src=""img/yellow-n.png"" border=""10"">","null","trial","null","","0.2,0.8","2:nogo_b","0",""
"null","","html-keyboard-response","622","887188","0.0-8.0-2.13","","<div style=""font-size:60px;"">+</div>","null","","","","","","",""
"null","","image-keyboard-response","623","888691","0.0-8.0-0.14","","img/grey.png","null","trial","32","false","0.6,0.4","3:go_c","",""
"null","","html-keyboard-response","624","889701","0.0-8.0-1.14","","<img src=""img/grey-r.png"">","null","trial","32","","0.6,0.4","3:go_c","1",""
"null","","html-keyboard-response","625","890708","0.0-8.0-2.14","","<div style=""font-size:60px;"">+</div>","null","","","","","","",""
"739.8850000026869","","image-keyboard-response","626","891450","0.0-8.0-0.15","","img/pink.png","32","trial","null","false","0.4,0.6","4:nogo_d","",""
"null","","html-keyboard-response","627","892459","0.0-8.0-1.15","","<img src=""img/pink-r.png"" border=""10"">","null","trial","null","","0.4,0.6","4:nogo_d","1",""
"null","","html-keyboard-response","628","893463","0.0-8.0-2.15","","<div style=""font-size:60px;"">+</div>","null","","","","","","",""
"472.90999999665655","","image-keyboard-response","629","893938","0.0-8.0-0.16","","img/green.png","32","trial","32","true","0.8,0.2","1:go_a","",""
"null","","html-keyboard-response","630","894942","0.0-8.0-1.16","","<img src=""img/green-r.png"" border=""10"">","null","trial","32","","0.8,0.2","1:go_a","1",""
"null","","html-keyboard-response","631","895946","0.0-8.0-2.16","","<div style=""font-size:60px;"">+</div>","null","","","","","","",""
"629.815000000177","","image-keyboard-response","632","896579","0.0-8.0-0.17","","img/yellow.png","32","trial","null","false","0.2,0.8","2:nogo_b","",""
"null","","html-keyboard-response","633","897584","0.0-8.0-1.17","","<img src=""img/yellow-r.png"" border=""10"">","null","trial","null","","0.2,0.8","2:nogo_b","1",""
"null","","html-keyboard-response","634","898588","0.0-8.0-2.17","","<div style=""font-size:60px;"">+</div>","null","","","","","","",""
"null","","image-keyboard-response","635","900094","0.0-8.0-0.18","","img/grey.png","null","trial","32","false","0.6,0.4","3:go_c","",""
"null","","html-keyboard-response","636","901099","0.0-8.0-1.18","","<img src=""img/grey-n.png"">","null","trial","32","","0.6,0.4","3:go_c","0",""
"null","","html-keyboard-response","637","902103","0.0-8.0-2.18","","<div style=""font-size:60px;"">+</div>","null","","","","","","",""
"null","","image-keyboard-response","638","903607","0.0-8.0-0.19","","img/pink.png","null","trial","null","true","0.4,0.6","4:nogo_d","",""
"null","","html-keyboard-response","639","904611","0.0-8.0-1.19","","<img src=""img/pink-r.png"">","null","trial","null","","0.4,0.6","4:nogo_d","1",""
"null","","html-keyboard-response","640","905625","0.0-8.0-2.19","","<div style=""font-size:60px;"">+</div>","null","","","","","","",""
"587.8400000000838","","image-keyboard-response","641","906216","0.0-8.0-0.20","","img/pink.png","32","trial","null","false","0.4,0.6","4:nogo_d","",""
"null","","html-keyboard-response","642","907221","0.0-8.0-1.20","","<img src=""img/pink-r.png"" border=""10"">","null","trial","null","","0.4,0.6","4:nogo_d","1",""
"null","","html-keyboard-response","643","908224","0.0-8.0-2.20","","<div style=""font-size:60px;"">+</div>","null","","","","","","",""
"1071.239999997546","","image-keyboard-response","644","909299","0.0-8.0-0.21","","img/green.png","32","trial","32","true","0.8,0.2","1:go_a","",""
"null","","html-keyboard-response","645","910309","0.0-8.0-1.21","","<img src=""img/green-r.png"" border=""10"">","null","trial","32","","0.8,0.2","1:go_a","1",""
"null","","html-keyboard-response","646","911311","0.0-8.0-2.21","","<div style=""font-size:60px;"">+</div>","null","","","","","","",""
"null","","image-keyboard-response","647","912815","0.0-8.0-0.22","","img/yellow.png","null","trial","null","true","0.2,0.8","2:nogo_b","",""
"null","","html-keyboard-response","648","913819","0.0-8.0-1.22","","<img src=""img/yellow-n.png"">","null","trial","null","","0.2,0.8","2:nogo_b","0",""
"null","","html-keyboard-response","649","914822","0.0-8.0-2.22","","<div style=""font-size:60px;"">+</div>","null","","","","","","",""
"null","","image-keyboard-response","650","916324","0.0-8.0-0.23","","img/grey.png","null","trial","32","false","0.6,0.4","3:go_c","",""
"null","","html-keyboard-response","651","917328","0.0-8.0-1.23","","<img src=""img/grey-n.png"">","null","trial","32","","0.6,0.4","3:go_c","0",""
"null","","html-keyboard-response","652","918331","0.0-8.0-2.23","","<div style=""font-size:60px;"">+</div>","null","","","","","","",""
"null","","image-keyboard-response","653","919835","0.0-8.0-0.24","","img/yellow.png","null","trial","null","true","0.2,0.8","2:nogo_b","",""
"null","","html-keyboard-response","654","920842","0.0-8.0-1.24","","<img src=""img/yellow-n.png"">","null","trial","null","","0.2,0.8","2:nogo_b","0",""
"null","","html-keyboard-response","655","921845","0.0-8.0-2.24","","<div style=""font-size:60px;"">+</div>","null","","","","","","",""
"331.76499999535736","","image-keyboard-response","656","922179","0.0-8.0-0.25","","img/grey.png","32","trial","32","true","0.6,0.4","3:go_c","",""
"null","","html-keyboard-response","657","923184","0.0-8.0-1.25","","<img src=""img/grey-n.png"" border=""10"">","null","trial","32","","0.6,0.4","3:go_c","0",""
"null","","html-keyboard-response","658","924187","0.0-8.0-2.25","","<div style=""font-size:60px;"">+</div>","null","","","","","","",""
"748.8799999991897","","image-keyboard-response","659","924938","0.0-8.0-0.26","","img/green.png","32","trial","32","true","0.8,0.2","1:go_a","",""
"null","","html-keyboard-response","660","925946","0.0-8.0-1.26","","<img src=""img/green-r.png"" border=""10"">","null","trial","32","","0.8,0.2","1:go_a","1",""
"null","","html-keyboard-response","661","926948","0.0-8.0-2.26","","<div style=""font-size:60px;"">+</div>","null","","","","","","",""
"580.5800000017043","","image-keyboard-response","662","927531","0.0-8.0-0.27","","img/pink.png","32","trial","null","false","0.4,0.6","4:nogo_d","",""
"null","","html-keyboard-response","663","928535","0.0-8.0-1.27","","<img src=""img/pink-n.png"" border=""10"">","null","trial","null","","0.4,0.6","4:nogo_d","0",""
"null","","html-keyboard-response","664","929538","0.0-8.0-2.27","","<div style=""font-size:60px;"">+</div>","null","","","","","","",""
"null","","image-keyboard-response","665","931041","0.0-8.0-0.28","","img/grey.png","null","trial","32","false","0.6,0.4","3:go_c","",""
"null","","html-keyboard-response","666","932059","0.0-8.0-1.28","","<img src=""img/grey-r.png"">","null","trial","32","","0.6,0.4","3:go_c","1",""
"null","","html-keyboard-response","667","933062","0.0-8.0-2.28","","<div style=""font-size:60px;"">+</div>","null","","","","","","",""
"329.7900000034133","","image-keyboard-response","668","933396","0.0-8.0-0.29","","img/pink.png","32","trial","null","false","0.4,0.6","4:nogo_d","",""
"null","","html-keyboard-response","669","934401","0.0-8.0-1.29","","<img src=""img/pink-n.png"" border=""10"">","null","trial","null","","0.4,0.6","4:nogo_d","0",""
"null","","html-keyboard-response","670","935404","0.0-8.0-2.29","","<div style=""font-size:60px;"">+</div>","null","","","","","","",""
"628.7749999974621","","image-keyboard-response","671","936036","0.0-8.0-0.30","","img/yellow.png","32","trial","null","false","0.2,0.8","2:nogo_b","",""
"null","","html-keyboard-response","672","937040","0.0-8.0-1.30","","<img src=""img/yellow-n.png"" border=""10"">","null","trial","null","","0.2,0.8","2:nogo_b","0",""
"null","","html-keyboard-response","673","938043","0.0-8.0-2.30","","<div style=""font-size:60px;"">+</div>","null","","","","","","",""
"486.14500000257976","","image-keyboard-response","674","938531","0.0-8.0-0.31","","img/green.png","32","trial","32","true","0.8,0.2","1:go_a","",""
"null","","html-keyboard-response","675","939535","0.0-8.0-1.31","","<img src=""img/green-n.png"" border=""10"">","null","trial","32","","0.8,0.2","1:go_a","0",""
