"rt","url","trial_type","trial_index","time_elapsed","internal_node_id","view_history","stimulus","key_press","test_part","correct_response","correct","use_rew","which_stim","reward","responses"
"4692.044999974314","consent.html","external-html","0","4978","0.0-0.0","","","","","","","","","",""
"116406.37000001152","","instructions","1","121389","0.0-1.0","[{""page_index"":0,""viewing_time"":68665.71000000113},{""page_index"":1,""viewing_time"":14137.985000008484},{""page_index"":2,""viewing_time"":3278.105000004871},{""page_index"":3,""viewing_time"":14339.710000000196},{""page_index"":4,""viewing_time"":6788.024999987101},{""page_index"":5,""viewing_time"":5389.880000002449},{""page_index"":6,""viewing_time"":3806.190000002971}]","","","","","","","","",""
"556.3700000056997","","image-keyboard-response","2","121946","0.0-2.0-0.0","","img/test3.PNG","32","practice","null","false","","","",""
"null","","html-keyboard-response","3","122952","0.0-2.0-1.0","","<img src=""img/test3-neutral.PNG"" border=""10px; grey"">","null","","","","","","",""
"null","","html-keyboard-response","4","123963","0.0-2.0-2.0","","<div style=""font-size:60px;"">+</div>","null","","","","","","",""
"null","","image-keyboard-response","5","125477","0.0-2.0-0.1","","img/test1.PNG","null","practice","32","false","","","",""
"null","","html-keyboard-response","6","126483","0.0-2.0-1.1","","<img src=""img/test1-neutral.PNG"">","null","","","","","","",""
"null","","html-keyboard-response","7","127490","0.0-2.0-2.1","","<div style=""font-size:60px;"">+</div>","null","","","","","","",""
"777.1549999888521","","image-keyboard-response","8","128268","0.0-2.0-0.2","","img/test2.PNG","32","practice","null","false","","","",""
"null","","html-keyboard-response","9","129277","0.0-2.0-1.2","","<img src=""img/test2-neutral.PNG"" border=""10px; grey"">","null","","","","","","",""
"null","","html-keyboard-response","10","130281","0.0-2.0-2.2","","<div style=""font-size:60px;"">+</div>","null","","","","","","",""
"null","","image-keyboard-response","11","131784","0.0-2.0-0.3","","img/test3.PNG","null","practice","null","true","","","",""
"null","","html-keyboard-response","12","132788","0.0-2.0-1.3","","<img src=""img/test3-reward.PNG"">","null","","","","","","",""
"null","","html-keyboard-response","13","133790","0.0-2.0-2.3","","<div style=""font-size:60px;"">+</div>","null","","","","","","",""
"538.1249999918509","","image-keyboard-response","14","134330","0.0-2.0-0.4","","img/test1.PNG","32","practice","32","true","","","",""
"null","","html-keyboard-response","15","135342","0.0-2.0-1.4","","<img src=""img/test1-reward.PNG"" border=""10px; grey"">","null","","","","","","",""
"null","","html-keyboard-response","16","136348","0.0-2.0-2.4","","<div style=""font-size:60px;"">+</div>","null","","","","","","",""
"null","","image-keyboard-response","17","137854","0.0-2.0-0.5","","img/test2.PNG","null","practice","null","true","","","",""
"null","","html-keyboard-response","18","138870","0.0-2.0-1.5","","<img src=""img/test2-reward.PNG"">","null","","","","","","",""
"null","","html-keyboard-response","19","139886","0.0-2.0-2.5","","<div style=""font-size:60px;"">+</div>","null","","","","","","",""
"null","","image-keyboard-response","20","141392","0.0-2.0-0.6","","img/test3.PNG","null","practice","null","true","","","",""
"null","","html-keyboard-response","21","142396","0.0-2.0-1.6","","<img src=""img/test3-reward.PNG"">","null","","","","","","",""
"null","","html-keyboard-response","22","143399","0.0-2.0-2.6","","<div style=""font-size:60px;"">+</div>","null","","","","","","",""
"null","","image-keyboard-response","23","144901","0.0-2.0-0.7","","img/test2.PNG","null","practice","null","true","","","",""
"null","","html-keyboard-response","24","145906","0.0-2.0-1.7","","<img src=""img/test2-reward.PNG"">","null","","","","","","",""
"null","","html-keyboard-response","25","146910","0.0-2.0-2.7","","<div style=""font-size:60px;"">+</div>","null","","","","","","",""
"347.40999998757616","","image-keyboard-response","26","147258","0.0-2.0-0.8","","img/test1.PNG","32","practice","32","true","","","",""
"null","","html-keyboard-response","27","148261","0.0-2.0-1.8","","<img src=""img/test1-reward.PNG"" border=""10px; grey"">","null","","","","","","",""
"null","","html-keyboard-response","28","149264","0.0-2.0-2.8","","<div style=""font-size:60px;"">+</div>","null","","","","","","",""
"null","","image-keyboard-response","29","150768","0.0-2.0-0.9","","img/test2.PNG","null","practice","null","true","","","",""
"null","","html-keyboard-response","30","151769","0.0-2.0-1.9","","<img src=""img/test2-reward.PNG"">","null","","","","","","",""
"null","","html-keyboard-response","31","152773","0.0-2.0-2.9","","<div style=""font-size:60px;"">+</div>","null","","","","","","",""
"null","","image-keyboard-response","32","154275","0.0-2.0-0.10","","img/test3.PNG","null","practice","null","true","","","",""
"null","","html-keyboard-response","33","155279","0.0-2.0-1.10","","<img src=""img/test3-reward.PNG"">","null","","","","","","",""
"null","","html-keyboard-response","34","156281","0.0-2.0-2.10","","<div style=""font-size:60px;"">+</div>","null","","","","","","",""
"351.1249999864958","","image-keyboard-response","35","156633","0.0-2.0-0.11","","img/test1.PNG","32","practice","32","true","","","",""
"null","","html-keyboard-response","36","157646","0.0-2.0-1.11","","<img src=""img/test1-reward.PNG"" border=""10px; grey"">","null","","","","","","",""
"null","","html-keyboard-response","37","158654","0.0-2.0-2.11","","<div style=""font-size:60px;"">+</div>","null","","","","","","",""
"1298.9499999966938","","instructions","38","159953","0.0-3.0","[{""page_index"":0,""viewing_time"":1298.6850000161212}]","","","","","","","","",""
"798.5800000024028","","image-keyboard-response","39","160753","0.0-4.0-0.0","","img/green.png","32","trial","null","false","0.2,0.8","2:nogo_b","",""
"null","","html-keyboard-response","40","161758","0.0-4.0-1.0","","<img src=""img/green-r.png"" border=""10"">","null","trial","null","","0.2,0.8","2:nogo_b","1",""
"null","","html-keyboard-response","41","162773","0.0-4.0-2.0","","<div style=""font-size:60px;"">+</div>","null","","","","","","",""
"null","","image-keyboard-response","42","164275","0.0-4.0-0.1","","img/pink.png","null","trial","32","false","0.8,0.2","1:go_a","",""
"null","","html-keyboard-response","43","165282","0.0-4.0-1.1","","<img src=""img/pink-n.png"">","null","trial","32","","0.8,0.2","1:go_a","0",""
"null","","html-keyboard-response","44","166285","0.0-4.0-2.1","","<div style=""font-size:60px;"">+</div>","null","","","","","","",""
"563.205000013113","","image-keyboard-response","45","166850","0.0-4.0-0.2","","img/green.png","32","trial","null","false","0.2,0.8","2:nogo_b","",""
"null","","html-keyboard-response","46","167863","0.0-4.0-1.2","","<img src=""img/green-n.png"" border=""10"">","null","trial","null","","0.2,0.8","2:nogo_b","0",""
"null","","html-keyboard-response","47","168867","0.0-4.0-2.2","","<div style=""font-size:60px;"">+</div>","null","","","","","","",""
"null","","image-keyboard-response","48","170376","0.0-4.0-0.3","","img/pink.png","null","trial","32","false","0.8,0.2","1:go_a","",""
"null","","html-keyboard-response","49","171382","0.0-4.0-1.3","","<img src=""img/pink-n.png"">","null","trial","32","","0.8,0.2","1:go_a","0",""
"null","","html-keyboard-response","50","172384","0.0-4.0-2.3","","<div style=""font-size:60px;"">+</div>","null","","","","","","",""
"546.1550000181887","","image-keyboard-response","51","172931","0.0-4.0-0.4","","img/pink.png","32","trial","32","true","0.8,0.2","1:go_a","",""
"null","","html-keyboard-response","52","173944","0.0-4.0-1.4","","<img src=""img/pink-r.png"" border=""10"">","null","trial","32","","0.8,0.2","1:go_a","1",""
"null","","html-keyboard-response","53","174946","0.0-4.0-2.4","","<div style=""font-size:60px;"">+</div>","null","","","","","","",""
"494.185000017751","","image-keyboard-response","54","175441","0.0-4.0-0.5","","img/green.png","32","trial","null","false","0.2,0.8","2:nogo_b","",""
"null","","html-keyboard-response","55","176451","0.0-4.0-1.5","","<img src=""img/green-n.png"" border=""10"">","null","trial","null","","0.2,0.8","2:nogo_b","0",""
"null","","html-keyboard-response","56","177454","0.0-4.0-2.5","","<div style=""font-size:60px;"">+</div>","null","","","","","","",""
"null","","image-keyboard-response","57","178970","0.0-4.0-0.6","","img/green.png","null","trial","null","true","0.2,0.8","2:nogo_b","",""
"null","","html-keyboard-response","58","179987","0.0-4.0-1.6","","<img src=""img/green-r.png"">","null","trial","null","","0.2,0.8","2:nogo_b","1",""
"null","","html-keyboard-response","59","180990","0.0-4.0-2.6","","<div style=""font-size:60px;"">+</div>","null","","","","","","",""
"401.320000004489","","image-keyboard-response","60","181393","0.0-4.0-0.7","","img/pink.png","32","trial","32","true","0.8,0.2","1:go_a","",""
"null","","html-keyboard-response","61","182399","0.0-4.0-1.7","","<img src=""img/pink-r.png"" border=""10"">","null","trial","32","","0.8,0.2","1:go_a","1",""
"null","","html-keyboard-response","62","183404","0.0-4.0-2.7","","<div style=""font-size:60px;"">+</div>","null","","","","","","",""
"595.5650000250898","","image-keyboard-response","63","184001","0.0-4.0-0.8","","img/pink.png","32","trial","32","true","0.8,0.2","1:go_a","",""
"null","","html-keyboard-response","64","185006","0.0-4.0-1.8","","<img src=""img/pink-n.png"" border=""10"">","null","trial","32","","0.8,0.2","1:go_a","0",""
"null","","html-keyboard-response","65","186011","0.0-4.0-2.8","","<div style=""font-size:60px;"">+</div>","null","","","","","","",""
"null","","image-keyboard-response","66","187515","0.0-4.0-0.9","","img/green.png","null","trial","null","true","0.2,0.8","2:nogo_b","",""
"null","","html-keyboard-response","67","188519","0.0-4.0-1.9","","<img src=""img/green-n.png"">","null","trial","null","","0.2,0.8","2:nogo_b","0",""
"null","","html-keyboard-response","68","189523","0.0-4.0-2.9","","<div style=""font-size:60px;"">+</div>","null","","","","","","",""
"365.8399999840185","","image-keyboard-response","69","189890","0.0-4.0-0.10","","img/pink.png","32","trial","32","true","0.8,0.2","1:go_a","",""
"null","","html-keyboard-response","70","190900","0.0-4.0-1.10","","<img src=""img/pink-r.png"" border=""10"">","null","trial","32","","0.8,0.2","1:go_a","1",""
"null","","html-keyboard-response","71","191902","0.0-4.0-2.10","","<div style=""font-size:60px;"">+</div>","null","","","","","","",""
"null","","image-keyboard-response","72","193406","0.0-4.0-0.11","","img/green.png","null","trial","null","true","0.2,0.8","2:nogo_b","",""
"null","","html-keyboard-response","73","194413","0.0-4.0-1.11","","<img src=""img/green-r.png"">","null","trial","null","","0.2,0.8","2:nogo_b","1",""
"null","","html-keyboard-response","74","195416","0.0-4.0-2.11","","<div style=""font-size:60px;"">+</div>","null","","","","","","",""
"352.485000010347","","image-keyboard-response","75","195769","0.0-4.0-0.12","","img/pink.png","32","trial","32","true","0.8,0.2","1:go_a","",""
"null","","html-keyboard-response","76","196776","0.0-4.0-1.12","","<img src=""img/pink-r.png"" border=""10"">","null","trial","32","","0.8,0.2","1:go_a","1",""
"null","","html-keyboard-response","77","197780","0.0-4.0-2.12","","<div style=""font-size:60px;"">+</div>","null","","","","","","",""
"null","","image-keyboard-response","78","199286","0.0-4.0-0.13","","img/green.png","null","trial","null","true","0.2,0.8","2:nogo_b","",""
"null","","html-keyboard-response","79","200290","0.0-4.0-1.13","","<img src=""img/green-r.png"">","null","trial","null","","0.2,0.8","2:nogo_b","1",""
"null","","html-keyboard-response","80","201305","0.0-4.0-2.13","","<div style=""font-size:60px;"">+</div>","null","","","","","","",""
"407.1750000002794","","image-keyboard-response","81","201713","0.0-4.0-0.14","","img/pink.png","32","trial","32","true","0.8,0.2","1:go_a","",""
"null","","html-keyboard-response","82","202717","0.0-4.0-1.14","","<img src=""img/pink-n.png"" border=""10"">","null","trial","32","","0.8,0.2","1:go_a","0",""
"null","","html-keyboard-response","83","203721","0.0-4.0-2.14","","<div style=""font-size:60px;"">+</div>","null","","","","","","",""
"null","","image-keyboard-response","84","205225","0.0-4.0-0.15","","img/green.png","null","trial","null","true","0.2,0.8","2:nogo_b","",""
"null","","html-keyboard-response","85","206241","0.0-4.0-1.15","","<img src=""img/green-r.png"">","null","trial","null","","0.2,0.8","2:nogo_b","1",""
"null","","html-keyboard-response","86","207245","0.0-4.0-2.15","","<div style=""font-size:60px;"">+</div>","null","","","","","","",""
"null","","image-keyboard-response","87","208747","0.0-4.0-0.16","","img/green.png","null","trial","null","true","0.2,0.8","2:nogo_b","",""
"null","","html-keyboard-response","88","209750","0.0-4.0-1.16","","<img src=""img/green-n.png"">","null","trial","null","","0.2,0.8","2:nogo_b","0",""
"null","","html-keyboard-response","89","210763","0.0-4.0-2.16","","<div style=""font-size:60px;"">+</div>","null","","","","","","",""
"391.6249999892898","","image-keyboard-response","90","211156","0.0-4.0-0.17","","img/pink.png","32","trial","32","true","0.8,0.2","1:go_a","",""
"null","","html-keyboard-response","91","212173","0.0-4.0-1.17","","<img src=""img/pink-n.png"" border=""10"">","null","trial","32","","0.8,0.2","1:go_a","0",""
"null","","html-keyboard-response","92","213178","0.0-4.0-2.17","","<div style=""font-size:60px;"">+</div>","null","","","","","","",""
"null","","image-keyboard-response","93","214687","0.0-4.0-0.18","","img/green.png","null","trial","null","true","0.2,0.8","2:nogo_b","",""
"null","","html-keyboard-response","94","215692","0.0-4.0-1.18","","<img src=""img/green-r.png"">","null","trial","null","","0.2,0.8","2:nogo_b","1",""
"null","","html-keyboard-response","95","216696","0.0-4.0-2.18","","<div style=""font-size:60px;"">+</div>","null","","","","","","",""
"554.6550000144634","","image-keyboard-response","96","217251","0.0-4.0-0.19","","img/pink.png","32","trial","32","true","0.8,0.2","1:go_a","",""
"null","","html-keyboard-response","97","218265","0.0-4.0-1.19","","<img src=""img/pink-r.png"" border=""10"">","null","trial","32","","0.8,0.2","1:go_a","1",""
"null","","html-keyboard-response","98","219266","0.0-4.0-2.19","","<div style=""font-size:60px;"">+</div>","null","","","","","","",""
"null","","image-keyboard-response","99","220773","0.0-4.0-0.20","","img/green.png","null","trial","null","true","0.2,0.8","2:nogo_b","",""
"null","","html-keyboard-response","100","221789","0.0-4.0-1.20","","<img src=""img/green-r.png"">","null","trial","null","","0.2,0.8","2:nogo_b","1",""
"null","","html-keyboard-response","101","222805","0.0-4.0-2.20","","<div style=""font-size:60px;"">+</div>","null","","","","","","",""
"348.2899999944493","","image-keyboard-response","102","223154","0.0-4.0-0.21","","img/pink.png","32","trial","32","true","0.8,0.2","1:go_a","",""
"null","","html-keyboard-response","103","224157","0.0-4.0-1.21","","<img src=""img/pink-r.png"" border=""10"">","null","trial","32","","0.8,0.2","1:go_a","1",""
"null","","html-keyboard-response","104","225161","0.0-4.0-2.21","","<div style=""font-size:60px;"">+</div>","null","","","","","","",""
"null","","image-keyboard-response","105","226662","0.0-4.0-0.22","","img/green.png","null","trial","null","true","0.2,0.8","2:nogo_b","",""
"null","","html-keyboard-response","106","227675","0.0-4.0-1.22","","<img src=""img/green-r.png"">","null","trial","null","","0.2,0.8","2:nogo_b","1",""
"null","","html-keyboard-response","107","228685","0.0-4.0-2.22","","<div style=""font-size:60px;"">+</div>","null","","","","","","",""
"451.41000000876375","","image-keyboard-response","108","229138","0.0-4.0-0.23","","img/pink.png","32","trial","32","true","0.8,0.2","1:go_a","",""
"null","","html-keyboard-response","109","230154","0.0-4.0-1.23","","<img src=""img/pink-n.png"" border=""10"">","null","trial","32","","0.8,0.2","1:go_a","0",""
"null","","html-keyboard-response","110","231157","0.0-4.0-2.23","","<div style=""font-size:60px;"">+</div>","null","","","","","","",""
"565.2250000275671","","image-keyboard-response","111","231723","0.0-4.0-0.24","","img/pink.png","32","trial","32","true","0.8,0.2","1:go_a","",""
"null","","html-keyboard-response","112","232727","0.0-4.0-1.24","","<img src=""img/pink-r.png"" border=""10"">","null","trial","32","","0.8,0.2","1:go_a","1",""
"null","","html-keyboard-response","113","233734","0.0-4.0-2.24","","<div style=""font-size:60px;"">+</div>","null","","","","","","",""
"null","","image-keyboard-response","114","235242","0.0-4.0-0.25","","img/green.png","null","trial","null","true","0.2,0.8","2:nogo_b","",""
"null","","html-keyboard-response","115","236245","0.0-4.0-1.25","","<img src=""img/green-n.png"">","null","trial","null","","0.2,0.8","2:nogo_b","0",""
"null","","html-keyboard-response","116","237261","0.0-4.0-2.25","","<div style=""font-size:60px;"">+</div>","null","","","","","","",""
"null","","image-keyboard-response","117","238764","0.0-4.0-0.26","","img/green.png","null","trial","null","true","0.2,0.8","2:nogo_b","",""
"null","","html-keyboard-response","118","239766","0.0-4.0-1.26","","<img src=""img/green-n.png"">","null","trial","null","","0.2,0.8","2:nogo_b","0",""
"null","","html-keyboard-response","119","240780","0.0-4.0-2.26","","<div style=""font-size:60px;"">+</div>","null","","","","","","",""
"516.7850000143517","","image-keyboard-response","120","241298","0.0-4.0-0.27","","img/pink.png","32","trial","32","true","0.8,0.2","1:go_a","",""
"null","","html-keyboard-response","121","242303","0.0-4.0-1.27","","<img src=""img/pink-r.png"" border=""10"">","null","trial","32","","0.8,0.2","1:go_a","1",""
"null","","html-keyboard-response","122","243306","0.0-4.0-2.27","","<div style=""font-size:60px;"">+</div>","null","","","","","","",""
"null","","image-keyboard-response","123","244809","0.0-4.0-0.28","","img/green.png","null","trial","null","true","0.2,0.8","2:nogo_b","",""
"null","","html-keyboard-response","124","245826","0.0-4.0-1.28","","<img src=""img/green-n.png"">","null","trial","null","","0.2,0.8","2:nogo_b","0",""
"null","","html-keyboard-response","125","246842","0.0-4.0-2.28","","<div style=""font-size:60px;"">+</div>","null","","","","","","",""
"441.15500000771135","","image-keyboard-response","126","247284","0.0-4.0-0.29","","img/pink.png","32","trial","32","true","0.8,0.2","1:go_a","",""
"null","","html-keyboard-response","127","248291","0.0-4.0-1.29","","<img src=""img/pink-r.png"" border=""10"">","null","trial","32","","0.8,0.2","1:go_a","1",""
"null","","html-keyboard-response","128","249306","0.0-4.0-2.29","","<div style=""font-size:60px;"">+</div>","null","","","","","","",""
"663.3999999903608","","image-keyboard-response","129","249970","0.0-4.0-0.30","","img/pink.png","32","trial","32","true","0.8,0.2","1:go_a","",""
"null","","html-keyboard-response","130","250986","0.0-4.0-1.30","","<img src=""img/pink-r.png"" border=""10"">","null","trial","32","","0.8,0.2","1:go_a","1",""
"null","","html-keyboard-response","131","251991","0.0-4.0-2.30","","<div style=""font-size:60px;"">+</div>","null","","","","","","",""
"null","","image-keyboard-response","132","253499","0.0-4.0-0.31","","img/green.png","null","trial","null","true","0.2,0.8","2:nogo_b","",""
"null","","html-keyboard-response","133","254503","0.0-4.0-1.31","","<img src=""img/green-r.png"">","null","trial","null","","0.2,0.8","2:nogo_b","1",""
"null","","html-keyboard-response","134","255507","0.0-4.0-2.31","","<div style=""font-size:60px;"">+</div>","null","","","","","","",""
"741.1450000072364","","image-keyboard-response","135","256250","0.0-4.0-0.32","","img/pink.png","32","trial","32","true","0.8,0.2","1:go_a","",""
"null","","html-keyboard-response","136","257265","0.0-4.0-1.32","","<img src=""img/pink-n.png"" border=""10"">","null","trial","32","","0.8,0.2","1:go_a","0",""
"null","","html-keyboard-response","137","258270","0.0-4.0-2.32","","<div style=""font-size:60px;"">+</div>","null","","","","","","",""
"null","","image-keyboard-response","138","259774","0.0-4.0-0.33","","img/green.png","null","trial","null","true","0.2,0.8","2:nogo_b","",""
"null","","html-keyboard-response","139","260777","0.0-4.0-1.33","","<img src=""img/green-r.png"">","null","trial","null","","0.2,0.8","2:nogo_b","1",""
"null","","html-keyboard-response","140","261783","0.0-4.0-2.33","","<div style=""font-size:60px;"">+</div>","null","","","","","","",""
"417.01999999349937","","image-keyboard-response","141","262202","0.0-4.0-0.34","","img/pink.png","32","trial","32","true","0.8,0.2","1:go_a","",""
"null","","html-keyboard-response","142","263213","0.0-4.0-1.34","","<img src=""img/pink-n.png"" border=""10"">","null","trial","32","","0.8,0.2","1:go_a","0",""
"null","","html-keyboard-response","143","264219","0.0-4.0-2.34","","<div style=""font-size:60px;"">+</div>","null","","","","","","",""
"null","","image-keyboard-response","144","265720","0.0-4.0-0.35","","img/green.png","null","trial","null","true","0.2,0.8","2:nogo_b","",""
"null","","html-keyboard-response","145","266734","0.0-4.0-1.35","","<img src=""img/green-r.png"">","null","trial","null","","0.2,0.8","2:nogo_b","1",""
"null","","html-keyboard-response","146","267738","0.0-4.0-2.35","","<div style=""font-size:60px;"">+</div>","null","","","","","","",""
"null","","image-keyboard-response","147","269250","0.0-4.0-0.36","","img/green.png","null","trial","null","true","0.2,0.8","2:nogo_b","",""
"null","","html-keyboard-response","148","270254","0.0-4.0-1.36","","<img src=""img/green-n.png"">","null","trial","null","","0.2,0.8","2:nogo_b","0",""
"null","","html-keyboard-response","149","271258","0.0-4.0-2.36","","<div style=""font-size:60px;"">+</div>","null","","","","","","",""
"624.214999988908","","image-keyboard-response","150","271883","0.0-4.0-0.37","","img/pink.png","32","trial","32","true","0.8,0.2","1:go_a","",""
"null","","html-keyboard-response","151","272898","0.0-4.0-1.37","","<img src=""img/pink-r.png"" border=""10"">","null","trial","32","","0.8,0.2","1:go_a","1",""
"null","","html-keyboard-response","152","273915","0.0-4.0-2.37","","<div style=""font-size:60px;"">+</div>","null","","","","","","",""
"null","","image-keyboard-response","153","275423","0.0-4.0-0.38","","img/green.png","null","trial","null","true","0.2,0.8","2:nogo_b","",""
"null","","html-keyboard-response","154","276438","0.0-4.0-1.38","","<img src=""img/green-n.png"">","null","trial","null","","0.2,0.8","2:nogo_b","0",""
"null","","html-keyboard-response","155","277457","0.0-4.0-2.38","","<div style=""font-size:60px;"">+</div>","null","","","","","","",""
"328.9150000200607","","image-keyboard-response","156","277787","0.0-4.0-0.39","","img/pink.png","32","trial","32","true","0.8,0.2","1:go_a","",""
"null","","html-keyboard-response","157","278790","0.0-4.0-1.39","","<img src=""img/pink-r.png"" border=""10"">","null","trial","32","","0.8,0.2","1:go_a","1",""
"null","","html-keyboard-response","158","279794","0.0-4.0-2.39","","<div style=""font-size:60px;"">+</div>","null","","","","","","",""
"502.6500000094529","","image-keyboard-response","159","280297","0.0-4.0-0.40","","img/green.png","32","trial","null","false","0.2,0.8","2:nogo_b","",""
"null","","html-keyboard-response","160","281312","0.0-4.0-1.40","","<img src=""img/green-r.png"" border=""10"">","null","trial","null","","0.2,0.8","2:nogo_b","1",""
"null","","html-keyboard-response","161","282322","0.0-4.0-2.40","","<div style=""font-size:60px;"">+</div>","null","","","","","","",""
"518.5099999944214","","image-keyboard-response","162","282842","0.0-4.0-0.41","","img/pink.png","32","trial","32","true","0.8,0.2","1:go_a","",""
"null","","html-keyboard-response","163","283843","0.0-4.0-1.41","","<img src=""img/pink-r.png"" border=""10"">","null","trial","32","","0.8,0.2","1:go_a","1",""
"null","","html-keyboard-response","164","284849","0.0-4.0-2.41","","<div style=""font-size:60px;"">+</div>","null","","","","","","",""
"600.574999989476","","image-keyboard-response","165","285451","0.0-4.0-0.42","","img/pink.png","32","trial","32","true","0.8,0.2","1:go_a","",""
"null","","html-keyboard-response","166","286463","0.0-4.0-1.42","","<img src=""img/pink-r.png"" border=""10"">","null","trial","32","","0.8,0.2","1:go_a","1",""
"null","","html-keyboard-response","167","287467","0.0-4.0-2.42","","<div style=""font-size:60px;"">+</div>","null","","","","","","",""
"null","","image-keyboard-response","168","288976","0.0-4.0-0.43","","img/green.png","null","trial","null","true","0.2,0.8","2:nogo_b","",""
"null","","html-keyboard-response","169","289981","0.0-4.0-1.43","","<img src=""img/green-r.png"">","null","trial","null","","0.2,0.8","2:nogo_b","1",""
"null","","html-keyboard-response","170","290982","0.0-4.0-2.43","","<div style=""font-size:60px;"">+</div>","null","","","","","","",""
"571.8049999850336","","image-keyboard-response","171","291555","0.0-4.0-0.44","","img/pink.png","32","trial","32","true","0.8,0.2","1:go_a","",""
"null","","html-keyboard-response","172","292560","0.0-4.0-1.44","","<img src=""img/pink-r.png"" border=""10"">","null","trial","32","","0.8,0.2","1:go_a","1",""
"null","","html-keyboard-response","173","293562","0.0-4.0-2.44","","<div style=""font-size:60px;"">+</div>","null","","","","","","",""
"null","","image-keyboard-response","174","295064","0.0-4.0-0.45","","img/green.png","null","trial","null","true","0.2,0.8","2:nogo_b","",""
"null","","html-keyboard-response","175","296072","0.0-4.0-1.45","","<img src=""img/green-r.png"">","null","trial","null","","0.2,0.8","2:nogo_b","1",""
"null","","html-keyboard-response","176","297074","0.0-4.0-2.45","","<div style=""font-size:60px;"">+</div>","null","","","","","","",""
"null","","image-keyboard-response","177","298577","0.0-4.0-0.46","","img/green.png","null","trial","null","true","0.2,0.8","2:nogo_b","",""
"null","","html-keyboard-response","178","299583","0.0-4.0-1.46","","<img src=""img/green-r.png"">","null","trial","null","","0.2,0.8","2:nogo_b","1",""
"null","","html-keyboard-response","179","300590","0.0-4.0-2.46","","<div style=""font-size:60px;"">+</div>","null","","","","","","",""
"508.2249999977648","","image-keyboard-response","180","301098","0.0-4.0-0.47","","img/pink.png","32","trial","32","true","0.8,0.2","1:go_a","",""
"null","","html-keyboard-response","181","302107","0.0-4.0-1.47","","<img src=""img/pink-r.png"" border=""10"">","null","trial","32","","0.8,0.2","1:go_a","1",""
"null","","html-keyboard-response","182","303111","0.0-4.0-2.47","","<div style=""font-size:60px;"">+</div>","null","","","","","","",""
"null","","image-keyboard-response","183","304615","0.0-4.0-0.48","","img/green.png","null","trial","null","true","0.2,0.8","2:nogo_b","",""
"null","","html-keyboard-response","184","305630","0.0-4.0-1.48","","<img src=""img/green-r.png"">","null","trial","null","","0.2,0.8","2:nogo_b","1",""
"null","","html-keyboard-response","185","306633","0.0-4.0-2.48","","<div style=""font-size:60px;"">+</div>","null","","","","","","",""
"415.20499999751337","","image-keyboard-response","186","307050","0.0-4.0-0.49","","img/pink.png","32","trial","32","true","0.8,0.2","1:go_a","",""
"null","","html-keyboard-response","187","308056","0.0-4.0-1.49","","<img src=""img/pink-r.png"" border=""10"">","null","trial","32","","0.8,0.2","1:go_a","1",""
"null","","html-keyboard-response","188","309061","0.0-4.0-2.49","","<div style=""font-size:60px;"">+</div>","null","","","","","","",""
"null","","image-keyboard-response","189","310565","0.0-4.0-0.50","","img/green.png","null","trial","null","true","0.2,0.8","2:nogo_b","",""
"null","","html-keyboard-response","190","311569","0.0-4.0-1.50","","<img src=""img/green-n.png"">","null","trial","null","","0.2,0.8","2:nogo_b","0",""
"null","","html-keyboard-response","191","312573","0.0-4.0-2.50","","<div style=""font-size:60px;"">+</div>","null","","","","","","",""
"398.0749999755062","","image-keyboard-response","192","312971","0.0-4.0-0.51","","img/pink.png","32","trial","32","true","0.8,0.2","1:go_a","",""
"null","","html-keyboard-response","193","313982","0.0-4.0-1.51","","<img src=""img/pink-r.png"" border=""10"">","null","trial","32","","0.8,0.2","1:go_a","1",""
"null","","html-keyboard-response","194","314996","0.0-4.0-2.51","","<div style=""font-size:60px;"">+</div>","null","","","","","","",""
"389.59999999497086","","image-keyboard-response","195","315387","0.0-4.0-0.52","","img/pink.png","32","trial","32","true","0.8,0.2","1:go_a","",""
"null","","html-keyboard-response","196","316401","0.0-4.0-1.52","","<img src=""img/pink-r.png"" border=""10"">","null","trial","32","","0.8,0.2","1:go_a","1",""
"null","","html-keyboard-response","197","317404","0.0-4.0-2.52","","<div style=""font-size:60px;"">+</div>","null","","","","","","",""
"null","","image-keyboard-response","198","318921","0.0-4.0-0.53","","img/green.png","null","trial","null","true","0.2,0.8","2:nogo_b","",""
"null","","html-keyboard-response","199","319937","0.0-4.0-1.53","","<img src=""img/green-n.png"">","null","trial","null","","0.2,0.8","2:nogo_b","0",""
"null","","html-keyboard-response","200","320942","0.0-4.0-2.53","","<div style=""font-size:60px;"">+</div>","null","","","","","","",""
"433.9850000105798","","image-keyboard-response","201","321378","0.0-4.0-0.54","","img/pink.png","32","trial","32","true","0.8,0.2","1:go_a","",""
"null","","html-keyboard-response","202","322387","0.0-4.0-1.54","","<img src=""img/pink-r.png"" border=""10"">","null","trial","32","","0.8,0.2","1:go_a","1",""
"null","","html-keyboard-response","203","323391","0.0-4.0-2.54","","<div style=""font-size:60px;"">+</div>","null","","","","","","",""
"null","","image-keyboard-response","204","324905","0.0-4.0-0.55","","img/green.png","null","trial","null","true","0.2,0.8","2:nogo_b","",""
"null","","html-keyboard-response","205","325909","0.0-4.0-1.55","","<img src=""img/green-r.png"">","null","trial","null","","0.2,0.8","2:nogo_b","1",""
"null","","html-keyboard-response","206","326912","0.0-4.0-2.55","","<div style=""font-size:60px;"">+</div>","null","","","","","","",""
"560.6550000084098","","image-keyboard-response","207","327474","0.0-4.0-0.56","","img/pink.png","32","trial","32","true","0.8,0.2","1:go_a","",""
"null","","html-keyboard-response","208","328479","0.0-4.0-1.56","","<img src=""img/pink-r.png"" border=""10"">","null","trial","32","","0.8,0.2","1:go_a","1",""
"null","","html-keyboard-response","209","329484","0.0-4.0-2.56","","<div style=""font-size:60px;"">+</div>","null","","","","","","",""
"null","","image-keyboard-response","210","330993","0.0-4.0-0.57","","img/green.png","null","trial","null","true","0.2,0.8","2:nogo_b","",""
"null","","html-keyboard-response","211","331998","0.0-4.0-1.57","","<img src=""img/green-n.png"">","null","trial","null","","0.2,0.8","2:nogo_b","0",""
"null","","html-keyboard-response","212","333003","0.0-4.0-2.57","","<div style=""font-size:60px;"">+</div>","null","","","","","","",""
"394.80499998899177","","image-keyboard-response","213","333402","0.0-4.0-0.58","","img/pink.png","32","trial","32","true","0.8,0.2","1:go_a","",""
"null","","html-keyboard-response","214","334408","0.0-4.0-1.58","","<img src=""img/pink-r.png"" border=""10"">","null","trial","32","","0.8,0.2","1:go_a","1",""
"null","","html-keyboard-response","215","335413","0.0-4.0-2.58","","<div style=""font-size:60px;"">+</div>","null","","","","","","",""
"null","","image-keyboard-response","216","336928","0.0-4.0-0.59","","img/green.png","null","trial","null","true","0.2,0.8","2:nogo_b","",""
"null","","html-keyboard-response","217","337945","0.0-4.0-1.59","","<img src=""img/green-r.png"">","null","trial","null","","0.2,0.8","2:nogo_b","1",""
"null","","html-keyboard-response","218","338949","0.0-4.0-2.59","","<div style=""font-size:60px;"">+</div>","null","","","","","","",""
"6322.489999991376","","instructions","219","345272","0.0-5.0","[{""page_index"":0,""viewing_time"":6322.090000001481}]","","","","","","","","",""
"792.459999996936","","image-keyboard-response","220","346066","0.0-6.0-0.0","","img/grey.png","32","trial","null","false","0.2,0.8","2:nogo_b","",""
"null","","html-keyboard-response","221","347074","0.0-6.0-1.0","","<img src=""img/grey-n.png"" border=""10"">","null","trial","null","","0.2,0.8","2:nogo_b","0",""
"null","","html-keyboard-response","222","348076","0.0-6.0-2.0","","<div style=""font-size:60px;"">+</div>","null","","","","","","",""
"null","","image-keyboard-response","223","349581","0.0-6.0-0.1","","img/pink.png","null","trial","null","true","0.4,0.6","4:nogo_d","",""
"null","","html-keyboard-response","224","350594","0.0-6.0-1.1","","<img src=""img/pink-n.png"">","null","trial","null","","0.4,0.6","4:nogo_d","0",""
"null","","html-keyboard-response","225","351596","0.0-6.0-2.1","","<div style=""font-size:60px;"">+</div>","null","","","","","","",""
"781.764999992447","","image-keyboard-response","226","352379","0.0-6.0-0.2","","img/red.png","32","trial","32","true","0.6,0.4","3:go_c","",""
"null","","html-keyboard-response","227","353385","0.0-6.0-1.2","","<img src=""img/red-n.png"" border=""10"">","null","trial","32","","0.6,0.4","3:go_c","0",""
"null","","html-keyboard-response","228","354401","0.0-6.0-2.2","","<div style=""font-size:60px;"">+</div>","null","","","","","","",""
"null","","image-keyboard-response","229","355904","0.0-6.0-0.3","","img/purple.png","null","trial","32","false","0.8,0.2","1:go_a","",""
"null","","html-keyboard-response","230","356921","0.0-6.0-1.3","","<img src=""img/purple-n.png"">","null","trial","32","","0.8,0.2","1:go_a","0",""
"null","","html-keyboard-response","231","357923","0.0-6.0-2.3","","<div style=""font-size:60px;"">+</div>","null","","","","","","",""
"559.2300000134856","","image-keyboard-response","232","358483","0.0-6.0-0.4","","img/pink.png","32","trial","null","false","0.4,0.6","4:nogo_d","",""
"null","","html-keyboard-response","233","359500","0.0-6.0-1.4","","<img src=""img/pink-n.png"" border=""10"">","null","trial","null","","0.4,0.6","4:nogo_d","0",""
"null","","html-keyboard-response","234","360501","0.0-6.0-2.4","","<div style=""font-size:60px;"">+</div>","null","","","","","","",""
"612.3199999856297","","image-keyboard-response","235","361114","0.0-6.0-0.5","","img/purple.png","32","trial","32","true","0.8,0.2","1:go_a","",""
"null","","html-keyboard-response","236","362128","0.0-6.0-1.5","","<img src=""img/purple-n.png"" border=""10"">","null","trial","32","","0.8,0.2","1:go_a","0",""
"null","","html-keyboard-response","237","363130","0.0-6.0-2.5","","<div style=""font-size:60px;"">+</div>","null","","","","","","",""
"471.73500002827495","","image-keyboard-response","238","363602","0.0-6.0-0.6","","img/red.png","32","trial","32","true","0.6,0.4","3:go_c","",""
"null","","html-keyboard-response","239","364617","0.0-6.0-1.6","","<img src=""img/red-r.png"" border=""10"">","null","trial","32","","0.6,0.4","3:go_c","1",""
"null","","html-keyboard-response","240","365619","0.0-6.0-2.6","","<div style=""font-size:60px;"">+</div>","null","","","","","","",""
"638.5650000011083","","image-keyboard-response","241","366259","0.0-6.0-0.7","","img/grey.png","32","trial","null","false","0.2,0.8","2:nogo_b","",""
"null","","html-keyboard-response","242","367262","0.0-6.0-1.7","","<img src=""img/grey-n.png"" border=""10"">","null","trial","null","","0.2,0.8","2:nogo_b","0",""
"null","","html-keyboard-response","243","368265","0.0-6.0-2.7","","<div style=""font-size:60px;"">+</div>","null","","","","","","",""
"418.12499999650754","","image-keyboard-response","244","368683","0.0-6.0-0.8","","img/purple.png","32","trial","32","true","0.8,0.2","1:go_a","",""
"null","","html-keyboard-response","245","369694","0.0-6.0-1.8","","<img src=""img/purple-r.png"" border=""10"">","null","trial","32","","0.8,0.2","1:go_a","1",""
"null","","html-keyboard-response","246","370704","0.0-6.0-2.8","","<div style=""font-size:60px;"">+</div>","null","","","","","","",""
"null","","image-keyboard-response","247","372208","0.0-6.0-0.9","","img/grey.png","null","trial","null","true","0.2,0.8","2:nogo_b","",""
"null","","html-keyboard-response","248","373220","0.0-6.0-1.9","","<img src=""img/grey-n.png"">","null","trial","null","","0.2,0.8","2:nogo_b","0",""
"null","","html-keyboard-response","249","374224","0.0-6.0-2.9","","<div style=""font-size:60px;"">+</div>","null","","","","","","",""
"null","","image-keyboard-response","250","375727","0.0-6.0-0.10","","img/pink.png","null","trial","null","true","0.4,0.6","4:nogo_d","",""
"null","","html-keyboard-response","251","376731","0.0-6.0-1.10","","<img src=""img/pink-n.png"">","null","trial","null","","0.4,0.6","4:nogo_d","0",""
"null","","html-keyboard-response","252","377733","0.0-6.0-2.10","","<div style=""font-size:60px;"">+</div>","null","","","","","","",""
"731.1549999867566","","image-keyboard-response","253","378466","0.0-6.0-0.11","","img/red.png","32","trial","32","true","0.6,0.4","3:go_c","",""
"null","","html-keyboard-response","254","379473","0.0-6.0-1.11","","<img src=""img/red-r.png"" border=""10"">","null","trial","32","","0.6,0.4","3:go_c","1",""
"null","","html-keyboard-response","255","380476","0.0-6.0-2.11","","<div style=""font-size:60px;"">+</div>","null","","","","","","",""
"485.4099999938626","","image-keyboard-response","256","380962","0.0-6.0-0.12","","img/red.png","32","trial","32","true","0.6,0.4","3:go_c","",""
"null","","html-keyboard-response","257","381973","0.0-6.0-1.12","","<img src=""img/red-n.png"" border=""10"">","null","trial","32","","0.6,0.4","3:go_c","0",""
"null","","html-keyboard-response","258","382975","0.0-6.0-2.12","","<div style=""font-size:60px;"">+</div>","null","","","","","","",""
"905.3450000064913","","image-keyboard-response","259","383882","0.0-6.0-0.13","","img/grey.png","32","trial","null","false","0.2,0.8","2:nogo_b","",""
"null","","html-keyboard-response","260","384898","0.0-6.0-1.13","","<img src=""img/grey-n.png"" border=""10"">","null","trial","null","","0.2,0.8","2:nogo_b","0",""
"null","","html-keyboard-response","261","385904","0.0-6.0-2.13","","<div style=""font-size:60px;"">+</div>","null","","","","","","",""
"632.7699999965262","","image-keyboard-response","262","386538","0.0-6.0-0.14","","img/purple.png","32","trial","32","true","0.8,0.2","1:go_a","",""
"null","","html-keyboard-response","263","387547","0.0-6.0-1.14","","<img src=""img/purple-r.png"" border=""10"">","null","trial","32","","0.8,0.2","1:go_a","1",""
"null","","html-keyboard-response","264","388552","0.0-6.0-2.14","","<div style=""font-size:60px;"">+</div>","null","","","","","","",""
"null","","image-keyboard-response","265","390057","0.0-6.0-0.15","","img/pink.png","null","trial","null","true","0.4,0.6","4:nogo_d","",""
"null","","html-keyboard-response","266","391073","0.0-6.0-1.15","","<img src=""img/pink-r.png"">","null","trial","null","","0.4,0.6","4:nogo_d","1",""
"null","","html-keyboard-response","267","392076","0.0-6.0-2.15","","<div style=""font-size:60px;"">+</div>","null","","","","","","",""
"446.2249999924097","","image-keyboard-response","268","392523","0.0-6.0-0.16","","img/red.png","32","trial","32","true","0.6,0.4","3:go_c","",""
"null","","html-keyboard-response","269","393531","0.0-6.0-1.16","","<img src=""img/red-r.png"" border=""10"">","null","trial","32","","0.6,0.4","3:go_c","1",""
"null","","html-keyboard-response","270","394535","0.0-6.0-2.16","","<div style=""font-size:60px;"">+</div>","null","","","","","","",""
"null","","image-keyboard-response","271","396041","0.0-6.0-0.17","","img/grey.png","null","trial","null","true","0.2,0.8","2:nogo_b","",""
"null","","html-keyboard-response","272","397043","0.0-6.0-1.17","","<img src=""img/grey-r.png"">","null","trial","null","","0.2,0.8","2:nogo_b","1",""
"null","","html-keyboard-response","273","398060","0.0-6.0-2.17","","<div style=""font-size:60px;"">+</div>","null","","","","","","",""
"532.7850000176113","","image-keyboard-response","274","398595","0.0-6.0-0.18","","img/purple.png","32","trial","32","true","0.8,0.2","1:go_a","",""
"null","","html-keyboard-response","275","399597","0.0-6.0-1.18","","<img src=""img/purple-r.png"" border=""10"">","null","trial","32","","0.8,0.2","1:go_a","1",""
"null","","html-keyboard-response","276","400602","0.0-6.0-2.18","","<div style=""font-size:60px;"">+</div>","null","","","","","","",""
"null","","image-keyboard-response","277","402105","0.0-6.0-0.19","","img/pink.png","null","trial","null","true","0.4,0.6","4:nogo_d","",""
"null","","html-keyboard-response","278","403113","0.0-6.0-1.19","","<img src=""img/pink-n.png"">","null","trial","null","","0.4,0.6","4:nogo_d","0",""
"null","","html-keyboard-response","279","404121","0.0-6.0-2.19","","<div style=""font-size:60px;"">+</div>","null","","","","","","",""
"335.61000000918284","","image-keyboard-response","280","404458","0.0-6.0-0.20","","img/red.png","32","trial","32","true","0.6,0.4","3:go_c","",""
"null","","html-keyboard-response","281","405465","0.0-6.0-1.20","","<img src=""img/red-r.png"" border=""10"">","null","trial","32","","0.6,0.4","3:go_c","1",""
"null","","html-keyboard-response","282","406471","0.0-6.0-2.20","","<div style=""font-size:60px;"">+</div>","null","","","","","","",""
"null","","image-keyboard-response","283","407973","0.0-6.0-0.21","","img/pink.png","null","trial","null","true","0.4,0.6","4:nogo_d","",""
"null","","html-keyboard-response","284","408977","0.0-6.0-1.21","","<img src=""img/pink-n.png"">","null","trial","null","","0.4,0.6","4:nogo_d","0",""
"null","","html-keyboard-response","285","409983","0.0-6.0-2.21","","<div style=""font-size:60px;"">+</div>","null","","","","","","",""
"null","","image-keyboard-response","286","411489","0.0-6.0-0.22","","img/grey.png","null","trial","null","true","0.2,0.8","2:nogo_b","",""
"null","","html-keyboard-response","287","412493","0.0-6.0-1.22","","<img src=""img/grey-r.png"">","null","trial","null","","0.2,0.8","2:nogo_b","1",""
"null","","html-keyboard-response","288","413509","0.0-6.0-2.22","","<div style=""font-size:60px;"">+</div>","null","","","","","","",""
"477.37000000779517","","image-keyboard-response","289","413987","0.0-6.0-0.23","","img/purple.png","32","trial","32","true","0.8,0.2","1:go_a","",""
"null","","html-keyboard-response","290","415004","0.0-6.0-1.23","","<img src=""img/purple-r.png"" border=""10"">","null","trial","32","","0.8,0.2","1:go_a","1",""
"null","","html-keyboard-response","291","416007","0.0-6.0-2.23","","<div style=""font-size:60px;"">+</div>","null","","","","","","",""
"null","","image-keyboard-response","292","417511","0.0-6.0-0.24","","img/grey.png","null","trial","null","true","0.2,0.8","2:nogo_b","",""
"null","","html-keyboard-response","293","418515","0.0-6.0-1.24","","<img src=""img/grey-r.png"">","null","trial","null","","0.2,0.8","2:nogo_b","1",""
"null","","html-keyboard-response","294","419531","0.0-6.0-2.24","","<div style=""font-size:60px;"">+</div>","null","","","","","","",""
"342.39499998511747","","image-keyboard-response","295","419874","0.0-6.0-0.25","","img/red.png","32","trial","32","true","0.6,0.4","3:go_c","",""
"null","","html-keyboard-response","296","420882","0.0-6.0-1.25","","<img src=""img/red-n.png"" border=""10"">","null","trial","32","","0.6,0.4","3:go_c","0",""
"null","","html-keyboard-response","297","421896","0.0-6.0-2.25","","<div style=""font-size:60px;"">+</div>","null","","","","","","",""
"null","","image-keyboard-response","298","423401","0.0-6.0-0.26","","img/pink.png","null","trial","null","true","0.4,0.6","4:nogo_d","",""
"null","","html-keyboard-response","299","424413","0.0-6.0-1.26","","<img src=""img/pink-r.png"">","null","trial","null","","0.4,0.6","4:nogo_d","1",""
"null","","html-keyboard-response","300","425417","0.0-6.0-2.26","","<div style=""font-size:60px;"">+</div>","null","","","","","","",""
"534.8700000031386","","image-keyboard-response","301","425954","0.0-6.0-0.27","","img/purple.png","32","trial","32","true","0.8,0.2","1:go_a","",""
"null","","html-keyboard-response","302","426966","0.0-6.0-1.27","","<img src=""img/purple-n.png"" border=""10"">","null","trial","32","","0.8,0.2","1:go_a","0",""
"null","","html-keyboard-response","303","427969","0.0-6.0-2.27","","<div style=""font-size:60px;"">+</div>","null","","","","","","",""
"null","","image-keyboard-response","304","429471","0.0-6.0-0.28","","img/grey.png","null","trial","null","true","0.2,0.8","2:nogo_b","",""
"null","","html-keyboard-response","305","430475","0.0-6.0-1.28","","<img src=""img/grey-n.png"">","null","trial","null","","0.2,0.8","2:nogo_b","0",""
"null","","html-keyboard-response","306","431492","0.0-6.0-2.28","","<div style=""font-size:60px;"">+</div>","null","","","","","","",""
"null","","image-keyboard-response","307","433007","0.0-6.0-0.29","","img/pink.png","null","trial","null","true","0.4,0.6","4:nogo_d","",""
"null","","html-keyboard-response","308","434025","0.0-6.0-1.29","","<img src=""img/pink-n.png"">","null","trial","null","","0.4,0.6","4:nogo_d","0",""
"null","","html-keyboard-response","309","435040","0.0-6.0-2.29","","<div style=""font-size:60px;"">+</div>","null","","","","","","",""
"370.1650000002701","","image-keyboard-response","310","435411","0.0-6.0-0.30","","img/red.png","32","trial","32","true","0.6,0.4","3:go_c","",""
"null","","html-keyboard-response","311","436424","0.0-6.0-1.30","","<img src=""img/red-n.png"" border=""10"">","null","trial","32","","0.6,0.4","3:go_c","0",""
"null","","html-keyboard-response","312","437437","0.0-6.0-2.30","","<div style=""font-size:60px;"">+</div>","null","","","","","","",""
"379.98500000685453","","image-keyboard-response","313","437818","0.0-6.0-0.31","","img/purple.png","32","trial","32","true","0.8,0.2","1:go_a","",""
"null","","html-keyboard-response","314","438831","0.0-6.0-1.31","","<img src=""img/purple-n.png"" border=""10"">","null","trial","32","","0.8,0.2","1:go_a","0",""
"null","","html-keyboard-response","315","439834","0.0-6.0-2.31","","<div style=""font-size:60px;"">+</div>","null","","","","","","",""
"null","","image-keyboard-response","316","441338","0.0-6.0-0.32","","img/pink.png","null","trial","null","true","0.4,0.6","4:nogo_d","",""
"null","","html-keyboard-response","317","442342","0.0-6.0-1.32","","<img src=""img/pink-n.png"">","null","trial","null","","0.4,0.6","4:nogo_d","0",""
"null","","html-keyboard-response","318","443345","0.0-6.0-2.32","","<div style=""font-size:60px;"">+</div>","null","","","","","","",""
"null","","image-keyboard-response","319","444858","0.0-6.0-0.33","","img/grey.png","null","trial","null","true","0.2,0.8","2:nogo_b","",""
"null","","html-keyboard-response","320","445860","0.0-6.0-1.33","","<img src=""img/grey-r.png"">","null","trial","null","","0.2,0.8","2:nogo_b","1",""
"null","","html-keyboard-response","321","446861","0.0-6.0-2.33","","<div style=""font-size:60px;"">+</div>","null","","","","","","",""
"404.30499997455627","","image-keyboard-response","322","447266","0.0-6.0-0.34","","img/purple.png","32","trial","32","true","0.8,0.2","1:go_a","",""
"null","","html-keyboard-response","323","448272","0.0-6.0-1.34","","<img src=""img/purple-n.png"" border=""10"">","null","trial","32","","0.8,0.2","1:go_a","0",""
"null","","html-keyboard-response","324","449274","0.0-6.0-2.34","","<div style=""font-size:60px;"">+</div>","null","","","","","","",""
"367.45499999960884","","image-keyboard-response","325","449642","0.0-6.0-0.35","","img/red.png","32","trial","32","true","0.6,0.4","3:go_c","",""
"null","","html-keyboard-response","326","450658","0.0-6.0-1.35","","<img src=""img/red-r.png"" border=""10"">","null","trial","32","","0.6,0.4","3:go_c","1",""
"null","","html-keyboard-response","327","451661","0.0-6.0-2.35","","<div style=""font-size:60px;"">+</div>","null","","","","","","",""
"740.9049999841955","","image-keyboard-response","328","452403","0.0-6.0-0.36","","img/grey.png","32","trial","null","false","0.2,0.8","2:nogo_b","",""
"null","","html-keyboard-response","329","453416","0.0-6.0-1.36","","<img src=""img/grey-n.png"" border=""10"">","null","trial","null","","0.2,0.8","2:nogo_b","0",""
"null","","html-keyboard-response","330","454431","0.0-6.0-2.36","","<div style=""font-size:60px;"">+</div>","null","","","","","","",""
"522.4600000074133","","image-keyboard-response","331","454954","0.0-6.0-0.37","","img/red.png","32","trial","32","true","0.6,0.4","3:go_c","",""
"null","","html-keyboard-response","332","455966","0.0-6.0-1.37","","<img src=""img/red-n.png"" border=""10"">","null","trial","32","","0.6,0.4","3:go_c","0",""
"null","","html-keyboard-response","333","456969","0.0-6.0-2.37","","<div style=""font-size:60px;"">+</div>","null","","","","","","",""
"472.6550000195857","","image-keyboard-response","334","457443","0.0-6.0-0.38","","img/purple.png","32","trial","32","true","0.8,0.2","1:go_a","",""
"null","","html-keyboard-response","335","458446","0.0-6.0-1.38","","<img src=""img/purple-n.png"" border=""10"">","null","trial","32","","0.8,0.2","1:go_a","0",""
"null","","html-keyboard-response","336","459448","0.0-6.0-2.38","","<div style=""font-size:60px;"">+</div>","null","","","","","","",""
"null","","image-keyboard-response","337","460956","0.0-6.0-0.39","","img/pink.png","null","trial","null","true","0.4,0.6","4:nogo_d","",""
"null","","html-keyboard-response","338","461959","0.0-6.0-1.39","","<img src=""img/pink-n.png"">","null","trial","null","","0.4,0.6","4:nogo_d","0",""
"null","","html-keyboard-response","339","462965","0.0-6.0-2.39","","<div style=""font-size:60px;"">+</div>","null","","","","","","",""
"604.6600000117905","","image-keyboard-response","340","463571","0.0-6.0-0.40","","img/purple.png","32","trial","32","true","0.8,0.2","1:go_a","",""
"null","","html-keyboard-response","341","464580","0.0-6.0-1.40","","<img src=""img/purple-r.png"" border=""10"">","null","trial","32","","0.8,0.2","1:go_a","1",""
"null","","html-keyboard-response","342","465584","0.0-6.0-2.40","","<div style=""font-size:60px;"">+</div>","null","","","","","","",""
"null","","image-keyboard-response","343","467094","0.0-6.0-0.41","","img/pink.png","null","trial","null","true","0.4,0.6","4:nogo_d","",""
"null","","html-keyboard-response","344","468099","0.0-6.0-1.41","","<img src=""img/pink-r.png"">","null","trial","null","","0.4,0.6","4:nogo_d","1",""
"null","","html-keyboard-response","345","469108","0.0-6.0-2.41","","<div style=""font-size:60px;"">+</div>","null","","","","","","",""
"404.9300000187941","","image-keyboard-response","346","469514","0.0-6.0-0.42","","img/red.png","32","trial","32","true","0.6,0.4","3:go_c","",""
"null","","html-keyboard-response","347","470518","0.0-6.0-1.42","","<img src=""img/red-r.png"" border=""10"">","null","trial","32","","0.6,0.4","3:go_c","1",""
"null","","html-keyboard-response","348","471534","0.0-6.0-2.42","","<div style=""font-size:60px;"">+</div>","null","","","","","","",""
"null","","image-keyboard-response","349","473038","0.0-6.0-0.43","","img/grey.png","null","trial","null","true","0.2,0.8","2:nogo_b","",""
"null","","html-keyboard-response","350","474044","0.0-6.0-1.43","","<img src=""img/grey-r.png"">","null","trial","null","","0.2,0.8","2:nogo_b","1",""
"null","","html-keyboard-response","351","475047","0.0-6.0-2.43","","<div style=""font-size:60px;"">+</div>","null","","","","","","",""
"498.6300000164192","","image-keyboard-response","352","475546","0.0-6.0-0.44","","img/purple.png","32","trial","32","true","0.8,0.2","1:go_a","",""
"null","","html-keyboard-response","353","476551","0.0-6.0-1.44","","<img src=""img/purple-r.png"" border=""10"">","null","trial","32","","0.8,0.2","1:go_a","1",""
"null","","html-keyboard-response","354","477553","0.0-6.0-2.44","","<div style=""font-size:60px;"">+</div>","null","","","","","","",""
"null","","image-keyboard-response","355","479059","0.0-6.0-0.45","","img/pink.png","null","trial","null","true","0.4,0.6","4:nogo_d","",""
"null","","html-keyboard-response","356","480062","0.0-6.0-1.45","","<img src=""img/pink-r.png"">","null","trial","null","","0.4,0.6","4:nogo_d","1",""
"null","","html-keyboard-response","357","481066","0.0-6.0-2.45","","<div style=""font-size:60px;"">+</div>","null","","","","","","",""
"null","","image-keyboard-response","358","482576","0.0-6.0-0.46","","img/grey.png","null","trial","null","true","0.2,0.8","2:nogo_b","",""
"null","","html-keyboard-response","359","483579","0.0-6.0-1.46","","<img src=""img/grey-n.png"">","null","trial","null","","0.2,0.8","2:nogo_b","0",""
"null","","html-keyboard-response","360","484581","0.0-6.0-2.46","","<div style=""font-size:60px;"">+</div>","null","","","","","","",""
"491.859999980079","","image-keyboard-response","361","485074","0.0-6.0-0.47","","img/red.png","32","trial","32","true","0.6,0.4","3:go_c","",""
"null","","html-keyboard-response","362","486079","0.0-6.0-1.47","","<img src=""img/red-r.png"" border=""10"">","null","trial","32","","0.6,0.4","3:go_c","1",""
"null","","html-keyboard-response","363","487083","0.0-6.0-2.47","","<div style=""font-size:60px;"">+</div>","null","","","","","","",""
"517.985000013141","","image-keyboard-response","364","487602","0.0-6.0-0.48","","img/red.png","32","trial","32","true","0.6,0.4","3:go_c","",""
"null","","html-keyboard-response","365","488605","0.0-6.0-1.48","","<img src=""img/red-r.png"" border=""10"">","null","trial","32","","0.6,0.4","3:go_c","1",""
"null","","html-keyboard-response","366","489620","0.0-6.0-2.48","","<div style=""font-size:60px;"">+</div>","null","","","","","","",""
"556.494999997085","","image-keyboard-response","367","490178","0.0-6.0-0.49","","img/purple.png","32","trial","32","true","0.8,0.2","1:go_a","",""
"null","","html-keyboard-response","368","491184","0.0-6.0-1.49","","<img src=""img/purple-r.png"" border=""10"">","null","trial","32","","0.8,0.2","1:go_a","1",""
"null","","html-keyboard-response","369","492187","0.0-6.0-2.49","","<div style=""font-size:60px;"">+</div>","null","","","","","","",""
"null","","image-keyboard-response","370","493693","0.0-6.0-0.50","","img/pink.png","null","trial","null","true","0.4,0.6","4:nogo_d","",""
"null","","html-keyboard-response","371","494696","0.0-6.0-1.50","","<img src=""img/pink-r.png"">","null","trial","null","","0.4,0.6","4:nogo_d","1",""
"null","","html-keyboard-response","372","495711","0.0-6.0-2.50","","<div style=""font-size:60px;"">+</div>","null","","","","","","",""
"null","","image-keyboard-response","373","497218","0.0-6.0-0.51","","img/grey.png","null","trial","null","true","0.2,0.8","2:nogo_b","",""
"null","","html-keyboard-response","374","498234","0.0-6.0-1.51","","<img src=""img/grey-r.png"">","null","trial","null","","0.2,0.8","2:nogo_b","1",""
"null","","html-keyboard-response","375","499237","0.0-6.0-2.51","","<div style=""font-size:60px;"">+</div>","null","","","","","","",""
"524.0049999847542","","image-keyboard-response","376","499762","0.0-6.0-0.52","","img/red.png","32","trial","32","true","0.6,0.4","3:go_c","",""
"null","","html-keyboard-response","377","500770","0.0-6.0-1.52","","<img src=""img/red-r.png"" border=""10"">","null","trial","32","","0.6,0.4","3:go_c","1",""
"null","","html-keyboard-response","378","501772","0.0-6.0-2.52","","<div style=""font-size:60px;"">+</div>","null","","","","","","",""
"428.7049999984447","","image-keyboard-response","379","502202","0.0-6.0-0.53","","img/purple.png","32","trial","32","true","0.8,0.2","1:go_a","",""
"null","","html-keyboard-response","380","503212","0.0-6.0-1.53","","<img src=""img/purple-r.png"" border=""10"">","null","trial","32","","0.8,0.2","1:go_a","1",""
"null","","html-keyboard-response","381","504216","0.0-6.0-2.53","","<div style=""font-size:60px;"">+</div>","null","","","","","","",""
"null","","image-keyboard-response","382","505721","0.0-6.0-0.54","","img/pink.png","null","trial","null","true","0.4,0.6","4:nogo_d","",""
"null","","html-keyboard-response","383","506735","0.0-6.0-1.54","","<img src=""img/pink-r.png"">","null","trial","null","","0.4,0.6","4:nogo_d","1",""
"null","","html-keyboard-response","384","507738","0.0-6.0-2.54","","<div style=""font-size:60px;"">+</div>","null","","","","","","",""
"null","","image-keyboard-response","385","509244","0.0-6.0-0.55","","img/grey.png","null","trial","null","true","0.2,0.8","2:nogo_b","",""
"null","","html-keyboard-response","386","510258","0.0-6.0-1.55","","<img src=""img/grey-r.png"">","null","trial","null","","0.2,0.8","2:nogo_b","1",""
"null","","html-keyboard-response","387","511273","0.0-6.0-2.55","","<div style=""font-size:60px;"">+</div>","null","","","","","","",""
"null","","image-keyboard-response","388","512783","0.0-6.0-0.56","","img/pink.png","null","trial","null","true","0.4,0.6","4:nogo_d","",""
"null","","html-keyboard-response","389","513786","0.0-6.0-1.56","","<img src=""img/pink-n.png"">","null","trial","null","","0.4,0.6","4:nogo_d","0",""
"null","","html-keyboard-response","390","514802","0.0-6.0-2.56","","<div style=""font-size:60px;"">+</div>","null","","","","","","",""
"null","","image-keyboard-response","391","516306","0.0-6.0-0.57","","img/grey.png","null","trial","null","true","0.2,0.8","2:nogo_b","",""
"null","","html-keyboard-response","392","517309","0.0-6.0-1.57","","<img src=""img/grey-r.png"">","null","trial","null","","0.2,0.8","2:nogo_b","1",""
"null","","html-keyboard-response","393","518313","0.0-6.0-2.57","","<div style=""font-size:60px;"">+</div>","null","","","","","","",""
"519.6749999886379","","image-keyboard-response","394","518834","0.0-6.0-0.58","","img/purple.png","32","trial","32","true","0.8,0.2","1:go_a","",""
"null","","html-keyboard-response","395","519848","0.0-6.0-1.58","","<img src=""img/purple-r.png"" border=""10"">","null","trial","32","","0.8,0.2","1:go_a","1",""
"null","","html-keyboard-response","396","520851","0.0-6.0-2.58","","<div style=""font-size:60px;"">+</div>","null","","","","","","",""
"421.58500000368804","","image-keyboard-response","397","521274","0.0-6.0-0.59","","img/red.png","32","trial","32","true","0.6,0.4","3:go_c","",""
"null","","html-keyboard-response","398","522287","0.0-6.0-1.59","","<img src=""img/red-n.png"" border=""10"">","null","trial","32","","0.6,0.4","3:go_c","0",""
"null","","html-keyboard-response","399","523291","0.0-6.0-2.59","","<div style=""font-size:60px;"">+</div>","null","","","","","","",""
"493.4450000000652","","image-keyboard-response","400","523785","0.0-6.0-0.60","","img/red.png","32","trial","32","true","0.6,0.4","3:go_c","",""
"null","","html-keyboard-response","401","524789","0.0-6.0-1.60","","<img src=""img/red-r.png"" border=""10"">","null","trial","32","","0.6,0.4","3:go_c","1",""
"null","","html-keyboard-response","402","525805","0.0-6.0-2.60","","<div style=""font-size:60px;"">+</div>","null","","","","","","",""
"546.9949999824166","","image-keyboard-response","403","526354","0.0-6.0-0.61","","img/purple.png","32","trial","32","true","0.8,0.2","1:go_a","",""
"null","","html-keyboard-response","404","527360","0.0-6.0-1.61","","<img src=""img/purple-r.png"" border=""10"">","null","trial","32","","0.8,0.2","1:go_a","1",""
"null","","html-keyboard-response","405","528368","0.0-6.0-2.61","","<div style=""font-size:60px;"">+</div>","null","","","","","","",""
"null","","image-keyboard-response","406","529876","0.0-6.0-0.62","","img/grey.png","null","trial","null","true","0.2,0.8","2:nogo_b","",""
"null","","html-keyboard-response","407","530892","0.0-6.0-1.62","","<img src=""img/grey-r.png"">","null","trial","null","","0.2,0.8","2:nogo_b","1",""
"null","","html-keyboard-response","408","531903","0.0-6.0-2.62","","<div style=""font-size:60px;"">+</div>","null","","","","","","",""
"null","","image-keyboard-response","409","533408","0.0-6.0-0.63","","img/pink.png","null","trial","null","true","0.4,0.6","4:nogo_d","",""
"null","","html-keyboard-response","410","534409","0.0-6.0-1.63","","<img src=""img/pink-n.png"">","null","trial","null","","0.4,0.6","4:nogo_d","0",""
"null","","html-keyboard-response","411","535411","0.0-6.0-2.63","","<div style=""font-size:60px;"">+</div>","null","","","","","","",""
"null","","image-keyboard-response","412","536915","0.0-6.0-0.64","","img/grey.png","null","trial","null","true","0.2,0.8","2:nogo_b","",""
"null","","html-keyboard-response","413","537932","0.0-6.0-1.64","","<img src=""img/grey-n.png"">","null","trial","null","","0.2,0.8","2:nogo_b","0",""
"null","","html-keyboard-response","414","538937","0.0-6.0-2.64","","<div style=""font-size:60px;"">+</div>","null","","","","","","",""
"424.0050000080373","","image-keyboard-response","415","539363","0.0-6.0-0.65","","img/red.png","32","trial","32","true","0.6,0.4","3:go_c","",""
"null","","html-keyboard-response","416","540366","0.0-6.0-1.65","","<img src=""img/red-n.png"" border=""10"">","null","trial","32","","0.6,0.4","3:go_c","0",""
"null","","html-keyboard-response","417","541374","0.0-6.0-2.65","","<div style=""font-size:60px;"">+</div>","null","","","","","","",""
"491.21999999624677","","image-keyboard-response","418","541866","0.0-6.0-0.66","","img/purple.png","32","trial","32","true","0.8,0.2","1:go_a","",""
"null","","html-keyboard-response","419","542878","0.0-6.0-1.66","","<img src=""img/purple-r.png"" border=""10"">","null","trial","32","","0.8,0.2","1:go_a","1",""
"null","","html-keyboard-response","420","543885","0.0-6.0-2.66","","<div style=""font-size:60px;"">+</div>","null","","","","","","",""
"null","","image-keyboard-response","421","545391","0.0-6.0-0.67","","img/pink.png","null","trial","null","true","0.4,0.6","4:nogo_d","",""
"null","","html-keyboard-response","422","546395","0.0-6.0-1.67","","<img src=""img/pink-r.png"">","null","trial","null","","0.4,0.6","4:nogo_d","1",""
"null","","html-keyboard-response","423","547397","0.0-6.0-2.67","","<div style=""font-size:60px;"">+</div>","null","","","","","","",""
"612.5300000130665","","image-keyboard-response","424","548011","0.0-6.0-0.68","","img/purple.png","32","trial","32","true","0.8,0.2","1:go_a","",""
"null","","html-keyboard-response","425","549025","0.0-6.0-1.68","","<img src=""img/purple-n.png"" border=""10"">","null","trial","32","","0.8,0.2","1:go_a","0",""
"null","","html-keyboard-response","426","550042","0.0-6.0-2.68","","<div style=""font-size:60px;"">+</div>","null","","","","","","",""
"432.3599999770522","","image-keyboard-response","427","550475","0.0-6.0-0.69","","img/red.png","32","trial","32","true","0.6,0.4","3:go_c","",""
"null","","html-keyboard-response","428","551481","0.0-6.0-1.69","","<img src=""img/red-r.png"" border=""10"">","null","trial","32","","0.6,0.4","3:go_c","1",""
"null","","html-keyboard-response","429","552489","0.0-6.0-2.69","","<div style=""font-size:60px;"">+</div>","null","","","","","","",""
"null","","image-keyboard-response","430","553990","0.0-6.0-0.70","","img/grey.png","null","trial","null","true","0.2,0.8","2:nogo_b","",""
"null","","html-keyboard-response","431","554993","0.0-6.0-1.70","","<img src=""img/grey-n.png"">","null","trial","null","","0.2,0.8","2:nogo_b","0",""
"null","","html-keyboard-response","432","555998","0.0-6.0-2.70","","<div style=""font-size:60px;"">+</div>","null","","","","","","",""
"null","","image-keyboard-response","433","557515","0.0-6.0-0.71","","img/pink.png","null","trial","null","true","0.4,0.6","4:nogo_d","",""
"null","","html-keyboard-response","434","558519","0.0-6.0-1.71","","<img src=""img/pink-n.png"">","null","trial","null","","0.4,0.6","4:nogo_d","0",""
"null","","html-keyboard-response","435","559524","0.0-6.0-2.71","","<div style=""font-size:60px;"">+</div>","null","","","","","","",""
"null","","image-keyboard-response","436","561038","0.0-6.0-0.72","","img/pink.png","null","trial","null","true","0.4,0.6","4:nogo_d","",""
"null","","html-keyboard-response","437","562043","0.0-6.0-1.72","","<img src=""img/pink-r.png"">","null","trial","null","","0.4,0.6","4:nogo_d","1",""
"null","","html-keyboard-response","438","563057","0.0-6.0-2.72","","<div style=""font-size:60px;"">+</div>","null","","","","","","",""
"null","","image-keyboard-response","439","564561","0.0-6.0-0.73","","img/grey.png","null","trial","null","true","0.2,0.8","2:nogo_b","",""
"null","","html-keyboard-response","440","565567","0.0-6.0-1.73","","<img src=""img/grey-r.png"">","null","trial","null","","0.2,0.8","2:nogo_b","1",""
"null","","html-keyboard-response","441","566568","0.0-6.0-2.73","","<div style=""font-size:60px;"">+</div>","null","","","","","","",""
"465.0649999966845","","image-keyboard-response","442","567034","0.0-6.0-0.74","","img/red.png","32","trial","32","true","0.6,0.4","3:go_c","",""
"null","","html-keyboard-response","443","568043","0.0-6.0-1.74","","<img src=""img/red-r.png"" border=""10"">","null","trial","32","","0.6,0.4","3:go_c","1",""
"null","","html-keyboard-response","444","569045","0.0-6.0-2.74","","<div style=""font-size:60px;"">+</div>","null","","","","","","",""
"572.5549999915529","","image-keyboard-response","445","569618","0.0-6.0-0.75","","img/purple.png","32","trial","32","true","0.8,0.2","1:go_a","",""
"null","","html-keyboard-response","446","570634","0.0-6.0-1.75","","<img src=""img/purple-r.png"" border=""10"">","null","trial","32","","0.8,0.2","1:go_a","1",""
"null","","html-keyboard-response","447","571646","0.0-6.0-2.75","","<div style=""font-size:60px;"">+</div>","null","","","","","","",""
"null","","image-keyboard-response","448","573151","0.0-6.0-0.76","","img/pink.png","null","trial","null","true","0.4,0.6","4:nogo_d","",""
"null","","html-keyboard-response","449","574167","0.0-6.0-1.76","","<img src=""img/pink-r.png"">","null","trial","null","","0.4,0.6","4:nogo_d","1",""
"null","","html-keyboard-response","450","575169","0.0-6.0-2.76","","<div style=""font-size:60px;"">+</div>","null","","","","","","",""
"448.61500000115484","","image-keyboard-response","451","575619","0.0-6.0-0.77","","img/red.png","32","trial","32","true","0.6,0.4","3:go_c","",""
"null","","html-keyboard-response","452","576630","0.0-6.0-1.77","","<img src=""img/red-r.png"" border=""10"">","null","trial","32","","0.6,0.4","3:go_c","1",""
"null","","html-keyboard-response","453","577632","0.0-6.0-2.77","","<div style=""font-size:60px;"">+</div>","null","","","","","","",""
"585.1700000057463","","image-keyboard-response","454","578218","0.0-6.0-0.78","","img/purple.png","32","trial","32","true","0.8,0.2","1:go_a","",""
"null","","html-keyboard-response","455","579234","0.0-6.0-1.78","","<img src=""img/purple-r.png"" border=""10"">","null","trial","32","","0.8,0.2","1:go_a","1",""
"null","","html-keyboard-response","456","580245","0.0-6.0-2.78","","<div style=""font-size:60px;"">+</div>","null","","","","","","",""
"null","","image-keyboard-response","457","581757","0.0-6.0-0.79","","img/grey.png","null","trial","null","true","0.2,0.8","2:nogo_b","",""
"null","","html-keyboard-response","458","582771","0.0-6.0-1.79","","<img src=""img/grey-n.png"">","null","trial","null","","0.2,0.8","2:nogo_b","0",""
"null","","html-keyboard-response","459","583784","0.0-6.0-2.79","","<div style=""font-size:60px;"">+</div>","null","","","","","","",""
"401.3450000202283","","image-keyboard-response","460","584186","0.0-6.0-0.80","","img/purple.png","32","trial","32","true","0.8,0.2","1:go_a","",""
"null","","html-keyboard-response","461","585189","0.0-6.0-1.80","","<img src=""img/purple-r.png"" border=""10"">","null","trial","32","","0.8,0.2","1:go_a","1",""
"null","","html-keyboard-response","462","586193","0.0-6.0-2.80","","<div style=""font-size:60px;"">+</div>","null","","","","","","",""
"null","","image-keyboard-response","463","587707","0.0-6.0-0.81","","img/pink.png","null","trial","null","true","0.4,0.6","4:nogo_d","",""
"null","","html-keyboard-response","464","588709","0.0-6.0-1.81","","<img src=""img/pink-n.png"">","null","trial","null","","0.4,0.6","4:nogo_d","0",""
"null","","html-keyboard-response","465","589711","0.0-6.0-2.81","","<div style=""font-size:60px;"">+</div>","null","","","","","","",""
"null","","image-keyboard-response","466","591216","0.0-6.0-0.82","","img/grey.png","null","trial","null","true","0.2,0.8","2:nogo_b","",""
"null","","html-keyboard-response","467","592219","0.0-6.0-1.82","","<img src=""img/grey-r.png"">","null","trial","null","","0.2,0.8","2:nogo_b","1",""
"null","","html-keyboard-response","468","593224","0.0-6.0-2.82","","<div style=""font-size:60px;"">+</div>","null","","","","","","",""
"465.7250000163913","","image-keyboard-response","469","593690","0.0-6.0-0.83","","img/red.png","32","trial","32","true","0.6,0.4","3:go_c","",""
"null","","html-keyboard-response","470","594699","0.0-6.0-1.83","","<img src=""img/red-r.png"" border=""10"">","null","trial","32","","0.6,0.4","3:go_c","1",""
"null","","html-keyboard-response","471","595713","0.0-6.0-2.83","","<div style=""font-size:60px;"">+</div>","null","","","","","","",""
"447.6699999941047","","image-keyboard-response","472","596162","0.0-6.0-0.84","","img/purple.png","32","trial","32","true","0.8,0.2","1:go_a","",""
"null","","html-keyboard-response","473","597173","0.0-6.0-1.84","","<img src=""img/purple-r.png"" border=""10"">","null","trial","32","","0.8,0.2","1:go_a","1",""
"null","","html-keyboard-response","474","598185","0.0-6.0-2.84","","<div style=""font-size:60px;"">+</div>","null","","","","","","",""
"null","","image-keyboard-response","475","599699","0.0-6.0-0.85","","img/pink.png","null","trial","null","true","0.4,0.6","4:nogo_d","",""
"null","","html-keyboard-response","476","600701","0.0-6.0-1.85","","<img src=""img/pink-r.png"">","null","trial","null","","0.4,0.6","4:nogo_d","1",""
"null","","html-keyboard-response","477","601717","0.0-6.0-2.85","","<div style=""font-size:60px;"">+</div>","null","","","","","","",""
"null","","image-keyboard-response","478","603230","0.0-6.0-0.86","","img/grey.png","null","trial","null","true","0.2,0.8","2:nogo_b","",""
"null","","html-keyboard-response","479","604243","0.0-6.0-1.86","","<img src=""img/grey-r.png"">","null","trial","null","","0.2,0.8","2:nogo_b","1",""
"null","","html-keyboard-response","480","605247","0.0-6.0-2.86","","<div style=""font-size:60px;"">+</div>","null","","","","","","",""
"419.73500000312924","","image-keyboard-response","481","605667","0.0-6.0-0.87","","img/red.png","32","trial","32","true","0.6,0.4","3:go_c","",""
"null","","html-keyboard-response","482","606673","0.0-6.0-1.87","","<img src=""img/red-r.png"" border=""10"">","null","trial","32","","0.6,0.4","3:go_c","1",""
"null","","html-keyboard-response","483","607686","0.0-6.0-2.87","","<div style=""font-size:60px;"">+</div>","null","","","","","","",""
"null","","image-keyboard-response","484","609195","0.0-6.0-0.88","","img/grey.png","null","trial","null","true","0.2,0.8","2:nogo_b","",""
"null","","html-keyboard-response","485","610197","0.0-6.0-1.88","","<img src=""img/grey-n.png"">","null","trial","null","","0.2,0.8","2:nogo_b","0",""
"null","","html-keyboard-response","486","611204","0.0-6.0-2.88","","<div style=""font-size:60px;"">+</div>","null","","","","","","",""
"403.8949999958277","","image-keyboard-response","487","611610","0.0-6.0-0.89","","img/purple.png","32","trial","32","true","0.8,0.2","1:go_a","",""
"null","","html-keyboard-response","488","612627","0.0-6.0-1.89","","<img src=""img/purple-n.png"" border=""10"">","null","trial","32","","0.8,0.2","1:go_a","0",""
"null","","html-keyboard-response","489","613632","0.0-6.0-2.89","","<div style=""font-size:60px;"">+</div>","null","","","","","","",""
"null","","image-keyboard-response","490","615138","0.0-6.0-0.90","","img/pink.png","null","trial","null","true","0.4,0.6","4:nogo_d","",""
"null","","html-keyboard-response","491","616150","0.0-6.0-1.90","","<img src=""img/pink-n.png"">","null","trial","null","","0.4,0.6","4:nogo_d","0",""
"null","","html-keyboard-response","492","617166","0.0-6.0-2.90","","<div style=""font-size:60px;"">+</div>","null","","","","","","",""
"324.6849999995902","","image-keyboard-response","493","617491","0.0-6.0-0.91","","img/red.png","32","trial","32","true","0.6,0.4","3:go_c","",""
"null","","html-keyboard-response","494","618494","0.0-6.0-1.91","","<img src=""img/red-r.png"" border=""10"">","null","trial","32","","0.6,0.4","3:go_c","1",""
"null","","html-keyboard-response","495","619510","0.0-6.0-2.91","","<div style=""font-size:60px;"">+</div>","null","","","","","","",""
"410.8599999744911","","image-keyboard-response","496","619922","0.0-6.0-0.92","","img/red.png","32","trial","32","true","0.6,0.4","3:go_c","",""
"null","","html-keyboard-response","497","620937","0.0-6.0-1.92","","<img src=""img/red-r.png"" border=""10"">","null","trial","32","","0.6,0.4","3:go_c","1",""
"null","","html-keyboard-response","498","621939","0.0-6.0-2.92","","<div style=""font-size:60px;"">+</div>","null","","","","","","",""
"null","","image-keyboard-response","499","623454","0.0-6.0-0.93","","img/grey.png","null","trial","null","true","0.2,0.8","2:nogo_b","",""
"null","","html-keyboard-response","500","624469","0.0-6.0-1.93","","<img src=""img/grey-r.png"">","null","trial","null","","0.2,0.8","2:nogo_b","1",""
"null","","html-keyboard-response","501","625473","0.0-6.0-2.93","","<div style=""font-size:60px;"">+</div>","null","","","","","","",""
"383.4249999781605","","image-keyboard-response","502","625858","0.0-6.0-0.94","","img/purple.png","32","trial","32","true","0.8,0.2","1:go_a","",""
"null","","html-keyboard-response","503","626864","0.0-6.0-1.94","","<img src=""img/purple-r.png"" border=""10"">","null","trial","32","","0.8,0.2","1:go_a","1",""
"null","","html-keyboard-response","504","627881","0.0-6.0-2.94","","<div style=""font-size:60px;"">+</div>","null","","","","","","",""
"null","","image-keyboard-response","505","629396","0.0-6.0-0.95","","img/pink.png","null","trial","null","true","0.4,0.6","4:nogo_d","",""
"null","","html-keyboard-response","506","630399","0.0-6.0-1.95","","<img src=""img/pink-r.png"">","null","trial","null","","0.4,0.6","4:nogo_d","1",""
"null","","html-keyboard-response","507","631416","0.0-6.0-2.95","","<div style=""font-size:60px;"">+</div>","null","","","","","","",""
"null","","image-keyboard-response","508","632930","0.0-6.0-0.96","","img/grey.png","null","trial","null","true","0.2,0.8","2:nogo_b","",""
"null","","html-keyboard-response","509","633934","0.0-6.0-1.96","","<img src=""img/grey-r.png"">","null","trial","null","","0.2,0.8","2:nogo_b","1",""
"null","","html-keyboard-response","510","634938","0.0-6.0-2.96","","<div style=""font-size:60px;"">+</div>","null","","","","","","",""
"448.0700000131037","","image-keyboard-response","511","635388","0.0-6.0-0.97","","img/red.png","32","trial","32","true","0.6,0.4","3:go_c","",""
"null","","html-keyboard-response","512","636392","0.0-6.0-1.97","","<img src=""img/red-n.png"" border=""10"">","null","trial","32","","0.6,0.4","3:go_c","0",""
"null","","html-keyboard-response","513","637394","0.0-6.0-2.97","","<div style=""font-size:60px;"">+</div>","null","","","","","","",""
"456.1249999969732","","image-keyboard-response","514","637851","0.0-6.0-0.98","","img/purple.png","32","trial","32","true","0.8,0.2","1:go_a","",""
"null","","html-keyboard-response","515","638865","0.0-6.0-1.98","","<img src=""img/purple-r.png"" border=""10"">","null","trial","32","","0.8,0.2","1:go_a","1",""
"null","","html-keyboard-response","516","639877","0.0-6.0-2.98","","<div style=""font-size:60px;"">+</div>","null","","","","","","",""
"null","","image-keyboard-response","517","641381","0.0-6.0-0.99","","img/pink.png","null","trial","null","true","0.4,0.6","4:nogo_d","",""
"null","","html-keyboard-response","518","642394","0.0-6.0-1.99","","<img src=""img/pink-n.png"">","null","trial","null","","0.4,0.6","4:nogo_d","0",""
"null","","html-keyboard-response","519","643398","0.0-6.0-2.99","","<div style=""font-size:60px;"">+</div>","null","","","","","","",""
"null","","image-keyboard-response","520","644902","0.0-6.0-0.100","","img/pink.png","null","trial","null","true","0.4,0.6","4:nogo_d","",""
"null","","html-keyboard-response","521","645904","0.0-6.0-1.100","","<img src=""img/pink-n.png"">","null","trial","null","","0.4,0.6","4:nogo_d","0",""
"null","","html-keyboard-response","522","646907","0.0-6.0-2.100","","<div style=""font-size:60px;"">+</div>","null","","","","","","",""
"null","","image-keyboard-response","523","648422","0.0-6.0-0.101","","img/grey.png","null","trial","null","true","0.2,0.8","2:nogo_b","",""
"null","","html-keyboard-response","524","649425","0.0-6.0-1.101","","<img src=""img/grey-n.png"">","null","trial","null","","0.2,0.8","2:nogo_b","0",""
"null","","html-keyboard-response","525","650440","0.0-6.0-2.101","","<div style=""font-size:60px;"">+</div>","null","","","","","","",""
"434.24999999115244","","image-keyboard-response","526","650875","0.0-6.0-0.102","","img/red.png","32","trial","32","true","0.6,0.4","3:go_c","",""
"null","","html-keyboard-response","527","651886","0.0-6.0-1.102","","<img src=""img/red-r.png"" border=""10"">","null","trial","32","","0.6,0.4","3:go_c","1",""
"null","","html-keyboard-response","528","652901","0.0-6.0-2.102","","<div style=""font-size:60px;"">+</div>","null","","","","","","",""
"379.11000000895","","image-keyboard-response","529","653282","0.0-6.0-0.103","","img/purple.png","32","trial","32","true","0.8,0.2","1:go_a","",""
"null","","html-keyboard-response","530","654295","0.0-6.0-1.103","","<img src=""img/purple-r.png"" border=""10"">","null","trial","32","","0.8,0.2","1:go_a","1",""
"null","","html-keyboard-response","531","655298","0.0-6.0-2.103","","<div style=""font-size:60px;"">+</div>","null","","","","","","",""
"null","","image-keyboard-response","532","656802","0.0-6.0-0.104","","img/grey.png","null","trial","null","true","0.2,0.8","2:nogo_b","",""
"null","","html-keyboard-response","533","657810","0.0-6.0-1.104","","<img src=""img/grey-r.png"">","null","trial","null","","0.2,0.8","2:nogo_b","1",""
"null","","html-keyboard-response","534","658813","0.0-6.0-2.104","","<div style=""font-size:60px;"">+</div>","null","","","","","","",""
"null","","image-keyboard-response","535","660328","0.0-6.0-0.105","","img/pink.png","null","trial","null","true","0.4,0.6","4:nogo_d","",""
"null","","html-keyboard-response","536","661342","0.0-6.0-1.105","","<img src=""img/pink-n.png"">","null","trial","null","","0.4,0.6","4:nogo_d","0",""
"null","","html-keyboard-response","537","662347","0.0-6.0-2.105","","<div style=""font-size:60px;"">+</div>","null","","","","","","",""
"469.9900000123307","","image-keyboard-response","538","662819","0.0-6.0-0.106","","img/purple.png","32","trial","32","true","0.8,0.2","1:go_a","",""
"null","","html-keyboard-response","539","663834","0.0-6.0-1.106","","<img src=""img/purple-r.png"" border=""10"">","null","trial","32","","0.8,0.2","1:go_a","1",""
"null","","html-keyboard-response","540","664842","0.0-6.0-2.106","","<div style=""font-size:60px;"">+</div>","null","","","","","","",""
"350.9349999949336","","image-keyboard-response","541","665194","0.0-6.0-0.107","","img/red.png","32","trial","32","true","0.6,0.4","3:go_c","",""
"null","","html-keyboard-response","542","666198","0.0-6.0-1.107","","<img src=""img/red-r.png"" border=""10"">","null","trial","32","","0.6,0.4","3:go_c","1",""
"null","","html-keyboard-response","543","667201","0.0-6.0-2.107","","<div style=""font-size:60px;"">+</div>","null","","","","","","",""
"616.3550000055693","","image-keyboard-response","544","667818","0.0-6.0-0.108","","img/purple.png","32","trial","32","true","0.8,0.2","1:go_a","",""
"null","","html-keyboard-response","545","668829","0.0-6.0-1.108","","<img src=""img/purple-n.png"" border=""10"">","null","trial","32","","0.8,0.2","1:go_a","0",""
"null","","html-keyboard-response","546","669840","0.0-6.0-2.108","","<div style=""font-size:60px;"">+</div>","null","","","","","","",""
"null","","image-keyboard-response","547","671346","0.0-6.0-0.109","","img/pink.png","null","trial","null","true","0.4,0.6","4:nogo_d","",""
"null","","html-keyboard-response","548","672362","0.0-6.0-1.109","","<img src=""img/pink-r.png"">","null","trial","null","","0.4,0.6","4:nogo_d","1",""
"null","","html-keyboard-response","549","673367","0.0-6.0-2.109","","<div style=""font-size:60px;"">+</div>","null","","","","","","",""
"null","","image-keyboard-response","550","674871","0.0-6.0-0.110","","img/grey.png","null","trial","null","true","0.2,0.8","2:nogo_b","",""
"null","","html-keyboard-response","551","675876","0.0-6.0-1.110","","<img src=""img/grey-r.png"">","null","trial","null","","0.2,0.8","2:nogo_b","1",""
"null","","html-keyboard-response","552","676880","0.0-6.0-2.110","","<div style=""font-size:60px;"">+</div>","null","","","","","","",""
"400.404999993043","","image-keyboard-response","553","677282","0.0-6.0-0.111","","img/red.png","32","trial","32","true","0.6,0.4","3:go_c","",""
"null","","html-keyboard-response","554","678292","0.0-6.0-1.111","","<img src=""img/red-r.png"" border=""10"">","null","trial","32","","0.6,0.4","3:go_c","1",""
"null","","html-keyboard-response","555","679298","0.0-6.0-2.111","","<div style=""font-size:60px;"">+</div>","null","","","","","","",""
"null","","image-keyboard-response","556","680804","0.0-6.0-0.112","","img/pink.png","null","trial","null","true","0.4,0.6","4:nogo_d","",""
"null","","html-keyboard-response","557","681808","0.0-6.0-1.112","","<img src=""img/pink-r.png"">","null","trial","null","","0.4,0.6","4:nogo_d","1",""
"null","","html-keyboard-response","558","682809","0.0-6.0-2.112","","<div style=""font-size:60px;"">+</div>","null","","","","","","",""
"null","","image-keyboard-response","559","684315","0.0-6.0-0.113","","img/grey.png","null","trial","null","true","0.2,0.8","2:nogo_b","",""
"null","","html-keyboard-response","560","685317","0.0-6.0-1.113","","<img src=""img/grey-r.png"">","null","trial","null","","0.2,0.8","2:nogo_b","1",""
"null","","html-keyboard-response","561","686331","0.0-6.0-2.113","","<div style=""font-size:60px;"">+</div>","null","","","","","","",""
"438.7799999967683","","image-keyboard-response","562","686770","0.0-6.0-0.114","","img/red.png","32","trial","32","true","0.6,0.4","3:go_c","",""
"null","","html-keyboard-response","563","687785","0.0-6.0-1.114","","<img src=""img/red-n.png"" border=""10"">","null","trial","32","","0.6,0.4","3:go_c","0",""
"null","","html-keyboard-response","564","688799","0.0-6.0-2.114","","<div style=""font-size:60px;"">+</div>","null","","","","","","",""
"408.434999990277","","image-keyboard-response","565","689209","0.0-6.0-0.115","","img/purple.png","32","trial","32","true","0.8,0.2","1:go_a","",""
"null","","html-keyboard-response","566","690221","0.0-6.0-1.115","","<img src=""img/purple-n.png"" border=""10"">","null","trial","32","","0.8,0.2","1:go_a","0",""
"null","","html-keyboard-response","567","691223","0.0-6.0-2.115","","<div style=""font-size:60px;"">+</div>","null","","","","","","",""
"null","","image-keyboard-response","568","692726","0.0-6.0-0.116","","img/grey.png","null","trial","null","true","0.2,0.8","2:nogo_b","",""
"null","","html-keyboard-response","569","693744","0.0-6.0-1.116","","<img src=""img/grey-r.png"">","null","trial","null","","0.2,0.8","2:nogo_b","1",""
"null","","html-keyboard-response","570","694759","0.0-6.0-2.116","","<div style=""font-size:60px;"">+</div>","null","","","","","","",""
"null","","image-keyboard-response","571","696262","0.0-6.0-0.117","","img/pink.png","null","trial","null","true","0.4,0.6","4:nogo_d","",""
"null","","html-keyboard-response","572","697263","0.0-6.0-1.117","","<img src=""img/pink-n.png"">","null","trial","null","","0.4,0.6","4:nogo_d","0",""
"null","","html-keyboard-response","573","698268","0.0-6.0-2.117","","<div style=""font-size:60px;"">+</div>","null","","","","","","",""
"372.4350000265986","","image-keyboard-response","574","698641","0.0-6.0-0.118","","img/red.png","32","trial","32","true","0.6,0.4","3:go_c","",""
"null","","html-keyboard-response","575","699658","0.0-6.0-1.118","","<img src=""img/red-r.png"" border=""10"">","null","trial","32","","0.6,0.4","3:go_c","1",""
"null","","html-keyboard-response","576","700673","0.0-6.0-2.118","","<div style=""font-size:60px;"">+</div>","null","","","","","","",""
"352.1900000050664","","image-keyboard-response","577","701025","0.0-6.0-0.119","","img/purple.png","32","trial","32","true","0.8,0.2","1:go_a","",""
"null","","html-keyboard-response","578","702041","0.0-6.0-1.119","","<img src=""img/purple-n.png"" border=""10"">","null","trial","32","","0.8,0.2","1:go_a","0",""
"null","","html-keyboard-response","579","703042","0.0-6.0-2.119","","<div style=""font-size:60px;"">+</div>","null","","","","","","",""
"3263.33000001614","","instructions","580","706305","0.0-7.0","[{""page_index"":0,""viewing_time"":3263.0500000086613}]","","","","","","","","",""
"614.7049999854062","","image-keyboard-response","581","706921","0.0-8.0-0.0","","img/orange.png","32","trial","32","true","0.6,0.4","1:go_a","",""
"null","","html-keyboard-response","582","707924","0.0-8.0-1.0","","<img src=""img/orange-r.png"" border=""10"">","null","trial","32","","0.6,0.4","1:go_a","1",""
"null","","html-keyboard-response","583","708928","0.0-8.0-2.0","","<div style=""font-size:60px;"">+</div>","null","","","","","","",""
"null","","image-keyboard-response","584","710445","0.0-8.0-0.1","","img/green.png","null","trial","null","true","0.4,0.6","2:nogo_b","",""
"null","","html-keyboard-response","585","711460","0.0-8.0-1.1","","<img src=""img/green-r.png"">","null","trial","null","","0.4,0.6","2:nogo_b","1",""
"null","","html-keyboard-response","586","712468","0.0-8.0-2.1","","<div style=""font-size:60px;"">+</div>","null","","","","","","",""
"654.4249999860767","","image-keyboard-response","587","713123","0.0-8.0-0.2","","img/grey.png","32","trial","null","false","0.4,0.6","4:nogo_d","",""
"null","","html-keyboard-response","588","714126","0.0-8.0-1.2","","<img src=""img/grey-r.png"" border=""10"">","null","trial","null","","0.4,0.6","4:nogo_d","1",""
"null","","html-keyboard-response","589","715132","0.0-8.0-2.2","","<div style=""font-size:60px;"">+</div>","null","","","","","","",""
"null","","image-keyboard-response","590","716636","0.0-8.0-0.3","","img/yellow.png","null","trial","32","false","0.6,0.4","3:go_c","",""
"null","","html-keyboard-response","591","717647","0.0-8.0-1.3","","<img src=""img/yellow-r.png"">","null","trial","32","","0.6,0.4","3:go_c","1",""
"null","","html-keyboard-response","592","718652","0.0-8.0-2.3","","<div style=""font-size:60px;"">+</div>","null","","","","","","",""
"null","","image-keyboard-response","593","720157","0.0-8.0-0.4","","img/yellow.png","null","trial","32","false","0.6,0.4","3:go_c","",""
"null","","html-keyboard-response","594","721174","0.0-8.0-1.4","","<img src=""img/yellow-n.png"">","null","trial","32","","0.6,0.4","3:go_c","0",""
"null","","html-keyboard-response","595","722189","0.0-8.0-2.4","","<div style=""font-size:60px;"">+</div>","null","","","","","","",""
"676.4700000057928","","image-keyboard-response","596","722866","0.0-8.0-0.5","","img/grey.png","32","trial","null","false","0.4,0.6","4:nogo_d","",""
"null","","html-keyboard-response","597","723879","0.0-8.0-1.5","","<img src=""img/grey-n.png"" border=""10"">","null","trial","null","","0.4,0.6","4:nogo_d","0",""
"null","","html-keyboard-response","598","724884","0.0-8.0-2.5","","<div style=""font-size:60px;"">+</div>","null","","","","","","",""
"563.5199999960605","","image-keyboard-response","599","725449","0.0-8.0-0.6","","img/orange.png","32","trial","32","true","0.6,0.4","1:go_a","",""
"null","","html-keyboard-response","600","726465","0.0-8.0-1.6","","<img src=""img/orange-r.png"" border=""10"">","null","trial","32","","0.6,0.4","1:go_a","1",""
"null","","html-keyboard-response","601","727467","0.0-8.0-2.6","","<div style=""font-size:60px;"">+</div>","null","","","","","","",""
"null","","image-keyboard-response","602","728981","0.0-8.0-0.7","","img/green.png","null","trial","null","true","0.4,0.6","2:nogo_b","",""
"null","","html-keyboard-response","603","729987","0.0-8.0-1.7","","<img src=""img/green-r.png"">","null","trial","null","","0.4,0.6","2:nogo_b","1",""
"null","","html-keyboard-response","604","731000","0.0-8.0-2.7","","<div style=""font-size:60px;"">+</div>","null","","","","","","",""
"976.6449999879114","","image-keyboard-response","605","731978","0.0-8.0-0.8","","img/grey.png","32","trial","null","false","0.4,0.6","4:nogo_d","",""
"null","","html-keyboard-response","606","732990","0.0-8.0-1.8","","<img src=""img/grey-n.png"" border=""10"">","null","trial","null","","0.4,0.6","4:nogo_d","0",""
"null","","html-keyboard-response","607","733996","0.0-8.0-2.8","","<div style=""font-size:60px;"">+</div>","null","","","","","","",""
"893.1649999867659","","image-keyboard-response","608","734891","0.0-8.0-0.9","","img/yellow.png","32","trial","32","true","0.6,0.4","3:go_c","",""
"null","","html-keyboard-response","609","735895","0.0-8.0-1.9","","<img src=""img/yellow-r.png"" border=""10"">","null","trial","32","","0.6,0.4","3:go_c","1",""
"null","","html-keyboard-response","610","736904","0.0-8.0-2.9","","<div style=""font-size:60px;"">+</div>","null","","","","","","",""
"609.295000002021","","image-keyboard-response","611","737515","0.0-8.0-0.10","","img/orange.png","32","trial","32","true","0.6,0.4","1:go_a","",""
"null","","html-keyboard-response","612","738528","0.0-8.0-1.10","","<img src=""img/orange-n.png"" border=""10"">","null","trial","32","","0.6,0.4","1:go_a","0",""
"null","","html-keyboard-response","613","739532","0.0-8.0-2.10","","<div style=""font-size:60px;"">+</div>","null","","","","","","",""
"null","","image-keyboard-response","614","741036","0.0-8.0-0.11","","img/green.png","null","trial","null","true","0.4,0.6","2:nogo_b","",""
"null","","html-keyboard-response","615","742052","0.0-8.0-1.11","","<img src=""img/green-r.png"">","null","trial","null","","0.4,0.6","2:nogo_b","1",""
"null","","html-keyboard-response","616","743064","0.0-8.0-2.11","","<div style=""font-size:60px;"">+</div>","null","","","","","","",""
"769.3750000034925","","image-keyboard-response","617","743834","0.0-8.0-0.12","","img/orange.png","32","trial","32","true","0.6,0.4","1:go_a","",""
"null","","html-keyboard-response","618","744852","0.0-8.0-1.12","","<img src=""img/orange-n.png"" border=""10"">","null","trial","32","","0.6,0.4","1:go_a","0",""
"null","","html-keyboard-response","619","745868","0.0-8.0-2.12","","<div style=""font-size:60px;"">+</div>","null","","","","","","",""
"null","","image-keyboard-response","620","747369","0.0-8.0-0.13","","img/grey.png","null","trial","null","true","0.4,0.6","4:nogo_d","",""
"null","","html-keyboard-response","621","748373","0.0-8.0-1.13","","<img src=""img/grey-n.png"">","null","trial","null","","0.4,0.6","4:nogo_d","0",""
"null","","html-keyboard-response","622","749375","0.0-8.0-2.13","","<div style=""font-size:60px;"">+</div>","null","","","","","","",""
"null","","image-keyboard-response","623","750891","0.0-8.0-0.14","","img/green.png","null","trial","null","true","0.4,0.6","2:nogo_b","",""
"null","","html-keyboard-response","624","751896","0.0-8.0-1.14","","<img src=""img/green-r.png"">","null","trial","null","","0.4,0.6","2:nogo_b","1",""
"null","","html-keyboard-response","625","752912","0.0-8.0-2.14","","<div style=""font-size:60px;"">+</div>","null","","","","","","",""
"624.8950000153854","","image-keyboard-response","626","753538","0.0-8.0-0.15","","img/yellow.png","32","trial","32","true","0.6,0.4","3:go_c","",""
"null","","html-keyboard-response","627","754555","0.0-8.0-1.15","","<img src=""img/yellow-r.png"" border=""10"">","null","trial","32","","0.6,0.4","3:go_c","1",""
"null","","html-keyboard-response","628","755559","0.0-8.0-2.15","","<div style=""font-size:60px;"">+</div>","null","","","","","","",""
"666.4000000164378","","image-keyboard-response","629","756226","0.0-8.0-0.16","","img/yellow.png","32","trial","32","true","0.6,0.4","3:go_c","",""
"null","","html-keyboard-response","630","757239","0.0-8.0-1.16","","<img src=""img/yellow-n.png"" border=""10"">","null","trial","32","","0.6,0.4","3:go_c","0",""
"null","","html-keyboard-response","631","758243","0.0-8.0-2.16","","<div style=""font-size:60px;"">+</div>","null","","","","","","",""
"null","","image-keyboard-response","632","759752","0.0-8.0-0.17","","img/green.png","null","trial","null","true","0.4,0.6","2:nogo_b","",""
"null","","html-keyboard-response","633","760768","0.0-8.0-1.17","","<img src=""img/green-r.png"">","null","trial","null","","0.4,0.6","2:nogo_b","1",""
"null","","html-keyboard-response","634","761774","0.0-8.0-2.17","","<div style=""font-size:60px;"">+</div>","null","","","","","","",""
"947.0000000146683","","image-keyboard-response","635","762722","0.0-8.0-0.18","","img/grey.png","32","trial","null","false","0.4,0.6","4:nogo_d","",""
"null","","html-keyboard-response","636","763735","0.0-8.0-1.18","","<img src=""img/grey-r.png"" border=""10"">","null","trial","null","","0.4,0.6","4:nogo_d","1",""
"null","","html-keyboard-response","637","764738","0.0-8.0-2.18","","<div style=""font-size:60px;"">+</div>","null","","","","","","",""
"1032.5499999744352","","image-keyboard-response","638","765771","0.0-8.0-0.19","","img/orange.png","32","trial","32","true","0.6,0.4","1:go_a","",""
"null","","html-keyboard-response","639","766784","0.0-8.0-1.19","","<img src=""img/orange-r.png"" border=""10"">","null","trial","32","","0.6,0.4","1:go_a","1",""
"null","","html-keyboard-response","640","767800","0.0-8.0-2.19","","<div style=""font-size:60px;"">+</div>","null","","","","","","",""
"null","","image-keyboard-response","641","769303","0.0-8.0-0.20","","img/yellow.png","null","trial","32","false","0.6,0.4","3:go_c","",""
"null","","html-keyboard-response","642","770321","0.0-8.0-1.20","","<img src=""img/yellow-r.png"">","null","trial","32","","0.6,0.4","3:go_c","1",""
"null","","html-keyboard-response","643","771337","0.0-8.0-2.20","","<div style=""font-size:60px;"">+</div>","null","","","","","","",""
"600.5500000028405","","image-keyboard-response","644","771939","0.0-8.0-0.21","","img/grey.png","32","trial","null","false","0.4,0.6","4:nogo_d","",""
"null","","html-keyboard-response","645","772947","0.0-8.0-1.21","","<img src=""img/grey-n.png"" border=""10"">","null","trial","null","","0.4,0.6","4:nogo_d","0",""
"null","","html-keyboard-response","646","773960","0.0-8.0-2.21","","<div style=""font-size:60px;"">+</div>","null","","","","","","",""
"489.65500001213513","","image-keyboard-response","647","774450","0.0-8.0-0.22","","img/orange.png","32","trial","32","true","0.6,0.4","1:go_a","",""
"null","","html-keyboard-response","648","775464","0.0-8.0-1.22","","<img src=""img/orange-n.png"" border=""10"">","null","trial","32","","0.6,0.4","1:go_a","0",""
"null","","html-keyboard-response","649","776480","0.0-8.0-2.22","","<div style=""font-size:60px;"">+</div>","null","","","","","","",""
"null","","image-keyboard-response","650","777983","0.0-8.0-0.23","","img/green.png","null","trial","null","true","0.4,0.6","2:nogo_b","",""
"null","","html-keyboard-response","651","778985","0.0-8.0-1.23","","<img src=""img/green-r.png"">","null","trial","null","","0.4,0.6","2:nogo_b","1",""
"null","","html-keyboard-response","652","779998","0.0-8.0-2.23","","<div style=""font-size:60px;"">+</div>","null","","","","","","",""
"988.7600000074599","","image-keyboard-response","653","780988","0.0-8.0-0.24","","img/grey.png","32","trial","null","false","0.4,0.6","4:nogo_d","",""
"null","","html-keyboard-response","654","782004","0.0-8.0-1.24","","<img src=""img/grey-n.png"" border=""10"">","null","trial","null","","0.4,0.6","4:nogo_d","0",""
"null","","html-keyboard-response","655","783008","0.0-8.0-2.24","","<div style=""font-size:60px;"">+</div>","null","","","","","","",""
"496.53499998385087","","image-keyboard-response","656","783506","0.0-8.0-0.25","","img/orange.png","32","trial","32","true","0.6,0.4","1:go_a","",""
"null","","html-keyboard-response","657","784510","0.0-8.0-1.25","","<img src=""img/orange-r.png"" border=""10"">","null","trial","32","","0.6,0.4","1:go_a","1",""
"null","","html-keyboard-response","658","785515","0.0-8.0-2.25","","<div style=""font-size:60px;"">+</div>","null","","","","","","",""
"null","","image-keyboard-response","659","787028","0.0-8.0-0.26","","img/green.png","null","trial","null","true","0.4,0.6","2:nogo_b","",""
"null","","html-keyboard-response","660","788030","0.0-8.0-1.26","","<img src=""img/green-r.png"">","null","trial","null","","0.4,0.6","2:nogo_b","1",""
"null","","html-keyboard-response","661","789035","0.0-8.0-2.26","","<div style=""font-size:60px;"">+</div>","null","","","","","","",""
"1349.9250000168104","","image-keyboard-response","662","790385","0.0-8.0-0.27","","img/yellow.png","32","trial","32","true","0.6,0.4","3:go_c","",""
"null","","html-keyboard-response","663","791401","0.0-8.0-1.27","","<img src=""img/yellow-r.png"" border=""10"">","null","trial","32","","0.6,0.4","3:go_c","1",""
"null","","html-keyboard-response","664","792415","0.0-8.0-2.27","","<div style=""font-size:60px;"">+</div>","null","","","","","","",""
"569.4700000167359","","image-keyboard-response","665","792985","0.0-8.0-0.28","","img/orange.png","32","trial","32","true","0.6,0.4","1:go_a","",""
"null","","html-keyboard-response","666","793989","0.0-8.0-1.28","","<img src=""img/orange-r.png"" border=""10"">","null","trial","32","","0.6,0.4","1:go_a","1",""
"null","","html-keyboard-response","667","794991","0.0-8.0-2.28","","<div style=""font-size:60px;"">+</div>","null","","","","","","",""
"null","","image-keyboard-response","668","796497","0.0-8.0-0.29","","img/green.png","null","trial","null","true","0.4,0.6","2:nogo_b","",""
"null","","html-keyboard-response","669","797506","0.0-8.0-1.29","","<img src=""img/green-r.png"">","null","trial","null","","0.4,0.6","2:nogo_b","1",""
"null","","html-keyboard-response","670","798513","0.0-8.0-2.29","","<div style=""font-size:60px;"">+</div>","null","","","","","","",""
"null","","image-keyboard-response","671","800016","0.0-8.0-0.30","","img/grey.png","null","trial","null","true","0.4,0.6","4:nogo_d","",""
"null","","html-keyboard-response","672","801022","0.0-8.0-1.30","","<img src=""img/grey-r.png"">","null","trial","null","","0.4,0.6","4:nogo_d","1",""
"null","","html-keyboard-response","673","802025","0.0-8.0-2.30","","<div style=""font-size:60px;"">+</div>","null","","","","","","",""
"543.2250000012573","","image-keyboard-response","674","802569","0.0-8.0-0.31","","img/yellow.png","32","trial","32","true","0.6,0.4","3:go_c","",""
"null","","html-keyboard-response","675","803582","0.0-8.0-1.31","","<img src=""img/yellow-n.png"" border=""10"">","null","trial","32","","0.6,0.4","3:go_c","0",""
"null","","html-keyboard-response","676","804585","0.0-8.0-2.31","","<div style=""font-size:60px;"">+</div>","null","","","","","","",""
"592.5550000101794","","image-keyboard-response","677","805178","0.0-8.0-0.32","","img/yellow.png","32","trial","32","true","0.6,0.4","3:go_c","",""
"null","","html-keyboard-response","678","806191","0.0-8.0-1.32","","<img src=""img/yellow-n.png"" border=""10"">","null","trial","32","","0.6,0.4","3:go_c","0",""
"null","","html-keyboard-response","679","807197","0.0-8.0-2.32","","<div style=""font-size:60px;"">+</div>","null","","","","","","",""
"null","","image-keyboard-response","680","808705","0.0-8.0-0.33","","img/green.png","null","trial","null","true","0.4,0.6","2:nogo_b","",""
"null","","html-keyboard-response","681","809721","0.0-8.0-1.33","","<img src=""img/green-r.png"">","null","trial","null","","0.4,0.6","2:nogo_b","1",""
