"rt","url","trial_type","trial_index","time_elapsed","internal_node_id","view_history","stimulus","key_press","test_part","correct_response","correct","use_rew","which_stim","reward","responses"
"5411.565000074916","consent.html","external-html","0","5588","0.0-0.0","","","","","","","","","",""
"69911.04499995708","","instructions","1","75504","0.0-1.0","[{""page_index"":0,""viewing_time"":1627.2350000217557},{""page_index"":1,""viewing_time"":43937.42999993265},{""page_index"":2,""viewing_time"":4734.320000046864},{""page_index"":3,""viewing_time"":8003.204999957234},{""page_index"":4,""viewing_time"":5191.025000065565},{""page_index"":5,""viewing_time"":4533.470000023954},{""page_index"":6,""viewing_time"":1883.144999970682}]","","","","","","","","",""
"601.8149999435991","","image-keyboard-response","2","76109","0.0-2.0-0.0","","img/test3.PNG","32","practice","null","false","","","",""
"null","","html-keyboard-response","3","77117","0.0-2.0-1.0","","<img src=""img/test3-neutral.PNG"" border=""10px; grey"">","null","","","","","","",""
"null","","html-keyboard-response","4","78123","0.0-2.0-2.0","","<div style=""font-size:60px;"">+</div>","null","","","","","","",""
"342.1500000404194","","image-keyboard-response","5","78467","0.0-2.0-0.1","","img/test1.PNG","32","practice","32","true","","","",""
"null","","html-keyboard-response","6","79469","0.0-2.0-1.1","","<img src=""img/test1-reward.PNG"" border=""10px; grey"">","null","","","","","","",""
"null","","html-keyboard-response","7","80475","0.0-2.0-2.1","","<div style=""font-size:60px;"">+</div>","null","","","","","","",""
"533.045000047423","","image-keyboard-response","8","81009","0.0-2.0-0.2","","img/test2.PNG","32","practice","null","false","","","",""
"null","","html-keyboard-response","9","82011","0.0-2.0-1.2","","<img src=""img/test2-neutral.PNG"" border=""10px; grey"">","null","","","","","","",""
"null","","html-keyboard-response","10","83015","0.0-2.0-2.2","","<div style=""font-size:60px;"">+</div>","null","","","","","","",""
"null","","image-keyboard-response","11","84518","0.0-2.0-0.3","","img/test3.PNG","null","practice","null","true","","","",""
"null","","html-keyboard-response","12","85521","0.0-2.0-1.3","","<img src=""img/test3-reward.PNG"">","null","","","","","","",""
"null","","html-keyboard-response","13","86526","0.0-2.0-2.3","","<div style=""font-size:60px;"">+</div>","null","","","","","","",""
"979.715000023134","","image-keyboard-response","14","87508","0.0-2.0-0.4","","img/test2.PNG","32","practice","null","false","","","",""
"null","","html-keyboard-response","15","88510","0.0-2.0-1.4","","<img src=""img/test2-neutral.PNG"" border=""10px; grey"">","null","","","","","","",""
"null","","html-keyboard-response","16","89514","0.0-2.0-2.4","","<div style=""font-size:60px;"">+</div>","null","","","","","","",""
"337.5049999449402","","image-keyboard-response","17","89853","0.0-2.0-0.5","","img/test1.PNG","32","practice","32","true","","","",""
"null","","html-keyboard-response","18","90860","0.0-2.0-1.5","","<img src=""img/test1-reward.PNG"" border=""10px; grey"">","null","","","","","","",""
"null","","html-keyboard-response","19","91864","0.0-2.0-2.5","","<div style=""font-size:60px;"">+</div>","null","","","","","","",""
"null","","image-keyboard-response","20","93369","0.0-2.0-0.6","","img/test2.PNG","null","practice","null","true","","","",""
"null","","html-keyboard-response","21","94372","0.0-2.0-1.6","","<img src=""img/test2-reward.PNG"">","null","","","","","","",""
"null","","html-keyboard-response","22","95377","0.0-2.0-2.6","","<div style=""font-size:60px;"">+</div>","null","","","","","","",""
"449.02499997988343","","image-keyboard-response","23","95827","0.0-2.0-0.7","","img/test1.PNG","32","practice","32","true","","","",""
"null","","html-keyboard-response","24","96833","0.0-2.0-1.7","","<img src=""img/test1-reward.PNG"" border=""10px; grey"">","null","","","","","","",""
"null","","html-keyboard-response","25","97836","0.0-2.0-2.7","","<div style=""font-size:60px;"">+</div>","null","","","","","","",""
"593.6150000197813","","image-keyboard-response","26","98431","0.0-2.0-0.8","","img/test3.PNG","32","practice","null","false","","","",""
"null","","html-keyboard-response","27","99436","0.0-2.0-1.8","","<img src=""img/test3-neutral.PNG"" border=""10px; grey"">","null","","","","","","",""
"null","","html-keyboard-response","28","100441","0.0-2.0-2.8","","<div style=""font-size:60px;"">+</div>","null","","","","","","",""
"null","","image-keyboard-response","29","101944","0.0-2.0-0.9","","img/test2.PNG","null","practice","null","true","","","",""
"null","","html-keyboard-response","30","102946","0.0-2.0-1.9","","<img src=""img/test2-reward.PNG"">","null","","","","","","",""
"null","","html-keyboard-response","31","103951","0.0-2.0-2.9","","<div style=""font-size:60px;"">+</div>","null","","","","","","",""
"779.5000000623986","","image-keyboard-response","32","104732","0.0-2.0-0.10","","img/test3.PNG","32","practice","null","false","","","",""
"null","","html-keyboard-response","33","105737","0.0-2.0-1.10","","<img src=""img/test3-neutral.PNG"" border=""10px; grey"">","null","","","","","","",""
"null","","html-keyboard-response","34","106742","0.0-2.0-2.10","","<div style=""font-size:60px;"">+</div>","null","","","","","","",""
"398.56500003952533","","image-keyboard-response","35","107141","0.0-2.0-0.11","","img/test1.PNG","32","practice","32","true","","","",""
"null","","html-keyboard-response","36","108145","0.0-2.0-1.11","","<img src=""img/test1-reward.PNG"" border=""10px; grey"">","null","","","","","","",""
"null","","html-keyboard-response","37","109149","0.0-2.0-2.11","","<div style=""font-size:60px;"">+</div>","null","","","","","","",""
"1450.2850000280887","","instructions","38","110600","0.0-3.0","[{""page_index"":0,""viewing_time"":1449.9549999600276}]","","","","","","","","",""
"null","","image-keyboard-response","39","112104","0.0-4.0-0.0","","img/orange.png","null","trial","null","true","0.2,0.8","2:nogo_b","",""
"null","","html-keyboard-response","40","113110","0.0-4.0-1.0","","<img src=""img/orange-n.png"">","null","trial","null","","0.2,0.8","2:nogo_b","0",""
"null","","html-keyboard-response","41","114112","0.0-4.0-2.0","","<div style=""font-size:60px;"">+</div>","null","","","","","","",""
"460.1000000257045","","image-keyboard-response","42","114573","0.0-4.0-0.1","","img/green.png","32","trial","32","true","0.8,0.2","1:go_a","",""
"null","","html-keyboard-response","43","115579","0.0-4.0-1.1","","<img src=""img/green-r.png"" border=""10"">","null","trial","32","","0.8,0.2","1:go_a","1",""
"null","","html-keyboard-response","44","116583","0.0-4.0-2.1","","<div style=""font-size:60px;"">+</div>","null","","","","","","",""
"null","","image-keyboard-response","45","118088","0.0-4.0-0.2","","img/orange.png","null","trial","null","true","0.2,0.8","2:nogo_b","",""
"null","","html-keyboard-response","46","119095","0.0-4.0-1.2","","<img src=""img/orange-r.png"">","null","trial","null","","0.2,0.8","2:nogo_b","1",""
"null","","html-keyboard-response","47","120096","0.0-4.0-2.2","","<div style=""font-size:60px;"">+</div>","null","","","","","","",""
"380.6750000221655","","image-keyboard-response","48","120478","0.0-4.0-0.3","","img/green.png","32","trial","32","true","0.8,0.2","1:go_a","",""
"null","","html-keyboard-response","49","121485","0.0-4.0-1.3","","<img src=""img/green-r.png"" border=""10"">","null","trial","32","","0.8,0.2","1:go_a","1",""
"null","","html-keyboard-response","50","122490","0.0-4.0-2.3","","<div style=""font-size:60px;"">+</div>","null","","","","","","",""
"762.7050000010058","","image-keyboard-response","51","123254","0.0-4.0-0.4","","img/green.png","32","trial","32","true","0.8,0.2","1:go_a","",""
"null","","html-keyboard-response","52","124260","0.0-4.0-1.4","","<img src=""img/green-r.png"" border=""10"">","null","trial","32","","0.8,0.2","1:go_a","1",""
"null","","html-keyboard-response","53","125263","0.0-4.0-2.4","","<div style=""font-size:60px;"">+</div>","null","","","","","","",""
"null","","image-keyboard-response","54","126769","0.0-4.0-0.5","","img/orange.png","null","trial","null","true","0.2,0.8","2:nogo_b","",""
"null","","html-keyboard-response","55","127772","0.0-4.0-1.5","","<img src=""img/orange-n.png"">","null","trial","null","","0.2,0.8","2:nogo_b","0",""
"null","","html-keyboard-response","56","128778","0.0-4.0-2.5","","<div style=""font-size:60px;"">+</div>","null","","","","","","",""
"375.40500005707145","","image-keyboard-response","57","129154","0.0-4.0-0.6","","img/green.png","32","trial","32","true","0.8,0.2","1:go_a","",""
"null","","html-keyboard-response","58","130162","0.0-4.0-1.6","","<img src=""img/green-r.png"" border=""10"">","null","trial","32","","0.8,0.2","1:go_a","1",""
"null","","html-keyboard-response","59","131164","0.0-4.0-2.6","","<div style=""font-size:60px;"">+</div>","null","","","","","","",""
"null","","image-keyboard-response","60","132669","0.0-4.0-0.7","","img/orange.png","null","trial","null","true","0.2,0.8","2:nogo_b","",""
"null","","html-keyboard-response","61","133673","0.0-4.0-1.7","","<img src=""img/orange-r.png"">","null","trial","null","","0.2,0.8","2:nogo_b","1",""
"null","","html-keyboard-response","62","134675","0.0-4.0-2.7","","<div style=""font-size:60px;"">+</div>","null","","","","","","",""
"null","","image-keyboard-response","63","136181","0.0-4.0-0.8","","img/orange.png","null","trial","null","true","0.2,0.8","2:nogo_b","",""
"null","","html-keyboard-response","64","137187","0.0-4.0-1.8","","<img src=""img/orange-n.png"">","null","trial","null","","0.2,0.8","2:nogo_b","0",""
"null","","html-keyboard-response","65","138191","0.0-4.0-2.8","","<div style=""font-size:60px;"">+</div>","null","","","","","","",""
"437.40499997511506","","image-keyboard-response","66","138630","0.0-4.0-0.9","","img/green.png","32","trial","32","true","0.8,0.2","1:go_a","",""
"null","","html-keyboard-response","67","139637","0.0-4.0-1.9","","<img src=""img/green-n.png"" border=""10"">","null","trial","32","","0.8,0.2","1:go_a","0",""
"null","","html-keyboard-response","68","140640","0.0-4.0-2.9","","<div style=""font-size:60px;"">+</div>","null","","","","","","",""
"690.2700000209734","","image-keyboard-response","69","141332","0.0-4.0-0.10","","img/orange.png","32","trial","null","false","0.2,0.8","2:nogo_b","",""
"null","","html-keyboard-response","70","142340","0.0-4.0-1.10","","<img src=""img/orange-r.png"" border=""10"">","null","trial","null","","0.2,0.8","2:nogo_b","1",""
"null","","html-keyboard-response","71","143345","0.0-4.0-2.10","","<div style=""font-size:60px;"">+</div>","null","","","","","","",""
"482.5849999906495","","image-keyboard-response","72","143828","0.0-4.0-0.11","","img/green.png","32","trial","32","true","0.8,0.2","1:go_a","",""
"null","","html-keyboard-response","73","144832","0.0-4.0-1.11","","<img src=""img/green-r.png"" border=""10"">","null","trial","32","","0.8,0.2","1:go_a","1",""
"null","","html-keyboard-response","74","145833","0.0-4.0-2.11","","<div style=""font-size:60px;"">+</div>","null","","","","","","",""
"535.440000006929","","image-keyboard-response","75","146370","0.0-4.0-0.12","","img/orange.png","32","trial","null","false","0.2,0.8","2:nogo_b","",""
"null","","html-keyboard-response","76","147374","0.0-4.0-1.12","","<img src=""img/orange-n.png"" border=""10"">","null","trial","null","","0.2,0.8","2:nogo_b","0",""
"null","","html-keyboard-response","77","148379","0.0-4.0-2.12","","<div style=""font-size:60px;"">+</div>","null","","","","","","",""
"483.8749999180436","","image-keyboard-response","78","148864","0.0-4.0-0.13","","img/green.png","32","trial","32","true","0.8,0.2","1:go_a","",""
"null","","html-keyboard-response","79","149871","0.0-4.0-1.13","","<img src=""img/green-r.png"" border=""10"">","null","trial","32","","0.8,0.2","1:go_a","1",""
"null","","html-keyboard-response","80","150875","0.0-4.0-2.13","","<div style=""font-size:60px;"">+</div>","null","","","","","","",""
"497.21499998122454","","image-keyboard-response","81","151374","0.0-4.0-0.14","","img/green.png","32","trial","32","true","0.8,0.2","1:go_a","",""
"null","","html-keyboard-response","82","152377","0.0-4.0-1.14","","<img src=""img/green-r.png"" border=""10"">","null","trial","32","","0.8,0.2","1:go_a","1",""
"null","","html-keyboard-response","83","153383","0.0-4.0-2.14","","<div style=""font-size:60px;"">+</div>","null","","","","","","",""
"null","","image-keyboard-response","84","154888","0.0-4.0-0.15","","img/orange.png","null","trial","null","true","0.2,0.8","2:nogo_b","",""
"null","","html-keyboard-response","85","155892","0.0-4.0-1.15","","<img src=""img/orange-r.png"">","null","trial","null","","0.2,0.8","2:nogo_b","1",""
"null","","html-keyboard-response","86","156896","0.0-4.0-2.15","","<div style=""font-size:60px;"">+</div>","null","","","","","","",""
"349.73999997600913","","image-keyboard-response","87","157247","0.0-4.0-0.16","","img/green.png","32","trial","32","true","0.8,0.2","1:go_a","",""
"null","","html-keyboard-response","88","158250","0.0-4.0-1.16","","<img src=""img/green-r.png"" border=""10"">","null","trial","32","","0.8,0.2","1:go_a","1",""
"null","","html-keyboard-response","89","159251","0.0-4.0-2.16","","<div style=""font-size:60px;"">+</div>","null","","","","","","",""
"null","","image-keyboard-response","90","160756","0.0-4.0-0.17","","img/orange.png","null","trial","null","true","0.2,0.8","2:nogo_b","",""
"null","","html-keyboard-response","91","161759","0.0-4.0-1.17","","<img src=""img/orange-r.png"">","null","trial","null","","0.2,0.8","2:nogo_b","1",""
"null","","html-keyboard-response","92","162760","0.0-4.0-2.17","","<div style=""font-size:60px;"">+</div>","null","","","","","","",""
"547.3500000080094","","image-keyboard-response","93","163309","0.0-4.0-0.18","","img/orange.png","32","trial","null","false","0.2,0.8","2:nogo_b","",""
"null","","html-keyboard-response","94","164313","0.0-4.0-1.18","","<img src=""img/orange-n.png"" border=""10"">","null","trial","null","","0.2,0.8","2:nogo_b","0",""
"null","","html-keyboard-response","95","165317","0.0-4.0-2.18","","<div style=""font-size:60px;"">+</div>","null","","","","","","",""
"551.4950000215322","","image-keyboard-response","96","165870","0.0-4.0-0.19","","img/green.png","32","trial","32","true","0.8,0.2","1:go_a","",""
"null","","html-keyboard-response","97","166876","0.0-4.0-1.19","","<img src=""img/green-r.png"" border=""10"">","null","trial","32","","0.8,0.2","1:go_a","1",""
"null","","html-keyboard-response","98","167881","0.0-4.0-2.19","","<div style=""font-size:60px;"">+</div>","null","","","","","","",""
"287.8150000469759","","image-keyboard-response","99","168170","0.0-4.0-0.20","","img/orange.png","32","trial","null","false","0.2,0.8","2:nogo_b","",""
"null","","html-keyboard-response","100","169176","0.0-4.0-1.20","","<img src=""img/orange-n.png"" border=""10"">","null","trial","null","","0.2,0.8","2:nogo_b","0",""
"null","","html-keyboard-response","101","170181","0.0-4.0-2.20","","<div style=""font-size:60px;"">+</div>","null","","","","","","",""
"327.045000041835","","image-keyboard-response","102","170510","0.0-4.0-0.21","","img/green.png","32","trial","32","true","0.8,0.2","1:go_a","",""
"null","","html-keyboard-response","103","171517","0.0-4.0-1.21","","<img src=""img/green-r.png"" border=""10"">","null","trial","32","","0.8,0.2","1:go_a","1",""
"null","","html-keyboard-response","104","172521","0.0-4.0-2.21","","<div style=""font-size:60px;"">+</div>","null","","","","","","",""
"980.5299999425188","","image-keyboard-response","105","173503","0.0-4.0-0.22","","img/green.png","32","trial","32","true","0.8,0.2","1:go_a","",""
"null","","html-keyboard-response","106","174510","0.0-4.0-1.22","","<img src=""img/green-n.png"" border=""10"">","null","trial","32","","0.8,0.2","1:go_a","0",""
"null","","html-keyboard-response","107","175516","0.0-4.0-2.22","","<div style=""font-size:60px;"">+</div>","null","","","","","","",""
"548.0499999830499","","image-keyboard-response","108","176065","0.0-4.0-0.23","","img/orange.png","32","trial","null","false","0.2,0.8","2:nogo_b","",""
"null","","html-keyboard-response","109","177068","0.0-4.0-1.23","","<img src=""img/orange-r.png"" border=""10"">","null","trial","null","","0.2,0.8","2:nogo_b","1",""
"null","","html-keyboard-response","110","178074","0.0-4.0-2.23","","<div style=""font-size:60px;"">+</div>","null","","","","","","",""
"484.37000007834285","","image-keyboard-response","111","178560","0.0-4.0-0.24","","img/green.png","32","trial","32","true","0.8,0.2","1:go_a","",""
"null","","html-keyboard-response","112","179569","0.0-4.0-1.24","","<img src=""img/green-r.png"" border=""10"">","null","trial","32","","0.8,0.2","1:go_a","1",""
"null","","html-keyboard-response","113","180574","0.0-4.0-2.24","","<div style=""font-size:60px;"">+</div>","null","","","","","","",""
"null","","image-keyboard-response","114","182077","0.0-4.0-0.25","","img/orange.png","null","trial","null","true","0.2,0.8","2:nogo_b","",""
"null","","html-keyboard-response","115","183082","0.0-4.0-1.25","","<img src=""img/orange-r.png"">","null","trial","null","","0.2,0.8","2:nogo_b","1",""
"null","","html-keyboard-response","116","184086","0.0-4.0-2.25","","<div style=""font-size:60px;"">+</div>","null","","","","","","",""
"375.2249999670312","","image-keyboard-response","117","184462","0.0-4.0-0.26","","img/green.png","32","trial","32","true","0.8,0.2","1:go_a","",""
"null","","html-keyboard-response","118","185469","0.0-4.0-1.26","","<img src=""img/green-r.png"" border=""10"">","null","trial","32","","0.8,0.2","1:go_a","1",""
"null","","html-keyboard-response","119","186473","0.0-4.0-2.26","","<div style=""font-size:60px;"">+</div>","null","","","","","","",""
"null","","image-keyboard-response","120","187978","0.0-4.0-0.27","","img/orange.png","null","trial","null","true","0.2,0.8","2:nogo_b","",""
"null","","html-keyboard-response","121","188984","0.0-4.0-1.27","","<img src=""img/orange-r.png"">","null","trial","null","","0.2,0.8","2:nogo_b","1",""
"null","","html-keyboard-response","122","189989","0.0-4.0-2.27","","<div style=""font-size:60px;"">+</div>","null","","","","","","",""
"480.13499996159226","","image-keyboard-response","123","190471","0.0-4.0-0.28","","img/green.png","32","trial","32","true","0.8,0.2","1:go_a","",""
"null","","html-keyboard-response","124","191475","0.0-4.0-1.28","","<img src=""img/green-n.png"" border=""10"">","null","trial","32","","0.8,0.2","1:go_a","0",""
"null","","html-keyboard-response","125","192479","0.0-4.0-2.28","","<div style=""font-size:60px;"">+</div>","null","","","","","","",""
"503.5350000252947","","image-keyboard-response","126","192984","0.0-4.0-0.29","","img/orange.png","32","trial","null","false","0.2,0.8","2:nogo_b","",""
"null","","html-keyboard-response","127","193986","0.0-4.0-1.29","","<img src=""img/orange-n.png"" border=""10"">","null","trial","null","","0.2,0.8","2:nogo_b","0",""
"null","","html-keyboard-response","128","194989","0.0-4.0-2.29","","<div style=""font-size:60px;"">+</div>","null","","","","","","",""
"535.0900000194088","","image-keyboard-response","129","195526","0.0-4.0-0.30","","img/green.png","32","trial","32","true","0.8,0.2","1:go_a","",""
"null","","html-keyboard-response","130","196529","0.0-4.0-1.30","","<img src=""img/green-n.png"" border=""10"">","null","trial","32","","0.8,0.2","1:go_a","0",""
"null","","html-keyboard-response","131","197534","0.0-4.0-2.30","","<div style=""font-size:60px;"">+</div>","null","","","","","","",""
"null","","image-keyboard-response","132","199037","0.0-4.0-0.31","","img/orange.png","null","trial","null","true","0.2,0.8","2:nogo_b","",""
"null","","html-keyboard-response","133","200043","0.0-4.0-1.31","","<img src=""img/orange-n.png"">","null","trial","null","","0.2,0.8","2:nogo_b","0",""
"null","","html-keyboard-response","134","201047","0.0-4.0-2.31","","<div style=""font-size:60px;"">+</div>","null","","","","","","",""
"437.2900000307709","","image-keyboard-response","135","201486","0.0-4.0-0.32","","img/green.png","32","trial","32","true","0.8,0.2","1:go_a","",""
"null","","html-keyboard-response","136","202493","0.0-4.0-1.32","","<img src=""img/green-r.png"" border=""10"">","null","trial","32","","0.8,0.2","1:go_a","1",""
"null","","html-keyboard-response","137","203496","0.0-4.0-2.32","","<div style=""font-size:60px;"">+</div>","null","","","","","","",""
"1334.4800000777468","","image-keyboard-response","138","204833","0.0-4.0-0.33","","img/orange.png","32","trial","null","false","0.2,0.8","2:nogo_b","",""
"null","","html-keyboard-response","139","205838","0.0-4.0-1.33","","<img src=""img/orange-r.png"" border=""10"">","null","trial","null","","0.2,0.8","2:nogo_b","1",""
"null","","html-keyboard-response","140","206844","0.0-4.0-2.33","","<div style=""font-size:60px;"">+</div>","null","","","","","","",""
"null","","image-keyboard-response","141","208347","0.0-4.0-0.34","","img/orange.png","null","trial","null","true","0.2,0.8","2:nogo_b","",""
"null","","html-keyboard-response","142","209349","0.0-4.0-1.34","","<img src=""img/orange-n.png"">","null","trial","null","","0.2,0.8","2:nogo_b","0",""
"null","","html-keyboard-response","143","210355","0.0-4.0-2.34","","<div style=""font-size:60px;"">+</div>","null","","","","","","",""
"466.50000009685755","","image-keyboard-response","144","210823","0.0-4.0-0.35","","img/green.png","32","trial","32","true","0.8,0.2","1:go_a","",""
"null","","html-keyboard-response","145","211827","0.0-4.0-1.35","","<img src=""img/green-r.png"" border=""10"">","null","trial","32","","0.8,0.2","1:go_a","1",""
"null","","html-keyboard-response","146","212831","0.0-4.0-2.35","","<div style=""font-size:60px;"">+</div>","null","","","","","","",""
"1107.4599999701604","","image-keyboard-response","147","213940","0.0-4.0-0.36","","img/orange.png","32","trial","null","false","0.2,0.8","2:nogo_b","",""
"null","","html-keyboard-response","148","214944","0.0-4.0-1.36","","<img src=""img/orange-n.png"" border=""10"">","null","trial","null","","0.2,0.8","2:nogo_b","0",""
"null","","html-keyboard-response","149","215950","0.0-4.0-2.36","","<div style=""font-size:60px;"">+</div>","null","","","","","","",""
"349.3000000016764","","image-keyboard-response","150","216301","0.0-4.0-0.37","","img/green.png","32","trial","32","true","0.8,0.2","1:go_a","",""
"null","","html-keyboard-response","151","217305","0.0-4.0-1.37","","<img src=""img/green-n.png"" border=""10"">","null","trial","32","","0.8,0.2","1:go_a","0",""
"null","","html-keyboard-response","152","218311","0.0-4.0-2.37","","<div style=""font-size:60px;"">+</div>","null","","","","","","",""
"386.2449999433011","","image-keyboard-response","153","218699","0.0-4.0-0.38","","img/green.png","32","trial","32","true","0.8,0.2","1:go_a","",""
"null","","html-keyboard-response","154","219706","0.0-4.0-1.38","","<img src=""img/green-r.png"" border=""10"">","null","trial","32","","0.8,0.2","1:go_a","1",""
"null","","html-keyboard-response","155","220710","0.0-4.0-2.38","","<div style=""font-size:60px;"">+</div>","null","","","","","","",""
"1126.204999978654","","image-keyboard-response","156","221838","0.0-4.0-0.39","","img/orange.png","32","trial","null","false","0.2,0.8","2:nogo_b","",""
"null","","html-keyboard-response","157","222840","0.0-4.0-1.39","","<img src=""img/orange-n.png"" border=""10"">","null","trial","null","","0.2,0.8","2:nogo_b","0",""
"null","","html-keyboard-response","158","223845","0.0-4.0-2.39","","<div style=""font-size:60px;"">+</div>","null","","","","","","",""
"440.790000022389","","image-keyboard-response","159","224287","0.0-4.0-0.40","","img/green.png","32","trial","32","true","0.8,0.2","1:go_a","",""
"null","","html-keyboard-response","160","225290","0.0-4.0-1.40","","<img src=""img/green-n.png"" border=""10"">","null","trial","32","","0.8,0.2","1:go_a","0",""
"null","","html-keyboard-response","161","226295","0.0-4.0-2.40","","<div style=""font-size:60px;"">+</div>","null","","","","","","",""
"947.7699999697506","","image-keyboard-response","162","227244","0.0-4.0-0.41","","img/orange.png","32","trial","null","false","0.2,0.8","2:nogo_b","",""
"null","","html-keyboard-response","163","228249","0.0-4.0-1.41","","<img src=""img/orange-n.png"" border=""10"">","null","trial","null","","0.2,0.8","2:nogo_b","0",""
"null","","html-keyboard-response","164","229252","0.0-4.0-2.41","","<div style=""font-size:60px;"">+</div>","null","","","","","","",""
"636.7600000230595","","image-keyboard-response","165","229890","0.0-4.0-0.42","","img/green.png","32","trial","32","true","0.8,0.2","1:go_a","",""
"null","","html-keyboard-response","166","230896","0.0-4.0-1.42","","<img src=""img/green-n.png"" border=""10"">","null","trial","32","","0.8,0.2","1:go_a","0",""
"null","","html-keyboard-response","167","231899","0.0-4.0-2.42","","<div style=""font-size:60px;"">+</div>","null","","","","","","",""
"null","","image-keyboard-response","168","233404","0.0-4.0-0.43","","img/orange.png","null","trial","null","true","0.2,0.8","2:nogo_b","",""
"null","","html-keyboard-response","169","234407","0.0-4.0-1.43","","<img src=""img/orange-n.png"">","null","trial","null","","0.2,0.8","2:nogo_b","0",""
"null","","html-keyboard-response","170","235413","0.0-4.0-2.43","","<div style=""font-size:60px;"">+</div>","null","","","","","","",""
"null","","image-keyboard-response","171","236916","0.0-4.0-0.44","","img/orange.png","null","trial","null","true","0.2,0.8","2:nogo_b","",""
"null","","html-keyboard-response","172","237922","0.0-4.0-1.44","","<img src=""img/orange-r.png"">","null","trial","null","","0.2,0.8","2:nogo_b","1",""
"null","","html-keyboard-response","173","238924","0.0-4.0-2.44","","<div style=""font-size:60px;"">+</div>","null","","","","","","",""
"688.1300000241026","","image-keyboard-response","174","239614","0.0-4.0-0.45","","img/green.png","32","trial","32","true","0.8,0.2","1:go_a","",""
"null","","html-keyboard-response","175","240616","0.0-4.0-1.45","","<img src=""img/green-r.png"" border=""10"">","null","trial","32","","0.8,0.2","1:go_a","1",""
"null","","html-keyboard-response","176","241620","0.0-4.0-2.45","","<div style=""font-size:60px;"">+</div>","null","","","","","","",""
"751.2800000840798","","image-keyboard-response","177","242372","0.0-4.0-0.46","","img/green.png","32","trial","32","true","0.8,0.2","1:go_a","",""
"null","","html-keyboard-response","178","243375","0.0-4.0-1.46","","<img src=""img/green-r.png"" border=""10"">","null","trial","32","","0.8,0.2","1:go_a","1",""
"null","","html-keyboard-response","179","244380","0.0-4.0-2.46","","<div style=""font-size:60px;"">+</div>","null","","","","","","",""
"null","","image-keyboard-response","180","245884","0.0-4.0-0.47","","img/orange.png","null","trial","null","true","0.2,0.8","2:nogo_b","",""
"null","","html-keyboard-response","181","246887","0.0-4.0-1.47","","<img src=""img/orange-r.png"">","null","trial","null","","0.2,0.8","2:nogo_b","1",""
"null","","html-keyboard-response","182","247892","0.0-4.0-2.47","","<div style=""font-size:60px;"">+</div>","null","","","","","","",""
"380.8500000741333","","image-keyboard-response","183","248274","0.0-4.0-0.48","","img/green.png","32","trial","32","true","0.8,0.2","1:go_a","",""
"null","","html-keyboard-response","184","249281","0.0-4.0-1.48","","<img src=""img/green-r.png"" border=""10"">","null","trial","32","","0.8,0.2","1:go_a","1",""
"null","","html-keyboard-response","185","250284","0.0-4.0-2.48","","<div style=""font-size:60px;"">+</div>","null","","","","","","",""
"500.315000070259","","image-keyboard-response","186","250786","0.0-4.0-0.49","","img/orange.png","32","trial","null","false","0.2,0.8","2:nogo_b","",""
"null","","html-keyboard-response","187","251791","0.0-4.0-1.49","","<img src=""img/orange-n.png"" border=""10"">","null","trial","null","","0.2,0.8","2:nogo_b","0",""
"null","","html-keyboard-response","188","252792","0.0-4.0-2.49","","<div style=""font-size:60px;"">+</div>","null","","","","","","",""
"null","","image-keyboard-response","189","254298","0.0-4.0-0.50","","img/orange.png","null","trial","null","true","0.2,0.8","2:nogo_b","",""
"null","","html-keyboard-response","190","255302","0.0-4.0-1.50","","<img src=""img/orange-r.png"">","null","trial","null","","0.2,0.8","2:nogo_b","1",""
"null","","html-keyboard-response","191","256304","0.0-4.0-2.50","","<div style=""font-size:60px;"">+</div>","null","","","","","","",""
"431.9099999265745","","image-keyboard-response","192","256737","0.0-4.0-0.51","","img/green.png","32","trial","32","true","0.8,0.2","1:go_a","",""
"null","","html-keyboard-response","193","257743","0.0-4.0-1.51","","<img src=""img/green-r.png"" border=""10"">","null","trial","32","","0.8,0.2","1:go_a","1",""
"null","","html-keyboard-response","194","258749","0.0-4.0-2.51","","<div style=""font-size:60px;"">+</div>","null","","","","","","",""
"1057.120000012219","","image-keyboard-response","195","259807","0.0-4.0-0.52","","img/green.png","32","trial","32","true","0.8,0.2","1:go_a","",""
"null","","html-keyboard-response","196","260810","0.0-4.0-1.52","","<img src=""img/green-r.png"" border=""10"">","null","trial","32","","0.8,0.2","1:go_a","1",""
"null","","html-keyboard-response","197","261816","0.0-4.0-2.52","","<div style=""font-size:60px;"">+</div>","null","","","","","","",""
"null","","image-keyboard-response","198","263319","0.0-4.0-0.53","","img/orange.png","null","trial","null","true","0.2,0.8","2:nogo_b","",""
"null","","html-keyboard-response","199","264322","0.0-4.0-1.53","","<img src=""img/orange-r.png"">","null","trial","null","","0.2,0.8","2:nogo_b","1",""
"null","","html-keyboard-response","200","265327","0.0-4.0-2.53","","<div style=""font-size:60px;"">+</div>","null","","","","","","",""
"336.2150000175461","","image-keyboard-response","201","265664","0.0-4.0-0.54","","img/green.png","32","trial","32","true","0.8,0.2","1:go_a","",""
"null","","html-keyboard-response","202","266669","0.0-4.0-1.54","","<img src=""img/green-r.png"" border=""10"">","null","trial","32","","0.8,0.2","1:go_a","1",""
"null","","html-keyboard-response","203","267670","0.0-4.0-2.54","","<div style=""font-size:60px;"">+</div>","null","","","","","","",""
"null","","image-keyboard-response","204","269175","0.0-4.0-0.55","","img/orange.png","null","trial","null","true","0.2,0.8","2:nogo_b","",""
"null","","html-keyboard-response","205","270179","0.0-4.0-1.55","","<img src=""img/orange-r.png"">","null","trial","null","","0.2,0.8","2:nogo_b","1",""
"null","","html-keyboard-response","206","271183","0.0-4.0-2.55","","<div style=""font-size:60px;"">+</div>","null","","","","","","",""
"null","","image-keyboard-response","207","272686","0.0-4.0-0.56","","img/orange.png","null","trial","null","true","0.2,0.8","2:nogo_b","",""
"null","","html-keyboard-response","208","273693","0.0-4.0-1.56","","<img src=""img/orange-r.png"">","null","trial","null","","0.2,0.8","2:nogo_b","1",""
"null","","html-keyboard-response","209","274694","0.0-4.0-2.56","","<div style=""font-size:60px;"">+</div>","null","","","","","","",""
"null","","image-keyboard-response","210","276200","0.0-4.0-0.57","","img/green.png","null","trial","32","false","0.8,0.2","1:go_a","",""
"null","","html-keyboard-response","211","277205","0.0-4.0-1.57","","<img src=""img/green-n.png"">","null","trial","32","","0.8,0.2","1:go_a","0",""
"null","","html-keyboard-response","212","278210","0.0-4.0-2.57","","<div style=""font-size:60px;"">+</div>","null","","","","","","",""
"403.41500006616116","","image-keyboard-response","213","278615","0.0-4.0-0.58","","img/green.png","32","trial","32","true","0.8,0.2","1:go_a","",""
"null","","html-keyboard-response","214","279620","0.0-4.0-1.58","","<img src=""img/green-r.png"" border=""10"">","null","trial","32","","0.8,0.2","1:go_a","1",""
"null","","html-keyboard-response","215","280624","0.0-4.0-2.58","","<div style=""font-size:60px;"">+</div>","null","","","","","","",""
"null","","image-keyboard-response","216","282128","0.0-4.0-0.59","","img/orange.png","null","trial","null","true","0.2,0.8","2:nogo_b","",""
"null","","html-keyboard-response","217","283134","0.0-4.0-1.59","","<img src=""img/orange-r.png"">","null","trial","null","","0.2,0.8","2:nogo_b","1",""
"null","","html-keyboard-response","218","284138","0.0-4.0-2.59","","<div style=""font-size:60px;"">+</div>","null","","","","","","",""
"6426.269999938086","","instructions","219","290565","0.0-5.0","[{""page_index"":0,""viewing_time"":6425.904999952763}]","","","","","","","","",""
"816.5100000333041","","image-keyboard-response","220","291383","0.0-6.0-0.0","","img/purple.png","32","trial","32","true","0.8,0.2","1:go_a","",""
"null","","html-keyboard-response","221","292388","0.0-6.0-1.0","","<img src=""img/purple-r.png"" border=""10"">","null","trial","32","","0.8,0.2","1:go_a","1",""
"null","","html-keyboard-response","222","293393","0.0-6.0-2.0","","<div style=""font-size:60px;"">+</div>","null","","","","","","",""
"null","","image-keyboard-response","223","294896","0.0-6.0-0.1","","img/pink.png","null","trial","null","true","0,1","4:nogo_d","",""
"null","","html-keyboard-response","224","295902","0.0-6.0-1.1","","<img src=""img/pink-r.png"">","null","trial","null","","0,1","4:nogo_d","1",""
"null","","html-keyboard-response","225","296905","0.0-6.0-2.1","","<div style=""font-size:60px;"">+</div>","null","","","","","","",""
"310.0900000426918","","image-keyboard-response","226","297217","0.0-6.0-0.2","","img/yellow.png","32","trial","32","true","1,0","3:go_c","",""
"null","","html-keyboard-response","227","298222","0.0-6.0-1.2","","<img src=""img/yellow-r.png"" border=""10"">","null","trial","32","","1,0","3:go_c","1",""
"null","","html-keyboard-response","228","299224","0.0-6.0-2.2","","<div style=""font-size:60px;"">+</div>","null","","","","","","",""
"732.4900000821799","","image-keyboard-response","229","299958","0.0-6.0-0.3","","img/red.png","32","trial","null","false","0.2,0.8","2:nogo_b","",""
"null","","html-keyboard-response","230","300963","0.0-6.0-1.3","","<img src=""img/red-n.png"" border=""10"">","null","trial","null","","0.2,0.8","2:nogo_b","0",""
"null","","html-keyboard-response","231","301969","0.0-6.0-2.3","","<div style=""font-size:60px;"">+</div>","null","","","","","","",""
"380.669999984093","","image-keyboard-response","232","302351","0.0-6.0-0.4","","img/pink.png","32","trial","null","false","0,1","4:nogo_d","",""
"null","","html-keyboard-response","233","303356","0.0-6.0-1.4","","<img src=""img/pink-n.png"" border=""10"">","null","trial","null","","0,1","4:nogo_d","0",""
"null","","html-keyboard-response","234","304362","0.0-6.0-2.4","","<div style=""font-size:60px;"">+</div>","null","","","","","","",""
"null","","image-keyboard-response","235","305864","0.0-6.0-0.5","","img/yellow.png","null","trial","32","false","1,0","3:go_c","",""
"null","","html-keyboard-response","236","306870","0.0-6.0-1.5","","<img src=""img/yellow-n.png"">","null","trial","32","","1,0","3:go_c","0",""
"null","","html-keyboard-response","237","307873","0.0-6.0-2.5","","<div style=""font-size:60px;"">+</div>","null","","","","","","",""
"302.0900000119582","","image-keyboard-response","238","308177","0.0-6.0-0.6","","img/purple.png","32","trial","32","true","0.8,0.2","1:go_a","",""
"null","","html-keyboard-response","239","309181","0.0-6.0-1.6","","<img src=""img/purple-r.png"" border=""10"">","null","trial","32","","0.8,0.2","1:go_a","1",""
"null","","html-keyboard-response","240","310187","0.0-6.0-2.6","","<div style=""font-size:60px;"">+</div>","null","","","","","","",""
"370.60000002384186","","image-keyboard-response","241","310559","0.0-6.0-0.7","","img/red.png","32","trial","null","false","0.2,0.8","2:nogo_b","",""
"null","","html-keyboard-response","242","311562","0.0-6.0-1.7","","<img src=""img/red-n.png"" border=""10"">","null","trial","null","","0.2,0.8","2:nogo_b","0",""
"null","","html-keyboard-response","243","312565","0.0-6.0-2.7","","<div style=""font-size:60px;"">+</div>","null","","","","","","",""
"584.0549999848008","","image-keyboard-response","244","313150","0.0-6.0-0.8","","img/yellow.png","32","trial","32","true","1,0","3:go_c","",""
"null","","html-keyboard-response","245","314157","0.0-6.0-1.8","","<img src=""img/yellow-r.png"" border=""10"">","null","trial","32","","1,0","3:go_c","1",""
"null","","html-keyboard-response","246","315158","0.0-6.0-2.8","","<div style=""font-size:60px;"">+</div>","null","","","","","","",""
"null","","image-keyboard-response","247","316660","0.0-6.0-0.9","","img/pink.png","null","trial","null","true","0,1","4:nogo_d","",""
"null","","html-keyboard-response","248","317665","0.0-6.0-1.9","","<img src=""img/pink-r.png"">","null","trial","null","","0,1","4:nogo_d","1",""
"null","","html-keyboard-response","249","318671","0.0-6.0-2.9","","<div style=""font-size:60px;"">+</div>","null","","","","","","",""
"null","","image-keyboard-response","250","320174","0.0-6.0-0.10","","img/red.png","null","trial","null","true","0.2,0.8","2:nogo_b","",""
"null","","html-keyboard-response","251","321179","0.0-6.0-1.10","","<img src=""img/red-r.png"">","null","trial","null","","0.2,0.8","2:nogo_b","1",""
"null","","html-keyboard-response","252","322182","0.0-6.0-2.10","","<div style=""font-size:60px;"">+</div>","null","","","","","","",""
"286.02500003762543","","image-keyboard-response","253","322469","0.0-6.0-0.11","","img/purple.png","32","trial","32","true","0.8,0.2","1:go_a","",""
"null","","html-keyboard-response","254","323475","0.0-6.0-1.11","","<img src=""img/purple-r.png"" border=""10"">","null","trial","32","","0.8,0.2","1:go_a","1",""
"null","","html-keyboard-response","255","324477","0.0-6.0-2.11","","<div style=""font-size:60px;"">+</div>","null","","","","","","",""
"517.2800000291318","","image-keyboard-response","256","324996","0.0-6.0-0.12","","img/purple.png","32","trial","32","true","0.8,0.2","1:go_a","",""
"null","","html-keyboard-response","257","326001","0.0-6.0-1.12","","<img src=""img/purple-n.png"" border=""10"">","null","trial","32","","0.8,0.2","1:go_a","0",""
"null","","html-keyboard-response","258","327005","0.0-6.0-2.12","","<div style=""font-size:60px;"">+</div>","null","","","","","","",""
"290.2849999954924","","image-keyboard-response","259","327297","0.0-6.0-0.13","","img/red.png","32","trial","null","false","0.2,0.8","2:nogo_b","",""
"null","","html-keyboard-response","260","328301","0.0-6.0-1.13","","<img src=""img/red-n.png"" border=""10"">","null","trial","null","","0.2,0.8","2:nogo_b","0",""
"null","","html-keyboard-response","261","329306","0.0-6.0-2.13","","<div style=""font-size:60px;"">+</div>","null","","","","","","",""
"261.4649999886751","","image-keyboard-response","262","329569","0.0-6.0-0.14","","img/yellow.png","32","trial","32","true","1,0","3:go_c","",""
"null","","html-keyboard-response","263","330572","0.0-6.0-1.14","","<img src=""img/yellow-r.png"" border=""10"">","null","trial","32","","1,0","3:go_c","1",""
"null","","html-keyboard-response","264","331575","0.0-6.0-2.14","","<div style=""font-size:60px;"">+</div>","null","","","","","","",""
"292.795000015758","","image-keyboard-response","265","331870","0.0-6.0-0.15","","img/pink.png","32","trial","null","false","0,1","4:nogo_d","",""
"null","","html-keyboard-response","266","332872","0.0-6.0-1.15","","<img src=""img/pink-n.png"" border=""10"">","null","trial","null","","0,1","4:nogo_d","0",""
"null","","html-keyboard-response","267","333876","0.0-6.0-2.15","","<div style=""font-size:60px;"">+</div>","null","","","","","","",""
"251.61999999545515","","image-keyboard-response","268","334128","0.0-6.0-0.16","","img/purple.png","32","trial","32","true","0.8,0.2","1:go_a","",""
"null","","html-keyboard-response","269","335133","0.0-6.0-1.16","","<img src=""img/purple-r.png"" border=""10"">","null","trial","32","","0.8,0.2","1:go_a","1",""
"null","","html-keyboard-response","270","336139","0.0-6.0-2.16","","<div style=""font-size:60px;"">+</div>","null","","","","","","",""
"460.9299999428913","","image-keyboard-response","271","336601","0.0-6.0-0.17","","img/pink.png","32","trial","null","false","0,1","4:nogo_d","",""
"null","","html-keyboard-response","272","337606","0.0-6.0-1.17","","<img src=""img/pink-n.png"" border=""10"">","null","trial","null","","0,1","4:nogo_d","0",""
"null","","html-keyboard-response","273","338609","0.0-6.0-2.17","","<div style=""font-size:60px;"">+</div>","null","","","","","","",""
"295.79000000376254","","image-keyboard-response","274","338906","0.0-6.0-0.18","","img/red.png","32","trial","null","false","0.2,0.8","2:nogo_b","",""
"null","","html-keyboard-response","275","339909","0.0-6.0-1.18","","<img src=""img/red-n.png"" border=""10"">","null","trial","null","","0.2,0.8","2:nogo_b","0",""
"null","","html-keyboard-response","276","340915","0.0-6.0-2.18","","<div style=""font-size:60px;"">+</div>","null","","","","","","",""
"258.985000080429","","image-keyboard-response","277","341175","0.0-6.0-0.19","","img/yellow.png","32","trial","32","true","1,0","3:go_c","",""
"null","","html-keyboard-response","278","342182","0.0-6.0-1.19","","<img src=""img/yellow-r.png"" border=""10"">","null","trial","32","","1,0","3:go_c","1",""
"null","","html-keyboard-response","279","343184","0.0-6.0-2.19","","<div style=""font-size:60px;"">+</div>","null","","","","","","",""
"null","","image-keyboard-response","280","344690","0.0-6.0-0.20","","img/red.png","null","trial","null","true","0.2,0.8","2:nogo_b","",""
"null","","html-keyboard-response","281","345695","0.0-6.0-1.20","","<img src=""img/red-r.png"">","null","trial","null","","0.2,0.8","2:nogo_b","1",""
"null","","html-keyboard-response","282","346699","0.0-6.0-2.20","","<div style=""font-size:60px;"">+</div>","null","","","","","","",""
"null","","image-keyboard-response","283","348201","0.0-6.0-0.21","","img/yellow.png","null","trial","32","false","1,0","3:go_c","",""
"null","","html-keyboard-response","284","349207","0.0-6.0-1.21","","<img src=""img/yellow-n.png"">","null","trial","32","","1,0","3:go_c","0",""
"null","","html-keyboard-response","285","350211","0.0-6.0-2.21","","<div style=""font-size:60px;"">+</div>","null","","","","","","",""
"443.37500003166497","","image-keyboard-response","286","350655","0.0-6.0-0.22","","img/purple.png","32","trial","32","true","0.8,0.2","1:go_a","",""
"null","","html-keyboard-response","287","351661","0.0-6.0-1.22","","<img src=""img/purple-r.png"" border=""10"">","null","trial","32","","0.8,0.2","1:go_a","1",""
"null","","html-keyboard-response","288","352667","0.0-6.0-2.22","","<div style=""font-size:60px;"">+</div>","null","","","","","","",""
"562.4949999619275","","image-keyboard-response","289","353230","0.0-6.0-0.23","","img/pink.png","32","trial","null","false","0,1","4:nogo_d","",""
"null","","html-keyboard-response","290","354235","0.0-6.0-1.23","","<img src=""img/pink-n.png"" border=""10"">","null","trial","null","","0,1","4:nogo_d","0",""
"null","","html-keyboard-response","291","355241","0.0-6.0-2.23","","<div style=""font-size:60px;"">+</div>","null","","","","","","",""
"629.7799999592826","","image-keyboard-response","292","355872","0.0-6.0-0.24","","img/pink.png","32","trial","null","false","0,1","4:nogo_d","",""
"null","","html-keyboard-response","293","356878","0.0-6.0-1.24","","<img src=""img/pink-n.png"" border=""10"">","null","trial","null","","0,1","4:nogo_d","0",""
"null","","html-keyboard-response","294","357880","0.0-6.0-2.24","","<div style=""font-size:60px;"">+</div>","null","","","","","","",""
"257.36499996855855","","image-keyboard-response","295","358139","0.0-6.0-0.25","","img/red.png","32","trial","null","false","0.2,0.8","2:nogo_b","",""
"null","","html-keyboard-response","296","359145","0.0-6.0-1.25","","<img src=""img/red-n.png"" border=""10"">","null","trial","null","","0.2,0.8","2:nogo_b","0",""
"null","","html-keyboard-response","297","360150","0.0-6.0-2.25","","<div style=""font-size:60px;"">+</div>","null","","","","","","",""
"234.18500006664544","","image-keyboard-response","298","360385","0.0-6.0-0.26","","img/purple.png","32","trial","32","true","0.8,0.2","1:go_a","",""
"null","","html-keyboard-response","299","361392","0.0-6.0-1.26","","<img src=""img/purple-r.png"" border=""10"">","null","trial","32","","0.8,0.2","1:go_a","1",""
"null","","html-keyboard-response","300","362395","0.0-6.0-2.26","","<div style=""font-size:60px;"">+</div>","null","","","","","","",""
"null","","image-keyboard-response","301","363902","0.0-6.0-0.27","","img/yellow.png","null","trial","32","false","1,0","3:go_c","",""
"null","","html-keyboard-response","302","364909","0.0-6.0-1.27","","<img src=""img/yellow-n.png"">","null","trial","32","","1,0","3:go_c","0",""
"null","","html-keyboard-response","303","365912","0.0-6.0-2.27","","<div style=""font-size:60px;"">+</div>","null","","","","","","",""
"284.3550000106916","","image-keyboard-response","304","366198","0.0-6.0-0.28","","img/red.png","32","trial","null","false","0.2,0.8","2:nogo_b","",""
"null","","html-keyboard-response","305","367205","0.0-6.0-1.28","","<img src=""img/red-n.png"" border=""10"">","null","trial","null","","0.2,0.8","2:nogo_b","0",""
"null","","html-keyboard-response","306","368209","0.0-6.0-2.28","","<div style=""font-size:60px;"">+</div>","null","","","","","","",""
"398.32499995827675","","image-keyboard-response","307","368609","0.0-6.0-0.29","","img/yellow.png","32","trial","32","true","1,0","3:go_c","",""
"null","","html-keyboard-response","308","369612","0.0-6.0-1.29","","<img src=""img/yellow-r.png"" border=""10"">","null","trial","32","","1,0","3:go_c","1",""
"null","","html-keyboard-response","309","370618","0.0-6.0-2.29","","<div style=""font-size:60px;"">+</div>","null","","","","","","",""
"437.7500000409782","","image-keyboard-response","310","371057","0.0-6.0-0.30","","img/purple.png","32","trial","32","true","0.8,0.2","1:go_a","",""
"null","","html-keyboard-response","311","372060","0.0-6.0-1.30","","<img src=""img/purple-n.png"" border=""10"">","null","trial","32","","0.8,0.2","1:go_a","0",""
"null","","html-keyboard-response","312","373063","0.0-6.0-2.30","","<div style=""font-size:60px;"">+</div>","null","","","","","","",""
"1376.520000048913","","image-keyboard-response","313","374441","0.0-6.0-0.31","","img/pink.png","32","trial","null","false","0,1","4:nogo_d","",""
"null","","html-keyboard-response","314","375443","0.0-6.0-1.31","","<img src=""img/pink-n.png"" border=""10"">","null","trial","null","","0,1","4:nogo_d","0",""
"null","","html-keyboard-response","315","376447","0.0-6.0-2.31","","<div style=""font-size:60px;"">+</div>","null","","","","","","",""
"506.53500005137175","","image-keyboard-response","316","376955","0.0-6.0-0.32","","img/red.png","32","trial","null","false","0.2,0.8","2:nogo_b","",""
"null","","html-keyboard-response","317","377958","0.0-6.0-1.32","","<img src=""img/red-n.png"" border=""10"">","null","trial","null","","0.2,0.8","2:nogo_b","0",""
"null","","html-keyboard-response","318","378960","0.0-6.0-2.32","","<div style=""font-size:60px;"">+</div>","null","","","","","","",""
"354.920000070706","","image-keyboard-response","319","379316","0.0-6.0-0.33","","img/pink.png","32","trial","null","false","0,1","4:nogo_d","",""
"null","","html-keyboard-response","320","380321","0.0-6.0-1.33","","<img src=""img/pink-n.png"" border=""10"">","null","trial","null","","0,1","4:nogo_d","0",""
"null","","html-keyboard-response","321","381327","0.0-6.0-2.33","","<div style=""font-size:60px;"">+</div>","null","","","","","","",""
"null","","image-keyboard-response","322","382831","0.0-6.0-0.34","","img/yellow.png","null","trial","32","false","1,0","3:go_c","",""
"null","","html-keyboard-response","323","383837","0.0-6.0-1.34","","<img src=""img/yellow-n.png"">","null","trial","32","","1,0","3:go_c","0",""
"null","","html-keyboard-response","324","384839","0.0-6.0-2.34","","<div style=""font-size:60px;"">+</div>","null","","","","","","",""
"697.5349999265745","","image-keyboard-response","325","385537","0.0-6.0-0.35","","img/purple.png","32","trial","32","true","0.8,0.2","1:go_a","",""
"null","","html-keyboard-response","326","386544","0.0-6.0-1.35","","<img src=""img/purple-r.png"" border=""10"">","null","trial","32","","0.8,0.2","1:go_a","1",""
"null","","html-keyboard-response","327","387547","0.0-6.0-2.35","","<div style=""font-size:60px;"">+</div>","null","","","","","","",""
"1352.6750000892207","","image-keyboard-response","328","388902","0.0-6.0-0.36","","img/purple.png","32","trial","32","true","0.8,0.2","1:go_a","",""
"null","","html-keyboard-response","329","389905","0.0-6.0-1.36","","<img src=""img/purple-r.png"" border=""10"">","null","trial","32","","0.8,0.2","1:go_a","1",""
"null","","html-keyboard-response","330","390917","0.0-6.0-2.36","","<div style=""font-size:60px;"">+</div>","null","","","","","","",""
"null","","image-keyboard-response","331","392422","0.0-6.0-0.37","","img/red.png","null","trial","null","true","0.2,0.8","2:nogo_b","",""
"null","","html-keyboard-response","332","393428","0.0-6.0-1.37","","<img src=""img/red-r.png"">","null","trial","null","","0.2,0.8","2:nogo_b","1",""
"null","","html-keyboard-response","333","394432","0.0-6.0-2.37","","<div style=""font-size:60px;"">+</div>","null","","","","","","",""
"null","","image-keyboard-response","334","395935","0.0-6.0-0.38","","img/yellow.png","null","trial","32","false","1,0","3:go_c","",""
"null","","html-keyboard-response","335","396941","0.0-6.0-1.38","","<img src=""img/yellow-n.png"">","null","trial","32","","1,0","3:go_c","0",""
"null","","html-keyboard-response","336","397945","0.0-6.0-2.38","","<div style=""font-size:60px;"">+</div>","null","","","","","","",""
"444.0300000132993","","image-keyboard-response","337","398390","0.0-6.0-0.39","","img/pink.png","32","trial","null","false","0,1","4:nogo_d","",""
"null","","html-keyboard-response","338","399398","0.0-6.0-1.39","","<img src=""img/pink-n.png"" border=""10"">","null","trial","null","","0,1","4:nogo_d","0",""
"null","","html-keyboard-response","339","400403","0.0-6.0-2.39","","<div style=""font-size:60px;"">+</div>","null","","","","","","",""
"797.5449999794364","","image-keyboard-response","340","401202","0.0-6.0-0.40","","img/purple.png","32","trial","32","true","0.8,0.2","1:go_a","",""
"null","","html-keyboard-response","341","402206","0.0-6.0-1.40","","<img src=""img/purple-r.png"" border=""10"">","null","trial","32","","0.8,0.2","1:go_a","1",""
"null","","html-keyboard-response","342","403212","0.0-6.0-2.40","","<div style=""font-size:60px;"">+</div>","null","","","","","","",""
"933.8549999520183","","image-keyboard-response","343","404147","0.0-6.0-0.41","","img/yellow.png","32","trial","32","true","1,0","3:go_c","",""
"null","","html-keyboard-response","344","405153","0.0-6.0-1.41","","<img src=""img/yellow-r.png"" border=""10"">","null","trial","32","","1,0","3:go_c","1",""
"null","","html-keyboard-response","345","406157","0.0-6.0-2.41","","<div style=""font-size:60px;"">+</div>","null","","","","","","",""
"null","","image-keyboard-response","346","407663","0.0-6.0-0.42","","img/red.png","null","trial","null","true","0.2,0.8","2:nogo_b","",""
"null","","html-keyboard-response","347","408666","0.0-6.0-1.42","","<img src=""img/red-r.png"">","null","trial","null","","0.2,0.8","2:nogo_b","1",""
"null","","html-keyboard-response","348","409672","0.0-6.0-2.42","","<div style=""font-size:60px;"">+</div>","null","","","","","","",""
"null","","image-keyboard-response","349","411174","0.0-6.0-0.43","","img/pink.png","null","trial","null","true","0,1","4:nogo_d","",""
"null","","html-keyboard-response","350","412181","0.0-6.0-1.43","","<img src=""img/pink-r.png"">","null","trial","null","","0,1","4:nogo_d","1",""
"null","","html-keyboard-response","351","413183","0.0-6.0-2.43","","<div style=""font-size:60px;"">+</div>","null","","","","","","",""
"581.0599999967963","","image-keyboard-response","352","413766","0.0-6.0-0.44","","img/yellow.png","32","trial","32","true","1,0","3:go_c","",""
"null","","html-keyboard-response","353","414772","0.0-6.0-1.44","","<img src=""img/yellow-r.png"" border=""10"">","null","trial","32","","1,0","3:go_c","1",""
"null","","html-keyboard-response","354","415775","0.0-6.0-2.44","","<div style=""font-size:60px;"">+</div>","null","","","","","","",""
"435.36999996285886","","image-keyboard-response","355","416211","0.0-6.0-0.45","","img/purple.png","32","trial","32","true","0.8,0.2","1:go_a","",""
"null","","html-keyboard-response","356","417217","0.0-6.0-1.45","","<img src=""img/purple-r.png"" border=""10"">","null","trial","32","","0.8,0.2","1:go_a","1",""
"null","","html-keyboard-response","357","418221","0.0-6.0-2.45","","<div style=""font-size:60px;"">+</div>","null","","","","","","",""
"673.7000000430271","","image-keyboard-response","358","418896","0.0-6.0-0.46","","img/pink.png","32","trial","null","false","0,1","4:nogo_d","",""
"null","","html-keyboard-response","359","419903","0.0-6.0-1.46","","<img src=""img/pink-n.png"" border=""10"">","null","trial","null","","0,1","4:nogo_d","0",""
"null","","html-keyboard-response","360","420909","0.0-6.0-2.46","","<div style=""font-size:60px;"">+</div>","null","","","","","","",""
"null","","image-keyboard-response","361","422414","0.0-6.0-0.47","","img/red.png","null","trial","null","true","0.2,0.8","2:nogo_b","",""
"null","","html-keyboard-response","362","423418","0.0-6.0-1.47","","<img src=""img/red-n.png"">","null","trial","null","","0.2,0.8","2:nogo_b","0",""
"null","","html-keyboard-response","363","424424","0.0-6.0-2.47","","<div style=""font-size:60px;"">+</div>","null","","","","","","",""
"261.8800000054762","","image-keyboard-response","364","424687","0.0-6.0-0.48","","img/pink.png","32","trial","null","false","0,1","4:nogo_d","",""
"null","","html-keyboard-response","365","425692","0.0-6.0-1.48","","<img src=""img/pink-n.png"" border=""10"">","null","trial","null","","0,1","4:nogo_d","0",""
"null","","html-keyboard-response","366","426698","0.0-6.0-2.48","","<div style=""font-size:60px;"">+</div>","null","","","","","","",""
"938.3249999955297","","image-keyboard-response","367","427637","0.0-6.0-0.49","","img/yellow.png","32","trial","32","true","1,0","3:go_c","",""
"null","","html-keyboard-response","368","428643","0.0-6.0-1.49","","<img src=""img/yellow-r.png"" border=""10"">","null","trial","32","","1,0","3:go_c","1",""
"null","","html-keyboard-response","369","429648","0.0-6.0-2.49","","<div style=""font-size:60px;"">+</div>","null","","","","","","",""
"null","","image-keyboard-response","370","431153","0.0-6.0-0.50","","img/red.png","null","trial","null","true","0.2,0.8","2:nogo_b","",""
"null","","html-keyboard-response","371","432160","0.0-6.0-1.50","","<img src=""img/red-r.png"">","null","trial","null","","0.2,0.8","2:nogo_b","1",""
"null","","html-keyboard-response","372","433165","0.0-6.0-2.50","","<div style=""font-size:60px;"">+</div>","null","","","","","","",""
"642.214999999851","","image-keyboard-response","373","433808","0.0-6.0-0.51","","img/purple.png","32","trial","32","true","0.8,0.2","1:go_a","",""
"null","","html-keyboard-response","374","434815","0.0-6.0-1.51","","<img src=""img/purple-n.png"" border=""10"">","null","trial","32","","0.8,0.2","1:go_a","0",""
"null","","html-keyboard-response","375","435819","0.0-6.0-2.51","","<div style=""font-size:60px;"">+</div>","null","","","","","","",""
"316.08999997843057","","image-keyboard-response","376","436137","0.0-6.0-0.52","","img/pink.png","32","trial","null","false","0,1","4:nogo_d","",""
"null","","html-keyboard-response","377","437143","0.0-6.0-1.52","","<img src=""img/pink-n.png"" border=""10"">","null","trial","null","","0,1","4:nogo_d","0",""
"null","","html-keyboard-response","378","438149","0.0-6.0-2.52","","<div style=""font-size:60px;"">+</div>","null","","","","","","",""
"371.7000000178814","","image-keyboard-response","379","438522","0.0-6.0-0.53","","img/red.png","32","trial","null","false","0.2,0.8","2:nogo_b","",""
"null","","html-keyboard-response","380","439527","0.0-6.0-1.53","","<img src=""img/red-n.png"" border=""10"">","null","trial","null","","0.2,0.8","2:nogo_b","0",""
"null","","html-keyboard-response","381","440532","0.0-6.0-2.53","","<div style=""font-size:60px;"">+</div>","null","","","","","","",""
"null","","image-keyboard-response","382","442036","0.0-6.0-0.54","","img/yellow.png","null","trial","32","false","1,0","3:go_c","",""
"null","","html-keyboard-response","383","443041","0.0-6.0-1.54","","<img src=""img/yellow-n.png"">","null","trial","32","","1,0","3:go_c","0",""
"null","","html-keyboard-response","384","444044","0.0-6.0-2.54","","<div style=""font-size:60px;"">+</div>","null","","","","","","",""
"699.2800000589341","","image-keyboard-response","385","444745","0.0-6.0-0.55","","img/purple.png","32","trial","32","true","0.8,0.2","1:go_a","",""
"null","","html-keyboard-response","386","445750","0.0-6.0-1.55","","<img src=""img/purple-r.png"" border=""10"">","null","trial","32","","0.8,0.2","1:go_a","1",""
"null","","html-keyboard-response","387","446753","0.0-6.0-2.55","","<div style=""font-size:60px;"">+</div>","null","","","","","","",""
"null","","image-keyboard-response","388","448257","0.0-6.0-0.56","","img/red.png","null","trial","null","true","0.2,0.8","2:nogo_b","",""
"null","","html-keyboard-response","389","449261","0.0-6.0-1.56","","<img src=""img/red-r.png"">","null","trial","null","","0.2,0.8","2:nogo_b","1",""
"null","","html-keyboard-response","390","450267","0.0-6.0-2.56","","<div style=""font-size:60px;"">+</div>","null","","","","","","",""
"639.8899999912828","","image-keyboard-response","391","450909","0.0-6.0-0.57","","img/pink.png","32","trial","null","false","0,1","4:nogo_d","",""
"null","","html-keyboard-response","392","451911","0.0-6.0-1.57","","<img src=""img/pink-n.png"" border=""10"">","null","trial","null","","0,1","4:nogo_d","0",""
"null","","html-keyboard-response","393","452917","0.0-6.0-2.57","","<div style=""font-size:60px;"">+</div>","null","","","","","","",""
"835.2350000059232","","image-keyboard-response","394","453754","0.0-6.0-0.58","","img/yellow.png","32","trial","32","true","1,0","3:go_c","",""
"null","","html-keyboard-response","395","454762","0.0-6.0-1.58","","<img src=""img/yellow-r.png"" border=""10"">","null","trial","32","","1,0","3:go_c","1",""
"null","","html-keyboard-response","396","455763","0.0-6.0-2.58","","<div style=""font-size:60px;"">+</div>","null","","","","","","",""
"556.209999951534","","image-keyboard-response","397","456321","0.0-6.0-0.59","","img/purple.png","32","trial","32","true","0.8,0.2","1:go_a","",""
"null","","html-keyboard-response","398","457328","0.0-6.0-1.59","","<img src=""img/purple-r.png"" border=""10"">","null","trial","32","","0.8,0.2","1:go_a","1",""
"null","","html-keyboard-response","399","458334","0.0-6.0-2.59","","<div style=""font-size:60px;"">+</div>","null","","","","","","",""
"null","","image-keyboard-response","400","459838","0.0-6.0-0.60","","img/red.png","null","trial","null","true","0.2,0.8","2:nogo_b","",""
"null","","html-keyboard-response","401","460840","0.0-6.0-1.60","","<img src=""img/red-n.png"">","null","trial","null","","0.2,0.8","2:nogo_b","0",""
"null","","html-keyboard-response","402","461846","0.0-6.0-2.60","","<div style=""font-size:60px;"">+</div>","null","","","","","","",""
"804.2099999729544","","image-keyboard-response","403","462651","0.0-6.0-0.61","","img/purple.png","32","trial","32","true","0.8,0.2","1:go_a","",""
"null","","html-keyboard-response","404","463655","0.0-6.0-1.61","","<img src=""img/purple-r.png"" border=""10"">","null","trial","32","","0.8,0.2","1:go_a","1",""
"null","","html-keyboard-response","405","464660","0.0-6.0-2.61","","<div style=""font-size:60px;"">+</div>","null","","","","","","",""
"null","","image-keyboard-response","406","466163","0.0-6.0-0.62","","img/yellow.png","null","trial","32","false","1,0","3:go_c","",""
"null","","html-keyboard-response","407","467168","0.0-6.0-1.62","","<img src=""img/yellow-n.png"">","null","trial","32","","1,0","3:go_c","0",""
"null","","html-keyboard-response","408","468172","0.0-6.0-2.62","","<div style=""font-size:60px;"">+</div>","null","","","","","","",""
"812.2450000373647","","image-keyboard-response","409","468986","0.0-6.0-0.63","","img/pink.png","32","trial","null","false","0,1","4:nogo_d","",""
"null","","html-keyboard-response","410","469989","0.0-6.0-1.63","","<img src=""img/pink-n.png"" border=""10"">","null","trial","null","","0,1","4:nogo_d","0",""
"null","","html-keyboard-response","411","470991","0.0-6.0-2.63","","<div style=""font-size:60px;"">+</div>","null","","","","","","",""
"862.3149999184534","","image-keyboard-response","412","471855","0.0-6.0-0.64","","img/red.png","32","trial","null","false","0.2,0.8","2:nogo_b","",""
"null","","html-keyboard-response","413","472862","0.0-6.0-1.64","","<img src=""img/red-n.png"" border=""10"">","null","trial","null","","0.2,0.8","2:nogo_b","0",""
"null","","html-keyboard-response","414","473866","0.0-6.0-2.64","","<div style=""font-size:60px;"">+</div>","null","","","","","","",""
"663.0799999693409","","image-keyboard-response","415","474531","0.0-6.0-0.65","","img/purple.png","32","trial","32","true","0.8,0.2","1:go_a","",""
"null","","html-keyboard-response","416","475536","0.0-6.0-1.65","","<img src=""img/purple-r.png"" border=""10"">","null","trial","32","","0.8,0.2","1:go_a","1",""
"null","","html-keyboard-response","417","476539","0.0-6.0-2.65","","<div style=""font-size:60px;"">+</div>","null","","","","","","",""
"741.7650000425056","","image-keyboard-response","418","477283","0.0-6.0-0.66","","img/yellow.png","32","trial","32","true","1,0","3:go_c","",""
"null","","html-keyboard-response","419","478290","0.0-6.0-1.66","","<img src=""img/yellow-r.png"" border=""10"">","null","trial","32","","1,0","3:go_c","1",""
"null","","html-keyboard-response","420","479296","0.0-6.0-2.66","","<div style=""font-size:60px;"">+</div>","null","","","","","","",""
"null","","image-keyboard-response","421","480798","0.0-6.0-0.67","","img/pink.png","null","trial","null","true","0,1","4:nogo_d","",""
"null","","html-keyboard-response","422","481804","0.0-6.0-1.67","","<img src=""img/pink-r.png"">","null","trial","null","","0,1","4:nogo_d","1",""
"null","","html-keyboard-response","423","482807","0.0-6.0-2.67","","<div style=""font-size:60px;"">+</div>","null","","","","","","",""
"330.85999998729676","","image-keyboard-response","424","483139","0.0-6.0-0.68","","img/pink.png","32","trial","null","false","0,1","4:nogo_d","",""
"null","","html-keyboard-response","425","484147","0.0-6.0-1.68","","<img src=""img/pink-n.png"" border=""10"">","null","trial","null","","0,1","4:nogo_d","0",""
"null","","html-keyboard-response","426","485154","0.0-6.0-2.68","","<div style=""font-size:60px;"">+</div>","null","","","","","","",""
"977.8649999061599","","image-keyboard-response","427","486133","0.0-6.0-0.69","","img/purple.png","32","trial","32","true","0.8,0.2","1:go_a","",""
"null","","html-keyboard-response","428","487137","0.0-6.0-1.69","","<img src=""img/purple-r.png"" border=""10"">","null","trial","32","","0.8,0.2","1:go_a","1",""
"null","","html-keyboard-response","429","488141","0.0-6.0-2.69","","<div style=""font-size:60px;"">+</div>","null","","","","","","",""
"null","","image-keyboard-response","430","489647","0.0-6.0-0.70","","img/red.png","null","trial","null","true","0.2,0.8","2:nogo_b","",""
"null","","html-keyboard-response","431","490655","0.0-6.0-1.70","","<img src=""img/red-r.png"">","null","trial","null","","0.2,0.8","2:nogo_b","1",""
"null","","html-keyboard-response","432","491657","0.0-6.0-2.70","","<div style=""font-size:60px;"">+</div>","null","","","","","","",""
"517.5749999471009","","image-keyboard-response","433","492177","0.0-6.0-0.71","","img/yellow.png","32","trial","32","true","1,0","3:go_c","",""
"null","","html-keyboard-response","434","493182","0.0-6.0-1.71","","<img src=""img/yellow-r.png"" border=""10"">","null","trial","32","","1,0","3:go_c","1",""
"null","","html-keyboard-response","435","494184","0.0-6.0-2.71","","<div style=""font-size:60px;"">+</div>","null","","","","","","",""
"336.8999999947846","","image-keyboard-response","436","494523","0.0-6.0-0.72","","img/yellow.png","32","trial","32","true","1,0","3:go_c","",""
"null","","html-keyboard-response","437","495529","0.0-6.0-1.72","","<img src=""img/yellow-r.png"" border=""10"">","null","trial","32","","1,0","3:go_c","1",""
"null","","html-keyboard-response","438","496533","0.0-6.0-2.72","","<div style=""font-size:60px;"">+</div>","null","","","","","","",""
"287.41500002797693","","image-keyboard-response","439","496821","0.0-6.0-0.73","","img/pink.png","32","trial","null","false","0,1","4:nogo_d","",""
"null","","html-keyboard-response","440","497825","0.0-6.0-1.73","","<img src=""img/pink-n.png"" border=""10"">","null","trial","null","","0,1","4:nogo_d","0",""
"null","","html-keyboard-response","441","498830","0.0-6.0-2.73","","<div style=""font-size:60px;"">+</div>","null","","","","","","",""
"346.94499999750406","","image-keyboard-response","442","499178","0.0-6.0-0.74","","img/purple.png","32","trial","32","true","0.8,0.2","1:go_a","",""
"null","","html-keyboard-response","443","500183","0.0-6.0-1.74","","<img src=""img/purple-r.png"" border=""10"">","null","trial","32","","0.8,0.2","1:go_a","1",""
"null","","html-keyboard-response","444","501185","0.0-6.0-2.74","","<div style=""font-size:60px;"">+</div>","null","","","","","","",""
"null","","image-keyboard-response","445","502692","0.0-6.0-0.75","","img/red.png","null","trial","null","true","0.2,0.8","2:nogo_b","",""
"null","","html-keyboard-response","446","503698","0.0-6.0-1.75","","<img src=""img/red-r.png"">","null","trial","null","","0.2,0.8","2:nogo_b","1",""
"null","","html-keyboard-response","447","504700","0.0-6.0-2.75","","<div style=""font-size:60px;"">+</div>","null","","","","","","",""
"295.8050000015646","","image-keyboard-response","448","504997","0.0-6.0-0.76","","img/purple.png","32","trial","32","true","0.8,0.2","1:go_a","",""
"null","","html-keyboard-response","449","506000","0.0-6.0-1.76","","<img src=""img/purple-r.png"" border=""10"">","null","trial","32","","0.8,0.2","1:go_a","1",""
"null","","html-keyboard-response","450","507006","0.0-6.0-2.76","","<div style=""font-size:60px;"">+</div>","null","","","","","","",""
"301.47500010207295","","image-keyboard-response","451","507308","0.0-6.0-0.77","","img/red.png","32","trial","null","false","0.2,0.8","2:nogo_b","",""
"null","","html-keyboard-response","452","508314","0.0-6.0-1.77","","<img src=""img/red-n.png"" border=""10"">","null","trial","null","","0.2,0.8","2:nogo_b","0",""
"null","","html-keyboard-response","453","509317","0.0-6.0-2.77","","<div style=""font-size:60px;"">+</div>","null","","","","","","",""
"335.12000006157905","","image-keyboard-response","454","509654","0.0-6.0-0.78","","img/pink.png","32","trial","null","false","0,1","4:nogo_d","",""
"null","","html-keyboard-response","455","510660","0.0-6.0-1.78","","<img src=""img/pink-n.png"" border=""10"">","null","trial","null","","0,1","4:nogo_d","0",""
"null","","html-keyboard-response","456","511664","0.0-6.0-2.78","","<div style=""font-size:60px;"">+</div>","null","","","","","","",""
"703.3600000431761","","image-keyboard-response","457","512369","0.0-6.0-0.79","","img/yellow.png","32","trial","32","true","1,0","3:go_c","",""
"null","","html-keyboard-response","458","513377","0.0-6.0-1.79","","<img src=""img/yellow-r.png"" border=""10"">","null","trial","32","","1,0","3:go_c","1",""
"null","","html-keyboard-response","459","514381","0.0-6.0-2.79","","<div style=""font-size:60px;"">+</div>","null","","","","","","",""
"257.2500000242144","","image-keyboard-response","460","514640","0.0-6.0-0.80","","img/red.png","32","trial","null","false","0.2,0.8","2:nogo_b","",""
"null","","html-keyboard-response","461","515643","0.0-6.0-1.80","","<img src=""img/red-n.png"" border=""10"">","null","trial","null","","0.2,0.8","2:nogo_b","0",""
"null","","html-keyboard-response","462","516648","0.0-6.0-2.80","","<div style=""font-size:60px;"">+</div>","null","","","","","","",""
"513.3249999489635","","image-keyboard-response","463","517163","0.0-6.0-0.81","","img/purple.png","32","trial","32","true","0.8,0.2","1:go_a","",""
"null","","html-keyboard-response","464","518165","0.0-6.0-1.81","","<img src=""img/purple-r.png"" border=""10"">","null","trial","32","","0.8,0.2","1:go_a","1",""
"null","","html-keyboard-response","465","519168","0.0-6.0-2.81","","<div style=""font-size:60px;"">+</div>","null","","","","","","",""
"null","","image-keyboard-response","466","520670","0.0-6.0-0.82","","img/yellow.png","null","trial","32","false","1,0","3:go_c","",""
"null","","html-keyboard-response","467","521677","0.0-6.0-1.82","","<img src=""img/yellow-n.png"">","null","trial","32","","1,0","3:go_c","0",""
"null","","html-keyboard-response","468","522681","0.0-6.0-2.82","","<div style=""font-size:60px;"">+</div>","null","","","","","","",""
"268.76000000629574","","image-keyboard-response","469","522951","0.0-6.0-0.83","","img/pink.png","32","trial","null","false","0,1","4:nogo_d","",""
"null","","html-keyboard-response","470","523956","0.0-6.0-1.83","","<img src=""img/pink-n.png"" border=""10"">","null","trial","null","","0,1","4:nogo_d","0",""
"null","","html-keyboard-response","471","524961","0.0-6.0-2.83","","<div style=""font-size:60px;"">+</div>","null","","","","","","",""
"870.9100000560284","","image-keyboard-response","472","525833","0.0-6.0-0.84","","img/pink.png","32","trial","null","false","0,1","4:nogo_d","",""
"null","","html-keyboard-response","473","526835","0.0-6.0-1.84","","<img src=""img/pink-n.png"" border=""10"">","null","trial","null","","0,1","4:nogo_d","0",""
"null","","html-keyboard-response","474","527840","0.0-6.0-2.84","","<div style=""font-size:60px;"">+</div>","null","","","","","","",""
"978.4199999412522","","image-keyboard-response","475","528820","0.0-6.0-0.85","","img/yellow.png","32","trial","32","true","1,0","3:go_c","",""
"null","","html-keyboard-response","476","529827","0.0-6.0-1.85","","<img src=""img/yellow-r.png"" border=""10"">","null","trial","32","","1,0","3:go_c","1",""
"null","","html-keyboard-response","477","530833","0.0-6.0-2.85","","<div style=""font-size:60px;"">+</div>","null","","","","","","",""
"589.5899999886751","","image-keyboard-response","478","531423","0.0-6.0-0.86","","img/purple.png","32","trial","32","true","0.8,0.2","1:go_a","",""
"null","","html-keyboard-response","479","532428","0.0-6.0-1.86","","<img src=""img/purple-r.png"" border=""10"">","null","trial","32","","0.8,0.2","1:go_a","1",""
"null","","html-keyboard-response","480","533435","0.0-6.0-2.86","","<div style=""font-size:60px;"">+</div>","null","","","","","","",""
"664.225000073202","","image-keyboard-response","481","534100","0.0-6.0-0.87","","img/red.png","32","trial","null","false","0.2,0.8","2:nogo_b","",""
"null","","html-keyboard-response","482","535106","0.0-6.0-1.87","","<img src=""img/red-n.png"" border=""10"">","null","trial","null","","0.2,0.8","2:nogo_b","0",""
"null","","html-keyboard-response","483","536112","0.0-6.0-2.87","","<div style=""font-size:60px;"">+</div>","null","","","","","","",""
"762.2100000735372","","image-keyboard-response","484","536876","0.0-6.0-0.88","","img/red.png","32","trial","null","false","0.2,0.8","2:nogo_b","",""
"null","","html-keyboard-response","485","537879","0.0-6.0-1.88","","<img src=""img/red-n.png"" border=""10"">","null","trial","null","","0.2,0.8","2:nogo_b","0",""
"null","","html-keyboard-response","486","538883","0.0-6.0-2.88","","<div style=""font-size:60px;"">+</div>","null","","","","","","",""
"679.2150000110269","","image-keyboard-response","487","539564","0.0-6.0-0.89","","img/yellow.png","32","trial","32","true","1,0","3:go_c","",""
"null","","html-keyboard-response","488","540567","0.0-6.0-1.89","","<img src=""img/yellow-r.png"" border=""10"">","null","trial","32","","1,0","3:go_c","1",""
"null","","html-keyboard-response","489","541570","0.0-6.0-2.89","","<div style=""font-size:60px;"">+</div>","null","","","","","","",""
"1040.320000029169","","image-keyboard-response","490","542612","0.0-6.0-0.90","","img/pink.png","32","trial","null","false","0,1","4:nogo_d","",""
"null","","html-keyboard-response","491","543615","0.0-6.0-1.90","","<img src=""img/pink-n.png"" border=""10"">","null","trial","null","","0,1","4:nogo_d","0",""
"null","","html-keyboard-response","492","544620","0.0-6.0-2.90","","<div style=""font-size:60px;"">+</div>","null","","","","","","",""
"462.3849999625236","","image-keyboard-response","493","545084","0.0-6.0-0.91","","img/purple.png","32","trial","32","true","0.8,0.2","1:go_a","",""
"null","","html-keyboard-response","494","546087","0.0-6.0-1.91","","<img src=""img/purple-r.png"" border=""10"">","null","trial","32","","0.8,0.2","1:go_a","1",""
"null","","html-keyboard-response","495","547092","0.0-6.0-2.91","","<div style=""font-size:60px;"">+</div>","null","","","","","","",""
"null","","image-keyboard-response","496","548596","0.0-6.0-0.92","","img/yellow.png","null","trial","32","false","1,0","3:go_c","",""
"null","","html-keyboard-response","497","549601","0.0-6.0-1.92","","<img src=""img/yellow-n.png"">","null","trial","32","","1,0","3:go_c","0",""
"null","","html-keyboard-response","498","550606","0.0-6.0-2.92","","<div style=""font-size:60px;"">+</div>","null","","","","","","",""
"333.44499999657273","","image-keyboard-response","499","550940","0.0-6.0-0.93","","img/red.png","32","trial","null","false","0.2,0.8","2:nogo_b","",""
"null","","html-keyboard-response","500","551947","0.0-6.0-1.93","","<img src=""img/red-n.png"" border=""10"">","null","trial","null","","0.2,0.8","2:nogo_b","0",""
"null","","html-keyboard-response","501","552951","0.0-6.0-2.93","","<div style=""font-size:60px;"">+</div>","null","","","","","","",""
"585.5699999956414","","image-keyboard-response","502","553538","0.0-6.0-0.94","","img/pink.png","32","trial","null","false","0,1","4:nogo_d","",""
"null","","html-keyboard-response","503","554546","0.0-6.0-1.94","","<img src=""img/pink-n.png"" border=""10"">","null","trial","null","","0,1","4:nogo_d","0",""
"null","","html-keyboard-response","504","555552","0.0-6.0-2.94","","<div style=""font-size:60px;"">+</div>","null","","","","","","",""
"989.7300000302494","","image-keyboard-response","505","556543","0.0-6.0-0.95","","img/purple.png","32","trial","32","true","0.8,0.2","1:go_a","",""
"null","","html-keyboard-response","506","557547","0.0-6.0-1.95","","<img src=""img/purple-r.png"" border=""10"">","null","trial","32","","0.8,0.2","1:go_a","1",""
"null","","html-keyboard-response","507","558552","0.0-6.0-2.95","","<div style=""font-size:60px;"">+</div>","null","","","","","","",""
"null","","image-keyboard-response","508","560055","0.0-6.0-0.96","","img/yellow.png","null","trial","32","false","1,0","3:go_c","",""
"null","","html-keyboard-response","509","561058","0.0-6.0-1.96","","<img src=""img/yellow-n.png"">","null","trial","32","","1,0","3:go_c","0",""
"null","","html-keyboard-response","510","562058","0.0-6.0-2.96","","<div style=""font-size:60px;"">+</div>","null","","","","","","",""
"949.3250000523403","","image-keyboard-response","511","563009","0.0-6.0-0.97","","img/purple.png","32","trial","32","true","0.8,0.2","1:go_a","",""
"null","","html-keyboard-response","512","564012","0.0-6.0-1.97","","<img src=""img/purple-r.png"" border=""10"">","null","trial","32","","0.8,0.2","1:go_a","1",""
"null","","html-keyboard-response","513","565014","0.0-6.0-2.97","","<div style=""font-size:60px;"">+</div>","null","","","","","","",""
"null","","image-keyboard-response","514","566521","0.0-6.0-0.98","","img/red.png","null","trial","null","true","0.2,0.8","2:nogo_b","",""
"null","","html-keyboard-response","515","567523","0.0-6.0-1.98","","<img src=""img/red-r.png"">","null","trial","null","","0.2,0.8","2:nogo_b","1",""
"null","","html-keyboard-response","516","568525","0.0-6.0-2.98","","<div style=""font-size:60px;"">+</div>","null","","","","","","",""
"null","","image-keyboard-response","517","570031","0.0-6.0-0.99","","img/pink.png","null","trial","null","true","0,1","4:nogo_d","",""
"null","","html-keyboard-response","518","571036","0.0-6.0-1.99","","<img src=""img/pink-r.png"">","null","trial","null","","0,1","4:nogo_d","1",""
"null","","html-keyboard-response","519","572040","0.0-6.0-2.99","","<div style=""font-size:60px;"">+</div>","null","","","","","","",""
"484.5249999780208","","image-keyboard-response","520","572526","0.0-6.0-0.100","","img/yellow.png","32","trial","32","true","1,0","3:go_c","",""
"null","","html-keyboard-response","521","573532","0.0-6.0-1.100","","<img src=""img/yellow-r.png"" border=""10"">","null","trial","32","","1,0","3:go_c","1",""
"null","","html-keyboard-response","522","574537","0.0-6.0-2.100","","<div style=""font-size:60px;"">+</div>","null","","","","","","",""
"555.4700000211596","","image-keyboard-response","523","575094","0.0-6.0-0.101","","img/purple.png","32","trial","32","true","0.8,0.2","1:go_a","",""
"null","","html-keyboard-response","524","576099","0.0-6.0-1.101","","<img src=""img/purple-n.png"" border=""10"">","null","trial","32","","0.8,0.2","1:go_a","0",""
"null","","html-keyboard-response","525","577104","0.0-6.0-2.101","","<div style=""font-size:60px;"">+</div>","null","","","","","","",""
"321.4000000152737","","image-keyboard-response","526","577428","0.0-6.0-0.102","","img/pink.png","32","trial","null","false","0,1","4:nogo_d","",""
"null","","html-keyboard-response","527","578433","0.0-6.0-1.102","","<img src=""img/pink-n.png"" border=""10"">","null","trial","null","","0,1","4:nogo_d","0",""
"null","","html-keyboard-response","528","579437","0.0-6.0-2.102","","<div style=""font-size:60px;"">+</div>","null","","","","","","",""
"632.7949999831617","","image-keyboard-response","529","580071","0.0-6.0-0.103","","img/red.png","32","trial","null","false","0.2,0.8","2:nogo_b","",""
"null","","html-keyboard-response","530","581074","0.0-6.0-1.103","","<img src=""img/red-n.png"" border=""10"">","null","trial","null","","0.2,0.8","2:nogo_b","0",""
"null","","html-keyboard-response","531","582076","0.0-6.0-2.103","","<div style=""font-size:60px;"">+</div>","null","","","","","","",""
"917.6649999571964","","image-keyboard-response","532","582995","0.0-6.0-0.104","","img/red.png","32","trial","null","false","0.2,0.8","2:nogo_b","",""
"null","","html-keyboard-response","533","584000","0.0-6.0-1.104","","<img src=""img/red-n.png"" border=""10"">","null","trial","null","","0.2,0.8","2:nogo_b","0",""
"null","","html-keyboard-response","534","585004","0.0-6.0-2.104","","<div style=""font-size:60px;"">+</div>","null","","","","","","",""
"null","","image-keyboard-response","535","586508","0.0-6.0-0.105","","img/yellow.png","null","trial","32","false","1,0","3:go_c","",""
"null","","html-keyboard-response","536","587515","0.0-6.0-1.105","","<img src=""img/yellow-n.png"">","null","trial","32","","1,0","3:go_c","0",""
"null","","html-keyboard-response","537","588517","0.0-6.0-2.105","","<div style=""font-size:60px;"">+</div>","null","","","","","","",""
"422.98499995376915","","image-keyboard-response","538","588942","0.0-6.0-0.106","","img/pink.png","32","trial","null","false","0,1","4:nogo_d","",""
"null","","html-keyboard-response","539","589944","0.0-6.0-1.106","","<img src=""img/pink-n.png"" border=""10"">","null","trial","null","","0,1","4:nogo_d","0",""
"null","","html-keyboard-response","540","590949","0.0-6.0-2.106","","<div style=""font-size:60px;"">+</div>","null","","","","","","",""
"1041.8099999660626","","image-keyboard-response","541","591992","0.0-6.0-0.107","","img/purple.png","32","trial","32","true","0.8,0.2","1:go_a","",""
"null","","html-keyboard-response","542","592996","0.0-6.0-1.107","","<img src=""img/purple-r.png"" border=""10"">","null","trial","32","","0.8,0.2","1:go_a","1",""
"null","","html-keyboard-response","543","594001","0.0-6.0-2.107","","<div style=""font-size:60px;"">+</div>","null","","","","","","",""
"892.2399999573827","","image-keyboard-response","544","594894","0.0-6.0-0.108","","img/purple.png","32","trial","32","true","0.8,0.2","1:go_a","",""
"null","","html-keyboard-response","545","595901","0.0-6.0-1.108","","<img src=""img/purple-r.png"" border=""10"">","null","trial","32","","0.8,0.2","1:go_a","1",""
"null","","html-keyboard-response","546","596906","0.0-6.0-2.108","","<div style=""font-size:60px;"">+</div>","null","","","","","","",""
"459.12500005215406","","image-keyboard-response","547","597366","0.0-6.0-0.109","","img/yellow.png","32","trial","32","true","1,0","3:go_c","",""
"null","","html-keyboard-response","548","598372","0.0-6.0-1.109","","<img src=""img/yellow-r.png"" border=""10"">","null","trial","32","","1,0","3:go_c","1",""
"null","","html-keyboard-response","549","599374","0.0-6.0-2.109","","<div style=""font-size:60px;"">+</div>","null","","","","","","",""
"null","","image-keyboard-response","550","600876","0.0-6.0-0.110","","img/pink.png","null","trial","null","true","0,1","4:nogo_d","",""
"null","","html-keyboard-response","551","601882","0.0-6.0-1.110","","<img src=""img/pink-r.png"">","null","trial","null","","0,1","4:nogo_d","1",""
"null","","html-keyboard-response","552","602884","0.0-6.0-2.110","","<div style=""font-size:60px;"">+</div>","null","","","","","","",""
"572.150000021793","","image-keyboard-response","553","603457","0.0-6.0-0.111","","img/red.png","32","trial","null","false","0.2,0.8","2:nogo_b","",""
"null","","html-keyboard-response","554","604465","0.0-6.0-1.111","","<img src=""img/red-n.png"" border=""10"">","null","trial","null","","0.2,0.8","2:nogo_b","0",""
"null","","html-keyboard-response","555","605469","0.0-6.0-2.111","","<div style=""font-size:60px;"">+</div>","null","","","","","","",""
"null","","image-keyboard-response","556","606973","0.0-6.0-0.112","","img/yellow.png","null","trial","32","false","1,0","3:go_c","",""
"null","","html-keyboard-response","557","607977","0.0-6.0-1.112","","<img src=""img/yellow-n.png"">","null","trial","32","","1,0","3:go_c","0",""
"null","","html-keyboard-response","558","608982","0.0-6.0-2.112","","<div style=""font-size:60px;"">+</div>","null","","","","","","",""
"805.750000057742","","image-keyboard-response","559","609789","0.0-6.0-0.113","","img/red.png","32","trial","null","false","0.2,0.8","2:nogo_b","",""
"null","","html-keyboard-response","560","610794","0.0-6.0-1.113","","<img src=""img/red-n.png"" border=""10"">","null","trial","null","","0.2,0.8","2:nogo_b","0",""
"null","","html-keyboard-response","561","611797","0.0-6.0-2.113","","<div style=""font-size:60px;"">+</div>","null","","","","","","",""
"762.4849999556318","","image-keyboard-response","562","612561","0.0-6.0-0.114","","img/purple.png","32","trial","32","true","0.8,0.2","1:go_a","",""
"null","","html-keyboard-response","563","613568","0.0-6.0-1.114","","<img src=""img/purple-r.png"" border=""10"">","null","trial","32","","0.8,0.2","1:go_a","1",""
"null","","html-keyboard-response","564","614574","0.0-6.0-2.114","","<div style=""font-size:60px;"">+</div>","null","","","","","","",""
"null","","image-keyboard-response","565","616077","0.0-6.0-0.115","","img/pink.png","null","trial","null","true","0,1","4:nogo_d","",""
"null","","html-keyboard-response","566","617080","0.0-6.0-1.115","","<img src=""img/pink-r.png"">","null","trial","null","","0,1","4:nogo_d","1",""
"null","","html-keyboard-response","567","618084","0.0-6.0-2.115","","<div style=""font-size:60px;"">+</div>","null","","","","","","",""
"470.2149999793619","","image-keyboard-response","568","618556","0.0-6.0-0.116","","img/pink.png","32","trial","null","false","0,1","4:nogo_d","",""
"null","","html-keyboard-response","569","619561","0.0-6.0-1.116","","<img src=""img/pink-n.png"" border=""10"">","null","trial","null","","0,1","4:nogo_d","0",""
"null","","html-keyboard-response","570","620563","0.0-6.0-2.116","","<div style=""font-size:60px;"">+</div>","null","","","","","","",""
"null","","image-keyboard-response","571","622066","0.0-6.0-0.117","","img/red.png","null","trial","null","true","0.2,0.8","2:nogo_b","",""
"null","","html-keyboard-response","572","623071","0.0-6.0-1.117","","<img src=""img/red-r.png"">","null","trial","null","","0.2,0.8","2:nogo_b","1",""
"null","","html-keyboard-response","573","624073","0.0-6.0-2.117","","<div style=""font-size:60px;"">+</div>","null","","","","","","",""
"446.66500005405396","","image-keyboard-response","574","624521","0.0-6.0-0.118","","img/yellow.png","32","trial","32","true","1,0","3:go_c","",""
"null","","html-keyboard-response","575","625526","0.0-6.0-1.118","","<img src=""img/yellow-r.png"" border=""10"">","null","trial","32","","1,0","3:go_c","1",""
"null","","html-keyboard-response","576","626664","0.0-6.0-2.118","","<div style=""font-size:60px;"">+</div>","null","","","","","","",""
"null","","image-keyboard-response","577","628385","0.0-6.0-0.119","","img/purple.png","null","trial","32","false","0.8,0.2","1:go_a","",""
"null","","html-keyboard-response","578","629388","0.0-6.0-1.119","","<img src=""img/purple-r.png"">","null","trial","32","","0.8,0.2","1:go_a","1",""
"null","","html-keyboard-response","579","630392","0.0-6.0-2.119","","<div style=""font-size:60px;"">+</div>","null","","","","","","",""
"112981.4250000054","","instructions","580","743377","0.0-7.0","[{""page_index"":0,""viewing_time"":112980.6249999674}]","","","","","","","","",""
"942.3050000332296","","image-keyboard-response","581","744326","0.0-8.0-0.0","","img/purple.png","32","trial","32","true","0.6,0.4","1:go_a","",""
"null","","html-keyboard-response","582","745331","0.0-8.0-1.0","","<img src=""img/purple-n.png"" border=""10"">","null","trial","32","","0.6,0.4","1:go_a","0",""
"null","","html-keyboard-response","583","746336","0.0-8.0-2.0","","<div style=""font-size:60px;"">+</div>","null","","","","","","",""
"306.80999998003244","","image-keyboard-response","584","746644","0.0-8.0-0.1","","img/orange.png","32","trial","32","true","0.6,0.4","3:go_c","",""
"null","","html-keyboard-response","585","747649","0.0-8.0-1.1","","<img src=""img/orange-n.png"" border=""10"">","null","trial","32","","0.6,0.4","3:go_c","0",""
"null","","html-keyboard-response","586","748654","0.0-8.0-2.1","","<div style=""font-size:60px;"">+</div>","null","","","","","","",""
"289.79499998968095","","image-keyboard-response","587","748945","0.0-8.0-0.2","","img/pink.png","32","trial","null","false","0.4,0.6","4:nogo_d","",""
"null","","html-keyboard-response","588","749949","0.0-8.0-1.2","","<img src=""img/pink-n.png"" border=""10"">","null","trial","null","","0.4,0.6","4:nogo_d","0",""
"null","","html-keyboard-response","589","750954","0.0-8.0-2.2","","<div style=""font-size:60px;"">+</div>","null","","","","","","",""
"374.21500007621944","","image-keyboard-response","590","751329","0.0-8.0-0.3","","img/blue.png","32","trial","null","false","0.4,0.6","2:nogo_b","",""
"null","","html-keyboard-response","591","752333","0.0-8.0-1.3","","<img src=""img/blue-n.png"" border=""10"">","null","trial","null","","0.4,0.6","2:nogo_b","0",""
"null","","html-keyboard-response","592","753337","0.0-8.0-2.3","","<div style=""font-size:60px;"">+</div>","null","","","","","","",""
"515.5499998945743","","image-keyboard-response","593","753854","0.0-8.0-0.4","","img/purple.png","32","trial","32","true","0.6,0.4","1:go_a","",""
"null","","html-keyboard-response","594","754858","0.0-8.0-1.4","","<img src=""img/purple-r.png"" border=""10"">","null","trial","32","","0.6,0.4","1:go_a","1",""
"null","","html-keyboard-response","595","755863","0.0-8.0-2.4","","<div style=""font-size:60px;"">+</div>","null","","","","","","",""
"null","","image-keyboard-response","596","757367","0.0-8.0-0.5","","img/blue.png","null","trial","null","true","0.4,0.6","2:nogo_b","",""
"null","","html-keyboard-response","597","758371","0.0-8.0-1.5","","<img src=""img/blue-r.png"">","null","trial","null","","0.4,0.6","2:nogo_b","1",""
"null","","html-keyboard-response","598","759375","0.0-8.0-2.5","","<div style=""font-size:60px;"">+</div>","null","","","","","","",""
"279.8000000184402","","image-keyboard-response","599","759656","0.0-8.0-0.6","","img/pink.png","32","trial","null","false","0.4,0.6","4:nogo_d","",""
"null","","html-keyboard-response","600","760662","0.0-8.0-1.6","","<img src=""img/pink-n.png"" border=""10"">","null","trial","null","","0.4,0.6","4:nogo_d","0",""
"null","","html-keyboard-response","601","761667","0.0-8.0-2.6","","<div style=""font-size:60px;"">+</div>","null","","","","","","",""
"null","","image-keyboard-response","602","763169","0.0-8.0-0.7","","img/orange.png","null","trial","32","false","0.6,0.4","3:go_c","",""
"null","","html-keyboard-response","603","764175","0.0-8.0-1.7","","<img src=""img/orange-n.png"">","null","trial","32","","0.6,0.4","3:go_c","0",""
"null","","html-keyboard-response","604","765177","0.0-8.0-2.7","","<div style=""font-size:60px;"">+</div>","null","","","","","","",""
"420.1500000199303","","image-keyboard-response","605","765599","0.0-8.0-0.8","","img/purple.png","32","trial","32","true","0.6,0.4","1:go_a","",""
"null","","html-keyboard-response","606","766605","0.0-8.0-1.8","","<img src=""img/purple-r.png"" border=""10"">","null","trial","32","","0.6,0.4","1:go_a","1",""
"null","","html-keyboard-response","607","767609","0.0-8.0-2.8","","<div style=""font-size:60px;"">+</div>","null","","","","","","",""
"844.9949999339879","","image-keyboard-response","608","768455","0.0-8.0-0.9","","img/pink.png","32","trial","null","false","0.4,0.6","4:nogo_d","",""
"null","","html-keyboard-response","609","769459","0.0-8.0-1.9","","<img src=""img/pink-r.png"" border=""10"">","null","trial","null","","0.4,0.6","4:nogo_d","1",""
"null","","html-keyboard-response","610","770463","0.0-8.0-2.9","","<div style=""font-size:60px;"">+</div>","null","","","","","","",""
"null","","image-keyboard-response","611","771970","0.0-8.0-0.10","","img/blue.png","null","trial","null","true","0.4,0.6","2:nogo_b","",""
"null","","html-keyboard-response","612","772973","0.0-8.0-1.10","","<img src=""img/blue-n.png"">","null","trial","null","","0.4,0.6","2:nogo_b","0",""
"null","","html-keyboard-response","613","773976","0.0-8.0-2.10","","<div style=""font-size:60px;"">+</div>","null","","","","","","",""
"null","","image-keyboard-response","614","775479","0.0-8.0-0.11","","img/orange.png","null","trial","32","false","0.6,0.4","3:go_c","",""
"null","","html-keyboard-response","615","776485","0.0-8.0-1.11","","<img src=""img/orange-n.png"">","null","trial","32","","0.6,0.4","3:go_c","0",""
"null","","html-keyboard-response","616","777490","0.0-8.0-2.11","","<div style=""font-size:60px;"">+</div>","null","","","","","","",""
"455.1650000503287","","image-keyboard-response","617","777946","0.0-8.0-0.12","","img/blue.png","32","trial","null","false","0.4,0.6","2:nogo_b","",""
"null","","html-keyboard-response","618","778952","0.0-8.0-1.12","","<img src=""img/blue-n.png"" border=""10"">","null","trial","null","","0.4,0.6","2:nogo_b","0",""
"null","","html-keyboard-response","619","779957","0.0-8.0-2.12","","<div style=""font-size:60px;"">+</div>","null","","","","","","",""
"312.47999996412545","","image-keyboard-response","620","780270","0.0-8.0-0.13","","img/purple.png","32","trial","32","true","0.6,0.4","1:go_a","",""
"null","","html-keyboard-response","621","781277","0.0-8.0-1.13","","<img src=""img/purple-n.png"" border=""10"">","null","trial","32","","0.6,0.4","1:go_a","0",""
"null","","html-keyboard-response","622","782280","0.0-8.0-2.13","","<div style=""font-size:60px;"">+</div>","null","","","","","","",""
"253.85500001721084","","image-keyboard-response","623","782535","0.0-8.0-0.14","","img/pink.png","32","trial","null","false","0.4,0.6","4:nogo_d","",""
"null","","html-keyboard-response","624","783544","0.0-8.0-1.14","","<img src=""img/pink-r.png"" border=""10"">","null","trial","null","","0.4,0.6","4:nogo_d","1",""
"null","","html-keyboard-response","625","784547","0.0-8.0-2.14","","<div style=""font-size:60px;"">+</div>","null","","","","","","",""
"null","","image-keyboard-response","626","786053","0.0-8.0-0.15","","img/orange.png","null","trial","32","false","0.6,0.4","3:go_c","",""
"null","","html-keyboard-response","627","787628","0.0-8.0-1.15","","<img src=""img/orange-r.png"">","null","trial","32","","0.6,0.4","3:go_c","1",""
"null","","html-keyboard-response","628","788632","0.0-8.0-2.15","","<div style=""font-size:60px;"">+</div>","null","","","","","","",""
"464.48500000406057","","image-keyboard-response","629","789099","0.0-8.0-0.16","","img/blue.png","32","trial","null","false","0.4,0.6","2:nogo_b","",""
"null","","html-keyboard-response","630","790103","0.0-8.0-1.16","","<img src=""img/blue-r.png"" border=""10"">","null","trial","null","","0.4,0.6","2:nogo_b","1",""
"null","","html-keyboard-response","631","791106","0.0-8.0-2.16","","<div style=""font-size:60px;"">+</div>","null","","","","","","",""
"312.19500000588596","","image-keyboard-response","632","791420","0.0-8.0-0.17","","img/pink.png","32","trial","null","false","0.4,0.6","4:nogo_d","",""
"null","","html-keyboard-response","633","792424","0.0-8.0-1.17","","<img src=""img/pink-n.png"" border=""10"">","null","trial","null","","0.4,0.6","4:nogo_d","0",""
"null","","html-keyboard-response","634","793428","0.0-8.0-2.17","","<div style=""font-size:60px;"">+</div>","null","","","","","","",""
"276.5099999960512","","image-keyboard-response","635","793706","0.0-8.0-0.18","","img/purple.png","32","trial","32","true","0.6,0.4","1:go_a","",""
"null","","html-keyboard-response","636","794714","0.0-8.0-1.18","","<img src=""img/purple-r.png"" border=""10"">","null","trial","32","","0.6,0.4","1:go_a","1",""
"null","","html-keyboard-response","637","795718","0.0-8.0-2.18","","<div style=""font-size:60px;"">+</div>","null","","","","","","",""
"872.6249999599531","","image-keyboard-response","638","796592","0.0-8.0-0.19","","img/orange.png","32","trial","32","true","0.6,0.4","3:go_c","",""
"null","","html-keyboard-response","639","797596","0.0-8.0-1.19","","<img src=""img/orange-n.png"" border=""10"">","null","trial","32","","0.6,0.4","3:go_c","0",""
"null","","html-keyboard-response","640","798601","0.0-8.0-2.19","","<div style=""font-size:60px;"">+</div>","null","","","","","","",""
"366.3749999832362","","image-keyboard-response","641","798969","0.0-8.0-0.20","","img/orange.png","32","trial","32","true","0.6,0.4","3:go_c","",""
"null","","html-keyboard-response","642","799975","0.0-8.0-1.20","","<img src=""img/orange-n.png"" border=""10"">","null","trial","32","","0.6,0.4","3:go_c","0",""
"null","","html-keyboard-response","643","800979","0.0-8.0-2.20","","<div style=""font-size:60px;"">+</div>","null","","","","","","",""
"895.1499999966472","","image-keyboard-response","644","801875","0.0-8.0-0.21","","img/blue.png","32","trial","null","false","0.4,0.6","2:nogo_b","",""
"null","","html-keyboard-response","645","802879","0.0-8.0-1.21","","<img src=""img/blue-n.png"" border=""10"">","null","trial","null","","0.4,0.6","2:nogo_b","0",""
"null","","html-keyboard-response","646","803882","0.0-8.0-2.21","","<div style=""font-size:60px;"">+</div>","null","","","","","","",""
"581.9149999879301","","image-keyboard-response","647","804465","0.0-8.0-0.22","","img/purple.png","32","trial","32","true","0.6,0.4","1:go_a","",""
"null","","html-keyboard-response","648","805468","0.0-8.0-1.22","","<img src=""img/purple-n.png"" border=""10"">","null","trial","32","","0.6,0.4","1:go_a","0",""
"null","","html-keyboard-response","649","806474","0.0-8.0-2.22","","<div style=""font-size:60px;"">+</div>","null","","","","","","",""
"null","","image-keyboard-response","650","807976","0.0-8.0-0.23","","img/pink.png","null","trial","null","true","0.4,0.6","4:nogo_d","",""
"null","","html-keyboard-response","651","808982","0.0-8.0-1.23","","<img src=""img/pink-r.png"">","null","trial","null","","0.4,0.6","4:nogo_d","1",""
"null","","html-keyboard-response","652","809985","0.0-8.0-2.23","","<div style=""font-size:60px;"">+</div>","null","","","","","","",""
"338.63999997265637","","image-keyboard-response","653","810325","0.0-8.0-0.24","","img/orange.png","32","trial","32","true","0.6,0.4","3:go_c","",""
"null","","html-keyboard-response","654","811330","0.0-8.0-1.24","","<img src=""img/orange-r.png"" border=""10"">","null","trial","32","","0.6,0.4","3:go_c","1",""
"null","","html-keyboard-response","655","812336","0.0-8.0-2.24","","<div style=""font-size:60px;"">+</div>","null","","","","","","",""
"479.384999955073","","image-keyboard-response","656","812817","0.0-8.0-0.25","","img/blue.png","32","trial","null","false","0.4,0.6","2:nogo_b","",""
"null","","html-keyboard-response","657","813822","0.0-8.0-1.25","","<img src=""img/blue-r.png"" border=""10"">","null","trial","null","","0.4,0.6","2:nogo_b","1",""
"null","","html-keyboard-response","658","814827","0.0-8.0-2.25","","<div style=""font-size:60px;"">+</div>","null","","","","","","",""
"311.9900000747293","","image-keyboard-response","659","815140","0.0-8.0-0.26","","img/pink.png","32","trial","null","false","0.4,0.6","4:nogo_d","",""
"null","","html-keyboard-response","660","816144","0.0-8.0-1.26","","<img src=""img/pink-n.png"" border=""10"">","null","trial","null","","0.4,0.6","4:nogo_d","0",""
"null","","html-keyboard-response","661","817631","0.0-8.0-2.26","","<div style=""font-size:60px;"">+</div>","null","","","","","","",""
"null","","image-keyboard-response","662","819134","0.0-8.0-0.27","","img/purple.png","null","trial","32","false","0.6,0.4","1:go_a","",""
"null","","html-keyboard-response","663","820139","0.0-8.0-1.27","","<img src=""img/purple-n.png"">","null","trial","32","","0.6,0.4","1:go_a","0",""
"null","","html-keyboard-response","664","821144","0.0-8.0-2.27","","<div style=""font-size:60px;"">+</div>","null","","","","","","",""
"276.0599999455735","","image-keyboard-response","665","821421","0.0-8.0-0.28","","img/orange.png","32","trial","32","true","0.6,0.4","3:go_c","",""
"null","","html-keyboard-response","666","822427","0.0-8.0-1.28","","<img src=""img/orange-n.png"" border=""10"">","null","trial","32","","0.6,0.4","3:go_c","0",""
"null","","html-keyboard-response","667","823431","0.0-8.0-2.28","","<div style=""font-size:60px;"">+</div>","null","","","","","","",""
"322.26000004447997","","image-keyboard-response","668","823755","0.0-8.0-0.29","","img/pink.png","32","trial","null","false","0.4,0.6","4:nogo_d","",""
"null","","html-keyboard-response","669","824761","0.0-8.0-1.29","","<img src=""img/pink-r.png"" border=""10"">","null","trial","null","","0.4,0.6","4:nogo_d","1",""
"null","","html-keyboard-response","670","825765","0.0-8.0-2.29","","<div style=""font-size:60px;"">+</div>","null","","","","","","",""
"484.569999971427","","image-keyboard-response","671","826252","0.0-8.0-0.30","","img/blue.png","32","trial","null","false","0.4,0.6","2:nogo_b","",""
"null","","html-keyboard-response","672","827257","0.0-8.0-1.30","","<img src=""img/blue-r.png"" border=""10"">","null","trial","null","","0.4,0.6","2:nogo_b","1",""
"null","","html-keyboard-response","673","828261","0.0-8.0-2.30","","<div style=""font-size:60px;"">+</div>","null","","","","","","",""
"341.3650000002235","","image-keyboard-response","674","828604","0.0-8.0-0.31","","img/purple.png","32","trial","32","true","0.6,0.4","1:go_a","",""
"null","","html-keyboard-response","675","829607","0.0-8.0-1.31","","<img src=""img/purple-n.png"" border=""10"">","null","trial","32","","0.6,0.4","1:go_a","0",""
