"rt","url","trial_type","trial_index","time_elapsed","internal_node_id","view_history","stimulus","key_press","test_part","correct_response","correct","use_rew","which_stim","reward","responses"
"28887.600000023842","consent.html","external-html","0","29017","0.0-0.0","","","","","","","","","",""
"158107.89999997616","","instructions","1","187127","0.0-1.0","[{""page_index"":0,""viewing_time"":8259.899999976158},{""page_index"":1,""viewing_time"":32763.300000071526},{""page_index"":2,""viewing_time"":9802.699999928474},{""page_index"":3,""viewing_time"":48369.40000009537},{""page_index"":4,""viewing_time"":22642.099999904633},{""page_index"":5,""viewing_time"":14413.5},{""page_index"":6,""viewing_time"":21856.5}]","","","","","","","","",""
"null","","image-keyboard-response","2","188628","0.0-2.0-0.0","","img/test3.PNG","null","practice","null","true","","","",""
"null","","html-keyboard-response","3","189630","0.0-2.0-1.0","","<img src=""img/test3-reward.PNG"">","null","","","","","","",""
"null","","html-keyboard-response","4","190632","0.0-2.0-2.0","","<div style=""font-size:60px;"">+</div>","null","","","","","","",""
"439.1999999284744","","image-keyboard-response","5","191072","0.0-2.0-0.1","","img/test1.PNG","32","practice","32","true","","","",""
"null","","html-keyboard-response","6","192074","0.0-2.0-1.1","","<img src=""img/test1-reward.PNG"" border=""10px; grey"">","null","","","","","","",""
"null","","html-keyboard-response","7","193076","0.0-2.0-2.1","","<div style=""font-size:60px;"">+</div>","null","","","","","","",""
"null","","image-keyboard-response","8","194577","0.0-2.0-0.2","","img/test2.PNG","null","practice","null","true","","","",""
"null","","html-keyboard-response","9","195578","0.0-2.0-1.2","","<img src=""img/test2-reward.PNG"">","null","","","","","","",""
"null","","html-keyboard-response","10","196579","0.0-2.0-2.2","","<div style=""font-size:60px;"">+</div>","null","","","","","","",""
"524","","image-keyboard-response","11","197103","0.0-2.0-0.3","","img/test1.PNG","32","practice","32","true","","","",""
"null","","html-keyboard-response","12","198105","0.0-2.0-1.3","","<img src=""img/test1-reward.PNG"" border=""10px; grey"">","null","","","","","","",""
"null","","html-keyboard-response","13","199106","0.0-2.0-2.3","","<div style=""font-size:60px;"">+</div>","null","","","","","","",""
"null","","image-keyboard-response","14","200609","0.0-2.0-0.4","","img/test2.PNG","null","practice","null","true","","","",""
"null","","html-keyboard-response","15","201610","0.0-2.0-1.4","","<img src=""img/test2-reward.PNG"">","null","","","","","","",""
"null","","html-keyboard-response","16","202617","0.0-2.0-2.4","","<div style=""font-size:60px;"">+</div>","null","","","","","","",""
"null","","image-keyboard-response","17","204118","0.0-2.0-0.5","","img/test3.PNG","null","practice","null","true","","","",""
"null","","html-keyboard-response","18","205119","0.0-2.0-1.5","","<img src=""img/test3-reward.PNG"">","null","","","","","","",""
"null","","html-keyboard-response","19","206120","0.0-2.0-2.5","","<div style=""font-size:60px;"">+</div>","null","","","","","","",""
"462.39999997615814","","image-keyboard-response","20","206583","0.0-2.0-0.6","","img/test1.PNG","32","practice","32","true","","","",""
"null","","html-keyboard-response","21","207585","0.0-2.0-1.6","","<img src=""img/test1-reward.PNG"" border=""10px; grey"">","null","","","","","","",""
"null","","html-keyboard-response","22","208585","0.0-2.0-2.6","","<div style=""font-size:60px;"">+</div>","null","","","","","","",""
"null","","image-keyboard-response","23","210086","0.0-2.0-0.7","","img/test2.PNG","null","practice","null","true","","","",""
"null","","html-keyboard-response","24","211088","0.0-2.0-1.7","","<img src=""img/test2-reward.PNG"">","null","","","","","","",""
"null","","html-keyboard-response","25","212089","0.0-2.0-2.7","","<div style=""font-size:60px;"">+</div>","null","","","","","","",""
"null","","image-keyboard-response","26","213590","0.0-2.0-0.8","","img/test3.PNG","null","practice","null","true","","","",""
"null","","html-keyboard-response","27","214602","0.0-2.0-1.8","","<img src=""img/test3-reward.PNG"">","null","","","","","","",""
"null","","html-keyboard-response","28","215603","0.0-2.0-2.8","","<div style=""font-size:60px;"">+</div>","null","","","","","","",""
"null","","image-keyboard-response","29","217104","0.0-2.0-0.9","","img/test2.PNG","null","practice","null","true","","","",""
"null","","html-keyboard-response","30","218106","0.0-2.0-1.9","","<img src=""img/test2-reward.PNG"">","null","","","","","","",""
"null","","html-keyboard-response","31","219107","0.0-2.0-2.9","","<div style=""font-size:60px;"">+</div>","null","","","","","","",""
"460.5","","image-keyboard-response","32","219568","0.0-2.0-0.10","","img/test1.PNG","32","practice","32","true","","","",""
"null","","html-keyboard-response","33","220570","0.0-2.0-1.10","","<img src=""img/test1-reward.PNG"" border=""10px; grey"">","null","","","","","","",""
"null","","html-keyboard-response","34","221571","0.0-2.0-2.10","","<div style=""font-size:60px;"">+</div>","null","","","","","","",""
"null","","image-keyboard-response","35","223072","0.0-2.0-0.11","","img/test3.PNG","null","practice","null","true","","","",""
"null","","html-keyboard-response","36","224074","0.0-2.0-1.11","","<img src=""img/test3-reward.PNG"">","null","","","","","","",""
"null","","html-keyboard-response","37","225075","0.0-2.0-2.11","","<div style=""font-size:60px;"">+</div>","null","","","","","","",""
"5830","","instructions","38","230905","0.0-3.0","[{""page_index"":0,""viewing_time"":5829.899999976158}]","","","","","","","","",""
"1142.1000000238419","","image-keyboard-response","39","232048","0.0-4.0-0.0","","img/blue.png","32","trial","32","true","0.8,0.2","1:go_a","",""
"null","","html-keyboard-response","40","233053","0.0-4.0-1.0","","<img src=""img/blue-r.png"" border=""10"">","null","trial","32","","0.8,0.2","1:go_a","1",""
"null","","html-keyboard-response","41","234055","0.0-4.0-2.0","","<div style=""font-size:60px;"">+</div>","null","","","","","","",""
"1056.3999999761581","","image-keyboard-response","42","235112","0.0-4.0-0.1","","img/purple.png","32","trial","null","false","0.2,0.8","2:nogo_b","",""
"null","","html-keyboard-response","43","236114","0.0-4.0-1.1","","<img src=""img/purple-n.png"" border=""10"">","null","trial","null","","0.2,0.8","2:nogo_b","0",""
"null","","html-keyboard-response","44","237115","0.0-4.0-2.1","","<div style=""font-size:60px;"">+</div>","null","","","","","","",""
"null","","image-keyboard-response","45","238616","0.0-4.0-0.2","","img/purple.png","null","trial","null","true","0.2,0.8","2:nogo_b","",""
"null","","html-keyboard-response","46","239618","0.0-4.0-1.2","","<img src=""img/purple-r.png"">","null","trial","null","","0.2,0.8","2:nogo_b","1",""
"null","","html-keyboard-response","47","240619","0.0-4.0-2.2","","<div style=""font-size:60px;"">+</div>","null","","","","","","",""
"588.3999999761581","","image-keyboard-response","48","241208","0.0-4.0-0.3","","img/blue.png","32","trial","32","true","0.8,0.2","1:go_a","",""
"null","","html-keyboard-response","49","242217","0.0-4.0-1.3","","<img src=""img/blue-n.png"" border=""10"">","null","trial","32","","0.8,0.2","1:go_a","0",""
"null","","html-keyboard-response","50","243218","0.0-4.0-2.3","","<div style=""font-size:60px;"">+</div>","null","","","","","","",""
"732.9000000953674","","image-keyboard-response","51","243952","0.0-4.0-0.4","","img/blue.png","32","trial","32","true","0.8,0.2","1:go_a","",""
"null","","html-keyboard-response","52","244954","0.0-4.0-1.4","","<img src=""img/blue-n.png"" border=""10"">","null","trial","32","","0.8,0.2","1:go_a","0",""
"null","","html-keyboard-response","53","245955","0.0-4.0-2.4","","<div style=""font-size:60px;"">+</div>","null","","","","","","",""
"820.3999999761581","","image-keyboard-response","54","246776","0.0-4.0-0.5","","img/purple.png","32","trial","null","false","0.2,0.8","2:nogo_b","",""
"null","","html-keyboard-response","55","247778","0.0-4.0-1.5","","<img src=""img/purple-n.png"" border=""10"">","null","trial","null","","0.2,0.8","2:nogo_b","0",""
"null","","html-keyboard-response","56","248780","0.0-4.0-2.5","","<div style=""font-size:60px;"">+</div>","null","","","","","","",""
"627.7999999523163","","image-keyboard-response","57","249408","0.0-4.0-0.6","","img/purple.png","32","trial","null","false","0.2,0.8","2:nogo_b","",""
"null","","html-keyboard-response","58","250409","0.0-4.0-1.6","","<img src=""img/purple-n.png"" border=""10"">","null","trial","null","","0.2,0.8","2:nogo_b","0",""
"null","","html-keyboard-response","59","251410","0.0-4.0-2.6","","<div style=""font-size:60px;"">+</div>","null","","","","","","",""
"677.3999999761581","","image-keyboard-response","60","252088","0.0-4.0-0.7","","img/blue.png","32","trial","32","true","0.8,0.2","1:go_a","",""
"null","","html-keyboard-response","61","253090","0.0-4.0-1.7","","<img src=""img/blue-r.png"" border=""10"">","null","trial","32","","0.8,0.2","1:go_a","1",""
"null","","html-keyboard-response","62","254092","0.0-4.0-2.7","","<div style=""font-size:60px;"">+</div>","null","","","","","","",""
"939.7000000476837","","image-keyboard-response","63","255032","0.0-4.0-0.8","","img/blue.png","32","trial","32","true","0.8,0.2","1:go_a","",""
"null","","html-keyboard-response","64","256033","0.0-4.0-1.8","","<img src=""img/blue-r.png"" border=""10"">","null","trial","32","","0.8,0.2","1:go_a","1",""
"null","","html-keyboard-response","65","257035","0.0-4.0-2.8","","<div style=""font-size:60px;"">+</div>","null","","","","","","",""
"null","","image-keyboard-response","66","258536","0.0-4.0-0.9","","img/purple.png","null","trial","null","true","0.2,0.8","2:nogo_b","",""
"null","","html-keyboard-response","67","259538","0.0-4.0-1.9","","<img src=""img/purple-n.png"">","null","trial","null","","0.2,0.8","2:nogo_b","0",""
"null","","html-keyboard-response","68","260539","0.0-4.0-2.9","","<div style=""font-size:60px;"">+</div>","null","","","","","","",""
"596.1000000238419","","image-keyboard-response","69","261136","0.0-4.0-0.10","","img/blue.png","32","trial","32","true","0.8,0.2","1:go_a","",""
"null","","html-keyboard-response","70","262139","0.0-4.0-1.10","","<img src=""img/blue-n.png"" border=""10"">","null","trial","32","","0.8,0.2","1:go_a","0",""
"null","","html-keyboard-response","71","263140","0.0-4.0-2.10","","<div style=""font-size:60px;"">+</div>","null","","","","","","",""
"null","","image-keyboard-response","72","264642","0.0-4.0-0.11","","img/purple.png","null","trial","null","true","0.2,0.8","2:nogo_b","",""
"null","","html-keyboard-response","73","265644","0.0-4.0-1.11","","<img src=""img/purple-n.png"">","null","trial","null","","0.2,0.8","2:nogo_b","0",""
"null","","html-keyboard-response","74","266645","0.0-4.0-2.11","","<div style=""font-size:60px;"">+</div>","null","","","","","","",""
"null","","image-keyboard-response","75","268146","0.0-4.0-0.12","","img/purple.png","null","trial","null","true","0.2,0.8","2:nogo_b","",""
"null","","html-keyboard-response","76","269147","0.0-4.0-1.12","","<img src=""img/purple-r.png"">","null","trial","null","","0.2,0.8","2:nogo_b","1",""
"null","","html-keyboard-response","77","270148","0.0-4.0-2.12","","<div style=""font-size:60px;"">+</div>","null","","","","","","",""
"587.5","","image-keyboard-response","78","270736","0.0-4.0-0.13","","img/blue.png","32","trial","32","true","0.8,0.2","1:go_a","",""
"null","","html-keyboard-response","79","271738","0.0-4.0-1.13","","<img src=""img/blue-r.png"" border=""10"">","null","trial","32","","0.8,0.2","1:go_a","1",""
"null","","html-keyboard-response","80","272739","0.0-4.0-2.13","","<div style=""font-size:60px;"">+</div>","null","","","","","","",""
"1404.2999999523163","","image-keyboard-response","81","274144","0.0-4.0-0.14","","img/blue.png","32","trial","32","true","0.8,0.2","1:go_a","",""
"null","","html-keyboard-response","82","275145","0.0-4.0-1.14","","<img src=""img/blue-r.png"" border=""10"">","null","trial","32","","0.8,0.2","1:go_a","1",""
"null","","html-keyboard-response","83","276146","0.0-4.0-2.14","","<div style=""font-size:60px;"">+</div>","null","","","","","","",""
"null","","image-keyboard-response","84","277646","0.0-4.0-0.15","","img/purple.png","null","trial","null","true","0.2,0.8","2:nogo_b","",""
"null","","html-keyboard-response","85","278648","0.0-4.0-1.15","","<img src=""img/purple-r.png"">","null","trial","null","","0.2,0.8","2:nogo_b","1",""
"null","","html-keyboard-response","86","279649","0.0-4.0-2.15","","<div style=""font-size:60px;"">+</div>","null","","","","","","",""
"821.6000000238419","","image-keyboard-response","87","280471","0.0-4.0-0.16","","img/blue.png","32","trial","32","true","0.8,0.2","1:go_a","",""
"null","","html-keyboard-response","88","281473","0.0-4.0-1.16","","<img src=""img/blue-r.png"" border=""10"">","null","trial","32","","0.8,0.2","1:go_a","1",""
"null","","html-keyboard-response","89","282474","0.0-4.0-2.16","","<div style=""font-size:60px;"">+</div>","null","","","","","","",""
"null","","image-keyboard-response","90","283975","0.0-4.0-0.17","","img/purple.png","null","trial","null","true","0.2,0.8","2:nogo_b","",""
"null","","html-keyboard-response","91","284976","0.0-4.0-1.17","","<img src=""img/purple-r.png"">","null","trial","null","","0.2,0.8","2:nogo_b","1",""
"null","","html-keyboard-response","92","285978","0.0-4.0-2.17","","<div style=""font-size:60px;"">+</div>","null","","","","","","",""
"677.8000000715256","","image-keyboard-response","93","286656","0.0-4.0-0.18","","img/blue.png","32","trial","32","true","0.8,0.2","1:go_a","",""
"null","","html-keyboard-response","94","287657","0.0-4.0-1.18","","<img src=""img/blue-r.png"" border=""10"">","null","trial","32","","0.8,0.2","1:go_a","1",""
"null","","html-keyboard-response","95","288658","0.0-4.0-2.18","","<div style=""font-size:60px;"">+</div>","null","","","","","","",""
"805.5","","image-keyboard-response","96","289464","0.0-4.0-0.19","","img/purple.png","32","trial","null","false","0.2,0.8","2:nogo_b","",""
"null","","html-keyboard-response","97","290475","0.0-4.0-1.19","","<img src=""img/purple-n.png"" border=""10"">","null","trial","null","","0.2,0.8","2:nogo_b","0",""
"null","","html-keyboard-response","98","291475","0.0-4.0-2.19","","<div style=""font-size:60px;"">+</div>","null","","","","","","",""
"null","","image-keyboard-response","99","292976","0.0-4.0-0.20","","img/purple.png","null","trial","null","true","0.2,0.8","2:nogo_b","",""
"null","","html-keyboard-response","100","293978","0.0-4.0-1.20","","<img src=""img/purple-r.png"">","null","trial","null","","0.2,0.8","2:nogo_b","1",""
"null","","html-keyboard-response","101","294979","0.0-4.0-2.20","","<div style=""font-size:60px;"">+</div>","null","","","","","","",""
"708.0999999046326","","image-keyboard-response","102","295688","0.0-4.0-0.21","","img/blue.png","32","trial","32","true","0.8,0.2","1:go_a","",""
"null","","html-keyboard-response","103","296689","0.0-4.0-1.21","","<img src=""img/blue-r.png"" border=""10"">","null","trial","32","","0.8,0.2","1:go_a","1",""
"null","","html-keyboard-response","104","297690","0.0-4.0-2.21","","<div style=""font-size:60px;"">+</div>","null","","","","","","",""
"725.2000000476837","","image-keyboard-response","105","298416","0.0-4.0-0.22","","img/purple.png","32","trial","null","false","0.2,0.8","2:nogo_b","",""
"null","","html-keyboard-response","106","299417","0.0-4.0-1.22","","<img src=""img/purple-n.png"" border=""10"">","null","trial","null","","0.2,0.8","2:nogo_b","0",""
"null","","html-keyboard-response","107","300418","0.0-4.0-2.22","","<div style=""font-size:60px;"">+</div>","null","","","","","","",""
"524.6000000238419","","image-keyboard-response","108","300943","0.0-4.0-0.23","","img/blue.png","32","trial","32","true","0.8,0.2","1:go_a","",""
"null","","html-keyboard-response","109","301945","0.0-4.0-1.23","","<img src=""img/blue-r.png"" border=""10"">","null","trial","32","","0.8,0.2","1:go_a","1",""
"null","","html-keyboard-response","110","302951","0.0-4.0-2.23","","<div style=""font-size:60px;"">+</div>","null","","","","","","",""
"792.1999999284744","","image-keyboard-response","111","303744","0.0-4.0-0.24","","img/blue.png","32","trial","32","true","0.8,0.2","1:go_a","",""
"null","","html-keyboard-response","112","304745","0.0-4.0-1.24","","<img src=""img/blue-r.png"" border=""10"">","null","trial","32","","0.8,0.2","1:go_a","1",""
"null","","html-keyboard-response","113","305746","0.0-4.0-2.24","","<div style=""font-size:60px;"">+</div>","null","","","","","","",""
"null","","image-keyboard-response","114","307248","0.0-4.0-0.25","","img/purple.png","null","trial","null","true","0.2,0.8","2:nogo_b","",""
"null","","html-keyboard-response","115","308251","0.0-4.0-1.25","","<img src=""img/purple-r.png"">","null","trial","null","","0.2,0.8","2:nogo_b","1",""
"null","","html-keyboard-response","116","309256","0.0-4.0-2.25","","<div style=""font-size:60px;"">+</div>","null","","","","","","",""
"663.7000000476837","","image-keyboard-response","117","309920","0.0-4.0-0.26","","img/blue.png","32","trial","32","true","0.8,0.2","1:go_a","",""
"null","","html-keyboard-response","118","310922","0.0-4.0-1.26","","<img src=""img/blue-r.png"" border=""10"">","null","trial","32","","0.8,0.2","1:go_a","1",""
"null","","html-keyboard-response","119","311923","0.0-4.0-2.26","","<div style=""font-size:60px;"">+</div>","null","","","","","","",""
"null","","image-keyboard-response","120","313425","0.0-4.0-0.27","","img/purple.png","null","trial","null","true","0.2,0.8","2:nogo_b","",""
"null","","html-keyboard-response","121","314426","0.0-4.0-1.27","","<img src=""img/purple-r.png"">","null","trial","null","","0.2,0.8","2:nogo_b","1",""
"null","","html-keyboard-response","122","315426","0.0-4.0-2.27","","<div style=""font-size:60px;"">+</div>","null","","","","","","",""
"572.6999999284744","","image-keyboard-response","123","316000","0.0-4.0-0.28","","img/blue.png","32","trial","32","true","0.8,0.2","1:go_a","",""
"null","","html-keyboard-response","124","317001","0.0-4.0-1.28","","<img src=""img/blue-r.png"" border=""10"">","null","trial","32","","0.8,0.2","1:go_a","1",""
"null","","html-keyboard-response","125","318002","0.0-4.0-2.28","","<div style=""font-size:60px;"">+</div>","null","","","","","","",""
"797.2000000476837","","image-keyboard-response","126","318800","0.0-4.0-0.29","","img/purple.png","32","trial","null","false","0.2,0.8","2:nogo_b","",""
"null","","html-keyboard-response","127","319801","0.0-4.0-1.29","","<img src=""img/purple-n.png"" border=""10"">","null","trial","null","","0.2,0.8","2:nogo_b","0",""
"null","","html-keyboard-response","128","320801","0.0-4.0-2.29","","<div style=""font-size:60px;"">+</div>","null","","","","","","",""
"686.1000000238419","","image-keyboard-response","129","321488","0.0-4.0-0.30","","img/blue.png","32","trial","32","true","0.8,0.2","1:go_a","",""
"null","","html-keyboard-response","130","322489","0.0-4.0-1.30","","<img src=""img/blue-r.png"" border=""10"">","null","trial","32","","0.8,0.2","1:go_a","1",""
"null","","html-keyboard-response","131","323490","0.0-4.0-2.30","","<div style=""font-size:60px;"">+</div>","null","","","","","","",""
"null","","image-keyboard-response","132","324991","0.0-4.0-0.31","","img/purple.png","null","trial","null","true","0.2,0.8","2:nogo_b","",""
"null","","html-keyboard-response","133","325992","0.0-4.0-1.31","","<img src=""img/purple-n.png"">","null","trial","null","","0.2,0.8","2:nogo_b","0",""
"null","","html-keyboard-response","134","326993","0.0-4.0-2.31","","<div style=""font-size:60px;"">+</div>","null","","","","","","",""
"573.8999999761581","","image-keyboard-response","135","327568","0.0-4.0-0.32","","img/blue.png","32","trial","32","true","0.8,0.2","1:go_a","",""
"null","","html-keyboard-response","136","328570","0.0-4.0-1.32","","<img src=""img/blue-r.png"" border=""10"">","null","trial","32","","0.8,0.2","1:go_a","1",""
"null","","html-keyboard-response","137","329571","0.0-4.0-2.32","","<div style=""font-size:60px;"">+</div>","null","","","","","","",""
"683.8999999761581","","image-keyboard-response","138","330255","0.0-4.0-0.33","","img/purple.png","32","trial","null","false","0.2,0.8","2:nogo_b","",""
"null","","html-keyboard-response","139","331256","0.0-4.0-1.33","","<img src=""img/purple-n.png"" border=""10"">","null","trial","null","","0.2,0.8","2:nogo_b","0",""
"null","","html-keyboard-response","140","332258","0.0-4.0-2.33","","<div style=""font-size:60px;"">+</div>","null","","","","","","",""
"null","","image-keyboard-response","141","333760","0.0-4.0-0.34","","img/purple.png","null","trial","null","true","0.2,0.8","2:nogo_b","",""
"null","","html-keyboard-response","142","334761","0.0-4.0-1.34","","<img src=""img/purple-r.png"">","null","trial","null","","0.2,0.8","2:nogo_b","1",""
"null","","html-keyboard-response","143","335763","0.0-4.0-2.34","","<div style=""font-size:60px;"">+</div>","null","","","","","","",""
"628.3999999761581","","image-keyboard-response","144","336392","0.0-4.0-0.35","","img/blue.png","32","trial","32","true","0.8,0.2","1:go_a","",""
"null","","html-keyboard-response","145","337393","0.0-4.0-1.35","","<img src=""img/blue-r.png"" border=""10"">","null","trial","32","","0.8,0.2","1:go_a","1",""
"null","","html-keyboard-response","146","338394","0.0-4.0-2.35","","<div style=""font-size:60px;"">+</div>","null","","","","","","",""
"741.3999999761581","","image-keyboard-response","147","339136","0.0-4.0-0.36","","img/blue.png","32","trial","32","true","0.8,0.2","1:go_a","",""
"null","","html-keyboard-response","148","340137","0.0-4.0-1.36","","<img src=""img/blue-r.png"" border=""10"">","null","trial","32","","0.8,0.2","1:go_a","1",""
"null","","html-keyboard-response","149","341138","0.0-4.0-2.36","","<div style=""font-size:60px;"">+</div>","null","","","","","","",""
"836.7999999523163","","image-keyboard-response","150","341975","0.0-4.0-0.37","","img/purple.png","32","trial","null","false","0.2,0.8","2:nogo_b","",""
"null","","html-keyboard-response","151","342977","0.0-4.0-1.37","","<img src=""img/purple-n.png"" border=""10"">","null","trial","null","","0.2,0.8","2:nogo_b","0",""
"null","","html-keyboard-response","152","343979","0.0-4.0-2.37","","<div style=""font-size:60px;"">+</div>","null","","","","","","",""
"636.1000000238419","","image-keyboard-response","153","344616","0.0-4.0-0.38","","img/blue.png","32","trial","32","true","0.8,0.2","1:go_a","",""
"null","","html-keyboard-response","154","345617","0.0-4.0-1.38","","<img src=""img/blue-n.png"" border=""10"">","null","trial","32","","0.8,0.2","1:go_a","0",""
"null","","html-keyboard-response","155","346618","0.0-4.0-2.38","","<div style=""font-size:60px;"">+</div>","null","","","","","","",""
"null","","image-keyboard-response","156","348120","0.0-4.0-0.39","","img/purple.png","null","trial","null","true","0.2,0.8","2:nogo_b","",""
"null","","html-keyboard-response","157","349122","0.0-4.0-1.39","","<img src=""img/purple-r.png"">","null","trial","null","","0.2,0.8","2:nogo_b","1",""
"null","","html-keyboard-response","158","350123","0.0-4.0-2.39","","<div style=""font-size:60px;"">+</div>","null","","","","","","",""
"852.7999999523163","","image-keyboard-response","159","350976","0.0-4.0-0.40","","img/purple.png","32","trial","null","false","0.2,0.8","2:nogo_b","",""
"null","","html-keyboard-response","160","351978","0.0-4.0-1.40","","<img src=""img/purple-n.png"" border=""10"">","null","trial","null","","0.2,0.8","2:nogo_b","0",""
"null","","html-keyboard-response","161","352979","0.0-4.0-2.40","","<div style=""font-size:60px;"">+</div>","null","","","","","","",""
"868.7000000476837","","image-keyboard-response","162","353848","0.0-4.0-0.41","","img/blue.png","32","trial","32","true","0.8,0.2","1:go_a","",""
"null","","html-keyboard-response","163","354850","0.0-4.0-1.41","","<img src=""img/blue-n.png"" border=""10"">","null","trial","32","","0.8,0.2","1:go_a","0",""
"null","","html-keyboard-response","164","355851","0.0-4.0-2.41","","<div style=""font-size:60px;"">+</div>","null","","","","","","",""
"1324.7000000476837","","image-keyboard-response","165","357176","0.0-4.0-0.42","","img/purple.png","32","trial","null","false","0.2,0.8","2:nogo_b","",""
"null","","html-keyboard-response","166","358177","0.0-4.0-1.42","","<img src=""img/purple-r.png"" border=""10"">","null","trial","null","","0.2,0.8","2:nogo_b","1",""
"null","","html-keyboard-response","167","359178","0.0-4.0-2.42","","<div style=""font-size:60px;"">+</div>","null","","","","","","",""
"533.1999999284744","","image-keyboard-response","168","359712","0.0-4.0-0.43","","img/blue.png","32","trial","32","true","0.8,0.2","1:go_a","",""
"null","","html-keyboard-response","169","360714","0.0-4.0-1.43","","<img src=""img/blue-n.png"" border=""10"">","null","trial","32","","0.8,0.2","1:go_a","0",""
"null","","html-keyboard-response","170","361715","0.0-4.0-2.43","","<div style=""font-size:60px;"">+</div>","null","","","","","","",""
"764.3999999761581","","image-keyboard-response","171","362480","0.0-4.0-0.44","","img/blue.png","32","trial","32","true","0.8,0.2","1:go_a","",""
"null","","html-keyboard-response","172","363482","0.0-4.0-1.44","","<img src=""img/blue-r.png"" border=""10"">","null","trial","32","","0.8,0.2","1:go_a","1",""
"null","","html-keyboard-response","173","364484","0.0-4.0-2.44","","<div style=""font-size:60px;"">+</div>","null","","","","","","",""
"971.7999999523163","","image-keyboard-response","174","365456","0.0-4.0-0.45","","img/purple.png","32","trial","null","false","0.2,0.8","2:nogo_b","",""
"null","","html-keyboard-response","175","366457","0.0-4.0-1.45","","<img src=""img/purple-n.png"" border=""10"">","null","trial","null","","0.2,0.8","2:nogo_b","0",""
"null","","html-keyboard-response","176","367458","0.0-4.0-2.45","","<div style=""font-size:60px;"">+</div>","null","","","","","","",""
"789","","image-keyboard-response","177","368248","0.0-4.0-0.46","","img/blue.png","32","trial","32","true","0.8,0.2","1:go_a","",""
"null","","html-keyboard-response","178","369249","0.0-4.0-1.46","","<img src=""img/blue-r.png"" border=""10"">","null","trial","32","","0.8,0.2","1:go_a","1",""
"null","","html-keyboard-response","179","370251","0.0-4.0-2.46","","<div style=""font-size:60px;"">+</div>","null","","","","","","",""
"null","","image-keyboard-response","180","371753","0.0-4.0-0.47","","img/purple.png","null","trial","null","true","0.2,0.8","2:nogo_b","",""
"null","","html-keyboard-response","181","372754","0.0-4.0-1.47","","<img src=""img/purple-r.png"">","null","trial","null","","0.2,0.8","2:nogo_b","1",""
"null","","html-keyboard-response","182","373755","0.0-4.0-2.47","","<div style=""font-size:60px;"">+</div>","null","","","","","","",""
"548.7000000476837","","image-keyboard-response","183","374304","0.0-4.0-0.48","","img/purple.png","32","trial","null","false","0.2,0.8","2:nogo_b","",""
"null","","html-keyboard-response","184","375306","0.0-4.0-1.48","","<img src=""img/purple-n.png"" border=""10"">","null","trial","null","","0.2,0.8","2:nogo_b","0",""
"null","","html-keyboard-response","185","376308","0.0-4.0-2.48","","<div style=""font-size:60px;"">+</div>","null","","","","","","",""
"707.6000000238419","","image-keyboard-response","186","377016","0.0-4.0-0.49","","img/blue.png","32","trial","32","true","0.8,0.2","1:go_a","",""
"null","","html-keyboard-response","187","378017","0.0-4.0-1.49","","<img src=""img/blue-n.png"" border=""10"">","null","trial","32","","0.8,0.2","1:go_a","0",""
"null","","html-keyboard-response","188","379018","0.0-4.0-2.49","","<div style=""font-size:60px;"">+</div>","null","","","","","","",""
"1037.7999999523163","","image-keyboard-response","189","380056","0.0-4.0-0.50","","img/blue.png","32","trial","32","true","0.8,0.2","1:go_a","",""
"null","","html-keyboard-response","190","381058","0.0-4.0-1.50","","<img src=""img/blue-r.png"" border=""10"">","null","trial","32","","0.8,0.2","1:go_a","1",""
"null","","html-keyboard-response","191","382059","0.0-4.0-2.50","","<div style=""font-size:60px;"">+</div>","null","","","","","","",""
"null","","image-keyboard-response","192","383561","0.0-4.0-0.51","","img/purple.png","null","trial","null","true","0.2,0.8","2:nogo_b","",""
"null","","html-keyboard-response","193","384563","0.0-4.0-1.51","","<img src=""img/purple-r.png"">","null","trial","null","","0.2,0.8","2:nogo_b","1",""
"null","","html-keyboard-response","194","385564","0.0-4.0-2.51","","<div style=""font-size:60px;"">+</div>","null","","","","","","",""
"635.8000000715256","","image-keyboard-response","195","386200","0.0-4.0-0.52","","img/blue.png","32","trial","32","true","0.8,0.2","1:go_a","",""
"null","","html-keyboard-response","196","387202","0.0-4.0-1.52","","<img src=""img/blue-r.png"" border=""10"">","null","trial","32","","0.8,0.2","1:go_a","1",""
"null","","html-keyboard-response","197","388203","0.0-4.0-2.52","","<div style=""font-size:60px;"">+</div>","null","","","","","","",""
"null","","image-keyboard-response","198","389705","0.0-4.0-0.53","","img/purple.png","null","trial","null","true","0.2,0.8","2:nogo_b","",""
"null","","html-keyboard-response","199","390706","0.0-4.0-1.53","","<img src=""img/purple-r.png"">","null","trial","null","","0.2,0.8","2:nogo_b","1",""
"null","","html-keyboard-response","200","391708","0.0-4.0-2.53","","<div style=""font-size:60px;"">+</div>","null","","","","","","",""
"null","","image-keyboard-response","201","393210","0.0-4.0-0.54","","img/purple.png","null","trial","null","true","0.2,0.8","2:nogo_b","",""
"null","","html-keyboard-response","202","394211","0.0-4.0-1.54","","<img src=""img/purple-r.png"">","null","trial","null","","0.2,0.8","2:nogo_b","1",""
"null","","html-keyboard-response","203","395213","0.0-4.0-2.54","","<div style=""font-size:60px;"">+</div>","null","","","","","","",""
"594.2000000476837","","image-keyboard-response","204","395808","0.0-4.0-0.55","","img/blue.png","32","trial","32","true","0.8,0.2","1:go_a","",""
"null","","html-keyboard-response","205","396809","0.0-4.0-1.55","","<img src=""img/blue-r.png"" border=""10"">","null","trial","32","","0.8,0.2","1:go_a","1",""
"null","","html-keyboard-response","206","397811","0.0-4.0-2.55","","<div style=""font-size:60px;"">+</div>","null","","","","","","",""
"null","","image-keyboard-response","207","399313","0.0-4.0-0.56","","img/purple.png","null","trial","null","true","0.2,0.8","2:nogo_b","",""
"null","","html-keyboard-response","208","400315","0.0-4.0-1.56","","<img src=""img/purple-n.png"">","null","trial","null","","0.2,0.8","2:nogo_b","0",""
"null","","html-keyboard-response","209","401316","0.0-4.0-2.56","","<div style=""font-size:60px;"">+</div>","null","","","","","","",""
"747.3999999761581","","image-keyboard-response","210","402064","0.0-4.0-0.57","","img/blue.png","32","trial","32","true","0.8,0.2","1:go_a","",""
"null","","html-keyboard-response","211","403065","0.0-4.0-1.57","","<img src=""img/blue-n.png"" border=""10"">","null","trial","32","","0.8,0.2","1:go_a","0",""
"null","","html-keyboard-response","212","404066","0.0-4.0-2.57","","<div style=""font-size:60px;"">+</div>","null","","","","","","",""
"1181.4000000953674","","image-keyboard-response","213","405248","0.0-4.0-0.58","","img/purple.png","32","trial","null","false","0.2,0.8","2:nogo_b","",""
"null","","html-keyboard-response","214","406250","0.0-4.0-1.58","","<img src=""img/purple-n.png"" border=""10"">","null","trial","null","","0.2,0.8","2:nogo_b","0",""
"null","","html-keyboard-response","215","407251","0.0-4.0-2.58","","<div style=""font-size:60px;"">+</div>","null","","","","","","",""
"1308.3000000715256","","image-keyboard-response","216","408560","0.0-4.0-0.59","","img/blue.png","32","trial","32","true","0.8,0.2","1:go_a","",""
"null","","html-keyboard-response","217","409574","0.0-4.0-1.59","","<img src=""img/blue-n.png"" border=""10"">","null","trial","32","","0.8,0.2","1:go_a","0",""
"null","","html-keyboard-response","218","410575","0.0-4.0-2.59","","<div style=""font-size:60px;"">+</div>","null","","","","","","",""
"5112.700000047684","","instructions","219","415688","0.0-5.0","[{""page_index"":0,""viewing_time"":5112.600000023842}]","","","","","","","","",""
"1007.6000000238419","","image-keyboard-response","220","416696","0.0-6.0-0.0","","img/blue.png","32","trial","null","false","0.2,0.8","2:nogo_b","",""
"null","","html-keyboard-response","221","417697","0.0-6.0-1.0","","<img src=""img/blue-n.png"" border=""10"">","null","trial","null","","0.2,0.8","2:nogo_b","0",""
"null","","html-keyboard-response","222","418698","0.0-6.0-2.0","","<div style=""font-size:60px;"">+</div>","null","","","","","","",""
"909.2000000476837","","image-keyboard-response","223","419608","0.0-6.0-0.1","","img/orange.png","32","trial","32","true","1,0","3:go_c","",""
"null","","html-keyboard-response","224","420610","0.0-6.0-1.1","","<img src=""img/orange-r.png"" border=""10"">","null","trial","32","","1,0","3:go_c","1",""
"null","","html-keyboard-response","225","421611","0.0-6.0-2.1","","<div style=""font-size:60px;"">+</div>","null","","","","","","",""
"null","","image-keyboard-response","226","423113","0.0-6.0-0.2","","img/yellow.png","null","trial","32","false","0.8,0.2","1:go_a","",""
"null","","html-keyboard-response","227","424115","0.0-6.0-1.2","","<img src=""img/yellow-n.png"">","null","trial","32","","0.8,0.2","1:go_a","0",""
"null","","html-keyboard-response","228","425122","0.0-6.0-2.2","","<div style=""font-size:60px;"">+</div>","null","","","","","","",""
"1093.8999999761581","","image-keyboard-response","229","426216","0.0-6.0-0.3","","img/green.png","32","trial","null","false","0,1","4:nogo_d","",""
"null","","html-keyboard-response","230","427218","0.0-6.0-1.3","","<img src=""img/green-n.png"" border=""10"">","null","trial","null","","0,1","4:nogo_d","0",""
"null","","html-keyboard-response","231","428219","0.0-6.0-2.3","","<div style=""font-size:60px;"">+</div>","null","","","","","","",""
"420.2000000476837","","image-keyboard-response","232","428640","0.0-6.0-0.4","","img/orange.png","32","trial","32","true","1,0","3:go_c","",""
"null","","html-keyboard-response","233","429641","0.0-6.0-1.4","","<img src=""img/orange-r.png"" border=""10"">","null","trial","32","","1,0","3:go_c","1",""
"null","","html-keyboard-response","234","430643","0.0-6.0-2.4","","<div style=""font-size:60px;"">+</div>","null","","","","","","",""
"null","","image-keyboard-response","235","432143","0.0-6.0-0.5","","img/blue.png","null","trial","null","true","0.2,0.8","2:nogo_b","",""
"null","","html-keyboard-response","236","433146","0.0-6.0-1.5","","<img src=""img/blue-r.png"">","null","trial","null","","0.2,0.8","2:nogo_b","1",""
"null","","html-keyboard-response","237","434147","0.0-6.0-2.5","","<div style=""font-size:60px;"">+</div>","null","","","","","","",""
"null","","image-keyboard-response","238","435648","0.0-6.0-0.6","","img/yellow.png","null","trial","32","false","0.8,0.2","1:go_a","",""
"null","","html-keyboard-response","239","436649","0.0-6.0-1.6","","<img src=""img/yellow-n.png"">","null","trial","32","","0.8,0.2","1:go_a","0",""
"null","","html-keyboard-response","240","437650","0.0-6.0-2.6","","<div style=""font-size:60px;"">+</div>","null","","","","","","",""
"null","","image-keyboard-response","241","439152","0.0-6.0-0.7","","img/green.png","null","trial","null","true","0,1","4:nogo_d","",""
"null","","html-keyboard-response","242","440154","0.0-6.0-1.7","","<img src=""img/green-r.png"">","null","trial","null","","0,1","4:nogo_d","1",""
"null","","html-keyboard-response","243","441154","0.0-6.0-2.7","","<div style=""font-size:60px;"">+</div>","null","","","","","","",""
"453.10000002384186","","image-keyboard-response","244","441608","0.0-6.0-0.8","","img/orange.png","32","trial","32","true","1,0","3:go_c","",""
"null","","html-keyboard-response","245","442610","0.0-6.0-1.8","","<img src=""img/orange-r.png"" border=""10"">","null","trial","32","","1,0","3:go_c","1",""
"null","","html-keyboard-response","246","443611","0.0-6.0-2.8","","<div style=""font-size:60px;"">+</div>","null","","","","","","",""
"668.5999999046326","","image-keyboard-response","247","444280","0.0-6.0-0.9","","img/blue.png","32","trial","null","false","0.2,0.8","2:nogo_b","",""
"null","","html-keyboard-response","248","445282","0.0-6.0-1.9","","<img src=""img/blue-n.png"" border=""10"">","null","trial","null","","0.2,0.8","2:nogo_b","0",""
"null","","html-keyboard-response","249","446283","0.0-6.0-2.9","","<div style=""font-size:60px;"">+</div>","null","","","","","","",""
"null","","image-keyboard-response","250","447784","0.0-6.0-0.10","","img/yellow.png","null","trial","32","false","0.8,0.2","1:go_a","",""
"null","","html-keyboard-response","251","448786","0.0-6.0-1.10","","<img src=""img/yellow-n.png"">","null","trial","32","","0.8,0.2","1:go_a","0",""
"null","","html-keyboard-response","252","449786","0.0-6.0-2.10","","<div style=""font-size:60px;"">+</div>","null","","","","","","",""
"null","","image-keyboard-response","253","451289","0.0-6.0-0.11","","img/green.png","null","trial","null","true","0,1","4:nogo_d","",""
"null","","html-keyboard-response","254","452290","0.0-6.0-1.11","","<img src=""img/green-r.png"">","null","trial","null","","0,1","4:nogo_d","1",""
"null","","html-keyboard-response","255","453291","0.0-6.0-2.11","","<div style=""font-size:60px;"">+</div>","null","","","","","","",""
"740.2999999523163","","image-keyboard-response","256","454032","0.0-6.0-0.12","","img/green.png","32","trial","null","false","0,1","4:nogo_d","",""
"null","","html-keyboard-response","257","455035","0.0-6.0-1.12","","<img src=""img/green-n.png"" border=""10"">","null","trial","null","","0,1","4:nogo_d","0",""
"null","","html-keyboard-response","258","456036","0.0-6.0-2.12","","<div style=""font-size:60px;"">+</div>","null","","","","","","",""
"1475.5","","image-keyboard-response","259","457512","0.0-6.0-0.13","","img/blue.png","32","trial","null","false","0.2,0.8","2:nogo_b","",""
"null","","html-keyboard-response","260","458514","0.0-6.0-1.13","","<img src=""img/blue-n.png"" border=""10"">","null","trial","null","","0.2,0.8","2:nogo_b","0",""
"null","","html-keyboard-response","261","459515","0.0-6.0-2.13","","<div style=""font-size:60px;"">+</div>","null","","","","","","",""
"508.6999999284744","","image-keyboard-response","262","460024","0.0-6.0-0.14","","img/orange.png","32","trial","32","true","1,0","3:go_c","",""
"null","","html-keyboard-response","263","461025","0.0-6.0-1.14","","<img src=""img/orange-r.png"" border=""10"">","null","trial","32","","1,0","3:go_c","1",""
"null","","html-keyboard-response","264","462026","0.0-6.0-2.14","","<div style=""font-size:60px;"">+</div>","null","","","","","","",""
"null","","image-keyboard-response","265","463527","0.0-6.0-0.15","","img/yellow.png","null","trial","32","false","0.8,0.2","1:go_a","",""
"null","","html-keyboard-response","266","464528","0.0-6.0-1.15","","<img src=""img/yellow-r.png"">","null","trial","32","","0.8,0.2","1:go_a","1",""
"null","","html-keyboard-response","267","465529","0.0-6.0-2.15","","<div style=""font-size:60px;"">+</div>","null","","","","","","",""
"null","","image-keyboard-response","268","467030","0.0-6.0-0.16","","img/blue.png","null","trial","null","true","0.2,0.8","2:nogo_b","",""
"null","","html-keyboard-response","269","468033","0.0-6.0-1.16","","<img src=""img/blue-r.png"">","null","trial","null","","0.2,0.8","2:nogo_b","1",""
"null","","html-keyboard-response","270","469034","0.0-6.0-2.16","","<div style=""font-size:60px;"">+</div>","null","","","","","","",""
"null","","image-keyboard-response","271","470535","0.0-6.0-0.17","","img/green.png","null","trial","null","true","0,1","4:nogo_d","",""
"null","","html-keyboard-response","272","471537","0.0-6.0-1.17","","<img src=""img/green-r.png"">","null","trial","null","","0,1","4:nogo_d","1",""
"null","","html-keyboard-response","273","472538","0.0-6.0-2.17","","<div style=""font-size:60px;"">+</div>","null","","","","","","",""
"597.5","","image-keyboard-response","274","473136","0.0-6.0-0.18","","img/orange.png","32","trial","32","true","1,0","3:go_c","",""
"null","","html-keyboard-response","275","474137","0.0-6.0-1.18","","<img src=""img/orange-r.png"" border=""10"">","null","trial","32","","1,0","3:go_c","1",""
"null","","html-keyboard-response","276","475139","0.0-6.0-2.18","","<div style=""font-size:60px;"">+</div>","null","","","","","","",""
"null","","image-keyboard-response","277","476654","0.0-6.0-0.19","","img/yellow.png","null","trial","32","false","0.8,0.2","1:go_a","",""
"null","","html-keyboard-response","278","477656","0.0-6.0-1.19","","<img src=""img/yellow-r.png"">","null","trial","32","","0.8,0.2","1:go_a","1",""
"null","","html-keyboard-response","279","478658","0.0-6.0-2.19","","<div style=""font-size:60px;"">+</div>","null","","","","","","",""
"1022","","image-keyboard-response","280","479680","0.0-6.0-0.20","","img/yellow.png","32","trial","32","true","0.8,0.2","1:go_a","",""
"null","","html-keyboard-response","281","480683","0.0-6.0-1.20","","<img src=""img/yellow-r.png"" border=""10"">","null","trial","32","","0.8,0.2","1:go_a","1",""
"null","","html-keyboard-response","282","481684","0.0-6.0-2.20","","<div style=""font-size:60px;"">+</div>","null","","","","","","",""
"955.7000000476837","","image-keyboard-response","283","482640","0.0-6.0-0.21","","img/green.png","32","trial","null","false","0,1","4:nogo_d","",""
"null","","html-keyboard-response","284","483642","0.0-6.0-1.21","","<img src=""img/green-n.png"" border=""10"">","null","trial","null","","0,1","4:nogo_d","0",""
"null","","html-keyboard-response","285","484644","0.0-6.0-2.21","","<div style=""font-size:60px;"">+</div>","null","","","","","","",""
"null","","image-keyboard-response","286","486145","0.0-6.0-0.22","","img/blue.png","null","trial","null","true","0.2,0.8","2:nogo_b","",""
"null","","html-keyboard-response","287","487146","0.0-6.0-1.22","","<img src=""img/blue-r.png"">","null","trial","null","","0.2,0.8","2:nogo_b","1",""
"null","","html-keyboard-response","288","488148","0.0-6.0-2.22","","<div style=""font-size:60px;"">+</div>","null","","","","","","",""
"492.10000002384186","","image-keyboard-response","289","488640","0.0-6.0-0.23","","img/orange.png","32","trial","32","true","1,0","3:go_c","",""
"null","","html-keyboard-response","290","489642","0.0-6.0-1.23","","<img src=""img/orange-r.png"" border=""10"">","null","trial","32","","1,0","3:go_c","1",""
"null","","html-keyboard-response","291","490643","0.0-6.0-2.23","","<div style=""font-size:60px;"">+</div>","null","","","","","","",""
"572.0999999046326","","image-keyboard-response","292","491216","0.0-6.0-0.24","","img/orange.png","32","trial","32","true","1,0","3:go_c","",""
"null","","html-keyboard-response","293","492217","0.0-6.0-1.24","","<img src=""img/orange-r.png"" border=""10"">","null","trial","32","","1,0","3:go_c","1",""
"null","","html-keyboard-response","294","493219","0.0-6.0-2.24","","<div style=""font-size:60px;"">+</div>","null","","","","","","",""
"null","","image-keyboard-response","295","494719","0.0-6.0-0.25","","img/blue.png","null","trial","null","true","0.2,0.8","2:nogo_b","",""
"null","","html-keyboard-response","296","495720","0.0-6.0-1.25","","<img src=""img/blue-n.png"">","null","trial","null","","0.2,0.8","2:nogo_b","0",""
"null","","html-keyboard-response","297","496723","0.0-6.0-2.25","","<div style=""font-size:60px;"">+</div>","null","","","","","","",""
"null","","image-keyboard-response","298","498224","0.0-6.0-0.26","","img/green.png","null","trial","null","true","0,1","4:nogo_d","",""
"null","","html-keyboard-response","299","499232","0.0-6.0-1.26","","<img src=""img/green-r.png"">","null","trial","null","","0,1","4:nogo_d","1",""
"null","","html-keyboard-response","300","500232","0.0-6.0-2.26","","<div style=""font-size:60px;"">+</div>","null","","","","","","",""
"615.3999999761581","","image-keyboard-response","301","500848","0.0-6.0-0.27","","img/yellow.png","32","trial","32","true","0.8,0.2","1:go_a","",""
"null","","html-keyboard-response","302","501850","0.0-6.0-1.27","","<img src=""img/yellow-r.png"" border=""10"">","null","trial","32","","0.8,0.2","1:go_a","1",""
"null","","html-keyboard-response","303","502850","0.0-6.0-2.27","","<div style=""font-size:60px;"">+</div>","null","","","","","","",""
"877.4000000953674","","image-keyboard-response","304","503728","0.0-6.0-0.28","","img/yellow.png","32","trial","32","true","0.8,0.2","1:go_a","",""
"null","","html-keyboard-response","305","504730","0.0-6.0-1.28","","<img src=""img/yellow-n.png"" border=""10"">","null","trial","32","","0.8,0.2","1:go_a","0",""
"null","","html-keyboard-response","306","505731","0.0-6.0-2.28","","<div style=""font-size:60px;"">+</div>","null","","","","","","",""
"null","","image-keyboard-response","307","507234","0.0-6.0-0.29","","img/green.png","null","trial","null","true","0,1","4:nogo_d","",""
"null","","html-keyboard-response","308","508241","0.0-6.0-1.29","","<img src=""img/green-r.png"">","null","trial","null","","0,1","4:nogo_d","1",""
"null","","html-keyboard-response","309","509243","0.0-6.0-2.29","","<div style=""font-size:60px;"">+</div>","null","","","","","","",""
"null","","image-keyboard-response","310","510745","0.0-6.0-0.30","","img/blue.png","null","trial","null","true","0.2,0.8","2:nogo_b","",""
"null","","html-keyboard-response","311","511746","0.0-6.0-1.30","","<img src=""img/blue-r.png"">","null","trial","null","","0.2,0.8","2:nogo_b","1",""
"null","","html-keyboard-response","312","512746","0.0-6.0-2.30","","<div style=""font-size:60px;"">+</div>","null","","","","","","",""
"669.3000000715256","","image-keyboard-response","313","513416","0.0-6.0-0.31","","img/orange.png","32","trial","32","true","1,0","3:go_c","",""
"null","","html-keyboard-response","314","514417","0.0-6.0-1.31","","<img src=""img/orange-r.png"" border=""10"">","null","trial","32","","1,0","3:go_c","1",""
"null","","html-keyboard-response","315","515418","0.0-6.0-2.31","","<div style=""font-size:60px;"">+</div>","null","","","","","","",""
"677.1999999284744","","image-keyboard-response","316","516095","0.0-6.0-0.32","","img/yellow.png","32","trial","32","true","0.8,0.2","1:go_a","",""
"null","","html-keyboard-response","317","517097","0.0-6.0-1.32","","<img src=""img/yellow-n.png"" border=""10"">","null","trial","32","","0.8,0.2","1:go_a","0",""
"null","","html-keyboard-response","318","518098","0.0-6.0-2.32","","<div style=""font-size:60px;"">+</div>","null","","","","","","",""
"null","","image-keyboard-response","319","519600","0.0-6.0-0.33","","img/green.png","null","trial","null","true","0,1","4:nogo_d","",""
"null","","html-keyboard-response","320","520602","0.0-6.0-1.33","","<img src=""img/green-r.png"">","null","trial","null","","0,1","4:nogo_d","1",""
"null","","html-keyboard-response","321","521609","0.0-6.0-2.33","","<div style=""font-size:60px;"">+</div>","null","","","","","","",""
"null","","image-keyboard-response","322","523111","0.0-6.0-0.34","","img/blue.png","null","trial","null","true","0.2,0.8","2:nogo_b","",""
"null","","html-keyboard-response","323","524112","0.0-6.0-1.34","","<img src=""img/blue-r.png"">","null","trial","null","","0.2,0.8","2:nogo_b","1",""
"null","","html-keyboard-response","324","525114","0.0-6.0-2.34","","<div style=""font-size:60px;"">+</div>","null","","","","","","",""
"581.7000000476837","","image-keyboard-response","325","525696","0.0-6.0-0.35","","img/orange.png","32","trial","32","true","1,0","3:go_c","",""
"null","","html-keyboard-response","326","526697","0.0-6.0-1.35","","<img src=""img/orange-r.png"" border=""10"">","null","trial","32","","1,0","3:go_c","1",""
"null","","html-keyboard-response","327","527698","0.0-6.0-2.35","","<div style=""font-size:60px;"">+</div>","null","","","","","","",""
"null","","image-keyboard-response","328","529199","0.0-6.0-0.36","","img/green.png","null","trial","null","true","0,1","4:nogo_d","",""
"null","","html-keyboard-response","329","530200","0.0-6.0-1.36","","<img src=""img/green-r.png"">","null","trial","null","","0,1","4:nogo_d","1",""
"null","","html-keyboard-response","330","531202","0.0-6.0-2.36","","<div style=""font-size:60px;"">+</div>","null","","","","","","",""
"1181.1999999284744","","image-keyboard-response","331","532383","0.0-6.0-0.37","","img/blue.png","32","trial","null","false","0.2,0.8","2:nogo_b","",""
"null","","html-keyboard-response","332","533385","0.0-6.0-1.37","","<img src=""img/blue-r.png"" border=""10"">","null","trial","null","","0.2,0.8","2:nogo_b","1",""
"null","","html-keyboard-response","333","534386","0.0-6.0-2.37","","<div style=""font-size:60px;"">+</div>","null","","","","","","",""
"1356.8999999761581","","image-keyboard-response","334","535744","0.0-6.0-0.38","","img/yellow.png","32","trial","32","true","0.8,0.2","1:go_a","",""
"null","","html-keyboard-response","335","536745","0.0-6.0-1.38","","<img src=""img/yellow-r.png"" border=""10"">","null","trial","32","","0.8,0.2","1:go_a","1",""
"null","","html-keyboard-response","336","537746","0.0-6.0-2.38","","<div style=""font-size:60px;"">+</div>","null","","","","","","",""
"773.3000000715256","","image-keyboard-response","337","538520","0.0-6.0-0.39","","img/orange.png","32","trial","32","true","1,0","3:go_c","",""
"null","","html-keyboard-response","338","539521","0.0-6.0-1.39","","<img src=""img/orange-r.png"" border=""10"">","null","trial","32","","1,0","3:go_c","1",""
"null","","html-keyboard-response","339","540523","0.0-6.0-2.39","","<div style=""font-size:60px;"">+</div>","null","","","","","","",""
"1292.2999999523163","","image-keyboard-response","340","541815","0.0-6.0-0.40","","img/blue.png","32","trial","null","false","0.2,0.8","2:nogo_b","",""
"null","","html-keyboard-response","341","542817","0.0-6.0-1.40","","<img src=""img/blue-n.png"" border=""10"">","null","trial","null","","0.2,0.8","2:nogo_b","0",""
"null","","html-keyboard-response","342","543818","0.0-6.0-2.40","","<div style=""font-size:60px;"">+</div>","null","","","","","","",""
"589.5","","image-keyboard-response","343","544408","0.0-6.0-0.41","","img/yellow.png","32","trial","32","true","0.8,0.2","1:go_a","",""
"null","","html-keyboard-response","344","545411","0.0-6.0-1.41","","<img src=""img/yellow-r.png"" border=""10"">","null","trial","32","","0.8,0.2","1:go_a","1",""
"null","","html-keyboard-response","345","546412","0.0-6.0-2.41","","<div style=""font-size:60px;"">+</div>","null","","","","","","",""
"546.7999999523163","","image-keyboard-response","346","546959","0.0-6.0-0.42","","img/green.png","32","trial","null","false","0,1","4:nogo_d","",""
"null","","html-keyboard-response","347","547961","0.0-6.0-1.42","","<img src=""img/green-n.png"" border=""10"">","null","trial","null","","0,1","4:nogo_d","0",""
"null","","html-keyboard-response","348","548963","0.0-6.0-2.42","","<div style=""font-size:60px;"">+</div>","null","","","","","","",""
"435.6999999284744","","image-keyboard-response","349","549399","0.0-6.0-0.43","","img/orange.png","32","trial","32","true","1,0","3:go_c","",""
"null","","html-keyboard-response","350","550401","0.0-6.0-1.43","","<img src=""img/orange-r.png"" border=""10"">","null","trial","32","","1,0","3:go_c","1",""
"null","","html-keyboard-response","351","551403","0.0-6.0-2.43","","<div style=""font-size:60px;"">+</div>","null","","","","","","",""
"null","","image-keyboard-response","352","552904","0.0-6.0-0.44","","img/green.png","null","trial","null","true","0,1","4:nogo_d","",""
"null","","html-keyboard-response","353","553906","0.0-6.0-1.44","","<img src=""img/green-r.png"">","null","trial","null","","0,1","4:nogo_d","1",""
"null","","html-keyboard-response","354","554907","0.0-6.0-2.44","","<div style=""font-size:60px;"">+</div>","null","","","","","","",""
"891.8999999761581","","image-keyboard-response","355","555799","0.0-6.0-0.45","","img/yellow.png","32","trial","32","true","0.8,0.2","1:go_a","",""
"null","","html-keyboard-response","356","556802","0.0-6.0-1.45","","<img src=""img/yellow-r.png"" border=""10"">","null","trial","32","","0.8,0.2","1:go_a","1",""
"null","","html-keyboard-response","357","557803","0.0-6.0-2.45","","<div style=""font-size:60px;"">+</div>","null","","","","","","",""
"556.3000000715256","","image-keyboard-response","358","558360","0.0-6.0-0.46","","img/orange.png","32","trial","32","true","1,0","3:go_c","",""
"null","","html-keyboard-response","359","559362","0.0-6.0-1.46","","<img src=""img/orange-r.png"" border=""10"">","null","trial","32","","1,0","3:go_c","1",""
"null","","html-keyboard-response","360","560363","0.0-6.0-2.46","","<div style=""font-size:60px;"">+</div>","null","","","","","","",""
"1027.7999999523163","","image-keyboard-response","361","561391","0.0-6.0-0.47","","img/blue.png","32","trial","null","false","0.2,0.8","2:nogo_b","",""
"null","","html-keyboard-response","362","562394","0.0-6.0-1.47","","<img src=""img/blue-r.png"" border=""10"">","null","trial","null","","0.2,0.8","2:nogo_b","1",""
"null","","html-keyboard-response","363","563395","0.0-6.0-2.47","","<div style=""font-size:60px;"">+</div>","null","","","","","","",""
"null","","image-keyboard-response","364","564896","0.0-6.0-0.48","","img/green.png","null","trial","null","true","0,1","4:nogo_d","",""
"null","","html-keyboard-response","365","565902","0.0-6.0-1.48","","<img src=""img/green-r.png"">","null","trial","null","","0,1","4:nogo_d","1",""
"null","","html-keyboard-response","366","566904","0.0-6.0-2.48","","<div style=""font-size:60px;"">+</div>","null","","","","","","",""
"903.2000000476837","","image-keyboard-response","367","567808","0.0-6.0-0.49","","img/blue.png","32","trial","null","false","0.2,0.8","2:nogo_b","",""
"null","","html-keyboard-response","368","568809","0.0-6.0-1.49","","<img src=""img/blue-n.png"" border=""10"">","null","trial","null","","0.2,0.8","2:nogo_b","0",""
"null","","html-keyboard-response","369","569812","0.0-6.0-2.49","","<div style=""font-size:60px;"">+</div>","null","","","","","","",""
"715.6999999284744","","image-keyboard-response","370","570528","0.0-6.0-0.50","","img/yellow.png","32","trial","32","true","0.8,0.2","1:go_a","",""
"null","","html-keyboard-response","371","571530","0.0-6.0-1.50","","<img src=""img/yellow-r.png"" border=""10"">","null","trial","32","","0.8,0.2","1:go_a","1",""
"null","","html-keyboard-response","372","572530","0.0-6.0-2.50","","<div style=""font-size:60px;"">+</div>","null","","","","","","",""
"596.5","","image-keyboard-response","373","573127","0.0-6.0-0.51","","img/orange.png","32","trial","32","true","1,0","3:go_c","",""
"null","","html-keyboard-response","374","574129","0.0-6.0-1.51","","<img src=""img/orange-r.png"" border=""10"">","null","trial","32","","1,0","3:go_c","1",""
"null","","html-keyboard-response","375","575130","0.0-6.0-2.51","","<div style=""font-size:60px;"">+</div>","null","","","","","","",""
"null","","image-keyboard-response","376","576631","0.0-6.0-0.52","","img/green.png","null","trial","null","true","0,1","4:nogo_d","",""
"null","","html-keyboard-response","377","577632","0.0-6.0-1.52","","<img src=""img/green-r.png"">","null","trial","null","","0,1","4:nogo_d","1",""
"null","","html-keyboard-response","378","578633","0.0-6.0-2.52","","<div style=""font-size:60px;"">+</div>","null","","","","","","",""
"null","","image-keyboard-response","379","580134","0.0-6.0-0.53","","img/blue.png","null","trial","null","true","0.2,0.8","2:nogo_b","",""
"null","","html-keyboard-response","380","581135","0.0-6.0-1.53","","<img src=""img/blue-r.png"">","null","trial","null","","0.2,0.8","2:nogo_b","1",""
"null","","html-keyboard-response","381","582137","0.0-6.0-2.53","","<div style=""font-size:60px;"">+</div>","null","","","","","","",""
"null","","image-keyboard-response","382","583638","0.0-6.0-0.54","","img/yellow.png","null","trial","32","false","0.8,0.2","1:go_a","",""
"null","","html-keyboard-response","383","584639","0.0-6.0-1.54","","<img src=""img/yellow-n.png"">","null","trial","32","","0.8,0.2","1:go_a","0",""
"null","","html-keyboard-response","384","585640","0.0-6.0-2.54","","<div style=""font-size:60px;"">+</div>","null","","","","","","",""
"536.2999999523163","","image-keyboard-response","385","586176","0.0-6.0-0.55","","img/orange.png","32","trial","32","true","1,0","3:go_c","",""
"null","","html-keyboard-response","386","587178","0.0-6.0-1.55","","<img src=""img/orange-r.png"" border=""10"">","null","trial","32","","1,0","3:go_c","1",""
"null","","html-keyboard-response","387","588179","0.0-6.0-2.55","","<div style=""font-size:60px;"">+</div>","null","","","","","","",""
"652.7000000476837","","image-keyboard-response","388","588832","0.0-6.0-0.56","","img/green.png","32","trial","null","false","0,1","4:nogo_d","",""
"null","","html-keyboard-response","389","589834","0.0-6.0-1.56","","<img src=""img/green-n.png"" border=""10"">","null","trial","null","","0,1","4:nogo_d","0",""
"null","","html-keyboard-response","390","590834","0.0-6.0-2.56","","<div style=""font-size:60px;"">+</div>","null","","","","","","",""
"677.1999999284744","","image-keyboard-response","391","591512","0.0-6.0-0.57","","img/orange.png","32","trial","32","true","1,0","3:go_c","",""
"null","","html-keyboard-response","392","592514","0.0-6.0-1.57","","<img src=""img/orange-r.png"" border=""10"">","null","trial","32","","1,0","3:go_c","1",""
"null","","html-keyboard-response","393","593516","0.0-6.0-2.57","","<div style=""font-size:60px;"">+</div>","null","","","","","","",""
"1107.8000000715256","","image-keyboard-response","394","594624","0.0-6.0-0.58","","img/yellow.png","32","trial","32","true","0.8,0.2","1:go_a","",""
"null","","html-keyboard-response","395","595625","0.0-6.0-1.58","","<img src=""img/yellow-n.png"" border=""10"">","null","trial","32","","0.8,0.2","1:go_a","0",""
"null","","html-keyboard-response","396","596627","0.0-6.0-2.58","","<div style=""font-size:60px;"">+</div>","null","","","","","","",""
"909.2000000476837","","image-keyboard-response","397","597536","0.0-6.0-0.59","","img/blue.png","32","trial","null","false","0.2,0.8","2:nogo_b","",""
"null","","html-keyboard-response","398","598537","0.0-6.0-1.59","","<img src=""img/blue-n.png"" border=""10"">","null","trial","null","","0.2,0.8","2:nogo_b","0",""
"null","","html-keyboard-response","399","599538","0.0-6.0-2.59","","<div style=""font-size:60px;"">+</div>","null","","","","","","",""
"748.7000000476837","","image-keyboard-response","400","600288","0.0-6.0-0.60","","img/orange.png","32","trial","32","true","1,0","3:go_c","",""
"null","","html-keyboard-response","401","601289","0.0-6.0-1.60","","<img src=""img/orange-r.png"" border=""10"">","null","trial","32","","1,0","3:go_c","1",""
"null","","html-keyboard-response","402","602290","0.0-6.0-2.60","","<div style=""font-size:60px;"">+</div>","null","","","","","","",""
"965","","image-keyboard-response","403","603256","0.0-6.0-0.61","","img/green.png","32","trial","null","false","0,1","4:nogo_d","",""
"null","","html-keyboard-response","404","604257","0.0-6.0-1.61","","<img src=""img/green-n.png"" border=""10"">","null","trial","null","","0,1","4:nogo_d","0",""
"null","","html-keyboard-response","405","605259","0.0-6.0-2.61","","<div style=""font-size:60px;"">+</div>","null","","","","","","",""
"null","","image-keyboard-response","406","606760","0.0-6.0-0.62","","img/blue.png","null","trial","null","true","0.2,0.8","2:nogo_b","",""
"null","","html-keyboard-response","407","607761","0.0-6.0-1.62","","<img src=""img/blue-n.png"">","null","trial","null","","0.2,0.8","2:nogo_b","0",""
"null","","html-keyboard-response","408","608763","0.0-6.0-2.62","","<div style=""font-size:60px;"">+</div>","null","","","","","","",""
"885.2000000476837","","image-keyboard-response","409","609648","0.0-6.0-0.63","","img/yellow.png","32","trial","32","true","0.8,0.2","1:go_a","",""
"null","","html-keyboard-response","410","610649","0.0-6.0-1.63","","<img src=""img/yellow-n.png"" border=""10"">","null","trial","32","","0.8,0.2","1:go_a","0",""
"null","","html-keyboard-response","411","611650","0.0-6.0-2.63","","<div style=""font-size:60px;"">+</div>","null","","","","","","",""
"null","","image-keyboard-response","412","613152","0.0-6.0-0.64","","img/blue.png","null","trial","null","true","0.2,0.8","2:nogo_b","",""
"null","","html-keyboard-response","413","614153","0.0-6.0-1.64","","<img src=""img/blue-r.png"">","null","trial","null","","0.2,0.8","2:nogo_b","1",""
"null","","html-keyboard-response","414","615153","0.0-6.0-2.64","","<div style=""font-size:60px;"">+</div>","null","","","","","","",""
"517.8999999761581","","image-keyboard-response","415","615672","0.0-6.0-0.65","","img/green.png","32","trial","null","false","0,1","4:nogo_d","",""
"null","","html-keyboard-response","416","616673","0.0-6.0-1.65","","<img src=""img/green-n.png"" border=""10"">","null","trial","null","","0,1","4:nogo_d","0",""
"null","","html-keyboard-response","417","617674","0.0-6.0-2.65","","<div style=""font-size:60px;"">+</div>","null","","","","","","",""
"533.1000000238419","","image-keyboard-response","418","618208","0.0-6.0-0.66","","img/orange.png","32","trial","32","true","1,0","3:go_c","",""
"null","","html-keyboard-response","419","619210","0.0-6.0-1.66","","<img src=""img/orange-r.png"" border=""10"">","null","trial","32","","1,0","3:go_c","1",""
"null","","html-keyboard-response","420","620210","0.0-6.0-2.66","","<div style=""font-size:60px;"">+</div>","null","","","","","","",""
"1221.4000000953674","","image-keyboard-response","421","621432","0.0-6.0-0.67","","img/yellow.png","32","trial","32","true","0.8,0.2","1:go_a","",""
"null","","html-keyboard-response","422","622434","0.0-6.0-1.67","","<img src=""img/yellow-r.png"" border=""10"">","null","trial","32","","0.8,0.2","1:go_a","1",""
"null","","html-keyboard-response","423","623434","0.0-6.0-2.67","","<div style=""font-size:60px;"">+</div>","null","","","","","","",""
"null","","image-keyboard-response","424","624936","0.0-6.0-0.68","","img/green.png","null","trial","null","true","0,1","4:nogo_d","",""
"null","","html-keyboard-response","425","625938","0.0-6.0-1.68","","<img src=""img/green-r.png"">","null","trial","null","","0,1","4:nogo_d","1",""
"null","","html-keyboard-response","426","626939","0.0-6.0-2.68","","<div style=""font-size:60px;"">+</div>","null","","","","","","",""
"null","","image-keyboard-response","427","628440","0.0-6.0-0.69","","img/blue.png","null","trial","null","true","0.2,0.8","2:nogo_b","",""
"null","","html-keyboard-response","428","629441","0.0-6.0-1.69","","<img src=""img/blue-n.png"">","null","trial","null","","0.2,0.8","2:nogo_b","0",""
"null","","html-keyboard-response","429","630444","0.0-6.0-2.69","","<div style=""font-size:60px;"">+</div>","null","","","","","","",""
"595.6000000238419","","image-keyboard-response","430","631040","0.0-6.0-0.70","","img/orange.png","32","trial","32","true","1,0","3:go_c","",""
"null","","html-keyboard-response","431","632041","0.0-6.0-1.70","","<img src=""img/orange-r.png"" border=""10"">","null","trial","32","","1,0","3:go_c","1",""
"null","","html-keyboard-response","432","633043","0.0-6.0-2.70","","<div style=""font-size:60px;"">+</div>","null","","","","","","",""
"null","","image-keyboard-response","433","634544","0.0-6.0-0.71","","img/yellow.png","null","trial","32","false","0.8,0.2","1:go_a","",""
"null","","html-keyboard-response","434","635553","0.0-6.0-1.71","","<img src=""img/yellow-n.png"">","null","trial","32","","0.8,0.2","1:go_a","0",""
"null","","html-keyboard-response","435","636554","0.0-6.0-2.71","","<div style=""font-size:60px;"">+</div>","null","","","","","","",""
"null","","image-keyboard-response","436","638056","0.0-6.0-0.72","","img/blue.png","null","trial","null","true","0.2,0.8","2:nogo_b","",""
"null","","html-keyboard-response","437","639057","0.0-6.0-1.72","","<img src=""img/blue-r.png"">","null","trial","null","","0.2,0.8","2:nogo_b","1",""
"null","","html-keyboard-response","438","640058","0.0-6.0-2.72","","<div style=""font-size:60px;"">+</div>","null","","","","","","",""
"854","","image-keyboard-response","439","640912","0.0-6.0-0.73","","img/green.png","32","trial","null","false","0,1","4:nogo_d","",""
"null","","html-keyboard-response","440","641914","0.0-6.0-1.73","","<img src=""img/green-n.png"" border=""10"">","null","trial","null","","0,1","4:nogo_d","0",""
"null","","html-keyboard-response","441","642915","0.0-6.0-2.73","","<div style=""font-size:60px;"">+</div>","null","","","","","","",""
"660.6000000238419","","image-keyboard-response","442","643576","0.0-6.0-0.74","","img/orange.png","32","trial","32","true","1,0","3:go_c","",""
"null","","html-keyboard-response","443","644578","0.0-6.0-1.74","","<img src=""img/orange-r.png"" border=""10"">","null","trial","32","","1,0","3:go_c","1",""
"null","","html-keyboard-response","444","645579","0.0-6.0-2.74","","<div style=""font-size:60px;"">+</div>","null","","","","","","",""
"1317.2999999523163","","image-keyboard-response","445","646896","0.0-6.0-0.75","","img/yellow.png","32","trial","32","true","0.8,0.2","1:go_a","",""
"null","","html-keyboard-response","446","647897","0.0-6.0-1.75","","<img src=""img/yellow-r.png"" border=""10"">","null","trial","32","","0.8,0.2","1:go_a","1",""
"null","","html-keyboard-response","447","648898","0.0-6.0-2.75","","<div style=""font-size:60px;"">+</div>","null","","","","","","",""
"null","","image-keyboard-response","448","650399","0.0-6.0-0.76","","img/blue.png","null","trial","null","true","0.2,0.8","2:nogo_b","",""
"null","","html-keyboard-response","449","651400","0.0-6.0-1.76","","<img src=""img/blue-r.png"">","null","trial","null","","0.2,0.8","2:nogo_b","1",""
"null","","html-keyboard-response","450","652402","0.0-6.0-2.76","","<div style=""font-size:60px;"">+</div>","null","","","","","","",""
"null","","image-keyboard-response","451","653903","0.0-6.0-0.77","","img/green.png","null","trial","null","true","0,1","4:nogo_d","",""
"null","","html-keyboard-response","452","654905","0.0-6.0-1.77","","<img src=""img/green-r.png"">","null","trial","null","","0,1","4:nogo_d","1",""
"null","","html-keyboard-response","453","655905","0.0-6.0-2.77","","<div style=""font-size:60px;"">+</div>","null","","","","","","",""
"510.7000000476837","","image-keyboard-response","454","656416","0.0-6.0-0.78","","img/orange.png","32","trial","32","true","1,0","3:go_c","",""
"null","","html-keyboard-response","455","657418","0.0-6.0-1.78","","<img src=""img/orange-r.png"" border=""10"">","null","trial","32","","1,0","3:go_c","1",""
"null","","html-keyboard-response","456","658419","0.0-6.0-2.78","","<div style=""font-size:60px;"">+</div>","null","","","","","","",""
"null","","image-keyboard-response","457","659921","0.0-6.0-0.79","","img/yellow.png","null","trial","32","false","0.8,0.2","1:go_a","",""
"null","","html-keyboard-response","458","660922","0.0-6.0-1.79","","<img src=""img/yellow-n.png"">","null","trial","32","","0.8,0.2","1:go_a","0",""
"null","","html-keyboard-response","459","661924","0.0-6.0-2.79","","<div style=""font-size:60px;"">+</div>","null","","","","","","",""
"null","","image-keyboard-response","460","663425","0.0-6.0-0.80","","img/yellow.png","null","trial","32","false","0.8,0.2","1:go_a","",""
"null","","html-keyboard-response","461","664428","0.0-6.0-1.80","","<img src=""img/yellow-r.png"">","null","trial","32","","0.8,0.2","1:go_a","1",""
"null","","html-keyboard-response","462","665429","0.0-6.0-2.80","","<div style=""font-size:60px;"">+</div>","null","","","","","","",""
"null","","image-keyboard-response","463","666929","0.0-6.0-0.81","","img/blue.png","null","trial","null","true","0.2,0.8","2:nogo_b","",""
"null","","html-keyboard-response","464","667931","0.0-6.0-1.81","","<img src=""img/blue-r.png"">","null","trial","null","","0.2,0.8","2:nogo_b","1",""
"null","","html-keyboard-response","465","668932","0.0-6.0-2.81","","<div style=""font-size:60px;"">+</div>","null","","","","","","",""
"422","","image-keyboard-response","466","669354","0.0-6.0-0.82","","img/orange.png","32","trial","32","true","1,0","3:go_c","",""
"null","","html-keyboard-response","467","670355","0.0-6.0-1.82","","<img src=""img/orange-r.png"" border=""10"">","null","trial","32","","1,0","3:go_c","1",""
"null","","html-keyboard-response","468","671357","0.0-6.0-2.82","","<div style=""font-size:60px;"">+</div>","null","","","","","","",""
"null","","image-keyboard-response","469","672858","0.0-6.0-0.83","","img/green.png","null","trial","null","true","0,1","4:nogo_d","",""
"null","","html-keyboard-response","470","673860","0.0-6.0-1.83","","<img src=""img/green-r.png"">","null","trial","null","","0,1","4:nogo_d","1",""
"null","","html-keyboard-response","471","674861","0.0-6.0-2.83","","<div style=""font-size:60px;"">+</div>","null","","","","","","",""
"null","","image-keyboard-response","472","676363","0.0-6.0-0.84","","img/blue.png","null","trial","null","true","0.2,0.8","2:nogo_b","",""
"null","","html-keyboard-response","473","677364","0.0-6.0-1.84","","<img src=""img/blue-r.png"">","null","trial","null","","0.2,0.8","2:nogo_b","1",""
"null","","html-keyboard-response","474","678365","0.0-6.0-2.84","","<div style=""font-size:60px;"">+</div>","null","","","","","","",""
"827","","image-keyboard-response","475","679192","0.0-6.0-0.85","","img/orange.png","32","trial","32","true","1,0","3:go_c","",""
"null","","html-keyboard-response","476","680194","0.0-6.0-1.85","","<img src=""img/orange-r.png"" border=""10"">","null","trial","32","","1,0","3:go_c","1",""
"null","","html-keyboard-response","477","681195","0.0-6.0-2.85","","<div style=""font-size:60px;"">+</div>","null","","","","","","",""
"null","","image-keyboard-response","478","682697","0.0-6.0-0.86","","img/yellow.png","null","trial","32","false","0.8,0.2","1:go_a","",""
"null","","html-keyboard-response","479","683698","0.0-6.0-1.86","","<img src=""img/yellow-n.png"">","null","trial","32","","0.8,0.2","1:go_a","0",""
"null","","html-keyboard-response","480","684699","0.0-6.0-2.86","","<div style=""font-size:60px;"">+</div>","null","","","","","","",""
"756.7000000476837","","image-keyboard-response","481","685456","0.0-6.0-0.87","","img/green.png","32","trial","null","false","0,1","4:nogo_d","",""
"null","","html-keyboard-response","482","686458","0.0-6.0-1.87","","<img src=""img/green-n.png"" border=""10"">","null","trial","null","","0,1","4:nogo_d","0",""
"null","","html-keyboard-response","483","687459","0.0-6.0-2.87","","<div style=""font-size:60px;"">+</div>","null","","","","","","",""
"636.2999999523163","","image-keyboard-response","484","688096","0.0-6.0-0.88","","img/green.png","32","trial","null","false","0,1","4:nogo_d","",""
"null","","html-keyboard-response","485","689097","0.0-6.0-1.88","","<img src=""img/green-n.png"" border=""10"">","null","trial","null","","0,1","4:nogo_d","0",""
"null","","html-keyboard-response","486","690099","0.0-6.0-2.88","","<div style=""font-size:60px;"">+</div>","null","","","","","","",""
"null","","image-keyboard-response","487","691600","0.0-6.0-0.89","","img/yellow.png","null","trial","32","false","0.8,0.2","1:go_a","",""
"null","","html-keyboard-response","488","692617","0.0-6.0-1.89","","<img src=""img/yellow-n.png"">","null","trial","32","","0.8,0.2","1:go_a","0",""
"null","","html-keyboard-response","489","693619","0.0-6.0-2.89","","<div style=""font-size:60px;"">+</div>","null","","","","","","",""
"548.7999999523163","","image-keyboard-response","490","694168","0.0-6.0-0.90","","img/orange.png","32","trial","32","true","1,0","3:go_c","",""
"null","","html-keyboard-response","491","695169","0.0-6.0-1.90","","<img src=""img/orange-r.png"" border=""10"">","null","trial","32","","1,0","3:go_c","1",""
"null","","html-keyboard-response","492","696170","0.0-6.0-2.90","","<div style=""font-size:60px;"">+</div>","null","","","","","","",""
"1165.8999999761581","","image-keyboard-response","493","697336","0.0-6.0-0.91","","img/blue.png","32","trial","null","false","0.2,0.8","2:nogo_b","",""
"null","","html-keyboard-response","494","698337","0.0-6.0-1.91","","<img src=""img/blue-n.png"" border=""10"">","null","trial","null","","0.2,0.8","2:nogo_b","0",""
"null","","html-keyboard-response","495","699338","0.0-6.0-2.91","","<div style=""font-size:60px;"">+</div>","null","","","","","","",""
"629.1999999284744","","image-keyboard-response","496","699968","0.0-6.0-0.92","","img/orange.png","32","trial","32","true","1,0","3:go_c","",""
"null","","html-keyboard-response","497","700970","0.0-6.0-1.92","","<img src=""img/orange-r.png"" border=""10"">","null","trial","32","","1,0","3:go_c","1",""
"null","","html-keyboard-response","498","701971","0.0-6.0-2.92","","<div style=""font-size:60px;"">+</div>","null","","","","","","",""
"null","","image-keyboard-response","499","703472","0.0-6.0-0.93","","img/yellow.png","null","trial","32","false","0.8,0.2","1:go_a","",""
"null","","html-keyboard-response","500","704473","0.0-6.0-1.93","","<img src=""img/yellow-n.png"">","null","trial","32","","0.8,0.2","1:go_a","0",""
"null","","html-keyboard-response","501","705474","0.0-6.0-2.93","","<div style=""font-size:60px;"">+</div>","null","","","","","","",""
"1173.3000000715256","","image-keyboard-response","502","706648","0.0-6.0-0.94","","img/green.png","32","trial","null","false","0,1","4:nogo_d","",""
"null","","html-keyboard-response","503","707649","0.0-6.0-1.94","","<img src=""img/green-n.png"" border=""10"">","null","trial","null","","0,1","4:nogo_d","0",""
"null","","html-keyboard-response","504","708656","0.0-6.0-2.94","","<div style=""font-size:60px;"">+</div>","null","","","","","","",""
"1031.3000000715256","","image-keyboard-response","505","709688","0.0-6.0-0.95","","img/blue.png","32","trial","null","false","0.2,0.8","2:nogo_b","",""
"null","","html-keyboard-response","506","710689","0.0-6.0-1.95","","<img src=""img/blue-n.png"" border=""10"">","null","trial","null","","0.2,0.8","2:nogo_b","0",""
"null","","html-keyboard-response","507","711690","0.0-6.0-2.95","","<div style=""font-size:60px;"">+</div>","null","","","","","","",""
"693.3000000715256","","image-keyboard-response","508","712384","0.0-6.0-0.96","","img/orange.png","32","trial","32","true","1,0","3:go_c","",""
"null","","html-keyboard-response","509","713387","0.0-6.0-1.96","","<img src=""img/orange-r.png"" border=""10"">","null","trial","32","","1,0","3:go_c","1",""
"null","","html-keyboard-response","510","714388","0.0-6.0-2.96","","<div style=""font-size:60px;"">+</div>","null","","","","","","",""
"1003.7999999523163","","image-keyboard-response","511","715392","0.0-6.0-0.97","","img/blue.png","32","trial","null","false","0.2,0.8","2:nogo_b","",""
"null","","html-keyboard-response","512","716394","0.0-6.0-1.97","","<img src=""img/blue-n.png"" border=""10"">","null","trial","null","","0.2,0.8","2:nogo_b","0",""
"null","","html-keyboard-response","513","717394","0.0-6.0-2.97","","<div style=""font-size:60px;"">+</div>","null","","","","","","",""
"null","","image-keyboard-response","514","718896","0.0-6.0-0.98","","img/green.png","null","trial","null","true","0,1","4:nogo_d","",""
"null","","html-keyboard-response","515","719897","0.0-6.0-1.98","","<img src=""img/green-r.png"">","null","trial","null","","0,1","4:nogo_d","1",""
"null","","html-keyboard-response","516","720898","0.0-6.0-2.98","","<div style=""font-size:60px;"">+</div>","null","","","","","","",""
"781.7999999523163","","image-keyboard-response","517","721680","0.0-6.0-0.99","","img/yellow.png","32","trial","32","true","0.8,0.2","1:go_a","",""
"null","","html-keyboard-response","518","722682","0.0-6.0-1.99","","<img src=""img/yellow-r.png"" border=""10"">","null","trial","32","","0.8,0.2","1:go_a","1",""
"null","","html-keyboard-response","519","723684","0.0-6.0-2.99","","<div style=""font-size:60px;"">+</div>","null","","","","","","",""
"1084.1000000238419","","image-keyboard-response","520","724768","0.0-6.0-0.100","","img/blue.png","32","trial","null","false","0.2,0.8","2:nogo_b","",""
"null","","html-keyboard-response","521","725769","0.0-6.0-1.100","","<img src=""img/blue-n.png"" border=""10"">","null","trial","null","","0.2,0.8","2:nogo_b","0",""
"null","","html-keyboard-response","522","726781","0.0-6.0-2.100","","<div style=""font-size:60px;"">+</div>","null","","","","","","",""
"1354.5","","image-keyboard-response","523","728136","0.0-6.0-0.101","","img/yellow.png","32","trial","32","true","0.8,0.2","1:go_a","",""
"null","","html-keyboard-response","524","729138","0.0-6.0-1.101","","<img src=""img/yellow-r.png"" border=""10"">","null","trial","32","","0.8,0.2","1:go_a","1",""
"null","","html-keyboard-response","525","730139","0.0-6.0-2.101","","<div style=""font-size:60px;"">+</div>","null","","","","","","",""
"null","","image-keyboard-response","526","731641","0.0-6.0-0.102","","img/green.png","null","trial","null","true","0,1","4:nogo_d","",""
"null","","html-keyboard-response","527","732643","0.0-6.0-1.102","","<img src=""img/green-r.png"">","null","trial","null","","0,1","4:nogo_d","1",""
"null","","html-keyboard-response","528","733644","0.0-6.0-2.102","","<div style=""font-size:60px;"">+</div>","null","","","","","","",""
"411.3000000715256","","image-keyboard-response","529","734056","0.0-6.0-0.103","","img/orange.png","32","trial","32","true","1,0","3:go_c","",""
"null","","html-keyboard-response","530","735058","0.0-6.0-1.103","","<img src=""img/orange-r.png"" border=""10"">","null","trial","32","","1,0","3:go_c","1",""
"null","","html-keyboard-response","531","736069","0.0-6.0-2.103","","<div style=""font-size:60px;"">+</div>","null","","","","","","",""
"null","","image-keyboard-response","532","737570","0.0-6.0-0.104","","img/green.png","null","trial","null","true","0,1","4:nogo_d","",""
"null","","html-keyboard-response","533","738572","0.0-6.0-1.104","","<img src=""img/green-r.png"">","null","trial","null","","0,1","4:nogo_d","1",""
"null","","html-keyboard-response","534","739574","0.0-6.0-2.104","","<div style=""font-size:60px;"">+</div>","null","","","","","","",""
"689.7999999523163","","image-keyboard-response","535","740264","0.0-6.0-0.105","","img/orange.png","32","trial","32","true","1,0","3:go_c","",""
"null","","html-keyboard-response","536","741266","0.0-6.0-1.105","","<img src=""img/orange-r.png"" border=""10"">","null","trial","32","","1,0","3:go_c","1",""
"null","","html-keyboard-response","537","742267","0.0-6.0-2.105","","<div style=""font-size:60px;"">+</div>","null","","","","","","",""
"null","","image-keyboard-response","538","743768","0.0-6.0-0.106","","img/blue.png","null","trial","null","true","0.2,0.8","2:nogo_b","",""
"null","","html-keyboard-response","539","744769","0.0-6.0-1.106","","<img src=""img/blue-r.png"">","null","trial","null","","0.2,0.8","2:nogo_b","1",""
"null","","html-keyboard-response","540","745770","0.0-6.0-2.106","","<div style=""font-size:60px;"">+</div>","null","","","","","","",""
"1390.2999999523163","","image-keyboard-response","541","747160","0.0-6.0-0.107","","img/yellow.png","32","trial","32","true","0.8,0.2","1:go_a","",""
"null","","html-keyboard-response","542","748164","0.0-6.0-1.107","","<img src=""img/yellow-r.png"" border=""10"">","null","trial","32","","0.8,0.2","1:go_a","1",""
"null","","html-keyboard-response","543","749165","0.0-6.0-2.107","","<div style=""font-size:60px;"">+</div>","null","","","","","","",""
"1226.6000000238419","","image-keyboard-response","544","750392","0.0-6.0-0.108","","img/blue.png","32","trial","null","false","0.2,0.8","2:nogo_b","",""
"null","","html-keyboard-response","545","751393","0.0-6.0-1.108","","<img src=""img/blue-n.png"" border=""10"">","null","trial","null","","0.2,0.8","2:nogo_b","0",""
"null","","html-keyboard-response","546","752394","0.0-6.0-2.108","","<div style=""font-size:60px;"">+</div>","null","","","","","","",""
"null","","image-keyboard-response","547","753895","0.0-6.0-0.109","","img/green.png","null","trial","null","true","0,1","4:nogo_d","",""
"null","","html-keyboard-response","548","754897","0.0-6.0-1.109","","<img src=""img/green-r.png"">","null","trial","null","","0,1","4:nogo_d","1",""
"null","","html-keyboard-response","549","755897","0.0-6.0-2.109","","<div style=""font-size:60px;"">+</div>","null","","","","","","",""
"518","","image-keyboard-response","550","756416","0.0-6.0-0.110","","img/orange.png","32","trial","32","true","1,0","3:go_c","",""
"null","","html-keyboard-response","551","757417","0.0-6.0-1.110","","<img src=""img/orange-r.png"" border=""10"">","null","trial","32","","1,0","3:go_c","1",""
"null","","html-keyboard-response","552","758419","0.0-6.0-2.110","","<div style=""font-size:60px;"">+</div>","null","","","","","","",""
"1125","","image-keyboard-response","553","759544","0.0-6.0-0.111","","img/yellow.png","32","trial","32","true","0.8,0.2","1:go_a","",""
"null","","html-keyboard-response","554","760545","0.0-6.0-1.111","","<img src=""img/yellow-n.png"" border=""10"">","null","trial","32","","0.8,0.2","1:go_a","0",""
"null","","html-keyboard-response","555","761546","0.0-6.0-2.111","","<div style=""font-size:60px;"">+</div>","null","","","","","","",""
"null","","image-keyboard-response","556","763048","0.0-6.0-0.112","","img/blue.png","null","trial","null","true","0.2,0.8","2:nogo_b","",""
"null","","html-keyboard-response","557","764050","0.0-6.0-1.112","","<img src=""img/blue-r.png"">","null","trial","null","","0.2,0.8","2:nogo_b","1",""
"null","","html-keyboard-response","558","765051","0.0-6.0-2.112","","<div style=""font-size:60px;"">+</div>","null","","","","","","",""
"1268.3000000715256","","image-keyboard-response","559","766320","0.0-6.0-0.113","","img/green.png","32","trial","null","false","0,1","4:nogo_d","",""
"null","","html-keyboard-response","560","767331","0.0-6.0-1.113","","<img src=""img/green-n.png"" border=""10"">","null","trial","null","","0,1","4:nogo_d","0",""
"null","","html-keyboard-response","561","768333","0.0-6.0-2.113","","<div style=""font-size:60px;"">+</div>","null","","","","","","",""
"714.5","","image-keyboard-response","562","769048","0.0-6.0-0.114","","img/orange.png","32","trial","32","true","1,0","3:go_c","",""
"null","","html-keyboard-response","563","770049","0.0-6.0-1.114","","<img src=""img/orange-r.png"" border=""10"">","null","trial","32","","1,0","3:go_c","1",""
"null","","html-keyboard-response","564","771050","0.0-6.0-2.114","","<div style=""font-size:60px;"">+</div>","null","","","","","","",""
"1191.8999999761581","","image-keyboard-response","565","772242","0.0-6.0-0.115","","img/yellow.png","32","trial","32","true","0.8,0.2","1:go_a","",""
"null","","html-keyboard-response","566","773244","0.0-6.0-1.115","","<img src=""img/yellow-r.png"" border=""10"">","null","trial","32","","0.8,0.2","1:go_a","1",""
"null","","html-keyboard-response","567","774245","0.0-6.0-2.115","","<div style=""font-size:60px;"">+</div>","null","","","","","","",""
"842.4000000953674","","image-keyboard-response","568","775088","0.0-6.0-0.116","","img/yellow.png","32","trial","32","true","0.8,0.2","1:go_a","",""
"null","","html-keyboard-response","569","776089","0.0-6.0-1.116","","<img src=""img/yellow-r.png"" border=""10"">","null","trial","32","","0.8,0.2","1:go_a","1",""
"null","","html-keyboard-response","570","777090","0.0-6.0-2.116","","<div style=""font-size:60px;"">+</div>","null","","","","","","",""
"781.3000000715256","","image-keyboard-response","571","777872","0.0-6.0-0.117","","img/orange.png","32","trial","32","true","1,0","3:go_c","",""
"null","","html-keyboard-response","572","778873","0.0-6.0-1.117","","<img src=""img/orange-r.png"" border=""10"">","null","trial","32","","1,0","3:go_c","1",""
"null","","html-keyboard-response","573","779875","0.0-6.0-2.117","","<div style=""font-size:60px;"">+</div>","null","","","","","","",""
"null","","image-keyboard-response","574","781376","0.0-6.0-0.118","","img/blue.png","null","trial","null","true","0.2,0.8","2:nogo_b","",""
"null","","html-keyboard-response","575","782377","0.0-6.0-1.118","","<img src=""img/blue-r.png"">","null","trial","null","","0.2,0.8","2:nogo_b","1",""
"null","","html-keyboard-response","576","783378","0.0-6.0-2.118","","<div style=""font-size:60px;"">+</div>","null","","","","","","",""
"1037.8999999761581","","image-keyboard-response","577","784416","0.0-6.0-0.119","","img/green.png","32","trial","null","false","0,1","4:nogo_d","",""
"null","","html-keyboard-response","578","785417","0.0-6.0-1.119","","<img src=""img/green-n.png"" border=""10"">","null","trial","null","","0,1","4:nogo_d","0",""
"null","","html-keyboard-response","579","786419","0.0-6.0-2.119","","<div style=""font-size:60px;"">+</div>","null","","","","","","",""
"1619769","","instructions","580","2406188","0.0-7.0","[{""page_index"":0,""viewing_time"":1619768.8999999762}]","","","","","","","","",""
"628","","image-keyboard-response","581","2406816","0.0-8.0-0.0","","img/red.png","32","trial","32","true","0.8,0.2","1:go_a","",""
"null","","html-keyboard-response","582","2407818","0.0-8.0-1.0","","<img src=""img/red-r.png"" border=""10"">","null","trial","32","","0.8,0.2","1:go_a","1",""
"null","","html-keyboard-response","583","2408819","0.0-8.0-2.0","","<div style=""font-size:60px;"">+</div>","null","","","","","","",""
"844.9000000953674","","image-keyboard-response","584","2409664","0.0-8.0-0.1","","img/green.png","32","trial","null","false","0.4,0.6","4:nogo_d","",""
"null","","html-keyboard-response","585","2410666","0.0-8.0-1.1","","<img src=""img/green-n.png"" border=""10"">","null","trial","null","","0.4,0.6","4:nogo_d","0",""
"null","","html-keyboard-response","586","2411667","0.0-8.0-2.1","","<div style=""font-size:60px;"">+</div>","null","","","","","","",""
"972.8999999761581","","image-keyboard-response","587","2412641","0.0-8.0-0.2","","img/pink.png","32","trial","32","true","0.6,0.4","3:go_c","",""
"null","","html-keyboard-response","588","2413642","0.0-8.0-1.2","","<img src=""img/pink-r.png"" border=""10"">","null","trial","32","","0.6,0.4","3:go_c","1",""
"null","","html-keyboard-response","589","2414643","0.0-8.0-2.2","","<div style=""font-size:60px;"">+</div>","null","","","","","","",""
"1268.5","","image-keyboard-response","590","2415912","0.0-8.0-0.3","","img/orange.png","32","trial","null","false","0.2,0.8","2:nogo_b","",""
"null","","html-keyboard-response","591","2416913","0.0-8.0-1.3","","<img src=""img/orange-n.png"" border=""10"">","null","trial","null","","0.2,0.8","2:nogo_b","0",""
"null","","html-keyboard-response","592","2417914","0.0-8.0-2.3","","<div style=""font-size:60px;"">+</div>","null","","","","","","",""
"null","","image-keyboard-response","593","2419415","0.0-8.0-0.4","","img/orange.png","null","trial","null","true","0.2,0.8","2:nogo_b","",""
"null","","html-keyboard-response","594","2420417","0.0-8.0-1.4","","<img src=""img/orange-r.png"">","null","trial","null","","0.2,0.8","2:nogo_b","1",""
"null","","html-keyboard-response","595","2421418","0.0-8.0-2.4","","<div style=""font-size:60px;"">+</div>","null","","","","","","",""
"1094.1000000238419","","image-keyboard-response","596","2422512","0.0-8.0-0.5","","img/pink.png","32","trial","32","true","0.6,0.4","3:go_c","",""
"null","","html-keyboard-response","597","2423513","0.0-8.0-1.5","","<img src=""img/pink-r.png"" border=""10"">","null","trial","32","","0.6,0.4","3:go_c","1",""
"null","","html-keyboard-response","598","2424514","0.0-8.0-2.5","","<div style=""font-size:60px;"">+</div>","null","","","","","","",""
"685.8000000715256","","image-keyboard-response","599","2425200","0.0-8.0-0.6","","img/red.png","32","trial","32","true","0.8,0.2","1:go_a","",""
"null","","html-keyboard-response","600","2426204","0.0-8.0-1.6","","<img src=""img/red-r.png"" border=""10"">","null","trial","32","","0.8,0.2","1:go_a","1",""
"null","","html-keyboard-response","601","2427211","0.0-8.0-2.6","","<div style=""font-size:60px;"">+</div>","null","","","","","","",""
"null","","image-keyboard-response","602","2428713","0.0-8.0-0.7","","img/green.png","null","trial","null","true","0.4,0.6","4:nogo_d","",""
"null","","html-keyboard-response","603","2429714","0.0-8.0-1.7","","<img src=""img/green-n.png"">","null","trial","null","","0.4,0.6","4:nogo_d","0",""
"null","","html-keyboard-response","604","2430715","0.0-8.0-2.7","","<div style=""font-size:60px;"">+</div>","null","","","","","","",""
"604.7000000476837","","image-keyboard-response","605","2431320","0.0-8.0-0.8","","img/red.png","32","trial","32","true","0.8,0.2","1:go_a","",""
"null","","html-keyboard-response","606","2432322","0.0-8.0-1.8","","<img src=""img/red-r.png"" border=""10"">","null","trial","32","","0.8,0.2","1:go_a","1",""
"null","","html-keyboard-response","607","2433323","0.0-8.0-2.8","","<div style=""font-size:60px;"">+</div>","null","","","","","","",""
"1365.1999999284744","","image-keyboard-response","608","2434689","0.0-8.0-0.9","","img/pink.png","32","trial","32","true","0.6,0.4","3:go_c","",""
"null","","html-keyboard-response","609","2435690","0.0-8.0-1.9","","<img src=""img/pink-r.png"" border=""10"">","null","trial","32","","0.6,0.4","3:go_c","1",""
"null","","html-keyboard-response","610","2436691","0.0-8.0-2.9","","<div style=""font-size:60px;"">+</div>","null","","","","","","",""
"null","","image-keyboard-response","611","2438193","0.0-8.0-0.10","","img/orange.png","null","trial","null","true","0.2,0.8","2:nogo_b","",""
"null","","html-keyboard-response","612","2439195","0.0-8.0-1.10","","<img src=""img/orange-r.png"">","null","trial","null","","0.2,0.8","2:nogo_b","1",""
"null","","html-keyboard-response","613","2440196","0.0-8.0-2.10","","<div style=""font-size:60px;"">+</div>","null","","","","","","",""
"null","","image-keyboard-response","614","2441697","0.0-8.0-0.11","","img/green.png","null","trial","null","true","0.4,0.6","4:nogo_d","",""
"null","","html-keyboard-response","615","2442698","0.0-8.0-1.11","","<img src=""img/green-n.png"">","null","trial","null","","0.4,0.6","4:nogo_d","0",""
"null","","html-keyboard-response","616","2443700","0.0-8.0-2.11","","<div style=""font-size:60px;"">+</div>","null","","","","","","",""
"null","","image-keyboard-response","617","2445202","0.0-8.0-0.12","","img/green.png","null","trial","null","true","0.4,0.6","4:nogo_d","",""
"null","","html-keyboard-response","618","2446203","0.0-8.0-1.12","","<img src=""img/green-r.png"">","null","trial","null","","0.4,0.6","4:nogo_d","1",""
"null","","html-keyboard-response","619","2447204","0.0-8.0-2.12","","<div style=""font-size:60px;"">+</div>","null","","","","","","",""
"868.5999999046326","","image-keyboard-response","620","2448073","0.0-8.0-0.13","","img/orange.png","32","trial","null","false","0.2,0.8","2:nogo_b","",""
"null","","html-keyboard-response","621","2449074","0.0-8.0-1.13","","<img src=""img/orange-n.png"" border=""10"">","null","trial","null","","0.2,0.8","2:nogo_b","0",""
"null","","html-keyboard-response","622","2450076","0.0-8.0-2.13","","<div style=""font-size:60px;"">+</div>","null","","","","","","",""
"628.3999999761581","","image-keyboard-response","623","2450705","0.0-8.0-0.14","","img/red.png","32","trial","32","true","0.8,0.2","1:go_a","",""
"null","","html-keyboard-response","624","2451706","0.0-8.0-1.14","","<img src=""img/red-r.png"" border=""10"">","null","trial","32","","0.8,0.2","1:go_a","1",""
"null","","html-keyboard-response","625","2452707","0.0-8.0-2.14","","<div style=""font-size:60px;"">+</div>","null","","","","","","",""
"597","","image-keyboard-response","626","2453305","0.0-8.0-0.15","","img/pink.png","32","trial","32","true","0.6,0.4","3:go_c","",""
"null","","html-keyboard-response","627","2454307","0.0-8.0-1.15","","<img src=""img/pink-r.png"" border=""10"">","null","trial","32","","0.6,0.4","3:go_c","1",""
"null","","html-keyboard-response","628","2455308","0.0-8.0-2.15","","<div style=""font-size:60px;"">+</div>","null","","","","","","",""
"null","","image-keyboard-response","629","2456809","0.0-8.0-0.16","","img/orange.png","null","trial","null","true","0.2,0.8","2:nogo_b","",""
"null","","html-keyboard-response","630","2457810","0.0-8.0-1.16","","<img src=""img/orange-r.png"">","null","trial","null","","0.2,0.8","2:nogo_b","1",""
"null","","html-keyboard-response","631","2458811","0.0-8.0-2.16","","<div style=""font-size:60px;"">+</div>","null","","","","","","",""
"877.4000000953674","","image-keyboard-response","632","2459689","0.0-8.0-0.17","","img/pink.png","32","trial","32","true","0.6,0.4","3:go_c","",""
"null","","html-keyboard-response","633","2460690","0.0-8.0-1.17","","<img src=""img/pink-n.png"" border=""10"">","null","trial","32","","0.6,0.4","3:go_c","0",""
"null","","html-keyboard-response","634","2461692","0.0-8.0-2.17","","<div style=""font-size:60px;"">+</div>","null","","","","","","",""
"null","","image-keyboard-response","635","2463194","0.0-8.0-0.18","","img/green.png","null","trial","null","true","0.4,0.6","4:nogo_d","",""
"null","","html-keyboard-response","636","2464195","0.0-8.0-1.18","","<img src=""img/green-n.png"">","null","trial","null","","0.4,0.6","4:nogo_d","0",""
"null","","html-keyboard-response","637","2465196","0.0-8.0-2.18","","<div style=""font-size:60px;"">+</div>","null","","","","","","",""
"444.09999990463257","","image-keyboard-response","638","2465641","0.0-8.0-0.19","","img/red.png","32","trial","32","true","0.8,0.2","1:go_a","",""
"null","","html-keyboard-response","639","2466643","0.0-8.0-1.19","","<img src=""img/red-r.png"" border=""10"">","null","trial","32","","0.8,0.2","1:go_a","1",""
"null","","html-keyboard-response","640","2467643","0.0-8.0-2.19","","<div style=""font-size:60px;"">+</div>","null","","","","","","",""
"748.8999999761581","","image-keyboard-response","641","2468393","0.0-8.0-0.20","","img/red.png","32","trial","32","true","0.8,0.2","1:go_a","",""
"null","","html-keyboard-response","642","2469394","0.0-8.0-1.20","","<img src=""img/red-r.png"" border=""10"">","null","trial","32","","0.8,0.2","1:go_a","1",""
"null","","html-keyboard-response","643","2470395","0.0-8.0-2.20","","<div style=""font-size:60px;"">+</div>","null","","","","","","",""
"null","","image-keyboard-response","644","2471897","0.0-8.0-0.21","","img/green.png","null","trial","null","true","0.4,0.6","4:nogo_d","",""
"null","","html-keyboard-response","645","2472899","0.0-8.0-1.21","","<img src=""img/green-r.png"">","null","trial","null","","0.4,0.6","4:nogo_d","1",""
"null","","html-keyboard-response","646","2473899","0.0-8.0-2.21","","<div style=""font-size:60px;"">+</div>","null","","","","","","",""
"605.1999999284744","","image-keyboard-response","647","2474505","0.0-8.0-0.22","","img/orange.png","32","trial","null","false","0.2,0.8","2:nogo_b","",""
"null","","html-keyboard-response","648","2475507","0.0-8.0-1.22","","<img src=""img/orange-n.png"" border=""10"">","null","trial","null","","0.2,0.8","2:nogo_b","0",""
"null","","html-keyboard-response","649","2476508","0.0-8.0-2.22","","<div style=""font-size:60px;"">+</div>","null","","","","","","",""
"820","","image-keyboard-response","650","2477329","0.0-8.0-0.23","","img/pink.png","32","trial","32","true","0.6,0.4","3:go_c","",""
"null","","html-keyboard-response","651","2478330","0.0-8.0-1.23","","<img src=""img/pink-r.png"" border=""10"">","null","trial","32","","0.6,0.4","3:go_c","1",""
"null","","html-keyboard-response","652","2479332","0.0-8.0-2.23","","<div style=""font-size:60px;"">+</div>","null","","","","","","",""
"null","","image-keyboard-response","653","2480833","0.0-8.0-0.24","","img/green.png","null","trial","null","true","0.4,0.6","4:nogo_d","",""
"null","","html-keyboard-response","654","2481834","0.0-8.0-1.24","","<img src=""img/green-n.png"">","null","trial","null","","0.4,0.6","4:nogo_d","0",""
"null","","html-keyboard-response","655","2482836","0.0-8.0-2.24","","<div style=""font-size:60px;"">+</div>","null","","","","","","",""
"1004.5","","image-keyboard-response","656","2483841","0.0-8.0-0.25","","img/orange.png","32","trial","null","false","0.2,0.8","2:nogo_b","",""
"null","","html-keyboard-response","657","2484849","0.0-8.0-1.25","","<img src=""img/orange-r.png"" border=""10"">","null","trial","null","","0.2,0.8","2:nogo_b","1",""
"null","","html-keyboard-response","658","2485850","0.0-8.0-2.25","","<div style=""font-size:60px;"">+</div>","null","","","","","","",""
"686.7999999523163","","image-keyboard-response","659","2486537","0.0-8.0-0.26","","img/pink.png","32","trial","32","true","0.6,0.4","3:go_c","",""
"null","","html-keyboard-response","660","2487539","0.0-8.0-1.26","","<img src=""img/pink-n.png"" border=""10"">","null","trial","32","","0.6,0.4","3:go_c","0",""
"null","","html-keyboard-response","661","2488540","0.0-8.0-2.26","","<div style=""font-size:60px;"">+</div>","null","","","","","","",""
"492","","image-keyboard-response","662","2489033","0.0-8.0-0.27","","img/red.png","32","trial","32","true","0.8,0.2","1:go_a","",""
"null","","html-keyboard-response","663","2490035","0.0-8.0-1.27","","<img src=""img/red-n.png"" border=""10"">","null","trial","32","","0.8,0.2","1:go_a","0",""
"null","","html-keyboard-response","664","2491036","0.0-8.0-2.27","","<div style=""font-size:60px;"">+</div>","null","","","","","","",""
"null","","image-keyboard-response","665","2492536","0.0-8.0-0.28","","img/green.png","null","trial","null","true","0.4,0.6","4:nogo_d","",""
"null","","html-keyboard-response","666","2493538","0.0-8.0-1.28","","<img src=""img/green-r.png"">","null","trial","null","","0.4,0.6","4:nogo_d","1",""
"null","","html-keyboard-response","667","2494540","0.0-8.0-2.28","","<div style=""font-size:60px;"">+</div>","null","","","","","","",""
"1244.5999999046326","","image-keyboard-response","668","2495784","0.0-8.0-0.29","","img/orange.png","32","trial","null","false","0.2,0.8","2:nogo_b","",""
"null","","html-keyboard-response","669","2496786","0.0-8.0-1.29","","<img src=""img/orange-n.png"" border=""10"">","null","trial","null","","0.2,0.8","2:nogo_b","0",""
"null","","html-keyboard-response","670","2497787","0.0-8.0-2.29","","<div style=""font-size:60px;"">+</div>","null","","","","","","",""
"629","","image-keyboard-response","671","2498416","0.0-8.0-0.30","","img/red.png","32","trial","32","true","0.8,0.2","1:go_a","",""
"null","","html-keyboard-response","672","2499417","0.0-8.0-1.30","","<img src=""img/red-r.png"" border=""10"">","null","trial","32","","0.8,0.2","1:go_a","1",""
"null","","html-keyboard-response","673","2500418","0.0-8.0-2.30","","<div style=""font-size:60px;"">+</div>","null","","","","","","",""
"685.8000000715256","","image-keyboard-response","674","2501104","0.0-8.0-0.31","","img/pink.png","32","trial","32","true","0.6,0.4","3:go_c","",""
"null","","html-keyboard-response","675","2502106","0.0-8.0-1.31","","<img src=""img/pink-r.png"" border=""10"">","null","trial","32","","0.6,0.4","3:go_c","1",""
"null","","html-keyboard-response","676","2503107","0.0-8.0-2.31","","<div style=""font-size:60px;"">+</div>","null","","","","","","",""
"null","","image-keyboard-response","677","2504608","0.0-8.0-0.32","","img/orange.png","null","trial","null","true","0.2,0.8","2:nogo_b","",""
"null","","html-keyboard-response","678","2505609","0.0-8.0-1.32","","<img src=""img/orange-r.png"">","null","trial","null","","0.2,0.8","2:nogo_b","1",""
"null","","html-keyboard-response","679","2506610","0.0-8.0-2.32","","<div style=""font-size:60px;"">+</div>","null","","","","","","",""
"null","","image-keyboard-response","680","2508126","0.0-8.0-0.33","","img/green.png","null","trial","null","true","0.4,0.6","4:nogo_d","",""
