"rt","url","trial_type","trial_index","time_elapsed","internal_node_id","view_history","stimulus","key_press","test_part","correct_response","correct","use_rew","which_stim","reward","responses"
"19299.30000001192","consent.html","external-html","0","19432","0.0-0.0","","","","","","","","","",""
"253687.39999997616","","instructions","1","273112","0.0-1.0","[{""page_index"":0,""viewing_time"":5052.699999988079},{""page_index"":1,""viewing_time"":52409.69999998808},{""page_index"":2,""viewing_time"":8714.800000011921},{""page_index"":3,""viewing_time"":154363.90000000596},{""page_index"":4,""viewing_time"":13290},{""page_index"":5,""viewing_time"":10518.199999988079},{""page_index"":6,""viewing_time"":9337.40000000596}]","","","","","","","","",""
"1017.3000000119209","","image-keyboard-response","2","274131","0.0-2.0-0.0","","img/test3.PNG","32","practice","null","false","","","",""
"null","","html-keyboard-response","3","275132","0.0-2.0-1.0","","<img src=""img/test3-neutral.PNG"" border=""10px; grey"">","null","","","","","","",""
"null","","html-keyboard-response","4","276134","0.0-2.0-2.0","","<div style=""font-size:60px;"">+</div>","null","","","","","","",""
"764.1999999880791","","image-keyboard-response","5","276899","0.0-2.0-0.1","","img/test1.PNG","32","practice","32","true","","","",""
"null","","html-keyboard-response","6","277904","0.0-2.0-1.1","","<img src=""img/test1-reward.PNG"" border=""10px; grey"">","null","","","","","","",""
"null","","html-keyboard-response","7","278908","0.0-2.0-2.1","","<div style=""font-size:60px;"">+</div>","null","","","","","","",""
"797.5999999940395","","image-keyboard-response","8","279707","0.0-2.0-0.2","","img/test2.PNG","32","practice","null","false","","","",""
"null","","html-keyboard-response","9","280712","0.0-2.0-1.2","","<img src=""img/test2-neutral.PNG"" border=""10px; grey"">","null","","","","","","",""
"null","","html-keyboard-response","10","281717","0.0-2.0-2.2","","<div style=""font-size:60px;"">+</div>","null","","","","","","",""
"1180.699999988079","","image-keyboard-response","11","282899","0.0-2.0-0.3","","img/test2.PNG","32","practice","null","false","","","",""
"null","","html-keyboard-response","12","283900","0.0-2.0-1.3","","<img src=""img/test2-neutral.PNG"" border=""10px; grey"">","null","","","","","","",""
"null","","html-keyboard-response","13","284904","0.0-2.0-2.3","","<div style=""font-size:60px;"">+</div>","null","","","","","","",""
"841.4000000059605","","image-keyboard-response","14","285747","0.0-2.0-0.4","","img/test1.PNG","32","practice","32","true","","","",""
"null","","html-keyboard-response","15","286750","0.0-2.0-1.4","","<img src=""img/test1-reward.PNG"" border=""10px; grey"">","null","","","","","","",""
"null","","html-keyboard-response","16","287755","0.0-2.0-2.4","","<div style=""font-size:60px;"">+</div>","null","","","","","","",""
"950.4000000059605","","image-keyboard-response","17","288706","0.0-2.0-0.5","","img/test3.PNG","32","practice","null","false","","","",""
"null","","html-keyboard-response","18","289711","0.0-2.0-1.5","","<img src=""img/test3-neutral.PNG"" border=""10px; grey"">","null","","","","","","",""
"null","","html-keyboard-response","19","290715","0.0-2.0-2.5","","<div style=""font-size:60px;"">+</div>","null","","","","","","",""
"null","","image-keyboard-response","20","292219","0.0-2.0-0.6","","img/test3.PNG","null","practice","null","true","","","",""
"null","","html-keyboard-response","21","293223","0.0-2.0-1.6","","<img src=""img/test3-reward.PNG"">","null","","","","","","",""
"null","","html-keyboard-response","22","294227","0.0-2.0-2.6","","<div style=""font-size:60px;"">+</div>","null","","","","","","",""
"1104.4000000059605","","image-keyboard-response","23","295332","0.0-2.0-0.7","","img/test1.PNG","32","practice","32","true","","","",""
"null","","html-keyboard-response","24","296334","0.0-2.0-1.7","","<img src=""img/test1-reward.PNG"" border=""10px; grey"">","null","","","","","","",""
"null","","html-keyboard-response","25","297338","0.0-2.0-2.7","","<div style=""font-size:60px;"">+</div>","null","","","","","","",""
"null","","image-keyboard-response","26","298842","0.0-2.0-0.8","","img/test2.PNG","null","practice","null","true","","","",""
"null","","html-keyboard-response","27","299846","0.0-2.0-1.8","","<img src=""img/test2-reward.PNG"">","null","","","","","","",""
"null","","html-keyboard-response","28","300850","0.0-2.0-2.8","","<div style=""font-size:60px;"">+</div>","null","","","","","","",""
"null","","image-keyboard-response","29","302355","0.0-2.0-0.9","","img/test3.PNG","null","practice","null","true","","","",""
"null","","html-keyboard-response","30","303358","0.0-2.0-1.9","","<img src=""img/test3-reward.PNG"">","null","","","","","","",""
"null","","html-keyboard-response","31","304362","0.0-2.0-2.9","","<div style=""font-size:60px;"">+</div>","null","","","","","","",""
"null","","image-keyboard-response","32","305866","0.0-2.0-0.10","","img/test2.PNG","null","practice","null","true","","","",""
"null","","html-keyboard-response","33","306870","0.0-2.0-1.10","","<img src=""img/test2-reward.PNG"">","null","","","","","","",""
"null","","html-keyboard-response","34","307873","0.0-2.0-2.10","","<div style=""font-size:60px;"">+</div>","null","","","","","","",""
"578.5999999940395","","image-keyboard-response","35","308453","0.0-2.0-0.11","","img/test1.PNG","32","practice","32","true","","","",""
"null","","html-keyboard-response","36","309458","0.0-2.0-1.11","","<img src=""img/test1-reward.PNG"" border=""10px; grey"">","null","","","","","","",""
"null","","html-keyboard-response","37","310463","0.0-2.0-2.11","","<div style=""font-size:60px;"">+</div>","null","","","","","","",""
"5204.0999999940395","","instructions","38","315667","0.0-3.0","[{""page_index"":0,""viewing_time"":5204}]","","","","","","","","",""
"1102.7000000178814","","image-keyboard-response","39","316771","0.0-4.0-0.0","","img/purple.png","32","trial","32","true","0.8,0.2","1:go_a","",""
"null","","html-keyboard-response","40","317776","0.0-4.0-1.0","","<img src=""img/purple-r.png"" border=""10"">","null","trial","32","","0.8,0.2","1:go_a","1",""
"null","","html-keyboard-response","41","318781","0.0-4.0-2.0","","<div style=""font-size:60px;"">+</div>","null","","","","","","",""
"885.7999999821186","","image-keyboard-response","42","319668","0.0-4.0-0.1","","img/pink.png","32","trial","null","false","0.2,0.8","2:nogo_b","",""
"null","","html-keyboard-response","43","320673","0.0-4.0-1.1","","<img src=""img/pink-r.png"" border=""10"">","null","trial","null","","0.2,0.8","2:nogo_b","1",""
"null","","html-keyboard-response","44","321678","0.0-4.0-2.1","","<div style=""font-size:60px;"">+</div>","null","","","","","","",""
"877.2000000178814","","image-keyboard-response","45","322556","0.0-4.0-0.2","","img/pink.png","32","trial","null","false","0.2,0.8","2:nogo_b","",""
"null","","html-keyboard-response","46","323559","0.0-4.0-1.2","","<img src=""img/pink-n.png"" border=""10"">","null","trial","null","","0.2,0.8","2:nogo_b","0",""
"null","","html-keyboard-response","47","324563","0.0-4.0-2.2","","<div style=""font-size:60px;"">+</div>","null","","","","","","",""
"887.4000000059605","","image-keyboard-response","48","325451","0.0-4.0-0.3","","img/purple.png","32","trial","32","true","0.8,0.2","1:go_a","",""
"null","","html-keyboard-response","49","326455","0.0-4.0-1.3","","<img src=""img/purple-r.png"" border=""10"">","null","trial","32","","0.8,0.2","1:go_a","1",""
"null","","html-keyboard-response","50","327460","0.0-4.0-2.3","","<div style=""font-size:60px;"">+</div>","null","","","","","","",""
"846.5","","image-keyboard-response","51","328307","0.0-4.0-0.4","","img/purple.png","32","trial","32","true","0.8,0.2","1:go_a","",""
"null","","html-keyboard-response","52","329311","0.0-4.0-1.4","","<img src=""img/purple-r.png"" border=""10"">","null","trial","32","","0.8,0.2","1:go_a","1",""
"null","","html-keyboard-response","53","330315","0.0-4.0-2.4","","<div style=""font-size:60px;"">+</div>","null","","","","","","",""
"1062.699999988079","","image-keyboard-response","54","331379","0.0-4.0-0.5","","img/pink.png","32","trial","null","false","0.2,0.8","2:nogo_b","",""
"null","","html-keyboard-response","55","332382","0.0-4.0-1.5","","<img src=""img/pink-n.png"" border=""10"">","null","trial","null","","0.2,0.8","2:nogo_b","0",""
"null","","html-keyboard-response","56","333386","0.0-4.0-2.5","","<div style=""font-size:60px;"">+</div>","null","","","","","","",""
"1129.0999999940395","","image-keyboard-response","57","334516","0.0-4.0-0.6","","img/pink.png","32","trial","null","false","0.2,0.8","2:nogo_b","",""
"null","","html-keyboard-response","58","335517","0.0-4.0-1.6","","<img src=""img/pink-r.png"" border=""10"">","null","trial","null","","0.2,0.8","2:nogo_b","1",""
"null","","html-keyboard-response","59","336521","0.0-4.0-2.6","","<div style=""font-size:60px;"">+</div>","null","","","","","","",""
"1115.0999999940395","","image-keyboard-response","60","337637","0.0-4.0-0.7","","img/purple.png","32","trial","32","true","0.8,0.2","1:go_a","",""
"null","","html-keyboard-response","61","338640","0.0-4.0-1.7","","<img src=""img/purple-r.png"" border=""10"">","null","trial","32","","0.8,0.2","1:go_a","1",""
"null","","html-keyboard-response","62","339644","0.0-4.0-2.7","","<div style=""font-size:60px;"">+</div>","null","","","","","","",""
"927.2000000178814","","image-keyboard-response","63","340572","0.0-4.0-0.8","","img/purple.png","32","trial","32","true","0.8,0.2","1:go_a","",""
"null","","html-keyboard-response","64","341577","0.0-4.0-1.8","","<img src=""img/purple-r.png"" border=""10"">","null","trial","32","","0.8,0.2","1:go_a","1",""
"null","","html-keyboard-response","65","342581","0.0-4.0-2.8","","<div style=""font-size:60px;"">+</div>","null","","","","","","",""
"null","","image-keyboard-response","66","344084","0.0-4.0-0.9","","img/pink.png","null","trial","null","true","0.2,0.8","2:nogo_b","",""
"null","","html-keyboard-response","67","345089","0.0-4.0-1.9","","<img src=""img/pink-r.png"">","null","trial","null","","0.2,0.8","2:nogo_b","1",""
"null","","html-keyboard-response","68","346093","0.0-4.0-2.9","","<div style=""font-size:60px;"">+</div>","null","","","","","","",""
"878.9000000059605","","image-keyboard-response","69","346973","0.0-4.0-0.10","","img/purple.png","32","trial","32","true","0.8,0.2","1:go_a","",""
"null","","html-keyboard-response","70","347980","0.0-4.0-1.10","","<img src=""img/purple-r.png"" border=""10"">","null","trial","32","","0.8,0.2","1:go_a","1",""
"null","","html-keyboard-response","71","348985","0.0-4.0-2.10","","<div style=""font-size:60px;"">+</div>","null","","","","","","",""
"null","","image-keyboard-response","72","350487","0.0-4.0-0.11","","img/pink.png","null","trial","null","true","0.2,0.8","2:nogo_b","",""
"null","","html-keyboard-response","73","351491","0.0-4.0-1.11","","<img src=""img/pink-r.png"">","null","trial","null","","0.2,0.8","2:nogo_b","1",""
"null","","html-keyboard-response","74","352495","0.0-4.0-2.11","","<div style=""font-size:60px;"">+</div>","null","","","","","","",""
"1189.4000000059605","","image-keyboard-response","75","353685","0.0-4.0-0.12","","img/pink.png","32","trial","null","false","0.2,0.8","2:nogo_b","",""
"null","","html-keyboard-response","76","354690","0.0-4.0-1.12","","<img src=""img/pink-n.png"" border=""10"">","null","trial","null","","0.2,0.8","2:nogo_b","0",""
"null","","html-keyboard-response","77","355694","0.0-4.0-2.12","","<div style=""font-size:60px;"">+</div>","null","","","","","","",""
"726.9000000059605","","image-keyboard-response","78","356422","0.0-4.0-0.13","","img/purple.png","32","trial","32","true","0.8,0.2","1:go_a","",""
"null","","html-keyboard-response","79","357424","0.0-4.0-1.13","","<img src=""img/purple-r.png"" border=""10"">","null","trial","32","","0.8,0.2","1:go_a","1",""
"null","","html-keyboard-response","80","358428","0.0-4.0-2.13","","<div style=""font-size:60px;"">+</div>","null","","","","","","",""
"1216.1000000238419","","image-keyboard-response","81","359645","0.0-4.0-0.14","","img/purple.png","32","trial","32","true","0.8,0.2","1:go_a","",""
"null","","html-keyboard-response","82","360646","0.0-4.0-1.14","","<img src=""img/purple-r.png"" border=""10"">","null","trial","32","","0.8,0.2","1:go_a","1",""
"null","","html-keyboard-response","83","361650","0.0-4.0-2.14","","<div style=""font-size:60px;"">+</div>","null","","","","","","",""
"804.4000000059605","","image-keyboard-response","84","362455","0.0-4.0-0.15","","img/pink.png","32","trial","null","false","0.2,0.8","2:nogo_b","",""
"null","","html-keyboard-response","85","363461","0.0-4.0-1.15","","<img src=""img/pink-n.png"" border=""10"">","null","trial","null","","0.2,0.8","2:nogo_b","0",""
"null","","html-keyboard-response","86","364465","0.0-4.0-2.15","","<div style=""font-size:60px;"">+</div>","null","","","","","","",""
"1091.7999999821186","","image-keyboard-response","87","365557","0.0-4.0-0.16","","img/pink.png","32","trial","null","false","0.2,0.8","2:nogo_b","",""
"null","","html-keyboard-response","88","366560","0.0-4.0-1.16","","<img src=""img/pink-r.png"" border=""10"">","null","trial","null","","0.2,0.8","2:nogo_b","1",""
"null","","html-keyboard-response","89","367565","0.0-4.0-2.16","","<div style=""font-size:60px;"">+</div>","null","","","","","","",""
"904.3000000119209","","image-keyboard-response","90","368470","0.0-4.0-0.17","","img/purple.png","32","trial","32","true","0.8,0.2","1:go_a","",""
"null","","html-keyboard-response","91","369474","0.0-4.0-1.17","","<img src=""img/purple-n.png"" border=""10"">","null","trial","32","","0.8,0.2","1:go_a","0",""
"null","","html-keyboard-response","92","370479","0.0-4.0-2.17","","<div style=""font-size:60px;"">+</div>","null","","","","","","",""
"1070","","image-keyboard-response","93","371550","0.0-4.0-0.18","","img/pink.png","32","trial","null","false","0.2,0.8","2:nogo_b","",""
"null","","html-keyboard-response","94","372553","0.0-4.0-1.18","","<img src=""img/pink-n.png"" border=""10"">","null","trial","null","","0.2,0.8","2:nogo_b","0",""
"null","","html-keyboard-response","95","373555","0.0-4.0-2.18","","<div style=""font-size:60px;"">+</div>","null","","","","","","",""
"1144.5999999940395","","image-keyboard-response","96","374700","0.0-4.0-0.19","","img/purple.png","32","trial","32","true","0.8,0.2","1:go_a","",""
"null","","html-keyboard-response","97","375703","0.0-4.0-1.19","","<img src=""img/purple-r.png"" border=""10"">","null","trial","32","","0.8,0.2","1:go_a","1",""
"null","","html-keyboard-response","98","376707","0.0-4.0-2.19","","<div style=""font-size:60px;"">+</div>","null","","","","","","",""
"null","","image-keyboard-response","99","378211","0.0-4.0-0.20","","img/pink.png","null","trial","null","true","0.2,0.8","2:nogo_b","",""
"null","","html-keyboard-response","100","379215","0.0-4.0-1.20","","<img src=""img/pink-r.png"">","null","trial","null","","0.2,0.8","2:nogo_b","1",""
"null","","html-keyboard-response","101","380219","0.0-4.0-2.20","","<div style=""font-size:60px;"">+</div>","null","","","","","","",""
"1007","","image-keyboard-response","102","381227","0.0-4.0-0.21","","img/purple.png","32","trial","32","true","0.8,0.2","1:go_a","",""
"null","","html-keyboard-response","103","382228","0.0-4.0-1.21","","<img src=""img/purple-r.png"" border=""10"">","null","trial","32","","0.8,0.2","1:go_a","1",""
"null","","html-keyboard-response","104","383234","0.0-4.0-2.21","","<div style=""font-size:60px;"">+</div>","null","","","","","","",""
"null","","image-keyboard-response","105","384736","0.0-4.0-0.22","","img/pink.png","null","trial","null","true","0.2,0.8","2:nogo_b","",""
"null","","html-keyboard-response","106","385739","0.0-4.0-1.22","","<img src=""img/pink-r.png"">","null","trial","null","","0.2,0.8","2:nogo_b","1",""
"null","","html-keyboard-response","107","386744","0.0-4.0-2.22","","<div style=""font-size:60px;"">+</div>","null","","","","","","",""
"907.3999999761581","","image-keyboard-response","108","387652","0.0-4.0-0.23","","img/purple.png","32","trial","32","true","0.8,0.2","1:go_a","",""
"null","","html-keyboard-response","109","388653","0.0-4.0-1.23","","<img src=""img/purple-r.png"" border=""10"">","null","trial","32","","0.8,0.2","1:go_a","1",""
"null","","html-keyboard-response","110","389658","0.0-4.0-2.23","","<div style=""font-size:60px;"">+</div>","null","","","","","","",""
"873.7999999821186","","image-keyboard-response","111","390533","0.0-4.0-0.24","","img/purple.png","32","trial","32","true","0.8,0.2","1:go_a","",""
"null","","html-keyboard-response","112","391538","0.0-4.0-1.24","","<img src=""img/purple-r.png"" border=""10"">","null","trial","32","","0.8,0.2","1:go_a","1",""
"null","","html-keyboard-response","113","392543","0.0-4.0-2.24","","<div style=""font-size:60px;"">+</div>","null","","","","","","",""
"852.4000000059605","","image-keyboard-response","114","393396","0.0-4.0-0.25","","img/pink.png","32","trial","null","false","0.2,0.8","2:nogo_b","",""
"null","","html-keyboard-response","115","394400","0.0-4.0-1.25","","<img src=""img/pink-n.png"" border=""10"">","null","trial","null","","0.2,0.8","2:nogo_b","0",""
"null","","html-keyboard-response","116","395400","0.0-4.0-2.25","","<div style=""font-size:60px;"">+</div>","null","","","","","","",""
"843.2000000178814","","image-keyboard-response","117","396244","0.0-4.0-0.26","","img/purple.png","32","trial","32","true","0.8,0.2","1:go_a","",""
"null","","html-keyboard-response","118","397249","0.0-4.0-1.26","","<img src=""img/purple-n.png"" border=""10"">","null","trial","32","","0.8,0.2","1:go_a","0",""
"null","","html-keyboard-response","119","398254","0.0-4.0-2.26","","<div style=""font-size:60px;"">+</div>","null","","","","","","",""
"828","","image-keyboard-response","120","399083","0.0-4.0-0.27","","img/pink.png","32","trial","null","false","0.2,0.8","2:nogo_b","",""
"null","","html-keyboard-response","121","400088","0.0-4.0-1.27","","<img src=""img/pink-r.png"" border=""10"">","null","trial","null","","0.2,0.8","2:nogo_b","1",""
"null","","html-keyboard-response","122","401092","0.0-4.0-2.27","","<div style=""font-size:60px;"">+</div>","null","","","","","","",""
"871.5","","image-keyboard-response","123","401964","0.0-4.0-0.28","","img/purple.png","32","trial","32","true","0.8,0.2","1:go_a","",""
"null","","html-keyboard-response","124","402968","0.0-4.0-1.28","","<img src=""img/purple-n.png"" border=""10"">","null","trial","32","","0.8,0.2","1:go_a","0",""
"null","","html-keyboard-response","125","403973","0.0-4.0-2.28","","<div style=""font-size:60px;"">+</div>","null","","","","","","",""
"934.1999999880791","","image-keyboard-response","126","404908","0.0-4.0-0.29","","img/pink.png","32","trial","null","false","0.2,0.8","2:nogo_b","",""
"null","","html-keyboard-response","127","405911","0.0-4.0-1.29","","<img src=""img/pink-n.png"" border=""10"">","null","trial","null","","0.2,0.8","2:nogo_b","0",""
"null","","html-keyboard-response","128","406916","0.0-4.0-2.29","","<div style=""font-size:60px;"">+</div>","null","","","","","","",""
"878.0999999940395","","image-keyboard-response","129","407795","0.0-4.0-0.30","","img/purple.png","32","trial","32","true","0.8,0.2","1:go_a","",""
"null","","html-keyboard-response","130","408796","0.0-4.0-1.30","","<img src=""img/purple-r.png"" border=""10"">","null","trial","32","","0.8,0.2","1:go_a","1",""
"null","","html-keyboard-response","131","409801","0.0-4.0-2.30","","<div style=""font-size:60px;"">+</div>","null","","","","","","",""
"null","","image-keyboard-response","132","411304","0.0-4.0-0.31","","img/pink.png","null","trial","null","true","0.2,0.8","2:nogo_b","",""
"null","","html-keyboard-response","133","412308","0.0-4.0-1.31","","<img src=""img/pink-r.png"">","null","trial","null","","0.2,0.8","2:nogo_b","1",""
"null","","html-keyboard-response","134","413309","0.0-4.0-2.31","","<div style=""font-size:60px;"">+</div>","null","","","","","","",""
"908.2999999821186","","image-keyboard-response","135","414218","0.0-4.0-0.32","","img/purple.png","32","trial","32","true","0.8,0.2","1:go_a","",""
"null","","html-keyboard-response","136","415222","0.0-4.0-1.32","","<img src=""img/purple-r.png"" border=""10"">","null","trial","32","","0.8,0.2","1:go_a","1",""
"null","","html-keyboard-response","137","416227","0.0-4.0-2.32","","<div style=""font-size:60px;"">+</div>","null","","","","","","",""
"null","","image-keyboard-response","138","417729","0.0-4.0-0.33","","img/pink.png","null","trial","null","true","0.2,0.8","2:nogo_b","",""
"null","","html-keyboard-response","139","418734","0.0-4.0-1.33","","<img src=""img/pink-r.png"">","null","trial","null","","0.2,0.8","2:nogo_b","1",""
"null","","html-keyboard-response","140","419738","0.0-4.0-2.33","","<div style=""font-size:60px;"">+</div>","null","","","","","","",""
"1084.5999999940395","","image-keyboard-response","141","420823","0.0-4.0-0.34","","img/pink.png","32","trial","null","false","0.2,0.8","2:nogo_b","",""
"null","","html-keyboard-response","142","421828","0.0-4.0-1.34","","<img src=""img/pink-n.png"" border=""10"">","null","trial","null","","0.2,0.8","2:nogo_b","0",""
"null","","html-keyboard-response","143","422832","0.0-4.0-2.34","","<div style=""font-size:60px;"">+</div>","null","","","","","","",""
"846.1999999880791","","image-keyboard-response","144","423679","0.0-4.0-0.35","","img/purple.png","32","trial","32","true","0.8,0.2","1:go_a","",""
"null","","html-keyboard-response","145","424684","0.0-4.0-1.35","","<img src=""img/purple-r.png"" border=""10"">","null","trial","32","","0.8,0.2","1:go_a","1",""
"null","","html-keyboard-response","146","425688","0.0-4.0-2.35","","<div style=""font-size:60px;"">+</div>","null","","","","","","",""
"null","","image-keyboard-response","147","427192","0.0-4.0-0.36","","img/purple.png","null","trial","32","false","0.8,0.2","1:go_a","",""
"null","","html-keyboard-response","148","428195","0.0-4.0-1.36","","<img src=""img/purple-n.png"">","null","trial","32","","0.8,0.2","1:go_a","0",""
"null","","html-keyboard-response","149","429200","0.0-4.0-2.36","","<div style=""font-size:60px;"">+</div>","null","","","","","","",""
"1069.8999999761581","","image-keyboard-response","150","430271","0.0-4.0-0.37","","img/pink.png","32","trial","null","false","0.2,0.8","2:nogo_b","",""
"null","","html-keyboard-response","151","431275","0.0-4.0-1.37","","<img src=""img/pink-n.png"" border=""10"">","null","trial","null","","0.2,0.8","2:nogo_b","0",""
"null","","html-keyboard-response","152","432277","0.0-4.0-2.37","","<div style=""font-size:60px;"">+</div>","null","","","","","","",""
"881","","image-keyboard-response","153","433159","0.0-4.0-0.38","","img/pink.png","32","trial","null","false","0.2,0.8","2:nogo_b","",""
"null","","html-keyboard-response","154","434163","0.0-4.0-1.38","","<img src=""img/pink-n.png"" border=""10"">","null","trial","null","","0.2,0.8","2:nogo_b","0",""
"null","","html-keyboard-response","155","435168","0.0-4.0-2.38","","<div style=""font-size:60px;"">+</div>","null","","","","","","",""
"997.2999999821186","","image-keyboard-response","156","436166","0.0-4.0-0.39","","img/purple.png","32","trial","32","true","0.8,0.2","1:go_a","",""
"null","","html-keyboard-response","157","437171","0.0-4.0-1.39","","<img src=""img/purple-r.png"" border=""10"">","null","trial","32","","0.8,0.2","1:go_a","1",""
"null","","html-keyboard-response","158","438174","0.0-4.0-2.39","","<div style=""font-size:60px;"">+</div>","null","","","","","","",""
"null","","image-keyboard-response","159","439678","0.0-4.0-0.40","","img/pink.png","null","trial","null","true","0.2,0.8","2:nogo_b","",""
"null","","html-keyboard-response","160","440682","0.0-4.0-1.40","","<img src=""img/pink-r.png"">","null","trial","null","","0.2,0.8","2:nogo_b","1",""
"null","","html-keyboard-response","161","441686","0.0-4.0-2.40","","<div style=""font-size:60px;"">+</div>","null","","","","","","",""
"931.5999999940395","","image-keyboard-response","162","442618","0.0-4.0-0.41","","img/purple.png","32","trial","32","true","0.8,0.2","1:go_a","",""
"null","","html-keyboard-response","163","443623","0.0-4.0-1.41","","<img src=""img/purple-n.png"" border=""10"">","null","trial","32","","0.8,0.2","1:go_a","0",""
"null","","html-keyboard-response","164","444628","0.0-4.0-2.41","","<div style=""font-size:60px;"">+</div>","null","","","","","","",""
"844.4000000059605","","image-keyboard-response","165","445473","0.0-4.0-0.42","","img/purple.png","32","trial","32","true","0.8,0.2","1:go_a","",""
"null","","html-keyboard-response","166","446475","0.0-4.0-1.42","","<img src=""img/purple-n.png"" border=""10"">","null","trial","32","","0.8,0.2","1:go_a","0",""
"null","","html-keyboard-response","167","447480","0.0-4.0-2.42","","<div style=""font-size:60px;"">+</div>","null","","","","","","",""
"922.3999999761581","","image-keyboard-response","168","448403","0.0-4.0-0.43","","img/pink.png","32","trial","null","false","0.2,0.8","2:nogo_b","",""
"null","","html-keyboard-response","169","449407","0.0-4.0-1.43","","<img src=""img/pink-n.png"" border=""10"">","null","trial","null","","0.2,0.8","2:nogo_b","0",""
"null","","html-keyboard-response","170","450411","0.0-4.0-2.43","","<div style=""font-size:60px;"">+</div>","null","","","","","","",""
"902.6999999880791","","image-keyboard-response","171","451315","0.0-4.0-0.44","","img/purple.png","32","trial","32","true","0.8,0.2","1:go_a","",""
"null","","html-keyboard-response","172","452321","0.0-4.0-1.44","","<img src=""img/purple-n.png"" border=""10"">","null","trial","32","","0.8,0.2","1:go_a","0",""
"null","","html-keyboard-response","173","453325","0.0-4.0-2.44","","<div style=""font-size:60px;"">+</div>","null","","","","","","",""
"964.5","","image-keyboard-response","174","454290","0.0-4.0-0.45","","img/pink.png","32","trial","null","false","0.2,0.8","2:nogo_b","",""
"null","","html-keyboard-response","175","455295","0.0-4.0-1.45","","<img src=""img/pink-n.png"" border=""10"">","null","trial","null","","0.2,0.8","2:nogo_b","0",""
"null","","html-keyboard-response","176","456297","0.0-4.0-2.45","","<div style=""font-size:60px;"">+</div>","null","","","","","","",""
"904.2000000178814","","image-keyboard-response","177","457202","0.0-4.0-0.46","","img/pink.png","32","trial","null","false","0.2,0.8","2:nogo_b","",""
"null","","html-keyboard-response","178","458207","0.0-4.0-1.46","","<img src=""img/pink-n.png"" border=""10"">","null","trial","null","","0.2,0.8","2:nogo_b","0",""
"null","","html-keyboard-response","179","459211","0.0-4.0-2.46","","<div style=""font-size:60px;"">+</div>","null","","","","","","",""
"958.5","","image-keyboard-response","180","460170","0.0-4.0-0.47","","img/purple.png","32","trial","32","true","0.8,0.2","1:go_a","",""
"null","","html-keyboard-response","181","461176","0.0-4.0-1.47","","<img src=""img/purple-r.png"" border=""10"">","null","trial","32","","0.8,0.2","1:go_a","1",""
"null","","html-keyboard-response","182","462177","0.0-4.0-2.47","","<div style=""font-size:60px;"">+</div>","null","","","","","","",""
"null","","image-keyboard-response","183","463681","0.0-4.0-0.48","","img/pink.png","null","trial","null","true","0.2,0.8","2:nogo_b","",""
"null","","html-keyboard-response","184","464685","0.0-4.0-1.48","","<img src=""img/pink-r.png"">","null","trial","null","","0.2,0.8","2:nogo_b","1",""
"null","","html-keyboard-response","185","465689","0.0-4.0-2.48","","<div style=""font-size:60px;"">+</div>","null","","","","","","",""
"1010.8999999761581","","image-keyboard-response","186","466701","0.0-4.0-0.49","","img/purple.png","32","trial","32","true","0.8,0.2","1:go_a","",""
"null","","html-keyboard-response","187","467704","0.0-4.0-1.49","","<img src=""img/purple-r.png"" border=""10"">","null","trial","32","","0.8,0.2","1:go_a","1",""
"null","","html-keyboard-response","188","468708","0.0-4.0-2.49","","<div style=""font-size:60px;"">+</div>","null","","","","","","",""
"879.8000000119209","","image-keyboard-response","189","469588","0.0-4.0-0.50","","img/purple.png","32","trial","32","true","0.8,0.2","1:go_a","",""
"null","","html-keyboard-response","190","470594","0.0-4.0-1.50","","<img src=""img/purple-r.png"" border=""10"">","null","trial","32","","0.8,0.2","1:go_a","1",""
"null","","html-keyboard-response","191","471598","0.0-4.0-2.50","","<div style=""font-size:60px;"">+</div>","null","","","","","","",""
"1061.5","","image-keyboard-response","192","472660","0.0-4.0-0.51","","img/pink.png","32","trial","null","false","0.2,0.8","2:nogo_b","",""
"null","","html-keyboard-response","193","473665","0.0-4.0-1.51","","<img src=""img/pink-n.png"" border=""10"">","null","trial","null","","0.2,0.8","2:nogo_b","0",""
"null","","html-keyboard-response","194","474669","0.0-4.0-2.51","","<div style=""font-size:60px;"">+</div>","null","","","","","","",""
"853.4000000059605","","image-keyboard-response","195","475523","0.0-4.0-0.52","","img/purple.png","32","trial","32","true","0.8,0.2","1:go_a","",""
"null","","html-keyboard-response","196","476527","0.0-4.0-1.52","","<img src=""img/purple-n.png"" border=""10"">","null","trial","32","","0.8,0.2","1:go_a","0",""
"null","","html-keyboard-response","197","477531","0.0-4.0-2.52","","<div style=""font-size:60px;"">+</div>","null","","","","","","",""
"null","","image-keyboard-response","198","479034","0.0-4.0-0.53","","img/pink.png","null","trial","null","true","0.2,0.8","2:nogo_b","",""
"null","","html-keyboard-response","199","480039","0.0-4.0-1.53","","<img src=""img/pink-r.png"">","null","trial","null","","0.2,0.8","2:nogo_b","1",""
"null","","html-keyboard-response","200","481043","0.0-4.0-2.53","","<div style=""font-size:60px;"">+</div>","null","","","","","","",""
"null","","image-keyboard-response","201","482546","0.0-4.0-0.54","","img/pink.png","null","trial","null","true","0.2,0.8","2:nogo_b","",""
"null","","html-keyboard-response","202","483551","0.0-4.0-1.54","","<img src=""img/pink-r.png"">","null","trial","null","","0.2,0.8","2:nogo_b","1",""
"null","","html-keyboard-response","203","484555","0.0-4.0-2.54","","<div style=""font-size:60px;"">+</div>","null","","","","","","",""
"930.9000000059605","","image-keyboard-response","204","485487","0.0-4.0-0.55","","img/purple.png","32","trial","32","true","0.8,0.2","1:go_a","",""
"null","","html-keyboard-response","205","486492","0.0-4.0-1.55","","<img src=""img/purple-n.png"" border=""10"">","null","trial","32","","0.8,0.2","1:go_a","0",""
"null","","html-keyboard-response","206","487496","0.0-4.0-2.55","","<div style=""font-size:60px;"">+</div>","null","","","","","","",""
"928","","image-keyboard-response","207","488425","0.0-4.0-0.56","","img/purple.png","32","trial","32","true","0.8,0.2","1:go_a","",""
"null","","html-keyboard-response","208","489430","0.0-4.0-1.56","","<img src=""img/purple-n.png"" border=""10"">","null","trial","32","","0.8,0.2","1:go_a","0",""
"null","","html-keyboard-response","209","490435","0.0-4.0-2.56","","<div style=""font-size:60px;"">+</div>","null","","","","","","",""
"884.3000000119209","","image-keyboard-response","210","491320","0.0-4.0-0.57","","img/pink.png","32","trial","null","false","0.2,0.8","2:nogo_b","",""
"null","","html-keyboard-response","211","492326","0.0-4.0-1.57","","<img src=""img/pink-r.png"" border=""10"">","null","trial","null","","0.2,0.8","2:nogo_b","1",""
"null","","html-keyboard-response","212","493330","0.0-4.0-2.57","","<div style=""font-size:60px;"">+</div>","null","","","","","","",""
"972.5","","image-keyboard-response","213","494304","0.0-4.0-0.58","","img/pink.png","32","trial","null","false","0.2,0.8","2:nogo_b","",""
"null","","html-keyboard-response","214","495305","0.0-4.0-1.58","","<img src=""img/pink-n.png"" border=""10"">","null","trial","null","","0.2,0.8","2:nogo_b","0",""
"null","","html-keyboard-response","215","496310","0.0-4.0-2.58","","<div style=""font-size:60px;"">+</div>","null","","","","","","",""
"536.5","","image-keyboard-response","216","496847","0.0-4.0-0.59","","img/purple.png","32","trial","32","true","0.8,0.2","1:go_a","",""
"null","","html-keyboard-response","217","497852","0.0-4.0-1.59","","<img src=""img/purple-r.png"" border=""10"">","null","trial","32","","0.8,0.2","1:go_a","1",""
"null","","html-keyboard-response","218","498858","0.0-4.0-2.59","","<div style=""font-size:60px;"">+</div>","null","","","","","","",""
"22441","","instructions","219","521298","0.0-5.0","[{""page_index"":0,""viewing_time"":22440.80000001192}]","","","","","","","","",""
"1278","","image-keyboard-response","220","522578","0.0-6.0-0.0","","img/blue.png","32","trial","null","false","0.2,0.8","2:nogo_b","",""
"null","","html-keyboard-response","221","523581","0.0-6.0-1.0","","<img src=""img/blue-r.png"" border=""10"">","null","trial","null","","0.2,0.8","2:nogo_b","1",""
"null","","html-keyboard-response","222","524585","0.0-6.0-2.0","","<div style=""font-size:60px;"">+</div>","null","","","","","","",""
"879.8000000119209","","image-keyboard-response","223","525465","0.0-6.0-0.1","","img/orange.png","32","trial","32","true","0.6,0.4","3:go_c","",""
"null","","html-keyboard-response","224","526471","0.0-6.0-1.1","","<img src=""img/orange-r.png"" border=""10"">","null","trial","32","","0.6,0.4","3:go_c","1",""
"null","","html-keyboard-response","225","527475","0.0-6.0-2.1","","<div style=""font-size:60px;"">+</div>","null","","","","","","",""
"894.4000000059605","","image-keyboard-response","226","528370","0.0-6.0-0.2","","img/red.png","32","trial","null","false","0.4,0.6","4:nogo_d","",""
"null","","html-keyboard-response","227","529374","0.0-6.0-1.2","","<img src=""img/red-r.png"" border=""10"">","null","trial","null","","0.4,0.6","4:nogo_d","1",""
"null","","html-keyboard-response","228","530378","0.0-6.0-2.2","","<div style=""font-size:60px;"">+</div>","null","","","","","","",""
"1023.4000000059605","","image-keyboard-response","229","531402","0.0-6.0-0.3","","img/yellow.png","32","trial","32","true","0.8,0.2","1:go_a","",""
"null","","html-keyboard-response","230","532404","0.0-6.0-1.3","","<img src=""img/yellow-r.png"" border=""10"">","null","trial","32","","0.8,0.2","1:go_a","1",""
"null","","html-keyboard-response","231","533408","0.0-6.0-2.3","","<div style=""font-size:60px;"">+</div>","null","","","","","","",""
"567.3000000119209","","image-keyboard-response","232","533976","0.0-6.0-0.4","","img/yellow.png","32","trial","32","true","0.8,0.2","1:go_a","",""
"null","","html-keyboard-response","233","534981","0.0-6.0-1.4","","<img src=""img/yellow-n.png"" border=""10"">","null","trial","32","","0.8,0.2","1:go_a","0",""
"null","","html-keyboard-response","234","535985","0.0-6.0-2.4","","<div style=""font-size:60px;"">+</div>","null","","","","","","",""
"639","","image-keyboard-response","235","536625","0.0-6.0-0.5","","img/blue.png","32","trial","null","false","0.2,0.8","2:nogo_b","",""
"null","","html-keyboard-response","236","537628","0.0-6.0-1.5","","<img src=""img/blue-n.png"" border=""10"">","null","trial","null","","0.2,0.8","2:nogo_b","0",""
"null","","html-keyboard-response","237","538632","0.0-6.0-2.5","","<div style=""font-size:60px;"">+</div>","null","","","","","","",""
"758.6999999880791","","image-keyboard-response","238","539392","0.0-6.0-0.6","","img/orange.png","32","trial","32","true","0.6,0.4","3:go_c","",""
"null","","html-keyboard-response","239","540397","0.0-6.0-1.6","","<img src=""img/orange-r.png"" border=""10"">","null","trial","32","","0.6,0.4","3:go_c","1",""
"null","","html-keyboard-response","240","541401","0.0-6.0-2.6","","<div style=""font-size:60px;"">+</div>","null","","","","","","",""
"685.5","","image-keyboard-response","241","542088","0.0-6.0-0.7","","img/red.png","32","trial","null","false","0.4,0.6","4:nogo_d","",""
"null","","html-keyboard-response","242","543090","0.0-6.0-1.7","","<img src=""img/red-n.png"" border=""10"">","null","trial","null","","0.4,0.6","4:nogo_d","0",""
"null","","html-keyboard-response","243","544095","0.0-6.0-2.7","","<div style=""font-size:60px;"">+</div>","null","","","","","","",""
"1089.2000000178814","","image-keyboard-response","244","545185","0.0-6.0-0.8","","img/blue.png","32","trial","null","false","0.2,0.8","2:nogo_b","",""
"null","","html-keyboard-response","245","546189","0.0-6.0-1.8","","<img src=""img/blue-n.png"" border=""10"">","null","trial","null","","0.2,0.8","2:nogo_b","0",""
"null","","html-keyboard-response","246","547194","0.0-6.0-2.8","","<div style=""font-size:60px;"">+</div>","null","","","","","","",""
"null","","image-keyboard-response","247","548698","0.0-6.0-0.9","","img/yellow.png","null","trial","32","false","0.8,0.2","1:go_a","",""
"null","","html-keyboard-response","248","549702","0.0-6.0-1.9","","<img src=""img/yellow-n.png"">","null","trial","32","","0.8,0.2","1:go_a","0",""
"null","","html-keyboard-response","249","550706","0.0-6.0-2.9","","<div style=""font-size:60px;"">+</div>","null","","","","","","",""
"null","","image-keyboard-response","250","552210","0.0-6.0-0.10","","img/red.png","null","trial","null","true","0.4,0.6","4:nogo_d","",""
"null","","html-keyboard-response","251","553213","0.0-6.0-1.10","","<img src=""img/red-n.png"">","null","trial","null","","0.4,0.6","4:nogo_d","0",""
"null","","html-keyboard-response","252","554218","0.0-6.0-2.10","","<div style=""font-size:60px;"">+</div>","null","","","","","","",""
"862.2999999821186","","image-keyboard-response","253","555081","0.0-6.0-0.11","","img/orange.png","32","trial","32","true","0.6,0.4","3:go_c","",""
"null","","html-keyboard-response","254","556086","0.0-6.0-1.11","","<img src=""img/orange-n.png"" border=""10"">","null","trial","32","","0.6,0.4","3:go_c","0",""
"null","","html-keyboard-response","255","557090","0.0-6.0-2.11","","<div style=""font-size:60px;"">+</div>","null","","","","","","",""
"909.9000000059605","","image-keyboard-response","256","558001","0.0-6.0-0.12","","img/yellow.png","32","trial","32","true","0.8,0.2","1:go_a","",""
"null","","html-keyboard-response","257","559007","0.0-6.0-1.12","","<img src=""img/yellow-r.png"" border=""10"">","null","trial","32","","0.8,0.2","1:go_a","1",""
"null","","html-keyboard-response","258","560012","0.0-6.0-2.12","","<div style=""font-size:60px;"">+</div>","null","","","","","","",""
"739.1999999880791","","image-keyboard-response","259","560752","0.0-6.0-0.13","","img/red.png","32","trial","null","false","0.4,0.6","4:nogo_d","",""
"null","","html-keyboard-response","260","561753","0.0-6.0-1.13","","<img src=""img/red-n.png"" border=""10"">","null","trial","null","","0.4,0.6","4:nogo_d","0",""
"null","","html-keyboard-response","261","562754","0.0-6.0-2.13","","<div style=""font-size:60px;"">+</div>","null","","","","","","",""
"878.4000000059605","","image-keyboard-response","262","563633","0.0-6.0-0.14","","img/orange.png","32","trial","32","true","0.6,0.4","3:go_c","",""
"null","","html-keyboard-response","263","564638","0.0-6.0-1.14","","<img src=""img/orange-r.png"" border=""10"">","null","trial","32","","0.6,0.4","3:go_c","1",""
"null","","html-keyboard-response","264","565642","0.0-6.0-2.14","","<div style=""font-size:60px;"">+</div>","null","","","","","","",""
"974.2000000178814","","image-keyboard-response","265","566617","0.0-6.0-0.15","","img/blue.png","32","trial","null","false","0.2,0.8","2:nogo_b","",""
"null","","html-keyboard-response","266","567622","0.0-6.0-1.15","","<img src=""img/blue-n.png"" border=""10"">","null","trial","null","","0.2,0.8","2:nogo_b","0",""
"null","","html-keyboard-response","267","568625","0.0-6.0-2.15","","<div style=""font-size:60px;"">+</div>","null","","","","","","",""
"838.5999999940395","","image-keyboard-response","268","569465","0.0-6.0-0.16","","img/red.png","32","trial","null","false","0.4,0.6","4:nogo_d","",""
"null","","html-keyboard-response","269","570470","0.0-6.0-1.16","","<img src=""img/red-r.png"" border=""10"">","null","trial","null","","0.4,0.6","4:nogo_d","1",""
"null","","html-keyboard-response","270","571475","0.0-6.0-2.16","","<div style=""font-size:60px;"">+</div>","null","","","","","","",""
"null","","image-keyboard-response","271","572979","0.0-6.0-0.17","","img/yellow.png","null","trial","32","false","0.8,0.2","1:go_a","",""
"null","","html-keyboard-response","272","573984","0.0-6.0-1.17","","<img src=""img/yellow-n.png"">","null","trial","32","","0.8,0.2","1:go_a","0",""
"null","","html-keyboard-response","273","574988","0.0-6.0-2.17","","<div style=""font-size:60px;"">+</div>","null","","","","","","",""
"827","","image-keyboard-response","274","575817","0.0-6.0-0.18","","img/orange.png","32","trial","32","true","0.6,0.4","3:go_c","",""
"null","","html-keyboard-response","275","576822","0.0-6.0-1.18","","<img src=""img/orange-r.png"" border=""10"">","null","trial","32","","0.6,0.4","3:go_c","1",""
"null","","html-keyboard-response","276","577826","0.0-6.0-2.18","","<div style=""font-size:60px;"">+</div>","null","","","","","","",""
"null","","image-keyboard-response","277","579330","0.0-6.0-0.19","","img/blue.png","null","trial","null","true","0.2,0.8","2:nogo_b","",""
"null","","html-keyboard-response","278","580334","0.0-6.0-1.19","","<img src=""img/blue-r.png"">","null","trial","null","","0.2,0.8","2:nogo_b","1",""
"null","","html-keyboard-response","279","581338","0.0-6.0-2.19","","<div style=""font-size:60px;"">+</div>","null","","","","","","",""
"null","","image-keyboard-response","280","582841","0.0-6.0-0.20","","img/blue.png","null","trial","null","true","0.2,0.8","2:nogo_b","",""
"null","","html-keyboard-response","281","583845","0.0-6.0-1.20","","<img src=""img/blue-r.png"">","null","trial","null","","0.2,0.8","2:nogo_b","1",""
"null","","html-keyboard-response","282","584850","0.0-6.0-2.20","","<div style=""font-size:60px;"">+</div>","null","","","","","","",""
"970.3000000119209","","image-keyboard-response","283","585821","0.0-6.0-0.21","","img/red.png","32","trial","null","false","0.4,0.6","4:nogo_d","",""
"null","","html-keyboard-response","284","586824","0.0-6.0-1.21","","<img src=""img/red-n.png"" border=""10"">","null","trial","null","","0.4,0.6","4:nogo_d","0",""
"null","","html-keyboard-response","285","587828","0.0-6.0-2.21","","<div style=""font-size:60px;"">+</div>","null","","","","","","",""
"831.0999999940395","","image-keyboard-response","286","588660","0.0-6.0-0.22","","img/orange.png","32","trial","32","true","0.6,0.4","3:go_c","",""
"null","","html-keyboard-response","287","589662","0.0-6.0-1.22","","<img src=""img/orange-r.png"" border=""10"">","null","trial","32","","0.6,0.4","3:go_c","1",""
"null","","html-keyboard-response","288","590667","0.0-6.0-2.22","","<div style=""font-size:60px;"">+</div>","null","","","","","","",""
"null","","image-keyboard-response","289","592170","0.0-6.0-0.23","","img/yellow.png","null","trial","32","false","0.8,0.2","1:go_a","",""
"null","","html-keyboard-response","290","593174","0.0-6.0-1.23","","<img src=""img/yellow-n.png"">","null","trial","32","","0.8,0.2","1:go_a","0",""
"null","","html-keyboard-response","291","594179","0.0-6.0-2.23","","<div style=""font-size:60px;"">+</div>","null","","","","","","",""
"null","","image-keyboard-response","292","595682","0.0-6.0-0.24","","img/yellow.png","null","trial","32","false","0.8,0.2","1:go_a","",""
"null","","html-keyboard-response","293","596686","0.0-6.0-1.24","","<img src=""img/yellow-r.png"">","null","trial","32","","0.8,0.2","1:go_a","1",""
"null","","html-keyboard-response","294","597690","0.0-6.0-2.24","","<div style=""font-size:60px;"">+</div>","null","","","","","","",""
"995.7000000178814","","image-keyboard-response","295","598687","0.0-6.0-0.25","","img/red.png","32","trial","null","false","0.4,0.6","4:nogo_d","",""
"null","","html-keyboard-response","296","599692","0.0-6.0-1.25","","<img src=""img/red-n.png"" border=""10"">","null","trial","null","","0.4,0.6","4:nogo_d","0",""
"null","","html-keyboard-response","297","600697","0.0-6.0-2.25","","<div style=""font-size:60px;"">+</div>","null","","","","","","",""
"948.7999999821186","","image-keyboard-response","298","601647","0.0-6.0-0.26","","img/orange.png","32","trial","32","true","0.6,0.4","3:go_c","",""
"null","","html-keyboard-response","299","602652","0.0-6.0-1.26","","<img src=""img/orange-r.png"" border=""10"">","null","trial","32","","0.6,0.4","3:go_c","1",""
"null","","html-keyboard-response","300","603657","0.0-6.0-2.26","","<div style=""font-size:60px;"">+</div>","null","","","","","","",""
"1061.2999999821186","","image-keyboard-response","301","604719","0.0-6.0-0.27","","img/blue.png","32","trial","null","false","0.2,0.8","2:nogo_b","",""
"null","","html-keyboard-response","302","605723","0.0-6.0-1.27","","<img src=""img/blue-n.png"" border=""10"">","null","trial","null","","0.2,0.8","2:nogo_b","0",""
"null","","html-keyboard-response","303","606727","0.0-6.0-2.27","","<div style=""font-size:60px;"">+</div>","null","","","","","","",""
"790","","image-keyboard-response","304","607518","0.0-6.0-0.28","","img/blue.png","32","trial","null","false","0.2,0.8","2:nogo_b","",""
"null","","html-keyboard-response","305","608522","0.0-6.0-1.28","","<img src=""img/blue-n.png"" border=""10"">","null","trial","null","","0.2,0.8","2:nogo_b","0",""
"null","","html-keyboard-response","306","609526","0.0-6.0-2.28","","<div style=""font-size:60px;"">+</div>","null","","","","","","",""
"830.6999999880791","","image-keyboard-response","307","610358","0.0-6.0-0.29","","img/orange.png","32","trial","32","true","0.6,0.4","3:go_c","",""
"null","","html-keyboard-response","308","611361","0.0-6.0-1.29","","<img src=""img/orange-n.png"" border=""10"">","null","trial","32","","0.6,0.4","3:go_c","0",""
"null","","html-keyboard-response","309","612365","0.0-6.0-2.29","","<div style=""font-size:60px;"">+</div>","null","","","","","","",""
"null","","image-keyboard-response","310","613868","0.0-6.0-0.30","","img/yellow.png","null","trial","32","false","0.8,0.2","1:go_a","",""
"null","","html-keyboard-response","311","614873","0.0-6.0-1.30","","<img src=""img/yellow-r.png"">","null","trial","32","","0.8,0.2","1:go_a","1",""
"null","","html-keyboard-response","312","615877","0.0-6.0-2.30","","<div style=""font-size:60px;"">+</div>","null","","","","","","",""
"903","","image-keyboard-response","313","616781","0.0-6.0-0.31","","img/red.png","32","trial","null","false","0.4,0.6","4:nogo_d","",""
"null","","html-keyboard-response","314","617787","0.0-6.0-1.31","","<img src=""img/red-n.png"" border=""10"">","null","trial","null","","0.4,0.6","4:nogo_d","0",""
"null","","html-keyboard-response","315","618791","0.0-6.0-2.31","","<div style=""font-size:60px;"">+</div>","null","","","","","","",""
"836.5","","image-keyboard-response","316","619628","0.0-6.0-0.32","","img/orange.png","32","trial","32","true","0.6,0.4","3:go_c","",""
"null","","html-keyboard-response","317","620631","0.0-6.0-1.32","","<img src=""img/orange-n.png"" border=""10"">","null","trial","32","","0.6,0.4","3:go_c","0",""
"null","","html-keyboard-response","318","621635","0.0-6.0-2.32","","<div style=""font-size:60px;"">+</div>","null","","","","","","",""
"1161.0999999940395","","image-keyboard-response","319","622797","0.0-6.0-0.33","","img/yellow.png","32","trial","32","true","0.8,0.2","1:go_a","",""
"null","","html-keyboard-response","320","623800","0.0-6.0-1.33","","<img src=""img/yellow-r.png"" border=""10"">","null","trial","32","","0.8,0.2","1:go_a","1",""
"null","","html-keyboard-response","321","624804","0.0-6.0-2.33","","<div style=""font-size:60px;"">+</div>","null","","","","","","",""
"952.3000000119209","","image-keyboard-response","322","625757","0.0-6.0-0.34","","img/red.png","32","trial","null","false","0.4,0.6","4:nogo_d","",""
"null","","html-keyboard-response","323","626761","0.0-6.0-1.34","","<img src=""img/red-n.png"" border=""10"">","null","trial","null","","0.4,0.6","4:nogo_d","0",""
"null","","html-keyboard-response","324","627765","0.0-6.0-2.34","","<div style=""font-size:60px;"">+</div>","null","","","","","","",""
"878","","image-keyboard-response","325","628644","0.0-6.0-0.35","","img/blue.png","32","trial","null","false","0.2,0.8","2:nogo_b","",""
"null","","html-keyboard-response","326","629645","0.0-6.0-1.35","","<img src=""img/blue-n.png"" border=""10"">","null","trial","null","","0.2,0.8","2:nogo_b","0",""
"null","","html-keyboard-response","327","630650","0.0-6.0-2.35","","<div style=""font-size:60px;"">+</div>","null","","","","","","",""
"928.4000000059605","","image-keyboard-response","328","631579","0.0-6.0-0.36","","img/yellow.png","32","trial","32","true","0.8,0.2","1:go_a","",""
"null","","html-keyboard-response","329","632583","0.0-6.0-1.36","","<img src=""img/yellow-r.png"" border=""10"">","null","trial","32","","0.8,0.2","1:go_a","1",""
"null","","html-keyboard-response","330","633587","0.0-6.0-2.36","","<div style=""font-size:60px;"">+</div>","null","","","","","","",""
"776.8000000119209","","image-keyboard-response","331","634365","0.0-6.0-0.37","","img/orange.png","32","trial","32","true","0.6,0.4","3:go_c","",""
"null","","html-keyboard-response","332","635371","0.0-6.0-1.37","","<img src=""img/orange-r.png"" border=""10"">","null","trial","32","","0.6,0.4","3:go_c","1",""
"null","","html-keyboard-response","333","636374","0.0-6.0-2.37","","<div style=""font-size:60px;"">+</div>","null","","","","","","",""
"1117.5999999940395","","image-keyboard-response","334","637492","0.0-6.0-0.38","","img/red.png","32","trial","null","false","0.4,0.6","4:nogo_d","",""
"null","","html-keyboard-response","335","638497","0.0-6.0-1.38","","<img src=""img/red-n.png"" border=""10"">","null","trial","null","","0.4,0.6","4:nogo_d","0",""
"null","","html-keyboard-response","336","639503","0.0-6.0-2.38","","<div style=""font-size:60px;"">+</div>","null","","","","","","",""
"null","","image-keyboard-response","337","641006","0.0-6.0-0.39","","img/blue.png","null","trial","null","true","0.2,0.8","2:nogo_b","",""
"null","","html-keyboard-response","338","642010","0.0-6.0-1.39","","<img src=""img/blue-r.png"">","null","trial","null","","0.2,0.8","2:nogo_b","1",""
"null","","html-keyboard-response","339","643014","0.0-6.0-2.39","","<div style=""font-size:60px;"">+</div>","null","","","","","","",""
"1051.0999999940395","","image-keyboard-response","340","644065","0.0-6.0-0.40","","img/orange.png","32","trial","32","true","0.6,0.4","3:go_c","",""
"null","","html-keyboard-response","341","645070","0.0-6.0-1.40","","<img src=""img/orange-r.png"" border=""10"">","null","trial","32","","0.6,0.4","3:go_c","1",""
"null","","html-keyboard-response","342","646073","0.0-6.0-2.40","","<div style=""font-size:60px;"">+</div>","null","","","","","","",""
"null","","image-keyboard-response","343","647576","0.0-6.0-0.41","","img/blue.png","null","trial","null","true","0.2,0.8","2:nogo_b","",""
"null","","html-keyboard-response","344","648581","0.0-6.0-1.41","","<img src=""img/blue-r.png"">","null","trial","null","","0.2,0.8","2:nogo_b","1",""
"null","","html-keyboard-response","345","649585","0.0-6.0-2.41","","<div style=""font-size:60px;"">+</div>","null","","","","","","",""
"963.3000000119209","","image-keyboard-response","346","650549","0.0-6.0-0.42","","img/red.png","32","trial","null","false","0.4,0.6","4:nogo_d","",""
"null","","html-keyboard-response","347","651553","0.0-6.0-1.42","","<img src=""img/red-n.png"" border=""10"">","null","trial","null","","0.4,0.6","4:nogo_d","0",""
"null","","html-keyboard-response","348","652557","0.0-6.0-2.42","","<div style=""font-size:60px;"">+</div>","null","","","","","","",""
"895.3000000119209","","image-keyboard-response","349","653453","0.0-6.0-0.43","","img/yellow.png","32","trial","32","true","0.8,0.2","1:go_a","",""
"null","","html-keyboard-response","350","654455","0.0-6.0-1.43","","<img src=""img/yellow-r.png"" border=""10"">","null","trial","32","","0.8,0.2","1:go_a","1",""
"null","","html-keyboard-response","351","655460","0.0-6.0-2.43","","<div style=""font-size:60px;"">+</div>","null","","","","","","",""
"920.3999999761581","","image-keyboard-response","352","656381","0.0-6.0-0.44","","img/yellow.png","32","trial","32","true","0.8,0.2","1:go_a","",""
"null","","html-keyboard-response","353","657387","0.0-6.0-1.44","","<img src=""img/yellow-r.png"" border=""10"">","null","trial","32","","0.8,0.2","1:go_a","1",""
"null","","html-keyboard-response","354","658391","0.0-6.0-2.44","","<div style=""font-size:60px;"">+</div>","null","","","","","","",""
"972.5999999940395","","image-keyboard-response","355","659365","0.0-6.0-0.45","","img/red.png","32","trial","null","false","0.4,0.6","4:nogo_d","",""
"null","","html-keyboard-response","356","660371","0.0-6.0-1.45","","<img src=""img/red-n.png"" border=""10"">","null","trial","null","","0.4,0.6","4:nogo_d","0",""
"null","","html-keyboard-response","357","661375","0.0-6.0-2.45","","<div style=""font-size:60px;"">+</div>","null","","","","","","",""
"null","","image-keyboard-response","358","662878","0.0-6.0-0.46","","img/blue.png","null","trial","null","true","0.2,0.8","2:nogo_b","",""
"null","","html-keyboard-response","359","663882","0.0-6.0-1.46","","<img src=""img/blue-r.png"">","null","trial","null","","0.2,0.8","2:nogo_b","1",""
"null","","html-keyboard-response","360","664887","0.0-6.0-2.46","","<div style=""font-size:60px;"">+</div>","null","","","","","","",""
"1058.4000000059605","","image-keyboard-response","361","665946","0.0-6.0-0.47","","img/orange.png","32","trial","32","true","0.6,0.4","3:go_c","",""
"null","","html-keyboard-response","362","666947","0.0-6.0-1.47","","<img src=""img/orange-n.png"" border=""10"">","null","trial","32","","0.6,0.4","3:go_c","0",""
"null","","html-keyboard-response","363","667951","0.0-6.0-2.47","","<div style=""font-size:60px;"">+</div>","null","","","","","","",""
"953.5999999940395","","image-keyboard-response","364","668906","0.0-6.0-0.48","","img/yellow.png","32","trial","32","true","0.8,0.2","1:go_a","",""
"null","","html-keyboard-response","365","669908","0.0-6.0-1.48","","<img src=""img/yellow-r.png"" border=""10"">","null","trial","32","","0.8,0.2","1:go_a","1",""
"null","","html-keyboard-response","366","670912","0.0-6.0-2.48","","<div style=""font-size:60px;"">+</div>","null","","","","","","",""
"null","","image-keyboard-response","367","672416","0.0-6.0-0.49","","img/blue.png","null","trial","null","true","0.2,0.8","2:nogo_b","",""
"null","","html-keyboard-response","368","673420","0.0-6.0-1.49","","<img src=""img/blue-n.png"">","null","trial","null","","0.2,0.8","2:nogo_b","0",""
"null","","html-keyboard-response","369","674424","0.0-6.0-2.49","","<div style=""font-size:60px;"">+</div>","null","","","","","","",""
"null","","image-keyboard-response","370","675928","0.0-6.0-0.50","","img/red.png","null","trial","null","true","0.4,0.6","4:nogo_d","",""
"null","","html-keyboard-response","371","676932","0.0-6.0-1.50","","<img src=""img/red-n.png"">","null","trial","null","","0.4,0.6","4:nogo_d","0",""
"null","","html-keyboard-response","372","677935","0.0-6.0-2.50","","<div style=""font-size:60px;"">+</div>","null","","","","","","",""
"1057.800000011921","","image-keyboard-response","373","678994","0.0-6.0-0.51","","img/orange.png","32","trial","32","true","0.6,0.4","3:go_c","",""
"null","","html-keyboard-response","374","679997","0.0-6.0-1.51","","<img src=""img/orange-r.png"" border=""10"">","null","trial","32","","0.6,0.4","3:go_c","1",""
"null","","html-keyboard-response","375","681001","0.0-6.0-2.51","","<div style=""font-size:60px;"">+</div>","null","","","","","","",""
"927.6999999880791","","image-keyboard-response","376","681929","0.0-6.0-0.52","","img/orange.png","32","trial","32","true","0.6,0.4","3:go_c","",""
"null","","html-keyboard-response","377","682934","0.0-6.0-1.52","","<img src=""img/orange-r.png"" border=""10"">","null","trial","32","","0.6,0.4","3:go_c","1",""
"null","","html-keyboard-response","378","683938","0.0-6.0-2.52","","<div style=""font-size:60px;"">+</div>","null","","","","","","",""
"1006.4000000059605","","image-keyboard-response","379","684945","0.0-6.0-0.53","","img/yellow.png","32","trial","32","true","0.8,0.2","1:go_a","",""
"null","","html-keyboard-response","380","685947","0.0-6.0-1.53","","<img src=""img/yellow-r.png"" border=""10"">","null","trial","32","","0.8,0.2","1:go_a","1",""
"null","","html-keyboard-response","381","686951","0.0-6.0-2.53","","<div style=""font-size:60px;"">+</div>","null","","","","","","",""
"null","","image-keyboard-response","382","688454","0.0-6.0-0.54","","img/red.png","null","trial","null","true","0.4,0.6","4:nogo_d","",""
"null","","html-keyboard-response","383","689458","0.0-6.0-1.54","","<img src=""img/red-r.png"">","null","trial","null","","0.4,0.6","4:nogo_d","1",""
"null","","html-keyboard-response","384","690462","0.0-6.0-2.54","","<div style=""font-size:60px;"">+</div>","null","","","","","","",""
"null","","image-keyboard-response","385","691966","0.0-6.0-0.55","","img/blue.png","null","trial","null","true","0.2,0.8","2:nogo_b","",""
"null","","html-keyboard-response","386","692970","0.0-6.0-1.55","","<img src=""img/blue-n.png"">","null","trial","null","","0.2,0.8","2:nogo_b","0",""
"null","","html-keyboard-response","387","693974","0.0-6.0-2.55","","<div style=""font-size:60px;"">+</div>","null","","","","","","",""
"852.7000000178814","","image-keyboard-response","388","694827","0.0-6.0-0.56","","img/orange.png","32","trial","32","true","0.6,0.4","3:go_c","",""
"null","","html-keyboard-response","389","695832","0.0-6.0-1.56","","<img src=""img/orange-r.png"" border=""10"">","null","trial","32","","0.6,0.4","3:go_c","1",""
"null","","html-keyboard-response","390","696836","0.0-6.0-2.56","","<div style=""font-size:60px;"">+</div>","null","","","","","","",""
"null","","image-keyboard-response","391","698340","0.0-6.0-0.57","","img/red.png","null","trial","null","true","0.4,0.6","4:nogo_d","",""
"null","","html-keyboard-response","392","699343","0.0-6.0-1.57","","<img src=""img/red-r.png"">","null","trial","null","","0.4,0.6","4:nogo_d","1",""
"null","","html-keyboard-response","393","700348","0.0-6.0-2.57","","<div style=""font-size:60px;"">+</div>","null","","","","","","",""
"null","","image-keyboard-response","394","701852","0.0-6.0-0.58","","img/blue.png","null","trial","null","true","0.2,0.8","2:nogo_b","",""
"null","","html-keyboard-response","395","702856","0.0-6.0-1.58","","<img src=""img/blue-r.png"">","null","trial","null","","0.2,0.8","2:nogo_b","1",""
"null","","html-keyboard-response","396","703860","0.0-6.0-2.58","","<div style=""font-size:60px;"">+</div>","null","","","","","","",""
"982.5","","image-keyboard-response","397","704843","0.0-6.0-0.59","","img/yellow.png","32","trial","32","true","0.8,0.2","1:go_a","",""
"null","","html-keyboard-response","398","705845","0.0-6.0-1.59","","<img src=""img/yellow-r.png"" border=""10"">","null","trial","32","","0.8,0.2","1:go_a","1",""
"null","","html-keyboard-response","399","706850","0.0-6.0-2.59","","<div style=""font-size:60px;"">+</div>","null","","","","","","",""
"null","","image-keyboard-response","400","708353","0.0-6.0-0.60","","img/blue.png","null","trial","null","true","0.2,0.8","2:nogo_b","",""
"null","","html-keyboard-response","401","709357","0.0-6.0-1.60","","<img src=""img/blue-r.png"">","null","trial","null","","0.2,0.8","2:nogo_b","1",""
"null","","html-keyboard-response","402","710361","0.0-6.0-2.60","","<div style=""font-size:60px;"">+</div>","null","","","","","","",""
"1344.800000011921","","image-keyboard-response","403","711707","0.0-6.0-0.61","","img/yellow.png","32","trial","32","true","0.8,0.2","1:go_a","",""
"null","","html-keyboard-response","404","712711","0.0-6.0-1.61","","<img src=""img/yellow-r.png"" border=""10"">","null","trial","32","","0.8,0.2","1:go_a","1",""
"null","","html-keyboard-response","405","713716","0.0-6.0-2.61","","<div style=""font-size:60px;"">+</div>","null","","","","","","",""
"622.5999999940395","","image-keyboard-response","406","714339","0.0-6.0-0.62","","img/orange.png","32","trial","32","true","0.6,0.4","3:go_c","",""
"null","","html-keyboard-response","407","715342","0.0-6.0-1.62","","<img src=""img/orange-r.png"" border=""10"">","null","trial","32","","0.6,0.4","3:go_c","1",""
"null","","html-keyboard-response","408","716346","0.0-6.0-2.62","","<div style=""font-size:60px;"">+</div>","null","","","","","","",""
"null","","image-keyboard-response","409","717850","0.0-6.0-0.63","","img/red.png","null","trial","null","true","0.4,0.6","4:nogo_d","",""
"null","","html-keyboard-response","410","718854","0.0-6.0-1.63","","<img src=""img/red-r.png"">","null","trial","null","","0.4,0.6","4:nogo_d","1",""
"null","","html-keyboard-response","411","719858","0.0-6.0-2.63","","<div style=""font-size:60px;"">+</div>","null","","","","","","",""
"null","","image-keyboard-response","412","721361","0.0-6.0-0.64","","img/blue.png","null","trial","null","true","0.2,0.8","2:nogo_b","",""
"null","","html-keyboard-response","413","722365","0.0-6.0-1.64","","<img src=""img/blue-r.png"">","null","trial","null","","0.2,0.8","2:nogo_b","1",""
"null","","html-keyboard-response","414","723370","0.0-6.0-2.64","","<div style=""font-size:60px;"">+</div>","null","","","","","","",""
"null","","image-keyboard-response","415","724874","0.0-6.0-0.65","","img/red.png","null","trial","null","true","0.4,0.6","4:nogo_d","",""
"null","","html-keyboard-response","416","725878","0.0-6.0-1.65","","<img src=""img/red-n.png"">","null","trial","null","","0.4,0.6","4:nogo_d","0",""
"null","","html-keyboard-response","417","726882","0.0-6.0-2.65","","<div style=""font-size:60px;"">+</div>","null","","","","","","",""
"976.4000000059605","","image-keyboard-response","418","727859","0.0-6.0-0.66","","img/orange.png","32","trial","32","true","0.6,0.4","3:go_c","",""
"null","","html-keyboard-response","419","728862","0.0-6.0-1.66","","<img src=""img/orange-n.png"" border=""10"">","null","trial","32","","0.6,0.4","3:go_c","0",""
"null","","html-keyboard-response","420","729866","0.0-6.0-2.66","","<div style=""font-size:60px;"">+</div>","null","","","","","","",""
"847.9000000059605","","image-keyboard-response","421","730714","0.0-6.0-0.67","","img/yellow.png","32","trial","32","true","0.8,0.2","1:go_a","",""
"null","","html-keyboard-response","422","731717","0.0-6.0-1.67","","<img src=""img/yellow-r.png"" border=""10"">","null","trial","32","","0.8,0.2","1:go_a","1",""
"null","","html-keyboard-response","423","732722","0.0-6.0-2.67","","<div style=""font-size:60px;"">+</div>","null","","","","","","",""
"1032.2000000178814","","image-keyboard-response","424","733755","0.0-6.0-0.68","","img/yellow.png","32","trial","32","true","0.8,0.2","1:go_a","",""
"null","","html-keyboard-response","425","734759","0.0-6.0-1.68","","<img src=""img/yellow-n.png"" border=""10"">","null","trial","32","","0.8,0.2","1:go_a","0",""
"null","","html-keyboard-response","426","735763","0.0-6.0-2.68","","<div style=""font-size:60px;"">+</div>","null","","","","","","",""
"918.0999999940395","","image-keyboard-response","427","736682","0.0-6.0-0.69","","img/orange.png","32","trial","32","true","0.6,0.4","3:go_c","",""
"null","","html-keyboard-response","428","737685","0.0-6.0-1.69","","<img src=""img/orange-n.png"" border=""10"">","null","trial","32","","0.6,0.4","3:go_c","0",""
"null","","html-keyboard-response","429","738689","0.0-6.0-2.69","","<div style=""font-size:60px;"">+</div>","null","","","","","","",""
"945.2000000178814","","image-keyboard-response","430","739635","0.0-6.0-0.70","","img/red.png","32","trial","null","false","0.4,0.6","4:nogo_d","",""
"null","","html-keyboard-response","431","740639","0.0-6.0-1.70","","<img src=""img/red-r.png"" border=""10"">","null","trial","null","","0.4,0.6","4:nogo_d","1",""
"null","","html-keyboard-response","432","741644","0.0-6.0-2.70","","<div style=""font-size:60px;"">+</div>","null","","","","","","",""
"829.3000000119209","","image-keyboard-response","433","742474","0.0-6.0-0.71","","img/blue.png","32","trial","null","false","0.2,0.8","2:nogo_b","",""
"null","","html-keyboard-response","434","743478","0.0-6.0-1.71","","<img src=""img/blue-n.png"" border=""10"">","null","trial","null","","0.2,0.8","2:nogo_b","0",""
"null","","html-keyboard-response","435","744482","0.0-6.0-2.71","","<div style=""font-size:60px;"">+</div>","null","","","","","","",""
"950.9000000059605","","image-keyboard-response","436","745434","0.0-6.0-0.72","","img/orange.png","32","trial","32","true","0.6,0.4","3:go_c","",""
"null","","html-keyboard-response","437","746439","0.0-6.0-1.72","","<img src=""img/orange-n.png"" border=""10"">","null","trial","32","","0.6,0.4","3:go_c","0",""
"null","","html-keyboard-response","438","747443","0.0-6.0-2.72","","<div style=""font-size:60px;"">+</div>","null","","","","","","",""
"887","","image-keyboard-response","439","748331","0.0-6.0-0.73","","img/red.png","32","trial","null","false","0.4,0.6","4:nogo_d","",""
"null","","html-keyboard-response","440","749334","0.0-6.0-1.73","","<img src=""img/red-r.png"" border=""10"">","null","trial","null","","0.4,0.6","4:nogo_d","1",""
"null","","html-keyboard-response","441","750339","0.0-6.0-2.73","","<div style=""font-size:60px;"">+</div>","null","","","","","","",""
"1101.699999988079","","image-keyboard-response","442","751442","0.0-6.0-0.74","","img/blue.png","32","trial","null","false","0.2,0.8","2:nogo_b","",""
"null","","html-keyboard-response","443","752446","0.0-6.0-1.74","","<img src=""img/blue-n.png"" border=""10"">","null","trial","null","","0.2,0.8","2:nogo_b","0",""
"null","","html-keyboard-response","444","753450","0.0-6.0-2.74","","<div style=""font-size:60px;"">+</div>","null","","","","","","",""
"885.9000000059605","","image-keyboard-response","445","754337","0.0-6.0-0.75","","img/yellow.png","32","trial","32","true","0.8,0.2","1:go_a","",""
"null","","html-keyboard-response","446","755342","0.0-6.0-1.75","","<img src=""img/yellow-r.png"" border=""10"">","null","trial","32","","0.8,0.2","1:go_a","1",""
"null","","html-keyboard-response","447","756347","0.0-6.0-2.75","","<div style=""font-size:60px;"">+</div>","null","","","","","","",""
"null","","image-keyboard-response","448","757851","0.0-6.0-0.76","","img/blue.png","null","trial","null","true","0.2,0.8","2:nogo_b","",""
"null","","html-keyboard-response","449","758855","0.0-6.0-1.76","","<img src=""img/blue-r.png"">","null","trial","null","","0.2,0.8","2:nogo_b","1",""
"null","","html-keyboard-response","450","759859","0.0-6.0-2.76","","<div style=""font-size:60px;"">+</div>","null","","","","","","",""
"675.4000000059605","","image-keyboard-response","451","760535","0.0-6.0-0.77","","img/red.png","32","trial","null","false","0.4,0.6","4:nogo_d","",""
"null","","html-keyboard-response","452","761541","0.0-6.0-1.77","","<img src=""img/red-n.png"" border=""10"">","null","trial","null","","0.4,0.6","4:nogo_d","0",""
"null","","html-keyboard-response","453","762547","0.0-6.0-2.77","","<div style=""font-size:60px;"">+</div>","null","","","","","","",""
"884.0999999940395","","image-keyboard-response","454","763432","0.0-6.0-0.78","","img/orange.png","32","trial","32","true","0.6,0.4","3:go_c","",""
"null","","html-keyboard-response","455","764438","0.0-6.0-1.78","","<img src=""img/orange-r.png"" border=""10"">","null","trial","32","","0.6,0.4","3:go_c","1",""
"null","","html-keyboard-response","456","765443","0.0-6.0-2.78","","<div style=""font-size:60px;"">+</div>","null","","","","","","",""
"898","","image-keyboard-response","457","766342","0.0-6.0-0.79","","img/yellow.png","32","trial","32","true","0.8,0.2","1:go_a","",""
"null","","html-keyboard-response","458","767343","0.0-6.0-1.79","","<img src=""img/yellow-r.png"" border=""10"">","null","trial","32","","0.8,0.2","1:go_a","1",""
"null","","html-keyboard-response","459","768346","0.0-6.0-2.79","","<div style=""font-size:60px;"">+</div>","null","","","","","","",""
"1051.5","","image-keyboard-response","460","769398","0.0-6.0-0.80","","img/red.png","32","trial","null","false","0.4,0.6","4:nogo_d","",""
"null","","html-keyboard-response","461","770401","0.0-6.0-1.80","","<img src=""img/red-n.png"" border=""10"">","null","trial","null","","0.4,0.6","4:nogo_d","0",""
"null","","html-keyboard-response","462","771405","0.0-6.0-2.80","","<div style=""font-size:60px;"">+</div>","null","","","","","","",""
"881.3000000119209","","image-keyboard-response","463","772287","0.0-6.0-0.81","","img/yellow.png","32","trial","32","true","0.8,0.2","1:go_a","",""
"null","","html-keyboard-response","464","773291","0.0-6.0-1.81","","<img src=""img/yellow-r.png"" border=""10"">","null","trial","32","","0.8,0.2","1:go_a","1",""
"null","","html-keyboard-response","465","774296","0.0-6.0-2.81","","<div style=""font-size:60px;"">+</div>","null","","","","","","",""
"null","","image-keyboard-response","466","775799","0.0-6.0-0.82","","img/blue.png","null","trial","null","true","0.2,0.8","2:nogo_b","",""
"null","","html-keyboard-response","467","776803","0.0-6.0-1.82","","<img src=""img/blue-r.png"">","null","trial","null","","0.2,0.8","2:nogo_b","1",""
"null","","html-keyboard-response","468","777808","0.0-6.0-2.82","","<div style=""font-size:60px;"">+</div>","null","","","","","","",""
"964.4000000059605","","image-keyboard-response","469","778773","0.0-6.0-0.83","","img/orange.png","32","trial","32","true","0.6,0.4","3:go_c","",""
"null","","html-keyboard-response","470","779776","0.0-6.0-1.83","","<img src=""img/orange-n.png"" border=""10"">","null","trial","32","","0.6,0.4","3:go_c","0",""
"null","","html-keyboard-response","471","780780","0.0-6.0-2.83","","<div style=""font-size:60px;"">+</div>","null","","","","","","",""
"935.3999999761581","","image-keyboard-response","472","781716","0.0-6.0-0.84","","img/yellow.png","32","trial","32","true","0.8,0.2","1:go_a","",""
"null","","html-keyboard-response","473","782719","0.0-6.0-1.84","","<img src=""img/yellow-r.png"" border=""10"">","null","trial","32","","0.8,0.2","1:go_a","1",""
"null","","html-keyboard-response","474","783723","0.0-6.0-2.84","","<div style=""font-size:60px;"">+</div>","null","","","","","","",""
"1015.3000000119209","","image-keyboard-response","475","784739","0.0-6.0-0.85","","img/red.png","32","trial","null","false","0.4,0.6","4:nogo_d","",""
"null","","html-keyboard-response","476","785743","0.0-6.0-1.85","","<img src=""img/red-n.png"" border=""10"">","null","trial","null","","0.4,0.6","4:nogo_d","0",""
"null","","html-keyboard-response","477","786747","0.0-6.0-2.85","","<div style=""font-size:60px;"">+</div>","null","","","","","","",""
"976.2000000178814","","image-keyboard-response","478","787724","0.0-6.0-0.86","","img/orange.png","32","trial","32","true","0.6,0.4","3:go_c","",""
"null","","html-keyboard-response","479","788726","0.0-6.0-1.86","","<img src=""img/orange-r.png"" border=""10"">","null","trial","32","","0.6,0.4","3:go_c","1",""
"null","","html-keyboard-response","480","789731","0.0-6.0-2.86","","<div style=""font-size:60px;"">+</div>","null","","","","","","",""
"null","","image-keyboard-response","481","791234","0.0-6.0-0.87","","img/blue.png","null","trial","null","true","0.2,0.8","2:nogo_b","",""
"null","","html-keyboard-response","482","792240","0.0-6.0-1.87","","<img src=""img/blue-r.png"">","null","trial","null","","0.2,0.8","2:nogo_b","1",""
"null","","html-keyboard-response","483","793243","0.0-6.0-2.87","","<div style=""font-size:60px;"">+</div>","null","","","","","","",""
"1203","","image-keyboard-response","484","794447","0.0-6.0-0.88","","img/yellow.png","32","trial","32","true","0.8,0.2","1:go_a","",""
"null","","html-keyboard-response","485","795448","0.0-6.0-1.88","","<img src=""img/yellow-r.png"" border=""10"">","null","trial","32","","0.8,0.2","1:go_a","1",""
"null","","html-keyboard-response","486","796453","0.0-6.0-2.88","","<div style=""font-size:60px;"">+</div>","null","","","","","","",""
"912.3000000119209","","image-keyboard-response","487","797366","0.0-6.0-0.89","","img/orange.png","32","trial","32","true","0.6,0.4","3:go_c","",""
"null","","html-keyboard-response","488","798368","0.0-6.0-1.89","","<img src=""img/orange-n.png"" border=""10"">","null","trial","32","","0.6,0.4","3:go_c","0",""
"null","","html-keyboard-response","489","799372","0.0-6.0-2.89","","<div style=""font-size:60px;"">+</div>","null","","","","","","",""
"null","","image-keyboard-response","490","800878","0.0-6.0-0.90","","img/blue.png","null","trial","null","true","0.2,0.8","2:nogo_b","",""
"null","","html-keyboard-response","491","801880","0.0-6.0-1.90","","<img src=""img/blue-r.png"">","null","trial","null","","0.2,0.8","2:nogo_b","1",""
"null","","html-keyboard-response","492","802884","0.0-6.0-2.90","","<div style=""font-size:60px;"">+</div>","null","","","","","","",""
"null","","image-keyboard-response","493","804388","0.0-6.0-0.91","","img/red.png","null","trial","null","true","0.4,0.6","4:nogo_d","",""
"null","","html-keyboard-response","494","805392","0.0-6.0-1.91","","<img src=""img/red-r.png"">","null","trial","null","","0.4,0.6","4:nogo_d","1",""
"null","","html-keyboard-response","495","806396","0.0-6.0-2.91","","<div style=""font-size:60px;"">+</div>","null","","","","","","",""
"869.4000000059605","","image-keyboard-response","496","807266","0.0-6.0-0.92","","img/orange.png","32","trial","32","true","0.6,0.4","3:go_c","",""
"null","","html-keyboard-response","497","808271","0.0-6.0-1.92","","<img src=""img/orange-n.png"" border=""10"">","null","trial","32","","0.6,0.4","3:go_c","0",""
"null","","html-keyboard-response","498","809275","0.0-6.0-2.92","","<div style=""font-size:60px;"">+</div>","null","","","","","","",""
"822","","image-keyboard-response","499","810098","0.0-6.0-0.93","","img/red.png","32","trial","null","false","0.4,0.6","4:nogo_d","",""
"null","","html-keyboard-response","500","811103","0.0-6.0-1.93","","<img src=""img/red-n.png"" border=""10"">","null","trial","null","","0.4,0.6","4:nogo_d","0",""
"null","","html-keyboard-response","501","812108","0.0-6.0-2.93","","<div style=""font-size:60px;"">+</div>","null","","","","","","",""
"853.1999999880791","","image-keyboard-response","502","812962","0.0-6.0-0.94","","img/yellow.png","32","trial","32","true","0.8,0.2","1:go_a","",""
"null","","html-keyboard-response","503","813965","0.0-6.0-1.94","","<img src=""img/yellow-r.png"" border=""10"">","null","trial","32","","0.8,0.2","1:go_a","1",""
"null","","html-keyboard-response","504","814970","0.0-6.0-2.94","","<div style=""font-size:60px;"">+</div>","null","","","","","","",""
"1071.2000000178814","","image-keyboard-response","505","816042","0.0-6.0-0.95","","img/blue.png","32","trial","null","false","0.2,0.8","2:nogo_b","",""
"null","","html-keyboard-response","506","817043","0.0-6.0-1.95","","<img src=""img/blue-n.png"" border=""10"">","null","trial","null","","0.2,0.8","2:nogo_b","0",""
"null","","html-keyboard-response","507","818046","0.0-6.0-2.95","","<div style=""font-size:60px;"">+</div>","null","","","","","","",""
"978.8000000119209","","image-keyboard-response","508","819026","0.0-6.0-0.96","","img/red.png","32","trial","null","false","0.4,0.6","4:nogo_d","",""
"null","","html-keyboard-response","509","820032","0.0-6.0-1.96","","<img src=""img/red-n.png"" border=""10"">","null","trial","null","","0.4,0.6","4:nogo_d","0",""
"null","","html-keyboard-response","510","821035","0.0-6.0-2.96","","<div style=""font-size:60px;"">+</div>","null","","","","","","",""
"926.0999999940395","","image-keyboard-response","511","821962","0.0-6.0-0.97","","img/orange.png","32","trial","32","true","0.6,0.4","3:go_c","",""
"null","","html-keyboard-response","512","822968","0.0-6.0-1.97","","<img src=""img/orange-r.png"" border=""10"">","null","trial","32","","0.6,0.4","3:go_c","1",""
"null","","html-keyboard-response","513","823973","0.0-6.0-2.97","","<div style=""font-size:60px;"">+</div>","null","","","","","","",""
"812","","image-keyboard-response","514","824786","0.0-6.0-0.98","","img/yellow.png","32","trial","32","true","0.8,0.2","1:go_a","",""
"null","","html-keyboard-response","515","825790","0.0-6.0-1.98","","<img src=""img/yellow-n.png"" border=""10"">","null","trial","32","","0.8,0.2","1:go_a","0",""
"null","","html-keyboard-response","516","826794","0.0-6.0-2.98","","<div style=""font-size:60px;"">+</div>","null","","","","","","",""
"null","","image-keyboard-response","517","828298","0.0-6.0-0.99","","img/blue.png","null","trial","null","true","0.2,0.8","2:nogo_b","",""
"null","","html-keyboard-response","518","829302","0.0-6.0-1.99","","<img src=""img/blue-n.png"">","null","trial","null","","0.2,0.8","2:nogo_b","0",""
"null","","html-keyboard-response","519","830306","0.0-6.0-2.99","","<div style=""font-size:60px;"">+</div>","null","","","","","","",""
"null","","image-keyboard-response","520","831811","0.0-6.0-0.100","","img/blue.png","null","trial","null","true","0.2,0.8","2:nogo_b","",""
"null","","html-keyboard-response","521","832814","0.0-6.0-1.100","","<img src=""img/blue-r.png"">","null","trial","null","","0.2,0.8","2:nogo_b","1",""
"null","","html-keyboard-response","522","833818","0.0-6.0-2.100","","<div style=""font-size:60px;"">+</div>","null","","","","","","",""
"1082.199999988079","","image-keyboard-response","523","834902","0.0-6.0-0.101","","img/yellow.png","32","trial","32","true","0.8,0.2","1:go_a","",""
"null","","html-keyboard-response","524","835907","0.0-6.0-1.101","","<img src=""img/yellow-r.png"" border=""10"">","null","trial","32","","0.8,0.2","1:go_a","1",""
"null","","html-keyboard-response","525","836911","0.0-6.0-2.101","","<div style=""font-size:60px;"">+</div>","null","","","","","","",""
"868.8000000119209","","image-keyboard-response","526","837781","0.0-6.0-0.102","","img/orange.png","32","trial","32","true","0.6,0.4","3:go_c","",""
"null","","html-keyboard-response","527","838787","0.0-6.0-1.102","","<img src=""img/orange-r.png"" border=""10"">","null","trial","32","","0.6,0.4","3:go_c","1",""
"null","","html-keyboard-response","528","839791","0.0-6.0-2.102","","<div style=""font-size:60px;"">+</div>","null","","","","","","",""
"null","","image-keyboard-response","529","841295","0.0-6.0-0.103","","img/red.png","null","trial","null","true","0.4,0.6","4:nogo_d","",""
"null","","html-keyboard-response","530","842299","0.0-6.0-1.103","","<img src=""img/red-r.png"">","null","trial","null","","0.4,0.6","4:nogo_d","1",""
"null","","html-keyboard-response","531","843303","0.0-6.0-2.103","","<div style=""font-size:60px;"">+</div>","null","","","","","","",""
"922.1999999880791","","image-keyboard-response","532","844226","0.0-6.0-0.104","","img/orange.png","32","trial","32","true","0.6,0.4","3:go_c","",""
"null","","html-keyboard-response","533","845230","0.0-6.0-1.104","","<img src=""img/orange-r.png"" border=""10"">","null","trial","32","","0.6,0.4","3:go_c","1",""
"null","","html-keyboard-response","534","846234","0.0-6.0-2.104","","<div style=""font-size:60px;"">+</div>","null","","","","","","",""
"null","","image-keyboard-response","535","847738","0.0-6.0-0.105","","img/blue.png","null","trial","null","true","0.2,0.8","2:nogo_b","",""
"null","","html-keyboard-response","536","848742","0.0-6.0-1.105","","<img src=""img/blue-r.png"">","null","trial","null","","0.2,0.8","2:nogo_b","1",""
"null","","html-keyboard-response","537","849747","0.0-6.0-2.105","","<div style=""font-size:60px;"">+</div>","null","","","","","","",""
"null","","image-keyboard-response","538","851250","0.0-6.0-0.106","","img/red.png","null","trial","null","true","0.4,0.6","4:nogo_d","",""
"null","","html-keyboard-response","539","852254","0.0-6.0-1.106","","<img src=""img/red-n.png"">","null","trial","null","","0.4,0.6","4:nogo_d","0",""
"null","","html-keyboard-response","540","853258","0.0-6.0-2.106","","<div style=""font-size:60px;"">+</div>","null","","","","","","",""
"995.5","","image-keyboard-response","541","854254","0.0-6.0-0.107","","img/yellow.png","32","trial","32","true","0.8,0.2","1:go_a","",""
"null","","html-keyboard-response","542","855260","0.0-6.0-1.107","","<img src=""img/yellow-n.png"" border=""10"">","null","trial","32","","0.8,0.2","1:go_a","0",""
"null","","html-keyboard-response","543","856265","0.0-6.0-2.107","","<div style=""font-size:60px;"">+</div>","null","","","","","","",""
"822.7999999821186","","image-keyboard-response","544","857088","0.0-6.0-0.108","","img/yellow.png","32","trial","32","true","0.8,0.2","1:go_a","",""
"null","","html-keyboard-response","545","858094","0.0-6.0-1.108","","<img src=""img/yellow-r.png"" border=""10"">","null","trial","32","","0.8,0.2","1:go_a","1",""
"null","","html-keyboard-response","546","859097","0.0-6.0-2.108","","<div style=""font-size:60px;"">+</div>","null","","","","","","",""
"null","","image-keyboard-response","547","860601","0.0-6.0-0.109","","img/blue.png","null","trial","null","true","0.2,0.8","2:nogo_b","",""
"null","","html-keyboard-response","548","861606","0.0-6.0-1.109","","<img src=""img/blue-r.png"">","null","trial","null","","0.2,0.8","2:nogo_b","1",""
"null","","html-keyboard-response","549","862609","0.0-6.0-2.109","","<div style=""font-size:60px;"">+</div>","null","","","","","","",""
"823.5999999940395","","image-keyboard-response","550","863434","0.0-6.0-0.110","","img/orange.png","32","trial","32","true","0.6,0.4","3:go_c","",""
"null","","html-keyboard-response","551","864438","0.0-6.0-1.110","","<img src=""img/orange-n.png"" border=""10"">","null","trial","32","","0.6,0.4","3:go_c","0",""
"null","","html-keyboard-response","552","865443","0.0-6.0-2.110","","<div style=""font-size:60px;"">+</div>","null","","","","","","",""
"1015.6999999880791","","image-keyboard-response","553","866459","0.0-6.0-0.111","","img/red.png","32","trial","null","false","0.4,0.6","4:nogo_d","",""
"null","","html-keyboard-response","554","867462","0.0-6.0-1.111","","<img src=""img/red-n.png"" border=""10"">","null","trial","null","","0.4,0.6","4:nogo_d","0",""
"null","","html-keyboard-response","555","868467","0.0-6.0-2.111","","<div style=""font-size:60px;"">+</div>","null","","","","","","",""
"null","","image-keyboard-response","556","869970","0.0-6.0-0.112","","img/blue.png","null","trial","null","true","0.2,0.8","2:nogo_b","",""
"null","","html-keyboard-response","557","870975","0.0-6.0-1.112","","<img src=""img/blue-r.png"">","null","trial","null","","0.2,0.8","2:nogo_b","1",""
"null","","html-keyboard-response","558","871979","0.0-6.0-2.112","","<div style=""font-size:60px;"">+</div>","null","","","","","","",""
"931.7999999821186","","image-keyboard-response","559","872912","0.0-6.0-0.113","","img/yellow.png","32","trial","32","true","0.8,0.2","1:go_a","",""
"null","","html-keyboard-response","560","873917","0.0-6.0-1.113","","<img src=""img/yellow-n.png"" border=""10"">","null","trial","32","","0.8,0.2","1:go_a","0",""
"null","","html-keyboard-response","561","874922","0.0-6.0-2.113","","<div style=""font-size:60px;"">+</div>","null","","","","","","",""
"908.9000000059605","","image-keyboard-response","562","875832","0.0-6.0-0.114","","img/orange.png","32","trial","32","true","0.6,0.4","3:go_c","",""
"null","","html-keyboard-response","563","876837","0.0-6.0-1.114","","<img src=""img/orange-r.png"" border=""10"">","null","trial","32","","0.6,0.4","3:go_c","1",""
"null","","html-keyboard-response","564","877842","0.0-6.0-2.114","","<div style=""font-size:60px;"">+</div>","null","","","","","","",""
"1060","","image-keyboard-response","565","878903","0.0-6.0-0.115","","img/red.png","32","trial","null","false","0.4,0.6","4:nogo_d","",""
"null","","html-keyboard-response","566","879907","0.0-6.0-1.115","","<img src=""img/red-n.png"" border=""10"">","null","trial","null","","0.4,0.6","4:nogo_d","0",""
"null","","html-keyboard-response","567","880913","0.0-6.0-2.115","","<div style=""font-size:60px;"">+</div>","null","","","","","","",""
"null","","image-keyboard-response","568","882416","0.0-6.0-0.116","","img/blue.png","null","trial","null","true","0.2,0.8","2:nogo_b","",""
"null","","html-keyboard-response","569","883420","0.0-6.0-1.116","","<img src=""img/blue-n.png"">","null","trial","null","","0.2,0.8","2:nogo_b","0",""
"null","","html-keyboard-response","570","884424","0.0-6.0-2.116","","<div style=""font-size:60px;"">+</div>","null","","","","","","",""
"839","","image-keyboard-response","571","885264","0.0-6.0-0.117","","img/yellow.png","32","trial","32","true","0.8,0.2","1:go_a","",""
"null","","html-keyboard-response","572","886270","0.0-6.0-1.117","","<img src=""img/yellow-r.png"" border=""10"">","null","trial","32","","0.8,0.2","1:go_a","1",""
"null","","html-keyboard-response","573","887275","0.0-6.0-2.117","","<div style=""font-size:60px;"">+</div>","null","","","","","","",""
"956.2999999821186","","image-keyboard-response","574","888232","0.0-6.0-0.118","","img/orange.png","32","trial","32","true","0.6,0.4","3:go_c","",""
"null","","html-keyboard-response","575","889236","0.0-6.0-1.118","","<img src=""img/orange-r.png"" border=""10"">","null","trial","32","","0.6,0.4","3:go_c","1",""
"null","","html-keyboard-response","576","890241","0.0-6.0-2.118","","<div style=""font-size:60px;"">+</div>","null","","","","","","",""
"1044.199999988079","","image-keyboard-response","577","891286","0.0-6.0-0.119","","img/red.png","32","trial","null","false","0.4,0.6","4:nogo_d","",""
"null","","html-keyboard-response","578","892290","0.0-6.0-1.119","","<img src=""img/red-n.png"" border=""10"">","null","trial","null","","0.4,0.6","4:nogo_d","0",""
"null","","html-keyboard-response","579","893294","0.0-6.0-2.119","","<div style=""font-size:60px;"">+</div>","null","","","","","","",""
"34582.90000000596","","instructions","580","927876","0.0-7.0","[{""page_index"":0,""viewing_time"":34582.69999998808}]","","","","","","","","",""
"null","","image-keyboard-response","581","929383","0.0-8.0-0.0","","img/pink.png","null","trial","32","false","0.8,0.2","1:go_a","",""
"null","","html-keyboard-response","582","930387","0.0-8.0-1.0","","<img src=""img/pink-n.png"">","null","trial","32","","0.8,0.2","1:go_a","0",""
"null","","html-keyboard-response","583","931391","0.0-8.0-2.0","","<div style=""font-size:60px;"">+</div>","null","","","","","","",""
"956.2999999821186","","image-keyboard-response","584","932348","0.0-8.0-0.1","","img/green.png","32","trial","32","true","1,0","3:go_c","",""
"null","","html-keyboard-response","585","933353","0.0-8.0-1.1","","<img src=""img/green-r.png"" border=""10"">","null","trial","32","","1,0","3:go_c","1",""
"null","","html-keyboard-response","586","934357","0.0-8.0-2.1","","<div style=""font-size:60px;"">+</div>","null","","","","","","",""
"837.9000000059605","","image-keyboard-response","587","935196","0.0-8.0-0.2","","img/red.png","32","trial","null","false","0.2,0.8","2:nogo_b","",""
"null","","html-keyboard-response","588","936199","0.0-8.0-1.2","","<img src=""img/red-n.png"" border=""10"">","null","trial","null","","0.2,0.8","2:nogo_b","0",""
"null","","html-keyboard-response","589","937202","0.0-8.0-2.2","","<div style=""font-size:60px;"">+</div>","null","","","","","","",""
"976.8000000119209","","image-keyboard-response","590","938179","0.0-8.0-0.3","","img/yellow.png","32","trial","null","false","0,1","4:nogo_d","",""
"null","","html-keyboard-response","591","939181","0.0-8.0-1.3","","<img src=""img/yellow-n.png"" border=""10"">","null","trial","null","","0,1","4:nogo_d","0",""
"null","","html-keyboard-response","592","940185","0.0-8.0-2.3","","<div style=""font-size:60px;"">+</div>","null","","","","","","",""
"905.5","","image-keyboard-response","593","941092","0.0-8.0-0.4","","img/red.png","32","trial","null","false","0.2,0.8","2:nogo_b","",""
"null","","html-keyboard-response","594","942095","0.0-8.0-1.4","","<img src=""img/red-n.png"" border=""10"">","null","trial","null","","0.2,0.8","2:nogo_b","0",""
"null","","html-keyboard-response","595","943099","0.0-8.0-2.4","","<div style=""font-size:60px;"">+</div>","null","","","","","","",""
"903.6999999880791","","image-keyboard-response","596","944004","0.0-8.0-0.5","","img/yellow.png","32","trial","null","false","0,1","4:nogo_d","",""
"null","","html-keyboard-response","597","945009","0.0-8.0-1.5","","<img src=""img/yellow-n.png"" border=""10"">","null","trial","null","","0,1","4:nogo_d","0",""
"null","","html-keyboard-response","598","946013","0.0-8.0-2.5","","<div style=""font-size:60px;"">+</div>","null","","","","","","",""
"717.1999999880791","","image-keyboard-response","599","946731","0.0-8.0-0.6","","img/green.png","32","trial","32","true","1,0","3:go_c","",""
"null","","html-keyboard-response","600","947736","0.0-8.0-1.6","","<img src=""img/green-r.png"" border=""10"">","null","trial","32","","1,0","3:go_c","1",""
"null","","html-keyboard-response","601","948742","0.0-8.0-2.6","","<div style=""font-size:60px;"">+</div>","null","","","","","","",""
"1133.5","","image-keyboard-response","602","949876","0.0-8.0-0.7","","img/pink.png","32","trial","32","true","0.8,0.2","1:go_a","",""
"null","","html-keyboard-response","603","950878","0.0-8.0-1.7","","<img src=""img/pink-r.png"" border=""10"">","null","trial","32","","0.8,0.2","1:go_a","1",""
"null","","html-keyboard-response","604","951882","0.0-8.0-2.7","","<div style=""font-size:60px;"">+</div>","null","","","","","","",""
"912.5999999940395","","image-keyboard-response","605","952795","0.0-8.0-0.8","","img/yellow.png","32","trial","null","false","0,1","4:nogo_d","",""
"null","","html-keyboard-response","606","953798","0.0-8.0-1.8","","<img src=""img/yellow-n.png"" border=""10"">","null","trial","null","","0,1","4:nogo_d","0",""
"null","","html-keyboard-response","607","954802","0.0-8.0-2.8","","<div style=""font-size:60px;"">+</div>","null","","","","","","",""
"737","","image-keyboard-response","608","955540","0.0-8.0-0.9","","img/pink.png","32","trial","32","true","0.8,0.2","1:go_a","",""
"null","","html-keyboard-response","609","956543","0.0-8.0-1.9","","<img src=""img/pink-r.png"" border=""10"">","null","trial","32","","0.8,0.2","1:go_a","1",""
"null","","html-keyboard-response","610","957547","0.0-8.0-2.9","","<div style=""font-size:60px;"">+</div>","null","","","","","","",""
"null","","image-keyboard-response","611","959051","0.0-8.0-0.10","","img/red.png","null","trial","null","true","0.2,0.8","2:nogo_b","",""
"null","","html-keyboard-response","612","960055","0.0-8.0-1.10","","<img src=""img/red-n.png"">","null","trial","null","","0.2,0.8","2:nogo_b","0",""
"null","","html-keyboard-response","613","961059","0.0-8.0-2.10","","<div style=""font-size:60px;"">+</div>","null","","","","","","",""
"898","","image-keyboard-response","614","961958","0.0-8.0-0.11","","img/green.png","32","trial","32","true","1,0","3:go_c","",""
"null","","html-keyboard-response","615","962963","0.0-8.0-1.11","","<img src=""img/green-r.png"" border=""10"">","null","trial","32","","1,0","3:go_c","1",""
"null","","html-keyboard-response","616","963968","0.0-8.0-2.11","","<div style=""font-size:60px;"">+</div>","null","","","","","","",""
"860.4000000059605","","image-keyboard-response","617","964829","0.0-8.0-0.12","","img/pink.png","32","trial","32","true","0.8,0.2","1:go_a","",""
"null","","html-keyboard-response","618","965830","0.0-8.0-1.12","","<img src=""img/pink-r.png"" border=""10"">","null","trial","32","","0.8,0.2","1:go_a","1",""
"null","","html-keyboard-response","619","966835","0.0-8.0-2.12","","<div style=""font-size:60px;"">+</div>","null","","","","","","",""
"null","","image-keyboard-response","620","968338","0.0-8.0-0.13","","img/red.png","null","trial","null","true","0.2,0.8","2:nogo_b","",""
"null","","html-keyboard-response","621","969342","0.0-8.0-1.13","","<img src=""img/red-r.png"">","null","trial","null","","0.2,0.8","2:nogo_b","1",""
"null","","html-keyboard-response","622","970347","0.0-8.0-2.13","","<div style=""font-size:60px;"">+</div>","null","","","","","","",""
"594.7000000178814","","image-keyboard-response","623","970943","0.0-8.0-0.14","","img/green.png","32","trial","32","true","1,0","3:go_c","",""
"null","","html-keyboard-response","624","971947","0.0-8.0-1.14","","<img src=""img/green-r.png"" border=""10"">","null","trial","32","","1,0","3:go_c","1",""
"null","","html-keyboard-response","625","972952","0.0-8.0-2.14","","<div style=""font-size:60px;"">+</div>","null","","","","","","",""
"null","","image-keyboard-response","626","974456","0.0-8.0-0.15","","img/yellow.png","null","trial","null","true","0,1","4:nogo_d","",""
"null","","html-keyboard-response","627","975461","0.0-8.0-1.15","","<img src=""img/yellow-r.png"">","null","trial","null","","0,1","4:nogo_d","1",""
"null","","html-keyboard-response","628","976465","0.0-8.0-2.15","","<div style=""font-size:60px;"">+</div>","null","","","","","","",""
"null","","image-keyboard-response","629","977969","0.0-8.0-0.16","","img/yellow.png","null","trial","null","true","0,1","4:nogo_d","",""
"null","","html-keyboard-response","630","978973","0.0-8.0-1.16","","<img src=""img/yellow-r.png"">","null","trial","null","","0,1","4:nogo_d","1",""
"null","","html-keyboard-response","631","979977","0.0-8.0-2.16","","<div style=""font-size:60px;"">+</div>","null","","","","","","",""
"846.5999999940395","","image-keyboard-response","632","980824","0.0-8.0-0.17","","img/green.png","32","trial","32","true","1,0","3:go_c","",""
"null","","html-keyboard-response","633","981828","0.0-8.0-1.17","","<img src=""img/green-r.png"" border=""10"">","null","trial","32","","1,0","3:go_c","1",""
"null","","html-keyboard-response","634","982834","0.0-8.0-2.17","","<div style=""font-size:60px;"">+</div>","null","","","","","","",""
"null","","image-keyboard-response","635","984337","0.0-8.0-0.18","","img/red.png","null","trial","null","true","0.2,0.8","2:nogo_b","",""
"null","","html-keyboard-response","636","985341","0.0-8.0-1.18","","<img src=""img/red-r.png"">","null","trial","null","","0.2,0.8","2:nogo_b","1",""
"null","","html-keyboard-response","637","986344","0.0-8.0-2.18","","<div style=""font-size:60px;"">+</div>","null","","","","","","",""
"863.5999999940395","","image-keyboard-response","638","987208","0.0-8.0-0.19","","img/pink.png","32","trial","32","true","0.8,0.2","1:go_a","",""
"null","","html-keyboard-response","639","988212","0.0-8.0-1.19","","<img src=""img/pink-r.png"" border=""10"">","null","trial","32","","0.8,0.2","1:go_a","1",""
"null","","html-keyboard-response","640","989217","0.0-8.0-2.19","","<div style=""font-size:60px;"">+</div>","null","","","","","","",""
"790","","image-keyboard-response","641","990008","0.0-8.0-0.20","","img/pink.png","32","trial","32","true","0.8,0.2","1:go_a","",""
"null","","html-keyboard-response","642","991012","0.0-8.0-1.20","","<img src=""img/pink-r.png"" border=""10"">","null","trial","32","","0.8,0.2","1:go_a","1",""
"null","","html-keyboard-response","643","992016","0.0-8.0-2.20","","<div style=""font-size:60px;"">+</div>","null","","","","","","",""
"null","","image-keyboard-response","644","993520","0.0-8.0-0.21","","img/yellow.png","null","trial","null","true","0,1","4:nogo_d","",""
"null","","html-keyboard-response","645","994524","0.0-8.0-1.21","","<img src=""img/yellow-r.png"">","null","trial","null","","0,1","4:nogo_d","1",""
"null","","html-keyboard-response","646","995529","0.0-8.0-2.21","","<div style=""font-size:60px;"">+</div>","null","","","","","","",""
"959.4000000059605","","image-keyboard-response","647","996489","0.0-8.0-0.22","","img/green.png","32","trial","32","true","1,0","3:go_c","",""
"null","","html-keyboard-response","648","997494","0.0-8.0-1.22","","<img src=""img/green-r.png"" border=""10"">","null","trial","32","","1,0","3:go_c","1",""
"null","","html-keyboard-response","649","998499","0.0-8.0-2.22","","<div style=""font-size:60px;"">+</div>","null","","","","","","",""
"null","","image-keyboard-response","650","1000004","0.0-8.0-0.23","","img/red.png","null","trial","null","true","0.2,0.8","2:nogo_b","",""
"null","","html-keyboard-response","651","1001008","0.0-8.0-1.23","","<img src=""img/red-r.png"">","null","trial","null","","0.2,0.8","2:nogo_b","1",""
"null","","html-keyboard-response","652","1002012","0.0-8.0-2.23","","<div style=""font-size:60px;"">+</div>","null","","","","","","",""
"null","","image-keyboard-response","653","1003516","0.0-8.0-0.24","","img/red.png","null","trial","null","true","0.2,0.8","2:nogo_b","",""
"null","","html-keyboard-response","654","1004520","0.0-8.0-1.24","","<img src=""img/red-r.png"">","null","trial","null","","0.2,0.8","2:nogo_b","1",""
"null","","html-keyboard-response","655","1005524","0.0-8.0-2.24","","<div style=""font-size:60px;"">+</div>","null","","","","","","",""
"1009.6000000238419","","image-keyboard-response","656","1006534","0.0-8.0-0.25","","img/pink.png","32","trial","32","true","0.8,0.2","1:go_a","",""
"null","","html-keyboard-response","657","1007538","0.0-8.0-1.25","","<img src=""img/pink-r.png"" border=""10"">","null","trial","32","","0.8,0.2","1:go_a","1",""
"null","","html-keyboard-response","658","1008543","0.0-8.0-2.25","","<div style=""font-size:60px;"">+</div>","null","","","","","","",""
"895.5","","image-keyboard-response","659","1009439","0.0-8.0-0.26","","img/green.png","32","trial","32","true","1,0","3:go_c","",""
"null","","html-keyboard-response","660","1010441","0.0-8.0-1.26","","<img src=""img/green-r.png"" border=""10"">","null","trial","32","","1,0","3:go_c","1",""
"null","","html-keyboard-response","661","1011445","0.0-8.0-2.26","","<div style=""font-size:60px;"">+</div>","null","","","","","","",""
"null","","image-keyboard-response","662","1012949","0.0-8.0-0.27","","img/yellow.png","null","trial","null","true","0,1","4:nogo_d","",""
"null","","html-keyboard-response","663","1013952","0.0-8.0-1.27","","<img src=""img/yellow-r.png"">","null","trial","null","","0,1","4:nogo_d","1",""
"null","","html-keyboard-response","664","1014957","0.0-8.0-2.27","","<div style=""font-size:60px;"">+</div>","null","","","","","","",""
"null","","image-keyboard-response","665","1016460","0.0-8.0-0.28","","img/yellow.png","null","trial","null","true","0,1","4:nogo_d","",""
"null","","html-keyboard-response","666","1017465","0.0-8.0-1.28","","<img src=""img/yellow-r.png"">","null","trial","null","","0,1","4:nogo_d","1",""
"null","","html-keyboard-response","667","1018469","0.0-8.0-2.28","","<div style=""font-size:60px;"">+</div>","null","","","","","","",""
"null","","image-keyboard-response","668","1019975","0.0-8.0-0.29","","img/red.png","null","trial","null","true","0.2,0.8","2:nogo_b","",""
"null","","html-keyboard-response","669","1020981","0.0-8.0-1.29","","<img src=""img/red-n.png"">","null","trial","null","","0.2,0.8","2:nogo_b","0",""
"null","","html-keyboard-response","670","1021985","0.0-8.0-2.29","","<div style=""font-size:60px;"">+</div>","null","","","","","","",""
"926.0999999940395","","image-keyboard-response","671","1022912","0.0-8.0-0.30","","img/pink.png","32","trial","32","true","0.8,0.2","1:go_a","",""
"null","","html-keyboard-response","672","1023918","0.0-8.0-1.30","","<img src=""img/pink-r.png"" border=""10"">","null","trial","32","","0.8,0.2","1:go_a","1",""
"null","","html-keyboard-response","673","1024924","0.0-8.0-2.30","","<div style=""font-size:60px;"">+</div>","null","","","","","","",""
"873.3999999761581","","image-keyboard-response","674","1025798","0.0-8.0-0.31","","img/green.png","32","trial","32","true","1,0","3:go_c","",""
"null","","html-keyboard-response","675","1026803","0.0-8.0-1.31","","<img src=""img/green-r.png"" border=""10"">","null","trial","32","","1,0","3:go_c","1",""
"null","","html-keyboard-response","676","1027807","0.0-8.0-2.31","","<div style=""font-size:60px;"">+</div>","null","","","","","","",""
