"rt","url","trial_type","trial_index","time_elapsed","internal_node_id","view_history","stimulus","key_press","test_part","correct_response","correct","use_rew","which_stim","reward","responses"
"11300.715000019409","consent.html","external-html","0","11436","0.0-0.0","","","","","","","","","",""
"688712.9699999932","","instructions","1","700127","0.0-1.0","[{""page_index"":0,""viewing_time"":5881.8049999536015},{""page_index"":1,""viewing_time"":25878.150000004098},{""page_index"":2,""viewing_time"":7099.70500000054},{""page_index"":3,""viewing_time"":608192.0150000369},{""page_index"":4,""viewing_time"":19494.765000010375},{""page_index"":5,""viewing_time"":10398.199999995995},{""page_index"":6,""viewing_time"":11767.389999993611}]","","","","","","","","",""
"1101.395000005141","","image-keyboard-response","2","701230","0.0-2.0-0.0","","img/test2.PNG","32","practice","null","false","","","",""
"null","","html-keyboard-response","3","702235","0.0-2.0-1.0","","<img src=""img/test2-neutral.PNG"" border=""10px; grey"">","null","","","","","","",""
"null","","html-keyboard-response","4","703235","0.0-2.0-2.0","","<div style=""font-size:60px;"">+</div>","null","","","","","","",""
"536.8799999705516","","image-keyboard-response","5","703773","0.0-2.0-0.1","","img/test3.PNG","32","practice","null","false","","","",""
"null","","html-keyboard-response","6","704777","0.0-2.0-1.1","","<img src=""img/test3-neutral.PNG"" border=""10px; grey"">","null","","","","","","",""
"null","","html-keyboard-response","7","705779","0.0-2.0-2.1","","<div style=""font-size:60px;"">+</div>","null","","","","","","",""
"593.445000005886","","image-keyboard-response","8","706373","0.0-2.0-0.2","","img/test1.PNG","32","practice","32","true","","","",""
"null","","html-keyboard-response","9","707378","0.0-2.0-1.2","","<img src=""img/test1-reward.PNG"" border=""10px; grey"">","null","","","","","","",""
"null","","html-keyboard-response","10","708383","0.0-2.0-2.2","","<div style=""font-size:60px;"">+</div>","null","","","","","","",""
"507.7149999560788","","image-keyboard-response","11","708892","0.0-2.0-0.3","","img/test1.PNG","32","practice","32","true","","","",""
"null","","html-keyboard-response","12","709894","0.0-2.0-1.3","","<img src=""img/test1-reward.PNG"" border=""10px; grey"">","null","","","","","","",""
"null","","html-keyboard-response","13","710897","0.0-2.0-2.3","","<div style=""font-size:60px;"">+</div>","null","","","","","","",""
"null","","image-keyboard-response","14","712398","0.0-2.0-0.4","","img/test3.PNG","null","practice","null","true","","","",""
"null","","html-keyboard-response","15","713401","0.0-2.0-1.4","","<img src=""img/test3-reward.PNG"">","null","","","","","","",""
"null","","html-keyboard-response","16","714406","0.0-2.0-2.4","","<div style=""font-size:60px;"">+</div>","null","","","","","","",""
"null","","image-keyboard-response","17","715908","0.0-2.0-0.5","","img/test2.PNG","null","practice","null","true","","","",""
"null","","html-keyboard-response","18","716914","0.0-2.0-1.5","","<img src=""img/test2-reward.PNG"">","null","","","","","","",""
"null","","html-keyboard-response","19","717914","0.0-2.0-2.5","","<div style=""font-size:60px;"">+</div>","null","","","","","","",""
"537.4249999877065","","image-keyboard-response","20","718453","0.0-2.0-0.6","","img/test1.PNG","32","practice","32","true","","","",""
"null","","html-keyboard-response","21","719456","0.0-2.0-1.6","","<img src=""img/test1-reward.PNG"" border=""10px; grey"">","null","","","","","","",""
"null","","html-keyboard-response","22","720457","0.0-2.0-2.6","","<div style=""font-size:60px;"">+</div>","null","","","","","","",""
"545.8199999993667","","image-keyboard-response","23","721004","0.0-2.0-0.7","","img/test3.PNG","32","practice","null","false","","","",""
"null","","html-keyboard-response","24","722010","0.0-2.0-1.7","","<img src=""img/test3-neutral.PNG"" border=""10px; grey"">","null","","","","","","",""
"null","","html-keyboard-response","25","723015","0.0-2.0-2.7","","<div style=""font-size:60px;"">+</div>","null","","","","","","",""
"null","","image-keyboard-response","26","724517","0.0-2.0-0.8","","img/test2.PNG","null","practice","null","true","","","",""
"null","","html-keyboard-response","27","725521","0.0-2.0-1.8","","<img src=""img/test2-reward.PNG"">","null","","","","","","",""
"null","","html-keyboard-response","28","726524","0.0-2.0-2.8","","<div style=""font-size:60px;"">+</div>","null","","","","","","",""
"823.7099999678321","","image-keyboard-response","29","727349","0.0-2.0-0.9","","img/test3.PNG","32","practice","null","false","","","",""
"null","","html-keyboard-response","30","728355","0.0-2.0-1.9","","<img src=""img/test3-neutral.PNG"" border=""10px; grey"">","null","","","","","","",""
"null","","html-keyboard-response","31","729356","0.0-2.0-2.9","","<div style=""font-size:60px;"">+</div>","null","","","","","","",""
"471.3249999913387","","image-keyboard-response","32","729828","0.0-2.0-0.10","","img/test1.PNG","32","practice","32","true","","","",""
"null","","html-keyboard-response","33","730830","0.0-2.0-1.10","","<img src=""img/test1-reward.PNG"" border=""10px; grey"">","null","","","","","","",""
"null","","html-keyboard-response","34","731831","0.0-2.0-2.10","","<div style=""font-size:60px;"">+</div>","null","","","","","","",""
"764.179999998305","","image-keyboard-response","35","732596","0.0-2.0-0.11","","img/test2.PNG","32","practice","null","false","","","",""
"null","","html-keyboard-response","36","733601","0.0-2.0-1.11","","<img src=""img/test2-neutral.PNG"" border=""10px; grey"">","null","","","","","","",""
"null","","html-keyboard-response","37","734604","0.0-2.0-2.11","","<div style=""font-size:60px;"">+</div>","null","","","","","","",""
"3329.535000026226","","instructions","38","737934","0.0-3.0","[{""page_index"":0,""viewing_time"":3329.375000030268}]","","","","","","","","",""
"null","","image-keyboard-response","39","739441","0.0-4.0-0.0","","img/blue.png","null","trial","32","false","0.8,0.2","1:go_a","",""
"null","","html-keyboard-response","40","740445","0.0-4.0-1.0","","<img src=""img/blue-n.png"">","null","trial","32","","0.8,0.2","1:go_a","0",""
"null","","html-keyboard-response","41","741450","0.0-4.0-2.0","","<div style=""font-size:60px;"">+</div>","null","","","","","","",""
"448.86000000406057","","image-keyboard-response","42","741899","0.0-4.0-0.1","","img/purple.png","32","trial","null","false","0.2,0.8","2:nogo_b","",""
"null","","html-keyboard-response","43","742906","0.0-4.0-1.1","","<img src=""img/purple-n.png"" border=""10"">","null","trial","null","","0.2,0.8","2:nogo_b","0",""
"null","","html-keyboard-response","44","743911","0.0-4.0-2.1","","<div style=""font-size:60px;"">+</div>","null","","","","","","",""
"507.41500000003725","","image-keyboard-response","45","744420","0.0-4.0-0.2","","img/purple.png","32","trial","null","false","0.2,0.8","2:nogo_b","",""
"null","","html-keyboard-response","46","745423","0.0-4.0-1.2","","<img src=""img/purple-n.png"" border=""10"">","null","trial","null","","0.2,0.8","2:nogo_b","0",""
"null","","html-keyboard-response","47","746426","0.0-4.0-2.2","","<div style=""font-size:60px;"">+</div>","null","","","","","","",""
"457.17000000877306","","image-keyboard-response","48","746884","0.0-4.0-0.3","","img/blue.png","32","trial","32","true","0.8,0.2","1:go_a","",""
"null","","html-keyboard-response","49","747889","0.0-4.0-1.3","","<img src=""img/blue-r.png"" border=""10"">","null","trial","32","","0.8,0.2","1:go_a","1",""
"null","","html-keyboard-response","50","748890","0.0-4.0-2.3","","<div style=""font-size:60px;"">+</div>","null","","","","","","",""
"831.7349999560975","","image-keyboard-response","51","749723","0.0-4.0-0.4","","img/blue.png","32","trial","32","true","0.8,0.2","1:go_a","",""
"null","","html-keyboard-response","52","750725","0.0-4.0-1.4","","<img src=""img/blue-r.png"" border=""10"">","null","trial","32","","0.8,0.2","1:go_a","1",""
"null","","html-keyboard-response","53","751726","0.0-4.0-2.4","","<div style=""font-size:60px;"">+</div>","null","","","","","","",""
"738.3699999772944","","image-keyboard-response","54","752466","0.0-4.0-0.5","","img/purple.png","32","trial","null","false","0.2,0.8","2:nogo_b","",""
"null","","html-keyboard-response","55","753469","0.0-4.0-1.5","","<img src=""img/purple-n.png"" border=""10"">","null","trial","null","","0.2,0.8","2:nogo_b","0",""
"null","","html-keyboard-response","56","754474","0.0-4.0-2.5","","<div style=""font-size:60px;"">+</div>","null","","","","","","",""
"896.9349999679253","","image-keyboard-response","57","755371","0.0-4.0-0.6","","img/blue.png","32","trial","32","true","0.8,0.2","1:go_a","",""
"null","","html-keyboard-response","58","756374","0.0-4.0-1.6","","<img src=""img/blue-r.png"" border=""10"">","null","trial","32","","0.8,0.2","1:go_a","1",""
"null","","html-keyboard-response","59","757376","0.0-4.0-2.6","","<div style=""font-size:60px;"">+</div>","null","","","","","","",""
"882.0249999989755","","image-keyboard-response","60","758259","0.0-4.0-0.7","","img/purple.png","32","trial","null","false","0.2,0.8","2:nogo_b","",""
"null","","html-keyboard-response","61","759266","0.0-4.0-1.7","","<img src=""img/purple-r.png"" border=""10"">","null","trial","null","","0.2,0.8","2:nogo_b","1",""
"null","","html-keyboard-response","62","760270","0.0-4.0-2.7","","<div style=""font-size:60px;"">+</div>","null","","","","","","",""
"613.1400000303984","","image-keyboard-response","63","760884","0.0-4.0-0.8","","img/purple.png","32","trial","null","false","0.2,0.8","2:nogo_b","",""
"null","","html-keyboard-response","64","761887","0.0-4.0-1.8","","<img src=""img/purple-r.png"" border=""10"">","null","trial","null","","0.2,0.8","2:nogo_b","1",""
"null","","html-keyboard-response","65","762889","0.0-4.0-2.8","","<div style=""font-size:60px;"">+</div>","null","","","","","","",""
"727.7299999841489","","image-keyboard-response","66","763618","0.0-4.0-0.9","","img/blue.png","32","trial","32","true","0.8,0.2","1:go_a","",""
"null","","html-keyboard-response","67","764620","0.0-4.0-1.9","","<img src=""img/blue-n.png"" border=""10"">","null","trial","32","","0.8,0.2","1:go_a","0",""
"null","","html-keyboard-response","68","765626","0.0-4.0-2.9","","<div style=""font-size:60px;"">+</div>","null","","","","","","",""
"647.7600000216626","","image-keyboard-response","69","766275","0.0-4.0-0.10","","img/blue.png","32","trial","32","true","0.8,0.2","1:go_a","",""
"null","","html-keyboard-response","70","767282","0.0-4.0-1.10","","<img src=""img/blue-r.png"" border=""10"">","null","trial","32","","0.8,0.2","1:go_a","1",""
"null","","html-keyboard-response","71","768287","0.0-4.0-2.10","","<div style=""font-size:60px;"">+</div>","null","","","","","","",""
"642.9900000221096","","image-keyboard-response","72","768931","0.0-4.0-0.11","","img/purple.png","32","trial","null","false","0.2,0.8","2:nogo_b","",""
"null","","html-keyboard-response","73","769934","0.0-4.0-1.11","","<img src=""img/purple-n.png"" border=""10"">","null","trial","null","","0.2,0.8","2:nogo_b","0",""
"null","","html-keyboard-response","74","770938","0.0-4.0-2.11","","<div style=""font-size:60px;"">+</div>","null","","","","","","",""
"776.7400000011548","","image-keyboard-response","75","771715","0.0-4.0-0.12","","img/blue.png","32","trial","32","true","0.8,0.2","1:go_a","",""
"null","","html-keyboard-response","76","772718","0.0-4.0-1.12","","<img src=""img/blue-r.png"" border=""10"">","null","trial","32","","0.8,0.2","1:go_a","1",""
"null","","html-keyboard-response","77","773720","0.0-4.0-2.12","","<div style=""font-size:60px;"">+</div>","null","","","","","","",""
"793.6650000046939","","image-keyboard-response","78","774515","0.0-4.0-0.13","","img/purple.png","32","trial","null","false","0.2,0.8","2:nogo_b","",""
"null","","html-keyboard-response","79","775519","0.0-4.0-1.13","","<img src=""img/purple-r.png"" border=""10"">","null","trial","null","","0.2,0.8","2:nogo_b","1",""
"null","","html-keyboard-response","80","776522","0.0-4.0-2.13","","<div style=""font-size:60px;"">+</div>","null","","","","","","",""
"1336.4549999823794","","image-keyboard-response","81","777859","0.0-4.0-0.14","","img/blue.png","32","trial","32","true","0.8,0.2","1:go_a","",""
"null","","html-keyboard-response","82","778860","0.0-4.0-1.14","","<img src=""img/blue-r.png"" border=""10"">","null","trial","32","","0.8,0.2","1:go_a","1",""
"null","","html-keyboard-response","83","779866","0.0-4.0-2.14","","<div style=""font-size:60px;"">+</div>","null","","","","","","",""
"847.6749999681488","","image-keyboard-response","84","780715","0.0-4.0-0.15","","img/purple.png","32","trial","null","false","0.2,0.8","2:nogo_b","",""
"null","","html-keyboard-response","85","781716","0.0-4.0-1.15","","<img src=""img/purple-n.png"" border=""10"">","null","trial","null","","0.2,0.8","2:nogo_b","0",""
"null","","html-keyboard-response","86","782720","0.0-4.0-2.15","","<div style=""font-size:60px;"">+</div>","null","","","","","","",""
"794.0899999812245","","image-keyboard-response","87","783514","0.0-4.0-0.16","","img/blue.png","32","trial","32","true","0.8,0.2","1:go_a","",""
"null","","html-keyboard-response","88","784519","0.0-4.0-1.16","","<img src=""img/blue-r.png"" border=""10"">","null","trial","32","","0.8,0.2","1:go_a","1",""
"null","","html-keyboard-response","89","785523","0.0-4.0-2.16","","<div style=""font-size:60px;"">+</div>","null","","","","","","",""
"1046.489999978803","","image-keyboard-response","90","786570","0.0-4.0-0.17","","img/purple.png","32","trial","null","false","0.2,0.8","2:nogo_b","",""
"null","","html-keyboard-response","91","787573","0.0-4.0-1.17","","<img src=""img/purple-n.png"" border=""10"">","null","trial","null","","0.2,0.8","2:nogo_b","0",""
"null","","html-keyboard-response","92","788576","0.0-4.0-2.17","","<div style=""font-size:60px;"">+</div>","null","","","","","","",""
"null","","image-keyboard-response","93","790079","0.0-4.0-0.18","","img/purple.png","null","trial","null","true","0.2,0.8","2:nogo_b","",""
"null","","html-keyboard-response","94","791086","0.0-4.0-1.18","","<img src=""img/purple-n.png"">","null","trial","null","","0.2,0.8","2:nogo_b","0",""
"null","","html-keyboard-response","95","792091","0.0-4.0-2.18","","<div style=""font-size:60px;"">+</div>","null","","","","","","",""
"452.530000009574","","image-keyboard-response","96","792544","0.0-4.0-0.19","","img/blue.png","32","trial","32","true","0.8,0.2","1:go_a","",""
"null","","html-keyboard-response","97","793548","0.0-4.0-1.19","","<img src=""img/blue-r.png"" border=""10"">","null","trial","32","","0.8,0.2","1:go_a","1",""
"null","","html-keyboard-response","98","794554","0.0-4.0-2.19","","<div style=""font-size:60px;"">+</div>","null","","","","","","",""
"844.0800000098534","","image-keyboard-response","99","795399","0.0-4.0-0.20","","img/blue.png","32","trial","32","true","0.8,0.2","1:go_a","",""
"null","","html-keyboard-response","100","796404","0.0-4.0-1.20","","<img src=""img/blue-r.png"" border=""10"">","null","trial","32","","0.8,0.2","1:go_a","1",""
"null","","html-keyboard-response","101","797407","0.0-4.0-2.20","","<div style=""font-size:60px;"">+</div>","null","","","","","","",""
"null","","image-keyboard-response","102","798913","0.0-4.0-0.21","","img/purple.png","null","trial","null","true","0.2,0.8","2:nogo_b","",""
"null","","html-keyboard-response","103","799918","0.0-4.0-1.21","","<img src=""img/purple-r.png"">","null","trial","null","","0.2,0.8","2:nogo_b","1",""
"null","","html-keyboard-response","104","800922","0.0-4.0-2.21","","<div style=""font-size:60px;"">+</div>","null","","","","","","",""
"849.5350000448525","","image-keyboard-response","105","801772","0.0-4.0-0.22","","img/purple.png","32","trial","null","false","0.2,0.8","2:nogo_b","",""
"null","","html-keyboard-response","106","802775","0.0-4.0-1.22","","<img src=""img/purple-n.png"" border=""10"">","null","trial","null","","0.2,0.8","2:nogo_b","0",""
"null","","html-keyboard-response","107","803781","0.0-4.0-2.22","","<div style=""font-size:60px;"">+</div>","null","","","","","","",""
"717.7650000085123","","image-keyboard-response","108","804499","0.0-4.0-0.23","","img/blue.png","32","trial","32","true","0.8,0.2","1:go_a","",""
"null","","html-keyboard-response","109","805505","0.0-4.0-1.23","","<img src=""img/blue-r.png"" border=""10"">","null","trial","32","","0.8,0.2","1:go_a","1",""
"null","","html-keyboard-response","110","806506","0.0-4.0-2.23","","<div style=""font-size:60px;"">+</div>","null","","","","","","",""
"633.3549999981187","","image-keyboard-response","111","807140","0.0-4.0-0.24","","img/blue.png","32","trial","32","true","0.8,0.2","1:go_a","",""
"null","","html-keyboard-response","112","808143","0.0-4.0-1.24","","<img src=""img/blue-r.png"" border=""10"">","null","trial","32","","0.8,0.2","1:go_a","1",""
"null","","html-keyboard-response","113","809144","0.0-4.0-2.24","","<div style=""font-size:60px;"">+</div>","null","","","","","","",""
"null","","image-keyboard-response","114","810647","0.0-4.0-0.25","","img/purple.png","null","trial","null","true","0.2,0.8","2:nogo_b","",""
"null","","html-keyboard-response","115","811652","0.0-4.0-1.25","","<img src=""img/purple-r.png"">","null","trial","null","","0.2,0.8","2:nogo_b","1",""
"null","","html-keyboard-response","116","812658","0.0-4.0-2.25","","<div style=""font-size:60px;"">+</div>","null","","","","","","",""
"719.4950000266545","","image-keyboard-response","117","813378","0.0-4.0-0.26","","img/purple.png","32","trial","null","false","0.2,0.8","2:nogo_b","",""
"null","","html-keyboard-response","118","814383","0.0-4.0-1.26","","<img src=""img/purple-n.png"" border=""10"">","null","trial","null","","0.2,0.8","2:nogo_b","0",""
"null","","html-keyboard-response","119","815389","0.0-4.0-2.26","","<div style=""font-size:60px;"">+</div>","null","","","","","","",""
"683.9699999545701","","image-keyboard-response","120","816074","0.0-4.0-0.27","","img/blue.png","32","trial","32","true","0.8,0.2","1:go_a","",""
"null","","html-keyboard-response","121","817075","0.0-4.0-1.27","","<img src=""img/blue-r.png"" border=""10"">","null","trial","32","","0.8,0.2","1:go_a","1",""
"null","","html-keyboard-response","122","818077","0.0-4.0-2.27","","<div style=""font-size:60px;"">+</div>","null","","","","","","",""
"628.3050000201911","","image-keyboard-response","123","818706","0.0-4.0-0.28","","img/blue.png","32","trial","32","true","0.8,0.2","1:go_a","",""
"null","","html-keyboard-response","124","819711","0.0-4.0-1.28","","<img src=""img/blue-r.png"" border=""10"">","null","trial","32","","0.8,0.2","1:go_a","1",""
"null","","html-keyboard-response","125","820717","0.0-4.0-2.28","","<div style=""font-size:60px;"">+</div>","null","","","","","","",""
"492.14500002563","","image-keyboard-response","126","821209","0.0-4.0-0.29","","img/purple.png","32","trial","null","false","0.2,0.8","2:nogo_b","",""
"null","","html-keyboard-response","127","822212","0.0-4.0-1.29","","<img src=""img/purple-n.png"" border=""10"">","null","trial","null","","0.2,0.8","2:nogo_b","0",""
"null","","html-keyboard-response","128","823218","0.0-4.0-2.29","","<div style=""font-size:60px;"">+</div>","null","","","","","","",""
"621.6199999907985","","image-keyboard-response","129","823840","0.0-4.0-0.30","","img/purple.png","32","trial","null","false","0.2,0.8","2:nogo_b","",""
"null","","html-keyboard-response","130","824845","0.0-4.0-1.30","","<img src=""img/purple-n.png"" border=""10"">","null","trial","null","","0.2,0.8","2:nogo_b","0",""
"null","","html-keyboard-response","131","825849","0.0-4.0-2.30","","<div style=""font-size:60px;"">+</div>","null","","","","","","",""
"471.5449999785051","","image-keyboard-response","132","826321","0.0-4.0-0.31","","img/blue.png","32","trial","32","true","0.8,0.2","1:go_a","",""
"null","","html-keyboard-response","133","827323","0.0-4.0-1.31","","<img src=""img/blue-r.png"" border=""10"">","null","trial","32","","0.8,0.2","1:go_a","1",""
"null","","html-keyboard-response","134","828328","0.0-4.0-2.31","","<div style=""font-size:60px;"">+</div>","null","","","","","","",""
"520.9699999541044","","image-keyboard-response","135","828850","0.0-4.0-0.32","","img/blue.png","32","trial","32","true","0.8,0.2","1:go_a","",""
"null","","html-keyboard-response","136","829854","0.0-4.0-1.32","","<img src=""img/blue-r.png"" border=""10"">","null","trial","32","","0.8,0.2","1:go_a","1",""
"null","","html-keyboard-response","137","830860","0.0-4.0-2.32","","<div style=""font-size:60px;"">+</div>","null","","","","","","",""
"null","","image-keyboard-response","138","832363","0.0-4.0-0.33","","img/purple.png","null","trial","null","true","0.2,0.8","2:nogo_b","",""
"null","","html-keyboard-response","139","833365","0.0-4.0-1.33","","<img src=""img/purple-r.png"">","null","trial","null","","0.2,0.8","2:nogo_b","1",""
"null","","html-keyboard-response","140","834366","0.0-4.0-2.33","","<div style=""font-size:60px;"">+</div>","null","","","","","","",""
"882.4950000271201","","image-keyboard-response","141","835249","0.0-4.0-0.34","","img/blue.png","32","trial","32","true","0.8,0.2","1:go_a","",""
"null","","html-keyboard-response","142","836256","0.0-4.0-1.34","","<img src=""img/blue-r.png"" border=""10"">","null","trial","32","","0.8,0.2","1:go_a","1",""
"null","","html-keyboard-response","143","837261","0.0-4.0-2.34","","<div style=""font-size:60px;"">+</div>","null","","","","","","",""
"null","","image-keyboard-response","144","838764","0.0-4.0-0.35","","img/purple.png","null","trial","null","true","0.2,0.8","2:nogo_b","",""
"null","","html-keyboard-response","145","839765","0.0-4.0-1.35","","<img src=""img/purple-r.png"">","null","trial","null","","0.2,0.8","2:nogo_b","1",""
"null","","html-keyboard-response","146","840770","0.0-4.0-2.35","","<div style=""font-size:60px;"">+</div>","null","","","","","","",""
"494.7399999946356","","image-keyboard-response","147","841266","0.0-4.0-0.36","","img/blue.png","32","trial","32","true","0.8,0.2","1:go_a","",""
"null","","html-keyboard-response","148","842269","0.0-4.0-1.36","","<img src=""img/blue-r.png"" border=""10"">","null","trial","32","","0.8,0.2","1:go_a","1",""
"null","","html-keyboard-response","149","843274","0.0-4.0-2.36","","<div style=""font-size:60px;"">+</div>","null","","","","","","",""
"null","","image-keyboard-response","150","844781","0.0-4.0-0.37","","img/purple.png","null","trial","null","true","0.2,0.8","2:nogo_b","",""
"null","","html-keyboard-response","151","845782","0.0-4.0-1.37","","<img src=""img/purple-r.png"">","null","trial","null","","0.2,0.8","2:nogo_b","1",""
"null","","html-keyboard-response","152","846787","0.0-4.0-2.37","","<div style=""font-size:60px;"">+</div>","null","","","","","","",""
"null","","image-keyboard-response","153","848288","0.0-4.0-0.38","","img/purple.png","null","trial","null","true","0.2,0.8","2:nogo_b","",""
"null","","html-keyboard-response","154","849291","0.0-4.0-1.38","","<img src=""img/purple-r.png"">","null","trial","null","","0.2,0.8","2:nogo_b","1",""
"null","","html-keyboard-response","155","850293","0.0-4.0-2.38","","<div style=""font-size:60px;"">+</div>","null","","","","","","",""
"921.8700000201352","","image-keyboard-response","156","851216","0.0-4.0-0.39","","img/blue.png","32","trial","32","true","0.8,0.2","1:go_a","",""
"null","","html-keyboard-response","157","852218","0.0-4.0-1.39","","<img src=""img/blue-n.png"" border=""10"">","null","trial","32","","0.8,0.2","1:go_a","0",""
"null","","html-keyboard-response","158","853224","0.0-4.0-2.39","","<div style=""font-size:60px;"">+</div>","null","","","","","","",""
"838.86999997776","","image-keyboard-response","159","854063","0.0-4.0-0.40","","img/blue.png","32","trial","32","true","0.8,0.2","1:go_a","",""
"null","","html-keyboard-response","160","855067","0.0-4.0-1.40","","<img src=""img/blue-r.png"" border=""10"">","null","trial","32","","0.8,0.2","1:go_a","1",""
"null","","html-keyboard-response","161","856072","0.0-4.0-2.40","","<div style=""font-size:60px;"">+</div>","null","","","","","","",""
"837.729999970179","","image-keyboard-response","162","856911","0.0-4.0-0.41","","img/purple.png","32","trial","null","false","0.2,0.8","2:nogo_b","",""
"null","","html-keyboard-response","163","857916","0.0-4.0-1.41","","<img src=""img/purple-n.png"" border=""10"">","null","trial","null","","0.2,0.8","2:nogo_b","0",""
"null","","html-keyboard-response","164","858917","0.0-4.0-2.41","","<div style=""font-size:60px;"">+</div>","null","","","","","","",""
"1040.1249999995343","","image-keyboard-response","165","859958","0.0-4.0-0.42","","img/blue.png","32","trial","32","true","0.8,0.2","1:go_a","",""
"null","","html-keyboard-response","166","860960","0.0-4.0-1.42","","<img src=""img/blue-r.png"" border=""10"">","null","trial","32","","0.8,0.2","1:go_a","1",""
"null","","html-keyboard-response","167","861962","0.0-4.0-2.42","","<div style=""font-size:60px;"">+</div>","null","","","","","","",""
"923.7749999738298","","image-keyboard-response","168","862887","0.0-4.0-0.43","","img/purple.png","32","trial","null","false","0.2,0.8","2:nogo_b","",""
"null","","html-keyboard-response","169","863893","0.0-4.0-1.43","","<img src=""img/purple-n.png"" border=""10"">","null","trial","null","","0.2,0.8","2:nogo_b","0",""
"null","","html-keyboard-response","170","864895","0.0-4.0-2.43","","<div style=""font-size:60px;"">+</div>","null","","","","","","",""
"542.9599999915808","","image-keyboard-response","171","865439","0.0-4.0-0.44","","img/purple.png","32","trial","null","false","0.2,0.8","2:nogo_b","",""
"null","","html-keyboard-response","172","866440","0.0-4.0-1.44","","<img src=""img/purple-n.png"" border=""10"">","null","trial","null","","0.2,0.8","2:nogo_b","0",""
"null","","html-keyboard-response","173","867445","0.0-4.0-2.44","","<div style=""font-size:60px;"">+</div>","null","","","","","","",""
"633.109999995213","","image-keyboard-response","174","868079","0.0-4.0-0.45","","img/blue.png","32","trial","32","true","0.8,0.2","1:go_a","",""
"null","","html-keyboard-response","175","869084","0.0-4.0-1.45","","<img src=""img/blue-r.png"" border=""10"">","null","trial","32","","0.8,0.2","1:go_a","1",""
"null","","html-keyboard-response","176","870090","0.0-4.0-2.45","","<div style=""font-size:60px;"">+</div>","null","","","","","","",""
"587.1850000112318","","image-keyboard-response","177","870678","0.0-4.0-0.46","","img/blue.png","32","trial","32","true","0.8,0.2","1:go_a","",""
"null","","html-keyboard-response","178","871684","0.0-4.0-1.46","","<img src=""img/blue-r.png"" border=""10"">","null","trial","32","","0.8,0.2","1:go_a","1",""
"null","","html-keyboard-response","179","872690","0.0-4.0-2.46","","<div style=""font-size:60px;"">+</div>","null","","","","","","",""
"747.6350000360981","","image-keyboard-response","180","873438","0.0-4.0-0.47","","img/purple.png","32","trial","null","false","0.2,0.8","2:nogo_b","",""
"null","","html-keyboard-response","181","874440","0.0-4.0-1.47","","<img src=""img/purple-n.png"" border=""10"">","null","trial","null","","0.2,0.8","2:nogo_b","0",""
"null","","html-keyboard-response","182","875446","0.0-4.0-2.47","","<div style=""font-size:60px;"">+</div>","null","","","","","","",""
"null","","image-keyboard-response","183","876952","0.0-4.0-0.48","","img/purple.png","null","trial","null","true","0.2,0.8","2:nogo_b","",""
"null","","html-keyboard-response","184","877953","0.0-4.0-1.48","","<img src=""img/purple-r.png"">","null","trial","null","","0.2,0.8","2:nogo_b","1",""
"null","","html-keyboard-response","185","878955","0.0-4.0-2.48","","<div style=""font-size:60px;"">+</div>","null","","","","","","",""
"679.9900000332855","","image-keyboard-response","186","879636","0.0-4.0-0.49","","img/blue.png","32","trial","32","true","0.8,0.2","1:go_a","",""
"null","","html-keyboard-response","187","880640","0.0-4.0-1.49","","<img src=""img/blue-r.png"" border=""10"">","null","trial","32","","0.8,0.2","1:go_a","1",""
"null","","html-keyboard-response","188","881643","0.0-4.0-2.49","","<div style=""font-size:60px;"">+</div>","null","","","","","","",""
"630.0349999801256","","image-keyboard-response","189","882274","0.0-4.0-0.50","","img/blue.png","32","trial","32","true","0.8,0.2","1:go_a","",""
"null","","html-keyboard-response","190","883280","0.0-4.0-1.50","","<img src=""img/blue-r.png"" border=""10"">","null","trial","32","","0.8,0.2","1:go_a","1",""
"null","","html-keyboard-response","191","884286","0.0-4.0-2.50","","<div style=""font-size:60px;"">+</div>","null","","","","","","",""
"null","","image-keyboard-response","192","885787","0.0-4.0-0.51","","img/purple.png","null","trial","null","true","0.2,0.8","2:nogo_b","",""
"null","","html-keyboard-response","193","886793","0.0-4.0-1.51","","<img src=""img/purple-r.png"">","null","trial","null","","0.2,0.8","2:nogo_b","1",""
"null","","html-keyboard-response","194","887798","0.0-4.0-2.51","","<div style=""font-size:60px;"">+</div>","null","","","","","","",""
"550.1100000110455","","image-keyboard-response","195","888349","0.0-4.0-0.52","","img/blue.png","32","trial","32","true","0.8,0.2","1:go_a","",""
"null","","html-keyboard-response","196","889353","0.0-4.0-1.52","","<img src=""img/blue-r.png"" border=""10"">","null","trial","32","","0.8,0.2","1:go_a","1",""
"null","","html-keyboard-response","197","890358","0.0-4.0-2.52","","<div style=""font-size:60px;"">+</div>","null","","","","","","",""
"null","","image-keyboard-response","198","891863","0.0-4.0-0.53","","img/purple.png","null","trial","null","true","0.2,0.8","2:nogo_b","",""
"null","","html-keyboard-response","199","892865","0.0-4.0-1.53","","<img src=""img/purple-r.png"">","null","trial","null","","0.2,0.8","2:nogo_b","1",""
"null","","html-keyboard-response","200","893867","0.0-4.0-2.53","","<div style=""font-size:60px;"">+</div>","null","","","","","","",""
"798.2750000082888","","image-keyboard-response","201","894666","0.0-4.0-0.54","","img/blue.png","32","trial","32","true","0.8,0.2","1:go_a","",""
"null","","html-keyboard-response","202","895671","0.0-4.0-1.54","","<img src=""img/blue-n.png"" border=""10"">","null","trial","32","","0.8,0.2","1:go_a","0",""
"null","","html-keyboard-response","203","896671","0.0-4.0-2.54","","<div style=""font-size:60px;"">+</div>","null","","","","","","",""
"560.9050000202842","","image-keyboard-response","204","897233","0.0-4.0-0.55","","img/purple.png","32","trial","null","false","0.2,0.8","2:nogo_b","",""
"null","","html-keyboard-response","205","898239","0.0-4.0-1.55","","<img src=""img/purple-n.png"" border=""10"">","null","trial","null","","0.2,0.8","2:nogo_b","0",""
"null","","html-keyboard-response","206","899243","0.0-4.0-2.55","","<div style=""font-size:60px;"">+</div>","null","","","","","","",""
"453.15999997546896","","image-keyboard-response","207","899697","0.0-4.0-0.56","","img/blue.png","32","trial","32","true","0.8,0.2","1:go_a","",""
"null","","html-keyboard-response","208","900703","0.0-4.0-1.56","","<img src=""img/blue-n.png"" border=""10"">","null","trial","32","","0.8,0.2","1:go_a","0",""
"null","","html-keyboard-response","209","901705","0.0-4.0-2.56","","<div style=""font-size:60px;"">+</div>","null","","","","","","",""
"719.4100000197068","","image-keyboard-response","210","902425","0.0-4.0-0.57","","img/purple.png","32","trial","null","false","0.2,0.8","2:nogo_b","",""
"null","","html-keyboard-response","211","903427","0.0-4.0-1.57","","<img src=""img/purple-n.png"" border=""10"">","null","trial","null","","0.2,0.8","2:nogo_b","0",""
"null","","html-keyboard-response","212","904428","0.0-4.0-2.57","","<div style=""font-size:60px;"">+</div>","null","","","","","","",""
"667.879999964498","","image-keyboard-response","213","905097","0.0-4.0-0.58","","img/purple.png","32","trial","null","false","0.2,0.8","2:nogo_b","",""
"null","","html-keyboard-response","214","906102","0.0-4.0-1.58","","<img src=""img/purple-r.png"" border=""10"">","null","trial","null","","0.2,0.8","2:nogo_b","1",""
"null","","html-keyboard-response","215","907105","0.0-4.0-2.58","","<div style=""font-size:60px;"">+</div>","null","","","","","","",""
"663.1599999964237","","image-keyboard-response","216","907769","0.0-4.0-0.59","","img/blue.png","32","trial","32","true","0.8,0.2","1:go_a","",""
"null","","html-keyboard-response","217","908772","0.0-4.0-1.59","","<img src=""img/blue-r.png"" border=""10"">","null","trial","32","","0.8,0.2","1:go_a","1",""
"null","","html-keyboard-response","218","909773","0.0-4.0-2.59","","<div style=""font-size:60px;"">+</div>","null","","","","","","",""
"23679.889999970328","","instructions","219","933453","0.0-5.0","[{""page_index"":0,""viewing_time"":23679.614999971818}]","","","","","","","","",""
"1353.949999960605","","image-keyboard-response","220","934808","0.0-6.0-0.0","","img/yellow.png","32","trial","null","false","0.2,0.8","2:nogo_b","",""
"null","","html-keyboard-response","221","935813","0.0-6.0-1.0","","<img src=""img/yellow-n.png"" border=""10"">","null","trial","null","","0.2,0.8","2:nogo_b","0",""
"null","","html-keyboard-response","222","936817","0.0-6.0-2.0","","<div style=""font-size:60px;"">+</div>","null","","","","","","",""
"750.2150000073016","","image-keyboard-response","223","937568","0.0-6.0-0.1","","img/orange.png","32","trial","null","false","0,1","4:nogo_d","",""
"null","","html-keyboard-response","224","938570","0.0-6.0-1.1","","<img src=""img/orange-n.png"" border=""10"">","null","trial","null","","0,1","4:nogo_d","0",""
"null","","html-keyboard-response","225","939576","0.0-6.0-2.1","","<div style=""font-size:60px;"">+</div>","null","","","","","","",""
"806.9399999803863","","image-keyboard-response","226","940384","0.0-6.0-0.2","","img/purple.png","32","trial","32","true","1,0","3:go_c","",""
"null","","html-keyboard-response","227","941386","0.0-6.0-1.2","","<img src=""img/purple-r.png"" border=""10"">","null","trial","32","","1,0","3:go_c","1",""
"null","","html-keyboard-response","228","942392","0.0-6.0-2.2","","<div style=""font-size:60px;"">+</div>","null","","","","","","",""
"806.5550000173971","","image-keyboard-response","229","943200","0.0-6.0-0.3","","img/grey.png","32","trial","32","true","0.8,0.2","1:go_a","",""
"null","","html-keyboard-response","230","944206","0.0-6.0-1.3","","<img src=""img/grey-r.png"" border=""10"">","null","trial","32","","0.8,0.2","1:go_a","1",""
"null","","html-keyboard-response","231","945211","0.0-6.0-2.3","","<div style=""font-size:60px;"">+</div>","null","","","","","","",""
"572.489999991376","","image-keyboard-response","232","945784","0.0-6.0-0.4","","img/grey.png","32","trial","32","true","0.8,0.2","1:go_a","",""
"null","","html-keyboard-response","233","946785","0.0-6.0-1.4","","<img src=""img/grey-r.png"" border=""10"">","null","trial","32","","0.8,0.2","1:go_a","1",""
"null","","html-keyboard-response","234","947786","0.0-6.0-2.4","","<div style=""font-size:60px;"">+</div>","null","","","","","","",""
"788.6399999842979","","image-keyboard-response","235","948575","0.0-6.0-0.5","","img/orange.png","32","trial","null","false","0,1","4:nogo_d","",""
"null","","html-keyboard-response","236","949578","0.0-6.0-1.5","","<img src=""img/orange-n.png"" border=""10"">","null","trial","null","","0,1","4:nogo_d","0",""
"null","","html-keyboard-response","237","950578","0.0-6.0-2.5","","<div style=""font-size:60px;"">+</div>","null","","","","","","",""
"588.2149999961257","","image-keyboard-response","238","951167","0.0-6.0-0.6","","img/yellow.png","32","trial","null","false","0.2,0.8","2:nogo_b","",""
"null","","html-keyboard-response","239","952174","0.0-6.0-1.6","","<img src=""img/yellow-n.png"" border=""10"">","null","trial","null","","0.2,0.8","2:nogo_b","0",""
"null","","html-keyboard-response","240","953178","0.0-6.0-2.6","","<div style=""font-size:60px;"">+</div>","null","","","","","","",""
"348.1899999896996","","image-keyboard-response","241","953527","0.0-6.0-0.7","","img/purple.png","32","trial","32","true","1,0","3:go_c","",""
"null","","html-keyboard-response","242","954529","0.0-6.0-1.7","","<img src=""img/purple-r.png"" border=""10"">","null","trial","32","","1,0","3:go_c","1",""
"null","","html-keyboard-response","243","955535","0.0-6.0-2.7","","<div style=""font-size:60px;"">+</div>","null","","","","","","",""
"null","","image-keyboard-response","244","957036","0.0-6.0-0.8","","img/yellow.png","null","trial","null","true","0.2,0.8","2:nogo_b","",""
"null","","html-keyboard-response","245","958038","0.0-6.0-1.8","","<img src=""img/yellow-n.png"">","null","trial","null","","0.2,0.8","2:nogo_b","0",""
"null","","html-keyboard-response","246","959041","0.0-6.0-2.8","","<div style=""font-size:60px;"">+</div>","null","","","","","","",""
"null","","image-keyboard-response","247","960546","0.0-6.0-0.9","","img/grey.png","null","trial","32","false","0.8,0.2","1:go_a","",""
"null","","html-keyboard-response","248","961552","0.0-6.0-1.9","","<img src=""img/grey-n.png"">","null","trial","32","","0.8,0.2","1:go_a","0",""
"null","","html-keyboard-response","249","962553","0.0-6.0-2.9","","<div style=""font-size:60px;"">+</div>","null","","","","","","",""
"1442.0999999856576","","image-keyboard-response","250","963995","0.0-6.0-0.10","","img/orange.png","32","trial","null","false","0,1","4:nogo_d","",""
"null","","html-keyboard-response","251","964998","0.0-6.0-1.10","","<img src=""img/orange-n.png"" border=""10"">","null","trial","null","","0,1","4:nogo_d","0",""
"null","","html-keyboard-response","252","965999","0.0-6.0-2.10","","<div style=""font-size:60px;"">+</div>","null","","","","","","",""
"995.4799999832176","","image-keyboard-response","253","966995","0.0-6.0-0.11","","img/purple.png","32","trial","32","true","1,0","3:go_c","",""
"null","","html-keyboard-response","254","967997","0.0-6.0-1.11","","<img src=""img/purple-r.png"" border=""10"">","null","trial","32","","1,0","3:go_c","1",""
"null","","html-keyboard-response","255","969000","0.0-6.0-2.11","","<div style=""font-size:60px;"">+</div>","null","","","","","","",""
"null","","image-keyboard-response","256","970503","0.0-6.0-0.12","","img/orange.png","null","trial","null","true","0,1","4:nogo_d","",""
"null","","html-keyboard-response","257","971504","0.0-6.0-1.12","","<img src=""img/orange-r.png"">","null","trial","null","","0,1","4:nogo_d","1",""
"null","","html-keyboard-response","258","972508","0.0-6.0-2.12","","<div style=""font-size:60px;"">+</div>","null","","","","","","",""
"null","","image-keyboard-response","259","974013","0.0-6.0-0.13","","img/grey.png","null","trial","32","false","0.8,0.2","1:go_a","",""
"null","","html-keyboard-response","260","975015","0.0-6.0-1.13","","<img src=""img/grey-n.png"">","null","trial","32","","0.8,0.2","1:go_a","0",""
"null","","html-keyboard-response","261","976015","0.0-6.0-2.13","","<div style=""font-size:60px;"">+</div>","null","","","","","","",""
"null","","image-keyboard-response","262","977520","0.0-6.0-0.14","","img/yellow.png","null","trial","null","true","0.2,0.8","2:nogo_b","",""
"null","","html-keyboard-response","263","978522","0.0-6.0-1.14","","<img src=""img/yellow-r.png"">","null","trial","null","","0.2,0.8","2:nogo_b","1",""
"null","","html-keyboard-response","264","979522","0.0-6.0-2.14","","<div style=""font-size:60px;"">+</div>","null","","","","","","",""
"830.5849999887869","","image-keyboard-response","265","980354","0.0-6.0-0.15","","img/purple.png","32","trial","32","true","1,0","3:go_c","",""
"null","","html-keyboard-response","266","981356","0.0-6.0-1.15","","<img src=""img/purple-r.png"" border=""10"">","null","trial","32","","1,0","3:go_c","1",""
"null","","html-keyboard-response","267","982361","0.0-6.0-2.15","","<div style=""font-size:60px;"">+</div>","null","","","","","","",""
"1127.1800000104122","","image-keyboard-response","268","983489","0.0-6.0-0.16","","img/yellow.png","32","trial","null","false","0.2,0.8","2:nogo_b","",""
"null","","html-keyboard-response","269","984493","0.0-6.0-1.16","","<img src=""img/yellow-n.png"" border=""10"">","null","trial","null","","0.2,0.8","2:nogo_b","0",""
"null","","html-keyboard-response","270","985495","0.0-6.0-2.16","","<div style=""font-size:60px;"">+</div>","null","","","","","","",""
"760.9899999806657","","image-keyboard-response","271","986257","0.0-6.0-0.17","","img/purple.png","32","trial","32","true","1,0","3:go_c","",""
"null","","html-keyboard-response","272","987261","0.0-6.0-1.17","","<img src=""img/purple-r.png"" border=""10"">","null","trial","32","","1,0","3:go_c","1",""
"null","","html-keyboard-response","273","988266","0.0-6.0-2.17","","<div style=""font-size:60px;"">+</div>","null","","","","","","",""
"973.9849999896251","","image-keyboard-response","274","989241","0.0-6.0-0.18","","img/grey.png","32","trial","32","true","0.8,0.2","1:go_a","",""
"null","","html-keyboard-response","275","990245","0.0-6.0-1.18","","<img src=""img/grey-r.png"" border=""10"">","null","trial","32","","0.8,0.2","1:go_a","1",""
"null","","html-keyboard-response","276","991246","0.0-6.0-2.18","","<div style=""font-size:60px;"">+</div>","null","","","","","","",""
"969.4499999750406","","image-keyboard-response","277","992216","0.0-6.0-0.19","","img/orange.png","32","trial","null","false","0,1","4:nogo_d","",""
"null","","html-keyboard-response","278","993223","0.0-6.0-1.19","","<img src=""img/orange-n.png"" border=""10"">","null","trial","null","","0,1","4:nogo_d","0",""
"null","","html-keyboard-response","279","994228","0.0-6.0-2.19","","<div style=""font-size:60px;"">+</div>","null","","","","","","",""
"675.4150000051595","","image-keyboard-response","280","994905","0.0-6.0-0.20","","img/orange.png","32","trial","null","false","0,1","4:nogo_d","",""
"null","","html-keyboard-response","281","995911","0.0-6.0-1.20","","<img src=""img/orange-n.png"" border=""10"">","null","trial","null","","0,1","4:nogo_d","0",""
"null","","html-keyboard-response","282","996915","0.0-6.0-2.20","","<div style=""font-size:60px;"">+</div>","null","","","","","","",""
"null","","image-keyboard-response","283","998417","0.0-6.0-0.21","","img/grey.png","null","trial","32","false","0.8,0.2","1:go_a","",""
"null","","html-keyboard-response","284","999421","0.0-6.0-1.21","","<img src=""img/grey-n.png"">","null","trial","32","","0.8,0.2","1:go_a","0",""
"null","","html-keyboard-response","285","1000426","0.0-6.0-2.21","","<div style=""font-size:60px;"">+</div>","null","","","","","","",""
"null","","image-keyboard-response","286","1001926","0.0-6.0-0.22","","img/yellow.png","null","trial","null","true","0.2,0.8","2:nogo_b","",""
"null","","html-keyboard-response","287","1002933","0.0-6.0-1.22","","<img src=""img/yellow-n.png"">","null","trial","null","","0.2,0.8","2:nogo_b","0",""
"null","","html-keyboard-response","288","1003934","0.0-6.0-2.22","","<div style=""font-size:60px;"">+</div>","null","","","","","","",""
"864.7800000035204","","image-keyboard-response","289","1004799","0.0-6.0-0.23","","img/purple.png","32","trial","32","true","1,0","3:go_c","",""
"null","","html-keyboard-response","290","1005805","0.0-6.0-1.23","","<img src=""img/purple-r.png"" border=""10"">","null","trial","32","","1,0","3:go_c","1",""
"null","","html-keyboard-response","291","1006810","0.0-6.0-2.23","","<div style=""font-size:60px;"">+</div>","null","","","","","","",""
"835.7599999872036","","image-keyboard-response","292","1007647","0.0-6.0-0.24","","img/grey.png","32","trial","32","true","0.8,0.2","1:go_a","",""
"null","","html-keyboard-response","293","1008652","0.0-6.0-1.24","","<img src=""img/grey-n.png"" border=""10"">","null","trial","32","","0.8,0.2","1:go_a","0",""
"null","","html-keyboard-response","294","1009655","0.0-6.0-2.24","","<div style=""font-size:60px;"">+</div>","null","","","","","","",""
"null","","image-keyboard-response","295","1011159","0.0-6.0-0.25","","img/yellow.png","null","trial","null","true","0.2,0.8","2:nogo_b","",""
"null","","html-keyboard-response","296","1012162","0.0-6.0-1.25","","<img src=""img/yellow-r.png"">","null","trial","null","","0.2,0.8","2:nogo_b","1",""
"null","","html-keyboard-response","297","1013165","0.0-6.0-2.25","","<div style=""font-size:60px;"">+</div>","null","","","","","","",""
"689.1549999709241","","image-keyboard-response","298","1013855","0.0-6.0-0.26","","img/orange.png","32","trial","null","false","0,1","4:nogo_d","",""
"null","","html-keyboard-response","299","1014858","0.0-6.0-1.26","","<img src=""img/orange-n.png"" border=""10"">","null","trial","null","","0,1","4:nogo_d","0",""
"null","","html-keyboard-response","300","1015863","0.0-6.0-2.26","","<div style=""font-size:60px;"">+</div>","null","","","","","","",""
"742.6050000358373","","image-keyboard-response","301","1016607","0.0-6.0-0.27","","img/purple.png","32","trial","32","true","1,0","3:go_c","",""
"null","","html-keyboard-response","302","1017610","0.0-6.0-1.27","","<img src=""img/purple-r.png"" border=""10"">","null","trial","32","","1,0","3:go_c","1",""
"null","","html-keyboard-response","303","1018611","0.0-6.0-2.27","","<div style=""font-size:60px;"">+</div>","null","","","","","","",""
"618.1250000372529","","image-keyboard-response","304","1019230","0.0-6.0-0.28","","img/purple.png","32","trial","32","true","1,0","3:go_c","",""
"null","","html-keyboard-response","305","1020237","0.0-6.0-1.28","","<img src=""img/purple-r.png"" border=""10"">","null","trial","32","","1,0","3:go_c","1",""
"null","","html-keyboard-response","306","1021237","0.0-6.0-2.28","","<div style=""font-size:60px;"">+</div>","null","","","","","","",""
"null","","image-keyboard-response","307","1022743","0.0-6.0-0.29","","img/orange.png","null","trial","null","true","0,1","4:nogo_d","",""
"null","","html-keyboard-response","308","1023746","0.0-6.0-1.29","","<img src=""img/orange-r.png"">","null","trial","null","","0,1","4:nogo_d","1",""
"null","","html-keyboard-response","309","1024750","0.0-6.0-2.29","","<div style=""font-size:60px;"">+</div>","null","","","","","","",""
"null","","image-keyboard-response","310","1026254","0.0-6.0-0.30","","img/yellow.png","null","trial","null","true","0.2,0.8","2:nogo_b","",""
"null","","html-keyboard-response","311","1027256","0.0-6.0-1.30","","<img src=""img/yellow-r.png"">","null","trial","null","","0.2,0.8","2:nogo_b","1",""
"null","","html-keyboard-response","312","1028257","0.0-6.0-2.30","","<div style=""font-size:60px;"">+</div>","null","","","","","","",""
"1295.2199999708682","","image-keyboard-response","313","1029553","0.0-6.0-0.31","","img/grey.png","32","trial","32","true","0.8,0.2","1:go_a","",""
"null","","html-keyboard-response","314","1030555","0.0-6.0-1.31","","<img src=""img/grey-r.png"" border=""10"">","null","trial","32","","0.8,0.2","1:go_a","1",""
"null","","html-keyboard-response","315","1031556","0.0-6.0-2.31","","<div style=""font-size:60px;"">+</div>","null","","","","","","",""
"619.2149999551475","","image-keyboard-response","316","1032176","0.0-6.0-0.32","","img/grey.png","32","trial","32","true","0.8,0.2","1:go_a","",""
"null","","html-keyboard-response","317","1033180","0.0-6.0-1.32","","<img src=""img/grey-r.png"" border=""10"">","null","trial","32","","0.8,0.2","1:go_a","1",""
"null","","html-keyboard-response","318","1034181","0.0-6.0-2.32","","<div style=""font-size:60px;"">+</div>","null","","","","","","",""
"null","","image-keyboard-response","319","1035686","0.0-6.0-0.33","","img/yellow.png","null","trial","null","true","0.2,0.8","2:nogo_b","",""
"null","","html-keyboard-response","320","1036688","0.0-6.0-1.33","","<img src=""img/yellow-r.png"">","null","trial","null","","0.2,0.8","2:nogo_b","1",""
"null","","html-keyboard-response","321","1037689","0.0-6.0-2.33","","<div style=""font-size:60px;"">+</div>","null","","","","","","",""
"1316.385000012815","","image-keyboard-response","322","1039007","0.0-6.0-0.34","","img/purple.png","32","trial","32","true","1,0","3:go_c","",""
"null","","html-keyboard-response","323","1040010","0.0-6.0-1.34","","<img src=""img/purple-r.png"" border=""10"">","null","trial","32","","1,0","3:go_c","1",""
"null","","html-keyboard-response","324","1041016","0.0-6.0-2.34","","<div style=""font-size:60px;"">+</div>","null","","","","","","",""
"1145.8749999874271","","image-keyboard-response","325","1042162","0.0-6.0-0.35","","img/orange.png","32","trial","null","false","0,1","4:nogo_d","",""
"null","","html-keyboard-response","326","1043163","0.0-6.0-1.35","","<img src=""img/orange-n.png"" border=""10"">","null","trial","null","","0,1","4:nogo_d","0",""
"null","","html-keyboard-response","327","1044166","0.0-6.0-2.35","","<div style=""font-size:60px;"">+</div>","null","","","","","","",""
"743.7300000456162","","image-keyboard-response","328","1044910","0.0-6.0-0.36","","img/orange.png","32","trial","null","false","0,1","4:nogo_d","",""
"null","","html-keyboard-response","329","1045912","0.0-6.0-1.36","","<img src=""img/orange-n.png"" border=""10"">","null","trial","null","","0,1","4:nogo_d","0",""
"null","","html-keyboard-response","330","1046918","0.0-6.0-2.36","","<div style=""font-size:60px;"">+</div>","null","","","","","","",""
"1007.6199999894015","","image-keyboard-response","331","1047926","0.0-6.0-0.37","","img/yellow.png","32","trial","null","false","0.2,0.8","2:nogo_b","",""
"null","","html-keyboard-response","332","1048931","0.0-6.0-1.37","","<img src=""img/yellow-n.png"" border=""10"">","null","trial","null","","0.2,0.8","2:nogo_b","0",""
"null","","html-keyboard-response","333","1049935","0.0-6.0-2.37","","<div style=""font-size:60px;"">+</div>","null","","","","","","",""
"653.7949999910779","","image-keyboard-response","334","1050590","0.0-6.0-0.38","","img/purple.png","32","trial","32","true","1,0","3:go_c","",""
"null","","html-keyboard-response","335","1051591","0.0-6.0-1.38","","<img src=""img/purple-r.png"" border=""10"">","null","trial","32","","1,0","3:go_c","1",""
"null","","html-keyboard-response","336","1052597","0.0-6.0-2.38","","<div style=""font-size:60px;"">+</div>","null","","","","","","",""
"721.0999999660999","","image-keyboard-response","337","1053319","0.0-6.0-0.39","","img/grey.png","32","trial","32","true","0.8,0.2","1:go_a","",""
"null","","html-keyboard-response","338","1054322","0.0-6.0-1.39","","<img src=""img/grey-r.png"" border=""10"">","null","trial","32","","0.8,0.2","1:go_a","1",""
"null","","html-keyboard-response","339","1055322","0.0-6.0-2.39","","<div style=""font-size:60px;"">+</div>","null","","","","","","",""
"506.42000004881993","","image-keyboard-response","340","1055830","0.0-6.0-0.40","","img/grey.png","32","trial","32","true","0.8,0.2","1:go_a","",""
"null","","html-keyboard-response","341","1056832","0.0-6.0-1.40","","<img src=""img/grey-n.png"" border=""10"">","null","trial","32","","0.8,0.2","1:go_a","0",""
"null","","html-keyboard-response","342","1057838","0.0-6.0-2.40","","<div style=""font-size:60px;"">+</div>","null","","","","","","",""
"806.685000017751","","image-keyboard-response","343","1058646","0.0-6.0-0.41","","img/yellow.png","32","trial","null","false","0.2,0.8","2:nogo_b","",""
"null","","html-keyboard-response","344","1059652","0.0-6.0-1.41","","<img src=""img/yellow-r.png"" border=""10"">","null","trial","null","","0.2,0.8","2:nogo_b","1",""
"null","","html-keyboard-response","345","1060657","0.0-6.0-2.41","","<div style=""font-size:60px;"">+</div>","null","","","","","","",""
"715.5950000160374","","image-keyboard-response","346","1061374","0.0-6.0-0.42","","img/purple.png","32","trial","32","true","1,0","3:go_c","",""
"null","","html-keyboard-response","347","1062380","0.0-6.0-1.42","","<img src=""img/purple-r.png"" border=""10"">","null","trial","32","","1,0","3:go_c","1",""
"null","","html-keyboard-response","348","1063384","0.0-6.0-2.42","","<div style=""font-size:60px;"">+</div>","null","","","","","","",""
"null","","image-keyboard-response","349","1064885","0.0-6.0-0.43","","img/orange.png","null","trial","null","true","0,1","4:nogo_d","",""
"null","","html-keyboard-response","350","1065888","0.0-6.0-1.43","","<img src=""img/orange-r.png"">","null","trial","null","","0,1","4:nogo_d","1",""
"null","","html-keyboard-response","351","1066893","0.0-6.0-2.43","","<div style=""font-size:60px;"">+</div>","null","","","","","","",""
"629.3949999962933","","image-keyboard-response","352","1067523","0.0-6.0-0.44","","img/grey.png","32","trial","32","true","0.8,0.2","1:go_a","",""
"null","","html-keyboard-response","353","1068528","0.0-6.0-1.44","","<img src=""img/grey-r.png"" border=""10"">","null","trial","32","","0.8,0.2","1:go_a","1",""
"null","","html-keyboard-response","354","1069534","0.0-6.0-2.44","","<div style=""font-size:60px;"">+</div>","null","","","","","","",""
"1069.7099999524653","","image-keyboard-response","355","1070604","0.0-6.0-0.45","","img/yellow.png","32","trial","null","false","0.2,0.8","2:nogo_b","",""
"null","","html-keyboard-response","356","1071610","0.0-6.0-1.45","","<img src=""img/yellow-n.png"" border=""10"">","null","trial","null","","0.2,0.8","2:nogo_b","0",""
"null","","html-keyboard-response","357","1072615","0.0-6.0-2.45","","<div style=""font-size:60px;"">+</div>","null","","","","","","",""
"620.5349999945611","","image-keyboard-response","358","1073236","0.0-6.0-0.46","","img/purple.png","32","trial","32","true","1,0","3:go_c","",""
"null","","html-keyboard-response","359","1074240","0.0-6.0-1.46","","<img src=""img/purple-r.png"" border=""10"">","null","trial","32","","1,0","3:go_c","1",""
"null","","html-keyboard-response","360","1075242","0.0-6.0-2.46","","<div style=""font-size:60px;"">+</div>","null","","","","","","",""
"848.4299999545328","","image-keyboard-response","361","1076091","0.0-6.0-0.47","","img/orange.png","32","trial","null","false","0,1","4:nogo_d","",""
"null","","html-keyboard-response","362","1077094","0.0-6.0-1.47","","<img src=""img/orange-n.png"" border=""10"">","null","trial","null","","0,1","4:nogo_d","0",""
"null","","html-keyboard-response","363","1078095","0.0-6.0-2.47","","<div style=""font-size:60px;"">+</div>","null","","","","","","",""
"597.3800000501797","","image-keyboard-response","364","1078693","0.0-6.0-0.48","","img/grey.png","32","trial","32","true","0.8,0.2","1:go_a","",""
"null","","html-keyboard-response","365","1079694","0.0-6.0-1.48","","<img src=""img/grey-r.png"" border=""10"">","null","trial","32","","0.8,0.2","1:go_a","1",""
"null","","html-keyboard-response","366","1080695","0.0-6.0-2.48","","<div style=""font-size:60px;"">+</div>","null","","","","","","",""
"987.8449999960139","","image-keyboard-response","367","1081684","0.0-6.0-0.49","","img/yellow.png","32","trial","null","false","0.2,0.8","2:nogo_b","",""
"null","","html-keyboard-response","368","1082691","0.0-6.0-1.49","","<img src=""img/yellow-n.png"" border=""10"">","null","trial","null","","0.2,0.8","2:nogo_b","0",""
"null","","html-keyboard-response","369","1083695","0.0-6.0-2.49","","<div style=""font-size:60px;"">+</div>","null","","","","","","",""
"null","","image-keyboard-response","370","1085195","0.0-6.0-0.50","","img/orange.png","null","trial","null","true","0,1","4:nogo_d","",""
"null","","html-keyboard-response","371","1086200","0.0-6.0-1.50","","<img src=""img/orange-r.png"">","null","trial","null","","0,1","4:nogo_d","1",""
"null","","html-keyboard-response","372","1087203","0.0-6.0-2.50","","<div style=""font-size:60px;"">+</div>","null","","","","","","",""
"756.7799999960698","","image-keyboard-response","373","1087960","0.0-6.0-0.51","","img/purple.png","32","trial","32","true","1,0","3:go_c","",""
"null","","html-keyboard-response","374","1088962","0.0-6.0-1.51","","<img src=""img/purple-r.png"" border=""10"">","null","trial","32","","1,0","3:go_c","1",""
"null","","html-keyboard-response","375","1089966","0.0-6.0-2.51","","<div style=""font-size:60px;"">+</div>","null","","","","","","",""
"673.6900000250898","","image-keyboard-response","376","1090641","0.0-6.0-0.52","","img/grey.png","32","trial","32","true","0.8,0.2","1:go_a","",""
"null","","html-keyboard-response","377","1091643","0.0-6.0-1.52","","<img src=""img/grey-n.png"" border=""10"">","null","trial","32","","0.8,0.2","1:go_a","0",""
"null","","html-keyboard-response","378","1092646","0.0-6.0-2.52","","<div style=""font-size:60px;"">+</div>","null","","","","","","",""
"441.80999998934567","","image-keyboard-response","379","1093089","0.0-6.0-0.53","","img/purple.png","32","trial","32","true","1,0","3:go_c","",""
"null","","html-keyboard-response","380","1094091","0.0-6.0-1.53","","<img src=""img/purple-r.png"" border=""10"">","null","trial","32","","1,0","3:go_c","1",""
"null","","html-keyboard-response","381","1095097","0.0-6.0-2.53","","<div style=""font-size:60px;"">+</div>","null","","","","","","",""
"null","","image-keyboard-response","382","1096601","0.0-6.0-0.54","","img/yellow.png","null","trial","null","true","0.2,0.8","2:nogo_b","",""
"null","","html-keyboard-response","383","1097604","0.0-6.0-1.54","","<img src=""img/yellow-n.png"">","null","trial","null","","0.2,0.8","2:nogo_b","0",""
"null","","html-keyboard-response","384","1098605","0.0-6.0-2.54","","<div style=""font-size:60px;"">+</div>","null","","","","","","",""
"null","","image-keyboard-response","385","1100110","0.0-6.0-0.55","","img/orange.png","null","trial","null","true","0,1","4:nogo_d","",""
"null","","html-keyboard-response","386","1101115","0.0-6.0-1.55","","<img src=""img/orange-r.png"">","null","trial","null","","0,1","4:nogo_d","1",""
"null","","html-keyboard-response","387","1102118","0.0-6.0-2.55","","<div style=""font-size:60px;"">+</div>","null","","","","","","",""
"711.7849999922328","","image-keyboard-response","388","1102830","0.0-6.0-0.56","","img/purple.png","32","trial","32","true","1,0","3:go_c","",""
"null","","html-keyboard-response","389","1103837","0.0-6.0-1.56","","<img src=""img/purple-r.png"" border=""10"">","null","trial","32","","1,0","3:go_c","1",""
"null","","html-keyboard-response","390","1104838","0.0-6.0-2.56","","<div style=""font-size:60px;"">+</div>","null","","","","","","",""
"null","","image-keyboard-response","391","1106341","0.0-6.0-0.57","","img/orange.png","null","trial","null","true","0,1","4:nogo_d","",""
"null","","html-keyboard-response","392","1107345","0.0-6.0-1.57","","<img src=""img/orange-r.png"">","null","trial","null","","0,1","4:nogo_d","1",""
"null","","html-keyboard-response","393","1108348","0.0-6.0-2.57","","<div style=""font-size:60px;"">+</div>","null","","","","","","",""
"636.289999994915","","image-keyboard-response","394","1108985","0.0-6.0-0.58","","img/grey.png","32","trial","32","true","0.8,0.2","1:go_a","",""
"null","","html-keyboard-response","395","1109986","0.0-6.0-1.58","","<img src=""img/grey-r.png"" border=""10"">","null","trial","32","","0.8,0.2","1:go_a","1",""
"null","","html-keyboard-response","396","1110991","0.0-6.0-2.58","","<div style=""font-size:60px;"">+</div>","null","","","","","","",""
"null","","image-keyboard-response","397","1112493","0.0-6.0-0.59","","img/yellow.png","null","trial","null","true","0.2,0.8","2:nogo_b","",""
"null","","html-keyboard-response","398","1113495","0.0-6.0-1.59","","<img src=""img/yellow-r.png"">","null","trial","null","","0.2,0.8","2:nogo_b","1",""
"null","","html-keyboard-response","399","1114500","0.0-6.0-2.59","","<div style=""font-size:60px;"">+</div>","null","","","","","","",""
"null","","image-keyboard-response","400","1116006","0.0-6.0-0.60","","img/orange.png","null","trial","null","true","0,1","4:nogo_d","",""
"null","","html-keyboard-response","401","1117012","0.0-6.0-1.60","","<img src=""img/orange-r.png"">","null","trial","null","","0,1","4:nogo_d","1",""
"null","","html-keyboard-response","402","1118016","0.0-6.0-2.60","","<div style=""font-size:60px;"">+</div>","null","","","","","","",""
"747.2150000394322","","image-keyboard-response","403","1118764","0.0-6.0-0.61","","img/grey.png","32","trial","32","true","0.8,0.2","1:go_a","",""
"null","","html-keyboard-response","404","1119766","0.0-6.0-1.61","","<img src=""img/grey-r.png"" border=""10"">","null","trial","32","","0.8,0.2","1:go_a","1",""
"null","","html-keyboard-response","405","1120767","0.0-6.0-2.61","","<div style=""font-size:60px;"">+</div>","null","","","","","","",""
"null","","image-keyboard-response","406","1122268","0.0-6.0-0.62","","img/yellow.png","null","trial","null","true","0.2,0.8","2:nogo_b","",""
"null","","html-keyboard-response","407","1123272","0.0-6.0-1.62","","<img src=""img/yellow-r.png"">","null","trial","null","","0.2,0.8","2:nogo_b","1",""
"null","","html-keyboard-response","408","1124276","0.0-6.0-2.62","","<div style=""font-size:60px;"">+</div>","null","","","","","","",""
"770.8700000075623","","image-keyboard-response","409","1125047","0.0-6.0-0.63","","img/purple.png","32","trial","32","true","1,0","3:go_c","",""
"null","","html-keyboard-response","410","1126051","0.0-6.0-1.63","","<img src=""img/purple-r.png"" border=""10"">","null","trial","32","","1,0","3:go_c","1",""
"null","","html-keyboard-response","411","1127057","0.0-6.0-2.63","","<div style=""font-size:60px;"">+</div>","null","","","","","","",""
"650.885000010021","","image-keyboard-response","412","1127708","0.0-6.0-0.64","","img/purple.png","32","trial","32","true","1,0","3:go_c","",""
"null","","html-keyboard-response","413","1128714","0.0-6.0-1.64","","<img src=""img/purple-r.png"" border=""10"">","null","trial","32","","1,0","3:go_c","1",""
"null","","html-keyboard-response","414","1129718","0.0-6.0-2.64","","<div style=""font-size:60px;"">+</div>","null","","","","","","",""
"null","","image-keyboard-response","415","1131219","0.0-6.0-0.65","","img/yellow.png","null","trial","null","true","0.2,0.8","2:nogo_b","",""
"null","","html-keyboard-response","416","1132225","0.0-6.0-1.65","","<img src=""img/yellow-n.png"">","null","trial","null","","0.2,0.8","2:nogo_b","0",""
"null","","html-keyboard-response","417","1133226","0.0-6.0-2.65","","<div style=""font-size:60px;"">+</div>","null","","","","","","",""
"null","","image-keyboard-response","418","1134732","0.0-6.0-0.66","","img/orange.png","null","trial","null","true","0,1","4:nogo_d","",""
"null","","html-keyboard-response","419","1135735","0.0-6.0-1.66","","<img src=""img/orange-r.png"">","null","trial","null","","0,1","4:nogo_d","1",""
"null","","html-keyboard-response","420","1136737","0.0-6.0-2.66","","<div style=""font-size:60px;"">+</div>","null","","","","","","",""
"690.0199999799952","","image-keyboard-response","421","1137428","0.0-6.0-0.67","","img/grey.png","32","trial","32","true","0.8,0.2","1:go_a","",""
"null","","html-keyboard-response","422","1138430","0.0-6.0-1.67","","<img src=""img/grey-r.png"" border=""10"">","null","trial","32","","0.8,0.2","1:go_a","1",""
"null","","html-keyboard-response","423","1139435","0.0-6.0-2.67","","<div style=""font-size:60px;"">+</div>","null","","","","","","",""
"488.405000010971","","image-keyboard-response","424","1139924","0.0-6.0-0.68","","img/purple.png","32","trial","32","true","1,0","3:go_c","",""
"null","","html-keyboard-response","425","1140926","0.0-6.0-1.68","","<img src=""img/purple-r.png"" border=""10"">","null","trial","32","","1,0","3:go_c","1",""
"null","","html-keyboard-response","426","1141930","0.0-6.0-2.68","","<div style=""font-size:60px;"">+</div>","null","","","","","","",""
"713.0499999620952","","image-keyboard-response","427","1142644","0.0-6.0-0.69","","img/grey.png","32","trial","32","true","0.8,0.2","1:go_a","",""
"null","","html-keyboard-response","428","1143646","0.0-6.0-1.69","","<img src=""img/grey-r.png"" border=""10"">","null","trial","32","","0.8,0.2","1:go_a","1",""
"null","","html-keyboard-response","429","1144651","0.0-6.0-2.69","","<div style=""font-size:60px;"">+</div>","null","","","","","","",""
"null","","image-keyboard-response","430","1146153","0.0-6.0-0.70","","img/yellow.png","null","trial","null","true","0.2,0.8","2:nogo_b","",""
"null","","html-keyboard-response","431","1147160","0.0-6.0-1.70","","<img src=""img/yellow-r.png"">","null","trial","null","","0.2,0.8","2:nogo_b","1",""
"null","","html-keyboard-response","432","1148161","0.0-6.0-2.70","","<div style=""font-size:60px;"">+</div>","null","","","","","","",""
"null","","image-keyboard-response","433","1149665","0.0-6.0-0.71","","img/orange.png","null","trial","null","true","0,1","4:nogo_d","",""
"null","","html-keyboard-response","434","1150671","0.0-6.0-1.71","","<img src=""img/orange-r.png"">","null","trial","null","","0,1","4:nogo_d","1",""
"null","","html-keyboard-response","435","1151672","0.0-6.0-2.71","","<div style=""font-size:60px;"">+</div>","null","","","","","","",""
"676.2999999918975","","image-keyboard-response","436","1152349","0.0-6.0-0.72","","img/purple.png","32","trial","32","true","1,0","3:go_c","",""
"null","","html-keyboard-response","437","1153352","0.0-6.0-1.72","","<img src=""img/purple-r.png"" border=""10"">","null","trial","32","","1,0","3:go_c","1",""
"null","","html-keyboard-response","438","1154355","0.0-6.0-2.72","","<div style=""font-size:60px;"">+</div>","null","","","","","","",""
"null","","image-keyboard-response","439","1155856","0.0-6.0-0.73","","img/yellow.png","null","trial","null","true","0.2,0.8","2:nogo_b","",""
"null","","html-keyboard-response","440","1156860","0.0-6.0-1.73","","<img src=""img/yellow-r.png"">","null","trial","null","","0.2,0.8","2:nogo_b","1",""
"null","","html-keyboard-response","441","1157864","0.0-6.0-2.73","","<div style=""font-size:60px;"">+</div>","null","","","","","","",""
"874.4750000187196","","image-keyboard-response","442","1158740","0.0-6.0-0.74","","img/orange.png","32","trial","null","false","0,1","4:nogo_d","",""
"null","","html-keyboard-response","443","1159741","0.0-6.0-1.74","","<img src=""img/orange-n.png"" border=""10"">","null","trial","null","","0,1","4:nogo_d","0",""
"null","","html-keyboard-response","444","1160745","0.0-6.0-2.74","","<div style=""font-size:60px;"">+</div>","null","","","","","","",""
"728.5000000265427","","image-keyboard-response","445","1161474","0.0-6.0-0.75","","img/grey.png","32","trial","32","true","0.8,0.2","1:go_a","",""
"null","","html-keyboard-response","446","1162479","0.0-6.0-1.75","","<img src=""img/grey-r.png"" border=""10"">","null","trial","32","","0.8,0.2","1:go_a","1",""
"null","","html-keyboard-response","447","1163484","0.0-6.0-2.75","","<div style=""font-size:60px;"">+</div>","null","","","","","","",""
"726.2699999846518","","image-keyboard-response","448","1164211","0.0-6.0-0.76","","img/yellow.png","32","trial","null","false","0.2,0.8","2:nogo_b","",""
"null","","html-keyboard-response","449","1165213","0.0-6.0-1.76","","<img src=""img/yellow-n.png"" border=""10"">","null","trial","null","","0.2,0.8","2:nogo_b","0",""
"null","","html-keyboard-response","450","1166215","0.0-6.0-2.76","","<div style=""font-size:60px;"">+</div>","null","","","","","","",""
"779.065000009723","","image-keyboard-response","451","1166995","0.0-6.0-0.77","","img/orange.png","32","trial","null","false","0,1","4:nogo_d","",""
"null","","html-keyboard-response","452","1167998","0.0-6.0-1.77","","<img src=""img/orange-n.png"" border=""10"">","null","trial","null","","0,1","4:nogo_d","0",""
"null","","html-keyboard-response","453","1169000","0.0-6.0-2.77","","<div style=""font-size:60px;"">+</div>","null","","","","","","",""
"610.0849999929778","","image-keyboard-response","454","1169611","0.0-6.0-0.78","","img/grey.png","32","trial","32","true","0.8,0.2","1:go_a","",""
"null","","html-keyboard-response","455","1170616","0.0-6.0-1.78","","<img src=""img/grey-n.png"" border=""10"">","null","trial","32","","0.8,0.2","1:go_a","0",""
"null","","html-keyboard-response","456","1171620","0.0-6.0-2.78","","<div style=""font-size:60px;"">+</div>","null","","","","","","",""
"509.8149999976158","","image-keyboard-response","457","1172131","0.0-6.0-0.79","","img/purple.png","32","trial","32","true","1,0","3:go_c","",""
"null","","html-keyboard-response","458","1173132","0.0-6.0-1.79","","<img src=""img/purple-r.png"" border=""10"">","null","trial","32","","1,0","3:go_c","1",""
"null","","html-keyboard-response","459","1174138","0.0-6.0-2.79","","<div style=""font-size:60px;"">+</div>","null","","","","","","",""
"503.19000001763925","","image-keyboard-response","460","1174642","0.0-6.0-0.80","","img/purple.png","32","trial","32","true","1,0","3:go_c","",""
"null","","html-keyboard-response","461","1175643","0.0-6.0-1.80","","<img src=""img/purple-r.png"" border=""10"">","null","trial","32","","1,0","3:go_c","1",""
"null","","html-keyboard-response","462","1176649","0.0-6.0-2.80","","<div style=""font-size:60px;"">+</div>","null","","","","","","",""
"576.8999999854714","","image-keyboard-response","463","1177227","0.0-6.0-0.81","","img/grey.png","32","trial","32","true","0.8,0.2","1:go_a","",""
"null","","html-keyboard-response","464","1178231","0.0-6.0-1.81","","<img src=""img/grey-n.png"" border=""10"">","null","trial","32","","0.8,0.2","1:go_a","0",""
"null","","html-keyboard-response","465","1179234","0.0-6.0-2.81","","<div style=""font-size:60px;"">+</div>","null","","","","","","",""
"null","","image-keyboard-response","466","1180740","0.0-6.0-0.82","","img/yellow.png","null","trial","null","true","0.2,0.8","2:nogo_b","",""
"null","","html-keyboard-response","467","1181742","0.0-6.0-1.82","","<img src=""img/yellow-n.png"">","null","trial","null","","0.2,0.8","2:nogo_b","0",""
"null","","html-keyboard-response","468","1182748","0.0-6.0-2.82","","<div style=""font-size:60px;"">+</div>","null","","","","","","",""
"null","","image-keyboard-response","469","1184249","0.0-6.0-0.83","","img/orange.png","null","trial","null","true","0,1","4:nogo_d","",""
"null","","html-keyboard-response","470","1185254","0.0-6.0-1.83","","<img src=""img/orange-r.png"">","null","trial","null","","0,1","4:nogo_d","1",""
"null","","html-keyboard-response","471","1186257","0.0-6.0-2.83","","<div style=""font-size:60px;"">+</div>","null","","","","","","",""
"1072.4199999822304","","image-keyboard-response","472","1187331","0.0-6.0-0.84","","img/yellow.png","32","trial","null","false","0.2,0.8","2:nogo_b","",""
"null","","html-keyboard-response","473","1188333","0.0-6.0-1.84","","<img src=""img/yellow-n.png"" border=""10"">","null","trial","null","","0.2,0.8","2:nogo_b","0",""
"null","","html-keyboard-response","474","1189334","0.0-6.0-2.84","","<div style=""font-size:60px;"">+</div>","null","","","","","","",""
"619.6299999719486","","image-keyboard-response","475","1189955","0.0-6.0-0.85","","img/grey.png","32","trial","32","true","0.8,0.2","1:go_a","",""
"null","","html-keyboard-response","476","1190959","0.0-6.0-1.85","","<img src=""img/grey-r.png"" border=""10"">","null","trial","32","","0.8,0.2","1:go_a","1",""
"null","","html-keyboard-response","477","1191963","0.0-6.0-2.85","","<div style=""font-size:60px;"">+</div>","null","","","","","","",""
"414.07499997876585","","image-keyboard-response","478","1192378","0.0-6.0-0.86","","img/purple.png","32","trial","32","true","1,0","3:go_c","",""
"null","","html-keyboard-response","479","1193385","0.0-6.0-1.86","","<img src=""img/purple-r.png"" border=""10"">","null","trial","32","","1,0","3:go_c","1",""
"null","","html-keyboard-response","480","1194387","0.0-6.0-2.86","","<div style=""font-size:60px;"">+</div>","null","","","","","","",""
"null","","image-keyboard-response","481","1195893","0.0-6.0-0.87","","img/orange.png","null","trial","null","true","0,1","4:nogo_d","",""
"null","","html-keyboard-response","482","1196899","0.0-6.0-1.87","","<img src=""img/orange-r.png"">","null","trial","null","","0,1","4:nogo_d","1",""
"null","","html-keyboard-response","483","1197901","0.0-6.0-2.87","","<div style=""font-size:60px;"">+</div>","null","","","","","","",""
"null","","image-keyboard-response","484","1199407","0.0-6.0-0.88","","img/orange.png","null","trial","null","true","0,1","4:nogo_d","",""
"null","","html-keyboard-response","485","1200410","0.0-6.0-1.88","","<img src=""img/orange-r.png"">","null","trial","null","","0,1","4:nogo_d","1",""
"null","","html-keyboard-response","486","1201411","0.0-6.0-2.88","","<div style=""font-size:60px;"">+</div>","null","","","","","","",""
"739.9199999636039","","image-keyboard-response","487","1202152","0.0-6.0-0.89","","img/grey.png","32","trial","32","true","0.8,0.2","1:go_a","",""
"null","","html-keyboard-response","488","1203154","0.0-6.0-1.89","","<img src=""img/grey-r.png"" border=""10"">","null","trial","32","","0.8,0.2","1:go_a","1",""
"null","","html-keyboard-response","489","1204156","0.0-6.0-2.89","","<div style=""font-size:60px;"">+</div>","null","","","","","","",""
"null","","image-keyboard-response","490","1205661","0.0-6.0-0.90","","img/yellow.png","null","trial","null","true","0.2,0.8","2:nogo_b","",""
"null","","html-keyboard-response","491","1206666","0.0-6.0-1.90","","<img src=""img/yellow-r.png"">","null","trial","null","","0.2,0.8","2:nogo_b","1",""
"null","","html-keyboard-response","492","1207671","0.0-6.0-2.90","","<div style=""font-size:60px;"">+</div>","null","","","","","","",""
"698.2599999755621","","image-keyboard-response","493","1208370","0.0-6.0-0.91","","img/purple.png","32","trial","32","true","1,0","3:go_c","",""
"null","","html-keyboard-response","494","1209373","0.0-6.0-1.91","","<img src=""img/purple-r.png"" border=""10"">","null","trial","32","","1,0","3:go_c","1",""
"null","","html-keyboard-response","495","1210374","0.0-6.0-2.91","","<div style=""font-size:60px;"">+</div>","null","","","","","","",""
"1450.9099999559112","","image-keyboard-response","496","1211826","0.0-6.0-0.92","","img/grey.png","32","trial","32","true","0.8,0.2","1:go_a","",""
"null","","html-keyboard-response","497","1212828","0.0-6.0-1.92","","<img src=""img/grey-r.png"" border=""10"">","null","trial","32","","0.8,0.2","1:go_a","1",""
"null","","html-keyboard-response","498","1213829","0.0-6.0-2.92","","<div style=""font-size:60px;"">+</div>","null","","","","","","",""
"804.8200000193901","","image-keyboard-response","499","1214634","0.0-6.0-0.93","","img/purple.png","32","trial","32","true","1,0","3:go_c","",""
"null","","html-keyboard-response","500","1215640","0.0-6.0-1.93","","<img src=""img/purple-r.png"" border=""10"">","null","trial","32","","1,0","3:go_c","1",""
"null","","html-keyboard-response","501","1216645","0.0-6.0-2.93","","<div style=""font-size:60px;"">+</div>","null","","","","","","",""
"null","","image-keyboard-response","502","1218150","0.0-6.0-0.94","","img/yellow.png","null","trial","null","true","0.2,0.8","2:nogo_b","",""
"null","","html-keyboard-response","503","1219152","0.0-6.0-1.94","","<img src=""img/yellow-r.png"">","null","trial","null","","0.2,0.8","2:nogo_b","1",""
"null","","html-keyboard-response","504","1220158","0.0-6.0-2.94","","<div style=""font-size:60px;"">+</div>","null","","","","","","",""
"null","","image-keyboard-response","505","1221663","0.0-6.0-0.95","","img/orange.png","null","trial","null","true","0,1","4:nogo_d","",""
"null","","html-keyboard-response","506","1222669","0.0-6.0-1.95","","<img src=""img/orange-r.png"">","null","trial","null","","0,1","4:nogo_d","1",""
"null","","html-keyboard-response","507","1223672","0.0-6.0-2.95","","<div style=""font-size:60px;"">+</div>","null","","","","","","",""
"477.49499999918044","","image-keyboard-response","508","1224151","0.0-6.0-0.96","","img/grey.png","32","trial","32","true","0.8,0.2","1:go_a","",""
"null","","html-keyboard-response","509","1225152","0.0-6.0-1.96","","<img src=""img/grey-r.png"" border=""10"">","null","trial","32","","0.8,0.2","1:go_a","1",""
"null","","html-keyboard-response","510","1226155","0.0-6.0-2.96","","<div style=""font-size:60px;"">+</div>","null","","","","","","",""
"null","","image-keyboard-response","511","1227657","0.0-6.0-0.97","","img/yellow.png","null","trial","null","true","0.2,0.8","2:nogo_b","",""
"null","","html-keyboard-response","512","1228663","0.0-6.0-1.97","","<img src=""img/yellow-r.png"">","null","trial","null","","0.2,0.8","2:nogo_b","1",""
"null","","html-keyboard-response","513","1229664","0.0-6.0-2.97","","<div style=""font-size:60px;"">+</div>","null","","","","","","",""
"null","","image-keyboard-response","514","1231165","0.0-6.0-0.98","","img/orange.png","null","trial","null","true","0,1","4:nogo_d","",""
"null","","html-keyboard-response","515","1232169","0.0-6.0-1.98","","<img src=""img/orange-r.png"">","null","trial","null","","0,1","4:nogo_d","1",""
"null","","html-keyboard-response","516","1233171","0.0-6.0-2.98","","<div style=""font-size:60px;"">+</div>","null","","","","","","",""
"792.8250000113621","","image-keyboard-response","517","1233965","0.0-6.0-0.99","","img/purple.png","32","trial","32","true","1,0","3:go_c","",""
"null","","html-keyboard-response","518","1234969","0.0-6.0-1.99","","<img src=""img/purple-r.png"" border=""10"">","null","trial","32","","1,0","3:go_c","1",""
"null","","html-keyboard-response","519","1235975","0.0-6.0-2.99","","<div style=""font-size:60px;"">+</div>","null","","","","","","",""
"null","","image-keyboard-response","520","1237482","0.0-6.0-0.100","","img/yellow.png","null","trial","null","true","0.2,0.8","2:nogo_b","",""
"null","","html-keyboard-response","521","1238483","0.0-6.0-1.100","","<img src=""img/yellow-r.png"">","null","trial","null","","0.2,0.8","2:nogo_b","1",""
"null","","html-keyboard-response","522","1239489","0.0-6.0-2.100","","<div style=""font-size:60px;"">+</div>","null","","","","","","",""
"822.4100000225008","","image-keyboard-response","523","1240312","0.0-6.0-0.101","","img/grey.png","32","trial","32","true","0.8,0.2","1:go_a","",""
"null","","html-keyboard-response","524","1241315","0.0-6.0-1.101","","<img src=""img/grey-n.png"" border=""10"">","null","trial","32","","0.8,0.2","1:go_a","0",""
"null","","html-keyboard-response","525","1242316","0.0-6.0-2.101","","<div style=""font-size:60px;"">+</div>","null","","","","","","",""
"795.33499997342","","image-keyboard-response","526","1243112","0.0-6.0-0.102","","img/purple.png","32","trial","32","true","1,0","3:go_c","",""
"null","","html-keyboard-response","527","1244116","0.0-6.0-1.102","","<img src=""img/purple-r.png"" border=""10"">","null","trial","32","","1,0","3:go_c","1",""
"null","","html-keyboard-response","528","1245122","0.0-6.0-2.102","","<div style=""font-size:60px;"">+</div>","null","","","","","","",""
"null","","image-keyboard-response","529","1246628","0.0-6.0-0.103","","img/orange.png","null","trial","null","true","0,1","4:nogo_d","",""
"null","","html-keyboard-response","530","1247633","0.0-6.0-1.103","","<img src=""img/orange-r.png"">","null","trial","null","","0,1","4:nogo_d","1",""
"null","","html-keyboard-response","531","1248637","0.0-6.0-2.103","","<div style=""font-size:60px;"">+</div>","null","","","","","","",""
"909.6750000026077","","image-keyboard-response","532","1249547","0.0-6.0-0.104","","img/purple.png","32","trial","32","true","1,0","3:go_c","",""
"null","","html-keyboard-response","533","1250550","0.0-6.0-1.104","","<img src=""img/purple-r.png"" border=""10"">","null","trial","32","","1,0","3:go_c","1",""
"null","","html-keyboard-response","534","1251555","0.0-6.0-2.104","","<div style=""font-size:60px;"">+</div>","null","","","","","","",""
"null","","image-keyboard-response","535","1253057","0.0-6.0-0.105","","img/yellow.png","null","trial","null","true","0.2,0.8","2:nogo_b","",""
"null","","html-keyboard-response","536","1254060","0.0-6.0-1.105","","<img src=""img/yellow-r.png"">","null","trial","null","","0.2,0.8","2:nogo_b","1",""
"null","","html-keyboard-response","537","1255062","0.0-6.0-2.105","","<div style=""font-size:60px;"">+</div>","null","","","","","","",""
"null","","image-keyboard-response","538","1256568","0.0-6.0-0.106","","img/orange.png","null","trial","null","true","0,1","4:nogo_d","",""
"null","","html-keyboard-response","539","1257574","0.0-6.0-1.106","","<img src=""img/orange-r.png"">","null","trial","null","","0,1","4:nogo_d","1",""
"null","","html-keyboard-response","540","1258580","0.0-6.0-2.106","","<div style=""font-size:60px;"">+</div>","null","","","","","","",""
"867.0250000432134","","image-keyboard-response","541","1259447","0.0-6.0-0.107","","img/grey.png","32","trial","32","true","0.8,0.2","1:go_a","",""
"null","","html-keyboard-response","542","1260451","0.0-6.0-1.107","","<img src=""img/grey-n.png"" border=""10"">","null","trial","32","","0.8,0.2","1:go_a","0",""
"null","","html-keyboard-response","543","1261452","0.0-6.0-2.107","","<div style=""font-size:60px;"">+</div>","null","","","","","","",""
"828.7399999680929","","image-keyboard-response","544","1262282","0.0-6.0-0.108","","img/grey.png","32","trial","32","true","0.8,0.2","1:go_a","",""
"null","","html-keyboard-response","545","1263285","0.0-6.0-1.108","","<img src=""img/grey-r.png"" border=""10"">","null","trial","32","","0.8,0.2","1:go_a","1",""
"null","","html-keyboard-response","546","1264291","0.0-6.0-2.108","","<div style=""font-size:60px;"">+</div>","null","","","","","","",""
"725.0699999858625","","image-keyboard-response","547","1265017","0.0-6.0-0.109","","img/purple.png","32","trial","32","true","1,0","3:go_c","",""
"null","","html-keyboard-response","548","1266019","0.0-6.0-1.109","","<img src=""img/purple-r.png"" border=""10"">","null","trial","32","","1,0","3:go_c","1",""
"null","","html-keyboard-response","549","1267021","0.0-6.0-2.109","","<div style=""font-size:60px;"">+</div>","null","","","","","","",""
"null","","image-keyboard-response","550","1268527","0.0-6.0-0.110","","img/yellow.png","null","trial","null","true","0.2,0.8","2:nogo_b","",""
"null","","html-keyboard-response","551","1269534","0.0-6.0-1.110","","<img src=""img/yellow-r.png"">","null","trial","null","","0.2,0.8","2:nogo_b","1",""
"null","","html-keyboard-response","552","1270534","0.0-6.0-2.110","","<div style=""font-size:60px;"">+</div>","null","","","","","","",""
"null","","image-keyboard-response","553","1272035","0.0-6.0-0.111","","img/orange.png","null","trial","null","true","0,1","4:nogo_d","",""
"null","","html-keyboard-response","554","1273037","0.0-6.0-1.111","","<img src=""img/orange-r.png"">","null","trial","null","","0,1","4:nogo_d","1",""
"null","","html-keyboard-response","555","1274042","0.0-6.0-2.111","","<div style=""font-size:60px;"">+</div>","null","","","","","","",""
"790.3949999599718","","image-keyboard-response","556","1274834","0.0-6.0-0.112","","img/grey.png","32","trial","32","true","0.8,0.2","1:go_a","",""
"null","","html-keyboard-response","557","1275837","0.0-6.0-1.112","","<img src=""img/grey-n.png"" border=""10"">","null","trial","32","","0.8,0.2","1:go_a","0",""
"null","","html-keyboard-response","558","1276841","0.0-6.0-2.112","","<div style=""font-size:60px;"">+</div>","null","","","","","","",""
"null","","image-keyboard-response","559","1278347","0.0-6.0-0.113","","img/orange.png","null","trial","null","true","0,1","4:nogo_d","",""
"null","","html-keyboard-response","560","1279352","0.0-6.0-1.113","","<img src=""img/orange-r.png"">","null","trial","null","","0,1","4:nogo_d","1",""
"null","","html-keyboard-response","561","1280357","0.0-6.0-2.113","","<div style=""font-size:60px;"">+</div>","null","","","","","","",""
"799.6900000143796","","image-keyboard-response","562","1281157","0.0-6.0-0.114","","img/purple.png","32","trial","32","true","1,0","3:go_c","",""
"null","","html-keyboard-response","563","1282160","0.0-6.0-1.114","","<img src=""img/purple-r.png"" border=""10"">","null","trial","32","","1,0","3:go_c","1",""
"null","","html-keyboard-response","564","1283162","0.0-6.0-2.114","","<div style=""font-size:60px;"">+</div>","null","","","","","","",""
"null","","image-keyboard-response","565","1284666","0.0-6.0-0.115","","img/yellow.png","null","trial","null","true","0.2,0.8","2:nogo_b","",""
"null","","html-keyboard-response","566","1285668","0.0-6.0-1.115","","<img src=""img/yellow-r.png"">","null","trial","null","","0.2,0.8","2:nogo_b","1",""
"null","","html-keyboard-response","567","1286672","0.0-6.0-2.115","","<div style=""font-size:60px;"">+</div>","null","","","","","","",""
"null","","image-keyboard-response","568","1288178","0.0-6.0-0.116","","img/yellow.png","null","trial","null","true","0.2,0.8","2:nogo_b","",""
"null","","html-keyboard-response","569","1289180","0.0-6.0-1.116","","<img src=""img/yellow-r.png"">","null","trial","null","","0.2,0.8","2:nogo_b","1",""
"null","","html-keyboard-response","570","1290183","0.0-6.0-2.116","","<div style=""font-size:60px;"">+</div>","null","","","","","","",""
"1132.8600000124425","","image-keyboard-response","571","1291317","0.0-6.0-0.117","","img/orange.png","32","trial","null","false","0,1","4:nogo_d","",""
"null","","html-keyboard-response","572","1292320","0.0-6.0-1.117","","<img src=""img/orange-n.png"" border=""10"">","null","trial","null","","0,1","4:nogo_d","0",""
"null","","html-keyboard-response","573","1293323","0.0-6.0-2.117","","<div style=""font-size:60px;"">+</div>","null","","","","","","",""
"633.4899999783374","","image-keyboard-response","574","1293957","0.0-6.0-0.118","","img/grey.png","32","trial","32","true","0.8,0.2","1:go_a","",""
"null","","html-keyboard-response","575","1294963","0.0-6.0-1.118","","<img src=""img/grey-r.png"" border=""10"">","null","trial","32","","0.8,0.2","1:go_a","1",""
"null","","html-keyboard-response","576","1295968","0.0-6.0-2.118","","<div style=""font-size:60px;"">+</div>","null","","","","","","",""
"563.5499999625608","","image-keyboard-response","577","1296533","0.0-6.0-0.119","","img/purple.png","32","trial","32","true","1,0","3:go_c","",""
"null","","html-keyboard-response","578","1297534","0.0-6.0-1.119","","<img src=""img/purple-r.png"" border=""10"">","null","trial","32","","1,0","3:go_c","1",""
"null","","html-keyboard-response","579","1298539","0.0-6.0-2.119","","<div style=""font-size:60px;"">+</div>","null","","","","","","",""
"16189.815000048839","","instructions","580","1314729","0.0-7.0","[{""page_index"":0,""viewing_time"":16189.560000027996}]","","","","","","","","",""
"1484.2899999930523","","image-keyboard-response","581","1316215","0.0-8.0-0.0","","img/grey.png","32","trial","32","true","0.6,0.4","3:go_c","",""
"null","","html-keyboard-response","582","1317218","0.0-8.0-1.0","","<img src=""img/grey-r.png"" border=""10"">","null","trial","32","","0.6,0.4","3:go_c","1",""
"null","","html-keyboard-response","583","1318222","0.0-8.0-2.0","","<div style=""font-size:60px;"">+</div>","null","","","","","","",""
"1033.2599999965169","","image-keyboard-response","584","1319256","0.0-8.0-0.1","","img/yellow.png","32","trial","32","true","0.8,0.2","1:go_a","",""
"null","","html-keyboard-response","585","1320259","0.0-8.0-1.1","","<img src=""img/yellow-r.png"" border=""10"">","null","trial","32","","0.8,0.2","1:go_a","1",""
"null","","html-keyboard-response","586","1321265","0.0-8.0-2.1","","<div style=""font-size:60px;"">+</div>","null","","","","","","",""
"797.6400000043213","","image-keyboard-response","587","1322064","0.0-8.0-0.2","","img/green.png","32","trial","null","false","0.2,0.8","2:nogo_b","",""
"null","","html-keyboard-response","588","1323066","0.0-8.0-1.2","","<img src=""img/green-r.png"" border=""10"">","null","trial","null","","0.2,0.8","2:nogo_b","1",""
"null","","html-keyboard-response","589","1324068","0.0-8.0-2.2","","<div style=""font-size:60px;"">+</div>","null","","","","","","",""
"787.3749999562278","","image-keyboard-response","590","1324856","0.0-8.0-0.3","","img/blue.png","32","trial","null","false","0.4,0.6","4:nogo_d","",""
"null","","html-keyboard-response","591","1325860","0.0-8.0-1.3","","<img src=""img/blue-n.png"" border=""10"">","null","trial","null","","0.4,0.6","4:nogo_d","0",""
"null","","html-keyboard-response","592","1326860","0.0-8.0-2.3","","<div style=""font-size:60px;"">+</div>","null","","","","","","",""
"938.4599999757484","","image-keyboard-response","593","1327800","0.0-8.0-0.4","","img/yellow.png","32","trial","32","true","0.8,0.2","1:go_a","",""
"null","","html-keyboard-response","594","1328806","0.0-8.0-1.4","","<img src=""img/yellow-r.png"" border=""10"">","null","trial","32","","0.8,0.2","1:go_a","1",""
"null","","html-keyboard-response","595","1329811","0.0-8.0-2.4","","<div style=""font-size:60px;"">+</div>","null","","","","","","",""
"1036.0700000310317","","image-keyboard-response","596","1330847","0.0-8.0-0.5","","img/blue.png","32","trial","null","false","0.4,0.6","4:nogo_d","",""
"null","","html-keyboard-response","597","1331853","0.0-8.0-1.5","","<img src=""img/blue-r.png"" border=""10"">","null","trial","null","","0.4,0.6","4:nogo_d","1",""
"null","","html-keyboard-response","598","1332858","0.0-8.0-2.5","","<div style=""font-size:60px;"">+</div>","null","","","","","","",""
"700.2499999944121","","image-keyboard-response","599","1333559","0.0-8.0-0.6","","img/green.png","32","trial","null","false","0.2,0.8","2:nogo_b","",""
"null","","html-keyboard-response","600","1334561","0.0-8.0-1.6","","<img src=""img/green-n.png"" border=""10"">","null","trial","null","","0.2,0.8","2:nogo_b","0",""
"null","","html-keyboard-response","601","1335565","0.0-8.0-2.6","","<div style=""font-size:60px;"">+</div>","null","","","","","","",""
"539.8350000032224","","image-keyboard-response","602","1336105","0.0-8.0-0.7","","img/grey.png","32","trial","32","true","0.6,0.4","3:go_c","",""
"null","","html-keyboard-response","603","1337110","0.0-8.0-1.7","","<img src=""img/grey-r.png"" border=""10"">","null","trial","32","","0.6,0.4","3:go_c","1",""
"null","","html-keyboard-response","604","1338113","0.0-8.0-2.7","","<div style=""font-size:60px;"">+</div>","null","","","","","","",""
"1069.1900000092573","","image-keyboard-response","605","1339183","0.0-8.0-0.8","","img/green.png","32","trial","null","false","0.2,0.8","2:nogo_b","",""
"null","","html-keyboard-response","606","1340186","0.0-8.0-1.8","","<img src=""img/green-n.png"" border=""10"">","null","trial","null","","0.2,0.8","2:nogo_b","0",""
"null","","html-keyboard-response","607","1341188","0.0-8.0-2.8","","<div style=""font-size:60px;"">+</div>","null","","","","","","",""
"594.5749999955297","","image-keyboard-response","608","1341783","0.0-8.0-0.9","","img/grey.png","32","trial","32","true","0.6,0.4","3:go_c","",""
"null","","html-keyboard-response","609","1342786","0.0-8.0-1.9","","<img src=""img/grey-n.png"" border=""10"">","null","trial","32","","0.6,0.4","3:go_c","0",""
"null","","html-keyboard-response","610","1343788","0.0-8.0-2.9","","<div style=""font-size:60px;"">+</div>","null","","","","","","",""
"876.8599999602884","","image-keyboard-response","611","1344666","0.0-8.0-0.10","","img/blue.png","32","trial","null","false","0.4,0.6","4:nogo_d","",""
"null","","html-keyboard-response","612","1345671","0.0-8.0-1.10","","<img src=""img/blue-n.png"" border=""10"">","null","trial","null","","0.4,0.6","4:nogo_d","0",""
"null","","html-keyboard-response","613","1346672","0.0-8.0-2.10","","<div style=""font-size:60px;"">+</div>","null","","","","","","",""
"854.010000010021","","image-keyboard-response","614","1347527","0.0-8.0-0.11","","img/yellow.png","32","trial","32","true","0.8,0.2","1:go_a","",""
"null","","html-keyboard-response","615","1348530","0.0-8.0-1.11","","<img src=""img/yellow-r.png"" border=""10"">","null","trial","32","","0.8,0.2","1:go_a","1",""
"null","","html-keyboard-response","616","1349535","0.0-8.0-2.11","","<div style=""font-size:60px;"">+</div>","null","","","","","","",""
"1015.1999999652617","","image-keyboard-response","617","1350551","0.0-8.0-0.12","","img/blue.png","32","trial","null","false","0.4,0.6","4:nogo_d","",""
"null","","html-keyboard-response","618","1351554","0.0-8.0-1.12","","<img src=""img/blue-n.png"" border=""10"">","null","trial","null","","0.4,0.6","4:nogo_d","0",""
"null","","html-keyboard-response","619","1352559","0.0-8.0-2.12","","<div style=""font-size:60px;"">+</div>","null","","","","","","",""
"1141.3949999841861","","image-keyboard-response","620","1353702","0.0-8.0-0.13","","img/grey.png","32","trial","32","true","0.6,0.4","3:go_c","",""
"null","","html-keyboard-response","621","1354703","0.0-8.0-1.13","","<img src=""img/grey-r.png"" border=""10"">","null","trial","32","","0.6,0.4","3:go_c","1",""
"null","","html-keyboard-response","622","1355709","0.0-8.0-2.13","","<div style=""font-size:60px;"">+</div>","null","","","","","","",""
"963.9900000183843","","image-keyboard-response","623","1356673","0.0-8.0-0.14","","img/green.png","32","trial","null","false","0.2,0.8","2:nogo_b","",""
"null","","html-keyboard-response","624","1357674","0.0-8.0-1.14","","<img src=""img/green-n.png"" border=""10"">","null","trial","null","","0.2,0.8","2:nogo_b","0",""
"null","","html-keyboard-response","625","1358678","0.0-8.0-2.14","","<div style=""font-size:60px;"">+</div>","null","","","","","","",""
"1040.610000025481","","image-keyboard-response","626","1359719","0.0-8.0-0.15","","img/yellow.png","32","trial","32","true","0.8,0.2","1:go_a","",""
"null","","html-keyboard-response","627","1360724","0.0-8.0-1.15","","<img src=""img/yellow-r.png"" border=""10"">","null","trial","32","","0.8,0.2","1:go_a","1",""
"null","","html-keyboard-response","628","1361730","0.0-8.0-2.15","","<div style=""font-size:60px;"">+</div>","null","","","","","","",""
"1236.1450000316836","","image-keyboard-response","629","1362967","0.0-8.0-0.16","","img/blue.png","32","trial","null","false","0.4,0.6","4:nogo_d","",""
"null","","html-keyboard-response","630","1363971","0.0-8.0-1.16","","<img src=""img/blue-n.png"" border=""10"">","null","trial","null","","0.4,0.6","4:nogo_d","0",""
"null","","html-keyboard-response","631","1364974","0.0-8.0-2.16","","<div style=""font-size:60px;"">+</div>","null","","","","","","",""
"695.2600000076927","","image-keyboard-response","632","1365670","0.0-8.0-0.17","","img/grey.png","32","trial","32","true","0.6,0.4","3:go_c","",""
"null","","html-keyboard-response","633","1366675","0.0-8.0-1.17","","<img src=""img/grey-r.png"" border=""10"">","null","trial","32","","0.6,0.4","3:go_c","1",""
"null","","html-keyboard-response","634","1367677","0.0-8.0-2.17","","<div style=""font-size:60px;"">+</div>","null","","","","","","",""
"null","","image-keyboard-response","635","1369182","0.0-8.0-0.18","","img/green.png","null","trial","null","true","0.2,0.8","2:nogo_b","",""
"null","","html-keyboard-response","636","1370184","0.0-8.0-1.18","","<img src=""img/green-r.png"">","null","trial","null","","0.2,0.8","2:nogo_b","1",""
"null","","html-keyboard-response","637","1371190","0.0-8.0-2.18","","<div style=""font-size:60px;"">+</div>","null","","","","","","",""
"800.5099999718368","","image-keyboard-response","638","1371991","0.0-8.0-0.19","","img/yellow.png","32","trial","32","true","0.8,0.2","1:go_a","",""
"null","","html-keyboard-response","639","1372996","0.0-8.0-1.19","","<img src=""img/yellow-r.png"" border=""10"">","null","trial","32","","0.8,0.2","1:go_a","1",""
"null","","html-keyboard-response","640","1374000","0.0-8.0-2.19","","<div style=""font-size:60px;"">+</div>","null","","","","","","",""
"701.3950000400655","","image-keyboard-response","641","1374702","0.0-8.0-0.20","","img/grey.png","32","trial","32","true","0.6,0.4","3:go_c","",""
"null","","html-keyboard-response","642","1375706","0.0-8.0-1.20","","<img src=""img/grey-n.png"" border=""10"">","null","trial","32","","0.6,0.4","3:go_c","0",""
"null","","html-keyboard-response","643","1376710","0.0-8.0-2.20","","<div style=""font-size:60px;"">+</div>","null","","","","","","",""
"null","","image-keyboard-response","644","1378212","0.0-8.0-0.21","","img/blue.png","null","trial","null","true","0.4,0.6","4:nogo_d","",""
"null","","html-keyboard-response","645","1379216","0.0-8.0-1.21","","<img src=""img/blue-n.png"">","null","trial","null","","0.4,0.6","4:nogo_d","0",""
"null","","html-keyboard-response","646","1380219","0.0-8.0-2.21","","<div style=""font-size:60px;"">+</div>","null","","","","","","",""
"586.6349999560043","","image-keyboard-response","647","1380806","0.0-8.0-0.22","","img/green.png","32","trial","null","false","0.2,0.8","2:nogo_b","",""
"null","","html-keyboard-response","648","1381807","0.0-8.0-1.22","","<img src=""img/green-n.png"" border=""10"">","null","trial","null","","0.2,0.8","2:nogo_b","0",""
"null","","html-keyboard-response","649","1382813","0.0-8.0-2.22","","<div style=""font-size:60px;"">+</div>","null","","","","","","",""
"664.3799999728799","","image-keyboard-response","650","1383478","0.0-8.0-0.23","","img/yellow.png","32","trial","32","true","0.8,0.2","1:go_a","",""
"null","","html-keyboard-response","651","1384484","0.0-8.0-1.23","","<img src=""img/yellow-r.png"" border=""10"">","null","trial","32","","0.8,0.2","1:go_a","1",""
"null","","html-keyboard-response","652","1385486","0.0-8.0-2.23","","<div style=""font-size:60px;"">+</div>","null","","","","","","",""
"638.55000003241","","image-keyboard-response","653","1386126","0.0-8.0-0.24","","img/grey.png","32","trial","32","true","0.6,0.4","3:go_c","",""
"null","","html-keyboard-response","654","1387129","0.0-8.0-1.24","","<img src=""img/grey-r.png"" border=""10"">","null","trial","32","","0.6,0.4","3:go_c","1",""
"null","","html-keyboard-response","655","1388132","0.0-8.0-2.24","","<div style=""font-size:60px;"">+</div>","null","","","","","","",""
"521.1049999925308","","image-keyboard-response","656","1388654","0.0-8.0-0.25","","img/yellow.png","32","trial","32","true","0.8,0.2","1:go_a","",""
"null","","html-keyboard-response","657","1389660","0.0-8.0-1.25","","<img src=""img/yellow-n.png"" border=""10"">","null","trial","32","","0.8,0.2","1:go_a","0",""
"null","","html-keyboard-response","658","1390665","0.0-8.0-2.25","","<div style=""font-size:60px;"">+</div>","null","","","","","","",""
"null","","image-keyboard-response","659","1392169","0.0-8.0-0.26","","img/green.png","null","trial","null","true","0.2,0.8","2:nogo_b","",""
"null","","html-keyboard-response","660","1393173","0.0-8.0-1.26","","<img src=""img/green-r.png"">","null","trial","null","","0.2,0.8","2:nogo_b","1",""
"null","","html-keyboard-response","661","1394178","0.0-8.0-2.26","","<div style=""font-size:60px;"">+</div>","null","","","","","","",""
"null","","image-keyboard-response","662","1395681","0.0-8.0-0.27","","img/blue.png","null","trial","null","true","0.4,0.6","4:nogo_d","",""
"null","","html-keyboard-response","663","1396686","0.0-8.0-1.27","","<img src=""img/blue-n.png"">","null","trial","null","","0.4,0.6","4:nogo_d","0",""
"null","","html-keyboard-response","664","1397688","0.0-8.0-2.27","","<div style=""font-size:60px;"">+</div>","null","","","","","","",""
"null","","image-keyboard-response","665","1399194","0.0-8.0-0.28","","img/yellow.png","null","trial","32","false","0.8,0.2","1:go_a","",""
"null","","html-keyboard-response","666","1400199","0.0-8.0-1.28","","<img src=""img/yellow-n.png"">","null","trial","32","","0.8,0.2","1:go_a","0",""
"null","","html-keyboard-response","667","1401199","0.0-8.0-2.28","","<div style=""font-size:60px;"">+</div>","null","","","","","","",""
"null","","image-keyboard-response","668","1402703","0.0-8.0-0.29","","img/green.png","null","trial","null","true","0.2,0.8","2:nogo_b","",""
"null","","html-keyboard-response","669","1403705","0.0-8.0-1.29","","<img src=""img/green-r.png"">","null","trial","null","","0.2,0.8","2:nogo_b","1",""
"null","","html-keyboard-response","670","1404711","0.0-8.0-2.29","","<div style=""font-size:60px;"">+</div>","null","","","","","","",""
"null","","image-keyboard-response","671","1406213","0.0-8.0-0.30","","img/blue.png","null","trial","null","true","0.4,0.6","4:nogo_d","",""
"null","","html-keyboard-response","672","1407215","0.0-8.0-1.30","","<img src=""img/blue-r.png"">","null","trial","null","","0.4,0.6","4:nogo_d","1",""
