"rt","url","trial_type","trial_index","time_elapsed","internal_node_id","view_history","stimulus","key_press","test_part","correct_response","correct","use_rew","which_stim","reward","responses"
"11978.965000016615","consent.html","external-html","0","12116","0.0-0.0","","","","","","","","","",""
"552782.195000007","","instructions","1","564901","0.0-1.0","[{""page_index"":0,""viewing_time"":9104.475000000093},{""page_index"":1,""viewing_time"":462912.6749999996},{""page_index"":2,""viewing_time"":3574.8899999889545},{""page_index"":3,""viewing_time"":23439.754999999423},{""page_index"":4,""viewing_time"":18679.870000021765},{""page_index"":5,""viewing_time"":24533.609999984037},{""page_index"":6,""viewing_time"":10534.654999995837}]","","","","","","","","",""
"null","","image-keyboard-response","2","566414","0.0-2.0-0.0","","img/test2.PNG","null","practice","null","true","","","",""
"null","","html-keyboard-response","3","567421","0.0-2.0-1.0","","<img src=""img/test2-reward.PNG"">","null","","","","","","",""
"null","","html-keyboard-response","4","568429","0.0-2.0-2.0","","<div style=""font-size:60px;"">+</div>","null","","","","","","",""
"null","","image-keyboard-response","5","569936","0.0-2.0-0.1","","img/test3.PNG","null","practice","null","true","","","",""
"null","","html-keyboard-response","6","570938","0.0-2.0-1.1","","<img src=""img/test3-reward.PNG"">","null","","","","","","",""
"null","","html-keyboard-response","7","571955","0.0-2.0-2.1","","<div style=""font-size:60px;"">+</div>","null","","","","","","",""
"390.68500002031215","","image-keyboard-response","8","572349","0.0-2.0-0.2","","img/test1.PNG","32","practice","32","true","","","",""
"null","","html-keyboard-response","9","573360","0.0-2.0-1.2","","<img src=""img/test1-reward.PNG"" border=""10px; grey"">","null","","","","","","",""
"null","","html-keyboard-response","10","574368","0.0-2.0-2.2","","<div style=""font-size:60px;"">+</div>","null","","","","","","",""
"null","","image-keyboard-response","11","575876","0.0-2.0-0.3","","img/test2.PNG","null","practice","null","true","","","",""
"null","","html-keyboard-response","12","576889","0.0-2.0-1.3","","<img src=""img/test2-reward.PNG"">","null","","","","","","",""
"null","","html-keyboard-response","13","577900","0.0-2.0-2.3","","<div style=""font-size:60px;"">+</div>","null","","","","","","",""
"411.0100000107195","","image-keyboard-response","14","578315","0.0-2.0-0.4","","img/test1.PNG","32","practice","32","true","","","",""
"null","","html-keyboard-response","15","579332","0.0-2.0-1.4","","<img src=""img/test1-reward.PNG"" border=""10px; grey"">","null","","","","","","",""
"null","","html-keyboard-response","16","580348","0.0-2.0-2.4","","<div style=""font-size:60px;"">+</div>","null","","","","","","",""
"null","","image-keyboard-response","17","581864","0.0-2.0-0.5","","img/test3.PNG","null","practice","null","true","","","",""
"null","","html-keyboard-response","18","582881","0.0-2.0-1.5","","<img src=""img/test3-reward.PNG"">","null","","","","","","",""
"null","","html-keyboard-response","19","583884","0.0-2.0-2.5","","<div style=""font-size:60px;"">+</div>","null","","","","","","",""
"469.33999998145737","","image-keyboard-response","20","584357","0.0-2.0-0.6","","img/test1.PNG","32","practice","32","true","","","",""
"null","","html-keyboard-response","21","585368","0.0-2.0-1.6","","<img src=""img/test1-reward.PNG"" border=""10px; grey"">","null","","","","","","",""
"null","","html-keyboard-response","22","586381","0.0-2.0-2.6","","<div style=""font-size:60px;"">+</div>","null","","","","","","",""
"790.8249999745749","","image-keyboard-response","23","587174","0.0-2.0-0.7","","img/test3.PNG","32","practice","null","false","","","",""
"null","","html-keyboard-response","24","588178","0.0-2.0-1.7","","<img src=""img/test3-neutral.PNG"" border=""10px; grey"">","null","","","","","","",""
"null","","html-keyboard-response","25","589181","0.0-2.0-2.7","","<div style=""font-size:60px;"">+</div>","null","","","","","","",""
"null","","image-keyboard-response","26","590696","0.0-2.0-0.8","","img/test2.PNG","null","practice","null","true","","","",""
"null","","html-keyboard-response","27","591704","0.0-2.0-1.8","","<img src=""img/test2-reward.PNG"">","null","","","","","","",""
"null","","html-keyboard-response","28","592720","0.0-2.0-2.8","","<div style=""font-size:60px;"">+</div>","null","","","","","","",""
"null","","image-keyboard-response","29","594232","0.0-2.0-0.9","","img/test3.PNG","null","practice","null","true","","","",""
"null","","html-keyboard-response","30","595248","0.0-2.0-1.9","","<img src=""img/test3-reward.PNG"">","null","","","","","","",""
"null","","html-keyboard-response","31","596252","0.0-2.0-2.9","","<div style=""font-size:60px;"">+</div>","null","","","","","","",""
"null","","image-keyboard-response","32","597757","0.0-2.0-0.10","","img/test2.PNG","null","practice","null","true","","","",""
"null","","html-keyboard-response","33","598760","0.0-2.0-1.10","","<img src=""img/test2-reward.PNG"">","null","","","","","","",""
"null","","html-keyboard-response","34","599775","0.0-2.0-2.10","","<div style=""font-size:60px;"">+</div>","null","","","","","","",""
"508.78500001272187","","image-keyboard-response","35","600287","0.0-2.0-0.11","","img/test1.PNG","32","practice","32","true","","","",""
"null","","html-keyboard-response","36","601290","0.0-2.0-1.11","","<img src=""img/test1-reward.PNG"" border=""10px; grey"">","null","","","","","","",""
"null","","html-keyboard-response","37","602304","0.0-2.0-2.11","","<div style=""font-size:60px;"">+</div>","null","","","","","","",""
"7687.904999998864","","instructions","38","609993","0.0-3.0","[{""page_index"":0,""viewing_time"":7687.550000002375}]","","","","","","","","",""
"null","","image-keyboard-response","39","611497","0.0-4.0-0.0","","img/orange.png","null","trial","32","false","0.8,0.2","1:go_a","",""
"null","","html-keyboard-response","40","612508","0.0-4.0-1.0","","<img src=""img/orange-r.png"">","null","trial","32","","0.8,0.2","1:go_a","1",""
"null","","html-keyboard-response","41","613511","0.0-4.0-2.0","","<div style=""font-size:60px;"">+</div>","null","","","","","","",""
"null","","image-keyboard-response","42","615019","0.0-4.0-0.1","","img/blue.png","null","trial","null","true","0.2,0.8","2:nogo_b","",""
"null","","html-keyboard-response","43","616023","0.0-4.0-1.1","","<img src=""img/blue-r.png"">","null","trial","null","","0.2,0.8","2:nogo_b","1",""
"null","","html-keyboard-response","44","617029","0.0-4.0-2.1","","<div style=""font-size:60px;"">+</div>","null","","","","","","",""
"null","","image-keyboard-response","45","618532","0.0-4.0-0.2","","img/blue.png","null","trial","null","true","0.2,0.8","2:nogo_b","",""
"null","","html-keyboard-response","46","619544","0.0-4.0-1.2","","<img src=""img/blue-n.png"">","null","trial","null","","0.2,0.8","2:nogo_b","0",""
"null","","html-keyboard-response","47","620552","0.0-4.0-2.2","","<div style=""font-size:60px;"">+</div>","null","","","","","","",""
"null","","image-keyboard-response","48","622061","0.0-4.0-0.3","","img/orange.png","null","trial","32","false","0.8,0.2","1:go_a","",""
"null","","html-keyboard-response","49","623065","0.0-4.0-1.3","","<img src=""img/orange-r.png"">","null","trial","32","","0.8,0.2","1:go_a","1",""
"null","","html-keyboard-response","50","624069","0.0-4.0-2.3","","<div style=""font-size:60px;"">+</div>","null","","","","","","",""
"711.635000014212","","image-keyboard-response","51","624783","0.0-4.0-0.4","","img/orange.png","32","trial","32","true","0.8,0.2","1:go_a","",""
"null","","html-keyboard-response","52","625786","0.0-4.0-1.4","","<img src=""img/orange-r.png"" border=""10"">","null","trial","32","","0.8,0.2","1:go_a","1",""
"null","","html-keyboard-response","53","626793","0.0-4.0-2.4","","<div style=""font-size:60px;"">+</div>","null","","","","","","",""
"719.6850000182167","","image-keyboard-response","54","627514","0.0-4.0-0.5","","img/blue.png","32","trial","null","false","0.2,0.8","2:nogo_b","",""
"null","","html-keyboard-response","55","628521","0.0-4.0-1.5","","<img src=""img/blue-r.png"" border=""10"">","null","trial","null","","0.2,0.8","2:nogo_b","1",""
"null","","html-keyboard-response","56","629528","0.0-4.0-2.5","","<div style=""font-size:60px;"">+</div>","null","","","","","","",""
"618.6500000185333","","image-keyboard-response","57","630148","0.0-4.0-0.6","","img/orange.png","32","trial","32","true","0.8,0.2","1:go_a","",""
"null","","html-keyboard-response","58","631161","0.0-4.0-1.6","","<img src=""img/orange-r.png"" border=""10"">","null","trial","32","","0.8,0.2","1:go_a","1",""
"null","","html-keyboard-response","59","632164","0.0-4.0-2.6","","<div style=""font-size:60px;"">+</div>","null","","","","","","",""
"682.4600000109058","","image-keyboard-response","60","632849","0.0-4.0-0.7","","img/blue.png","32","trial","null","false","0.2,0.8","2:nogo_b","",""
"null","","html-keyboard-response","61","633859","0.0-4.0-1.7","","<img src=""img/blue-n.png"" border=""10"">","null","trial","null","","0.2,0.8","2:nogo_b","0",""
"null","","html-keyboard-response","62","634874","0.0-4.0-2.7","","<div style=""font-size:60px;"">+</div>","null","","","","","","",""
"null","","image-keyboard-response","63","636379","0.0-4.0-0.8","","img/blue.png","null","trial","null","true","0.2,0.8","2:nogo_b","",""
"null","","html-keyboard-response","64","637397","0.0-4.0-1.8","","<img src=""img/blue-r.png"">","null","trial","null","","0.2,0.8","2:nogo_b","1",""
"null","","html-keyboard-response","65","638410","0.0-4.0-2.8","","<div style=""font-size:60px;"">+</div>","null","","","","","","",""
"555.3500000096392","","image-keyboard-response","66","638967","0.0-4.0-0.9","","img/orange.png","32","trial","32","true","0.8,0.2","1:go_a","",""
"null","","html-keyboard-response","67","639979","0.0-4.0-1.9","","<img src=""img/orange-r.png"" border=""10"">","null","trial","32","","0.8,0.2","1:go_a","1",""
"null","","html-keyboard-response","68","640987","0.0-4.0-2.9","","<div style=""font-size:60px;"">+</div>","null","","","","","","",""
"817.5000000046566","","image-keyboard-response","69","641807","0.0-4.0-0.10","","img/orange.png","32","trial","32","true","0.8,0.2","1:go_a","",""
"null","","html-keyboard-response","70","642813","0.0-4.0-1.10","","<img src=""img/orange-r.png"" border=""10"">","null","trial","32","","0.8,0.2","1:go_a","1",""
"null","","html-keyboard-response","71","643823","0.0-4.0-2.10","","<div style=""font-size:60px;"">+</div>","null","","","","","","",""
"1163.3200000214856","","image-keyboard-response","72","644987","0.0-4.0-0.11","","img/blue.png","32","trial","null","false","0.2,0.8","2:nogo_b","",""
"null","","html-keyboard-response","73","646005","0.0-4.0-1.11","","<img src=""img/blue-n.png"" border=""10"">","null","trial","null","","0.2,0.8","2:nogo_b","0",""
"null","","html-keyboard-response","74","647017","0.0-4.0-2.11","","<div style=""font-size:60px;"">+</div>","null","","","","","","",""
"566.419999988284","","image-keyboard-response","75","647585","0.0-4.0-0.12","","img/orange.png","32","trial","32","true","0.8,0.2","1:go_a","",""
"null","","html-keyboard-response","76","648591","0.0-4.0-1.12","","<img src=""img/orange-n.png"" border=""10"">","null","trial","32","","0.8,0.2","1:go_a","0",""
"null","","html-keyboard-response","77","649605","0.0-4.0-2.12","","<div style=""font-size:60px;"">+</div>","null","","","","","","",""
"477.0499999867752","","image-keyboard-response","78","650084","0.0-4.0-0.13","","img/blue.png","32","trial","null","false","0.2,0.8","2:nogo_b","",""
"null","","html-keyboard-response","79","651103","0.0-4.0-1.13","","<img src=""img/blue-r.png"" border=""10"">","null","trial","null","","0.2,0.8","2:nogo_b","1",""
"null","","html-keyboard-response","80","652120","0.0-4.0-2.13","","<div style=""font-size:60px;"">+</div>","null","","","","","","",""
"724.3849999795202","","image-keyboard-response","81","652846","0.0-4.0-0.14","","img/blue.png","32","trial","null","false","0.2,0.8","2:nogo_b","",""
"null","","html-keyboard-response","82","653864","0.0-4.0-1.14","","<img src=""img/blue-n.png"" border=""10"">","null","trial","null","","0.2,0.8","2:nogo_b","0",""
"null","","html-keyboard-response","83","654865","0.0-4.0-2.14","","<div style=""font-size:60px;"">+</div>","null","","","","","","",""
"454.44500001030974","","image-keyboard-response","84","655322","0.0-4.0-0.15","","img/orange.png","32","trial","32","true","0.8,0.2","1:go_a","",""
"null","","html-keyboard-response","85","656337","0.0-4.0-1.15","","<img src=""img/orange-r.png"" border=""10"">","null","trial","32","","0.8,0.2","1:go_a","1",""
"null","","html-keyboard-response","86","657349","0.0-4.0-2.15","","<div style=""font-size:60px;"">+</div>","null","","","","","","",""
"631.8850000097882","","image-keyboard-response","87","657982","0.0-4.0-0.16","","img/orange.png","32","trial","32","true","0.8,0.2","1:go_a","",""
"null","","html-keyboard-response","88","658989","0.0-4.0-1.16","","<img src=""img/orange-r.png"" border=""10"">","null","trial","32","","0.8,0.2","1:go_a","1",""
"null","","html-keyboard-response","89","659992","0.0-4.0-2.16","","<div style=""font-size:60px;"">+</div>","null","","","","","","",""
"null","","image-keyboard-response","90","661501","0.0-4.0-0.17","","img/blue.png","null","trial","null","true","0.2,0.8","2:nogo_b","",""
"null","","html-keyboard-response","91","662509","0.0-4.0-1.17","","<img src=""img/blue-r.png"">","null","trial","null","","0.2,0.8","2:nogo_b","1",""
"null","","html-keyboard-response","92","663516","0.0-4.0-2.17","","<div style=""font-size:60px;"">+</div>","null","","","","","","",""
"null","","image-keyboard-response","93","665030","0.0-4.0-0.18","","img/blue.png","null","trial","null","true","0.2,0.8","2:nogo_b","",""
"null","","html-keyboard-response","94","666041","0.0-4.0-1.18","","<img src=""img/blue-n.png"">","null","trial","null","","0.2,0.8","2:nogo_b","0",""
"null","","html-keyboard-response","95","667051","0.0-4.0-2.18","","<div style=""font-size:60px;"">+</div>","null","","","","","","",""
"508.2500000135042","","image-keyboard-response","96","667561","0.0-4.0-0.19","","img/orange.png","32","trial","32","true","0.8,0.2","1:go_a","",""
"null","","html-keyboard-response","97","668572","0.0-4.0-1.19","","<img src=""img/orange-r.png"" border=""10"">","null","trial","32","","0.8,0.2","1:go_a","1",""
"null","","html-keyboard-response","98","669587","0.0-4.0-2.19","","<div style=""font-size:60px;"">+</div>","null","","","","","","",""
"null","","image-keyboard-response","99","671096","0.0-4.0-0.20","","img/blue.png","null","trial","null","true","0.2,0.8","2:nogo_b","",""
"null","","html-keyboard-response","100","672107","0.0-4.0-1.20","","<img src=""img/blue-r.png"">","null","trial","null","","0.2,0.8","2:nogo_b","1",""
"null","","html-keyboard-response","101","673116","0.0-4.0-2.20","","<div style=""font-size:60px;"">+</div>","null","","","","","","",""
"361.9999999937136","","image-keyboard-response","102","673479","0.0-4.0-0.21","","img/orange.png","32","trial","32","true","0.8,0.2","1:go_a","",""
"null","","html-keyboard-response","103","674498","0.0-4.0-1.21","","<img src=""img/orange-r.png"" border=""10"">","null","trial","32","","0.8,0.2","1:go_a","1",""
"null","","html-keyboard-response","104","675501","0.0-4.0-2.21","","<div style=""font-size:60px;"">+</div>","null","","","","","","",""
"841.4000000047963","","image-keyboard-response","105","676344","0.0-4.0-0.22","","img/orange.png","32","trial","32","true","0.8,0.2","1:go_a","",""
"null","","html-keyboard-response","106","677350","0.0-4.0-1.22","","<img src=""img/orange-r.png"" border=""10"">","null","trial","32","","0.8,0.2","1:go_a","1",""
"null","","html-keyboard-response","107","678355","0.0-4.0-2.22","","<div style=""font-size:60px;"">+</div>","null","","","","","","",""
"null","","image-keyboard-response","108","679869","0.0-4.0-0.23","","img/blue.png","null","trial","null","true","0.2,0.8","2:nogo_b","",""
"null","","html-keyboard-response","109","680883","0.0-4.0-1.23","","<img src=""img/blue-r.png"">","null","trial","null","","0.2,0.8","2:nogo_b","1",""
"null","","html-keyboard-response","110","681897","0.0-4.0-2.23","","<div style=""font-size:60px;"">+</div>","null","","","","","","",""
"377.53499997779727","","image-keyboard-response","111","682276","0.0-4.0-0.24","","img/orange.png","32","trial","32","true","0.8,0.2","1:go_a","",""
"null","","html-keyboard-response","112","683289","0.0-4.0-1.24","","<img src=""img/orange-r.png"" border=""10"">","null","trial","32","","0.8,0.2","1:go_a","1",""
"null","","html-keyboard-response","113","684304","0.0-4.0-2.24","","<div style=""font-size:60px;"">+</div>","null","","","","","","",""
"1092.655000014929","","image-keyboard-response","114","685399","0.0-4.0-0.25","","img/blue.png","32","trial","null","false","0.2,0.8","2:nogo_b","",""
"null","","html-keyboard-response","115","686409","0.0-4.0-1.25","","<img src=""img/blue-n.png"" border=""10"">","null","trial","null","","0.2,0.8","2:nogo_b","0",""
"null","","html-keyboard-response","116","687417","0.0-4.0-2.25","","<div style=""font-size:60px;"">+</div>","null","","","","","","",""
"540.1549999951385","","image-keyboard-response","117","687959","0.0-4.0-0.26","","img/orange.png","32","trial","32","true","0.8,0.2","1:go_a","",""
"null","","html-keyboard-response","118","688971","0.0-4.0-1.26","","<img src=""img/orange-n.png"" border=""10"">","null","trial","32","","0.8,0.2","1:go_a","0",""
"null","","html-keyboard-response","119","689977","0.0-4.0-2.26","","<div style=""font-size:60px;"">+</div>","null","","","","","","",""
"null","","image-keyboard-response","120","691493","0.0-4.0-0.27","","img/blue.png","null","trial","null","true","0.2,0.8","2:nogo_b","",""
"null","","html-keyboard-response","121","692504","0.0-4.0-1.27","","<img src=""img/blue-r.png"">","null","trial","null","","0.2,0.8","2:nogo_b","1",""
"null","","html-keyboard-response","122","693509","0.0-4.0-2.27","","<div style=""font-size:60px;"">+</div>","null","","","","","","",""
"null","","image-keyboard-response","123","695026","0.0-4.0-0.28","","img/blue.png","null","trial","null","true","0.2,0.8","2:nogo_b","",""
"null","","html-keyboard-response","124","696029","0.0-4.0-1.28","","<img src=""img/blue-r.png"">","null","trial","null","","0.2,0.8","2:nogo_b","1",""
"null","","html-keyboard-response","125","697035","0.0-4.0-2.28","","<div style=""font-size:60px;"">+</div>","null","","","","","","",""
"413.2099999987986","","image-keyboard-response","126","697450","0.0-4.0-0.29","","img/orange.png","32","trial","32","true","0.8,0.2","1:go_a","",""
"null","","html-keyboard-response","127","698460","0.0-4.0-1.29","","<img src=""img/orange-r.png"" border=""10"">","null","trial","32","","0.8,0.2","1:go_a","1",""
"null","","html-keyboard-response","128","699462","0.0-4.0-2.29","","<div style=""font-size:60px;"">+</div>","null","","","","","","",""
"603.8549999939278","","image-keyboard-response","129","700068","0.0-4.0-0.30","","img/blue.png","32","trial","null","false","0.2,0.8","2:nogo_b","",""
"null","","html-keyboard-response","130","701078","0.0-4.0-1.30","","<img src=""img/blue-n.png"" border=""10"">","null","trial","null","","0.2,0.8","2:nogo_b","0",""
"null","","html-keyboard-response","131","702086","0.0-4.0-2.30","","<div style=""font-size:60px;"">+</div>","null","","","","","","",""
"1116.024999995716","","image-keyboard-response","132","703203","0.0-4.0-0.31","","img/orange.png","32","trial","32","true","0.8,0.2","1:go_a","",""
"null","","html-keyboard-response","133","704213","0.0-4.0-1.31","","<img src=""img/orange-r.png"" border=""10"">","null","trial","32","","0.8,0.2","1:go_a","1",""
"null","","html-keyboard-response","134","705219","0.0-4.0-2.31","","<div style=""font-size:60px;"">+</div>","null","","","","","","",""
"null","","image-keyboard-response","135","706737","0.0-4.0-0.32","","img/blue.png","null","trial","null","true","0.2,0.8","2:nogo_b","",""
"null","","html-keyboard-response","136","707744","0.0-4.0-1.32","","<img src=""img/blue-n.png"">","null","trial","null","","0.2,0.8","2:nogo_b","0",""
"null","","html-keyboard-response","137","708761","0.0-4.0-2.32","","<div style=""font-size:60px;"">+</div>","null","","","","","","",""
"529.1150000120979","","image-keyboard-response","138","709292","0.0-4.0-0.33","","img/orange.png","32","trial","32","true","0.8,0.2","1:go_a","",""
"null","","html-keyboard-response","139","710295","0.0-4.0-1.33","","<img src=""img/orange-n.png"" border=""10"">","null","trial","32","","0.8,0.2","1:go_a","0",""
"null","","html-keyboard-response","140","711303","0.0-4.0-2.33","","<div style=""font-size:60px;"">+</div>","null","","","","","","",""
"null","","image-keyboard-response","141","712820","0.0-4.0-0.34","","img/blue.png","null","trial","null","true","0.2,0.8","2:nogo_b","",""
"null","","html-keyboard-response","142","713825","0.0-4.0-1.34","","<img src=""img/blue-r.png"">","null","trial","null","","0.2,0.8","2:nogo_b","1",""
"null","","html-keyboard-response","143","714833","0.0-4.0-2.34","","<div style=""font-size:60px;"">+</div>","null","","","","","","",""
"564.8149999906309","","image-keyboard-response","144","715400","0.0-4.0-0.35","","img/orange.png","32","trial","32","true","0.8,0.2","1:go_a","",""
"null","","html-keyboard-response","145","716417","0.0-4.0-1.35","","<img src=""img/orange-r.png"" border=""10"">","null","trial","32","","0.8,0.2","1:go_a","1",""
"null","","html-keyboard-response","146","717434","0.0-4.0-2.35","","<div style=""font-size:60px;"">+</div>","null","","","","","","",""
"null","","image-keyboard-response","147","718943","0.0-4.0-0.36","","img/blue.png","null","trial","null","true","0.2,0.8","2:nogo_b","",""
"null","","html-keyboard-response","148","719961","0.0-4.0-1.36","","<img src=""img/blue-r.png"">","null","trial","null","","0.2,0.8","2:nogo_b","1",""
"null","","html-keyboard-response","149","720974","0.0-4.0-2.36","","<div style=""font-size:60px;"">+</div>","null","","","","","","",""
"382.7449999807868","","image-keyboard-response","150","721359","0.0-4.0-0.37","","img/orange.png","32","trial","32","true","0.8,0.2","1:go_a","",""
"null","","html-keyboard-response","151","722371","0.0-4.0-1.37","","<img src=""img/orange-r.png"" border=""10"">","null","trial","32","","0.8,0.2","1:go_a","1",""
"null","","html-keyboard-response","152","723379","0.0-4.0-2.37","","<div style=""font-size:60px;"">+</div>","null","","","","","","",""
"795.0500000151806","","image-keyboard-response","153","724177","0.0-4.0-0.38","","img/orange.png","32","trial","32","true","0.8,0.2","1:go_a","",""
"null","","html-keyboard-response","154","725182","0.0-4.0-1.38","","<img src=""img/orange-n.png"" border=""10"">","null","trial","32","","0.8,0.2","1:go_a","0",""
"null","","html-keyboard-response","155","726186","0.0-4.0-2.38","","<div style=""font-size:60px;"">+</div>","null","","","","","","",""
"555.5250000033993","","image-keyboard-response","156","726744","0.0-4.0-0.39","","img/blue.png","32","trial","null","false","0.2,0.8","2:nogo_b","",""
"null","","html-keyboard-response","157","727749","0.0-4.0-1.39","","<img src=""img/blue-n.png"" border=""10"">","null","trial","null","","0.2,0.8","2:nogo_b","0",""
"null","","html-keyboard-response","158","728757","0.0-4.0-2.39","","<div style=""font-size:60px;"">+</div>","null","","","","","","",""
"null","","image-keyboard-response","159","730266","0.0-4.0-0.40","","img/blue.png","null","trial","null","true","0.2,0.8","2:nogo_b","",""
"null","","html-keyboard-response","160","731284","0.0-4.0-1.40","","<img src=""img/blue-n.png"">","null","trial","null","","0.2,0.8","2:nogo_b","0",""
"null","","html-keyboard-response","161","732290","0.0-4.0-2.40","","<div style=""font-size:60px;"">+</div>","null","","","","","","",""
"466.57499999855645","","image-keyboard-response","162","732759","0.0-4.0-0.41","","img/orange.png","32","trial","32","true","0.8,0.2","1:go_a","",""
"null","","html-keyboard-response","163","733767","0.0-4.0-1.41","","<img src=""img/orange-r.png"" border=""10"">","null","trial","32","","0.8,0.2","1:go_a","1",""
"null","","html-keyboard-response","164","734783","0.0-4.0-2.41","","<div style=""font-size:60px;"">+</div>","null","","","","","","",""
"601.0050000040792","","image-keyboard-response","165","735385","0.0-4.0-0.42","","img/orange.png","32","trial","32","true","0.8,0.2","1:go_a","",""
"null","","html-keyboard-response","166","736398","0.0-4.0-1.42","","<img src=""img/orange-r.png"" border=""10"">","null","trial","32","","0.8,0.2","1:go_a","1",""
"null","","html-keyboard-response","167","737409","0.0-4.0-2.42","","<div style=""font-size:60px;"">+</div>","null","","","","","","",""
"null","","image-keyboard-response","168","738926","0.0-4.0-0.43","","img/blue.png","null","trial","null","true","0.2,0.8","2:nogo_b","",""
"null","","html-keyboard-response","169","739944","0.0-4.0-1.43","","<img src=""img/blue-r.png"">","null","trial","null","","0.2,0.8","2:nogo_b","1",""
"null","","html-keyboard-response","170","740957","0.0-4.0-2.43","","<div style=""font-size:60px;"">+</div>","null","","","","","","",""
"688.1000000284985","","image-keyboard-response","171","741647","0.0-4.0-0.44","","img/blue.png","32","trial","null","false","0.2,0.8","2:nogo_b","",""
"null","","html-keyboard-response","172","742660","0.0-4.0-1.44","","<img src=""img/blue-n.png"" border=""10"">","null","trial","null","","0.2,0.8","2:nogo_b","0",""
"null","","html-keyboard-response","173","743666","0.0-4.0-2.44","","<div style=""font-size:60px;"">+</div>","null","","","","","","",""
"458.2200000004377","","image-keyboard-response","174","744127","0.0-4.0-0.45","","img/orange.png","32","trial","32","true","0.8,0.2","1:go_a","",""
"null","","html-keyboard-response","175","745132","0.0-4.0-1.45","","<img src=""img/orange-r.png"" border=""10"">","null","trial","32","","0.8,0.2","1:go_a","1",""
"null","","html-keyboard-response","176","746145","0.0-4.0-2.45","","<div style=""font-size:60px;"">+</div>","null","","","","","","",""
"null","","image-keyboard-response","177","747648","0.0-4.0-0.46","","img/blue.png","null","trial","null","true","0.2,0.8","2:nogo_b","",""
"null","","html-keyboard-response","178","748658","0.0-4.0-1.46","","<img src=""img/blue-r.png"">","null","trial","null","","0.2,0.8","2:nogo_b","1",""
"null","","html-keyboard-response","179","749680","0.0-4.0-2.46","","<div style=""font-size:60px;"">+</div>","null","","","","","","",""
"518.3699999761302","","image-keyboard-response","180","750200","0.0-4.0-0.47","","img/orange.png","32","trial","32","true","0.8,0.2","1:go_a","",""
"null","","html-keyboard-response","181","751205","0.0-4.0-1.47","","<img src=""img/orange-r.png"" border=""10"">","null","trial","32","","0.8,0.2","1:go_a","1",""
"null","","html-keyboard-response","182","752220","0.0-4.0-2.47","","<div style=""font-size:60px;"">+</div>","null","","","","","","",""
"null","","image-keyboard-response","183","753733","0.0-4.0-0.48","","img/blue.png","null","trial","null","true","0.2,0.8","2:nogo_b","",""
"null","","html-keyboard-response","184","754737","0.0-4.0-1.48","","<img src=""img/blue-r.png"">","null","trial","null","","0.2,0.8","2:nogo_b","1",""
"null","","html-keyboard-response","185","755744","0.0-4.0-2.48","","<div style=""font-size:60px;"">+</div>","null","","","","","","",""
"598.0299999937415","","image-keyboard-response","186","756344","0.0-4.0-0.49","","img/orange.png","32","trial","32","true","0.8,0.2","1:go_a","",""
"null","","html-keyboard-response","187","757356","0.0-4.0-1.49","","<img src=""img/orange-r.png"" border=""10"">","null","trial","32","","0.8,0.2","1:go_a","1",""
"null","","html-keyboard-response","188","758363","0.0-4.0-2.49","","<div style=""font-size:60px;"">+</div>","null","","","","","","",""
"547.2249999875203","","image-keyboard-response","189","758912","0.0-4.0-0.50","","img/orange.png","32","trial","32","true","0.8,0.2","1:go_a","",""
"null","","html-keyboard-response","190","759920","0.0-4.0-1.50","","<img src=""img/orange-r.png"" border=""10"">","null","trial","32","","0.8,0.2","1:go_a","1",""
"null","","html-keyboard-response","191","760931","0.0-4.0-2.50","","<div style=""font-size:60px;"">+</div>","null","","","","","","",""
"null","","image-keyboard-response","192","762442","0.0-4.0-0.51","","img/blue.png","null","trial","null","true","0.2,0.8","2:nogo_b","",""
"null","","html-keyboard-response","193","763450","0.0-4.0-1.51","","<img src=""img/blue-r.png"">","null","trial","null","","0.2,0.8","2:nogo_b","1",""
"null","","html-keyboard-response","194","764454","0.0-4.0-2.51","","<div style=""font-size:60px;"">+</div>","null","","","","","","",""
"570.7849999889731","","image-keyboard-response","195","765026","0.0-4.0-0.52","","img/orange.png","32","trial","32","true","0.8,0.2","1:go_a","",""
"null","","html-keyboard-response","196","766033","0.0-4.0-1.52","","<img src=""img/orange-r.png"" border=""10"">","null","trial","32","","0.8,0.2","1:go_a","1",""
"null","","html-keyboard-response","197","767043","0.0-4.0-2.52","","<div style=""font-size:60px;"">+</div>","null","","","","","","",""
"null","","image-keyboard-response","198","768551","0.0-4.0-0.53","","img/blue.png","null","trial","null","true","0.2,0.8","2:nogo_b","",""
"null","","html-keyboard-response","199","769560","0.0-4.0-1.53","","<img src=""img/blue-n.png"">","null","trial","null","","0.2,0.8","2:nogo_b","0",""
"null","","html-keyboard-response","200","770575","0.0-4.0-2.53","","<div style=""font-size:60px;"">+</div>","null","","","","","","",""
"628.450000018347","","image-keyboard-response","201","771205","0.0-4.0-0.54","","img/orange.png","32","trial","32","true","0.8,0.2","1:go_a","",""
"null","","html-keyboard-response","202","772221","0.0-4.0-1.54","","<img src=""img/orange-r.png"" border=""10"">","null","trial","32","","0.8,0.2","1:go_a","1",""
"null","","html-keyboard-response","203","773238","0.0-4.0-2.54","","<div style=""font-size:60px;"">+</div>","null","","","","","","",""
"null","","image-keyboard-response","204","774749","0.0-4.0-0.55","","img/blue.png","null","trial","null","true","0.2,0.8","2:nogo_b","",""
"null","","html-keyboard-response","205","775760","0.0-4.0-1.55","","<img src=""img/blue-r.png"">","null","trial","null","","0.2,0.8","2:nogo_b","1",""
"null","","html-keyboard-response","206","776762","0.0-4.0-2.55","","<div style=""font-size:60px;"">+</div>","null","","","","","","",""
"555.6799999903888","","image-keyboard-response","207","777320","0.0-4.0-0.56","","img/orange.png","32","trial","32","true","0.8,0.2","1:go_a","",""
"null","","html-keyboard-response","208","778334","0.0-4.0-1.56","","<img src=""img/orange-r.png"" border=""10"">","null","trial","32","","0.8,0.2","1:go_a","1",""
"null","","html-keyboard-response","209","779343","0.0-4.0-2.56","","<div style=""font-size:60px;"">+</div>","null","","","","","","",""
"null","","image-keyboard-response","210","780854","0.0-4.0-0.57","","img/blue.png","null","trial","null","true","0.2,0.8","2:nogo_b","",""
"null","","html-keyboard-response","211","781863","0.0-4.0-1.57","","<img src=""img/blue-r.png"">","null","trial","null","","0.2,0.8","2:nogo_b","1",""
"null","","html-keyboard-response","212","782881","0.0-4.0-2.57","","<div style=""font-size:60px;"">+</div>","null","","","","","","",""
"null","","image-keyboard-response","213","784398","0.0-4.0-0.58","","img/blue.png","null","trial","null","true","0.2,0.8","2:nogo_b","",""
"null","","html-keyboard-response","214","785404","0.0-4.0-1.58","","<img src=""img/blue-r.png"">","null","trial","null","","0.2,0.8","2:nogo_b","1",""
"null","","html-keyboard-response","215","786408","0.0-4.0-2.58","","<div style=""font-size:60px;"">+</div>","null","","","","","","",""
"317.3749999841675","","image-keyboard-response","216","786728","0.0-4.0-0.59","","img/orange.png","32","trial","32","true","0.8,0.2","1:go_a","",""
"null","","html-keyboard-response","217","787744","0.0-4.0-1.59","","<img src=""img/orange-r.png"" border=""10"">","null","trial","32","","0.8,0.2","1:go_a","1",""
"null","","html-keyboard-response","218","788750","0.0-4.0-2.59","","<div style=""font-size:60px;"">+</div>","null","","","","","","",""
"2279.5050000131596","","instructions","219","791031","0.0-5.0","[{""page_index"":0,""viewing_time"":2278.920000011567}]","","","","","","","","",""
"967.4799999920651","","image-keyboard-response","220","792002","0.0-6.0-0.0","","img/pink.png","32","trial","32","true","0.8,0.2","1:go_a","",""
"null","","html-keyboard-response","221","793013","0.0-6.0-1.0","","<img src=""img/pink-r.png"" border=""10"">","null","trial","32","","0.8,0.2","1:go_a","1",""
"null","","html-keyboard-response","222","794024","0.0-6.0-2.0","","<div style=""font-size:60px;"">+</div>","null","","","","","","",""
"658.7400000134949","","image-keyboard-response","223","794685","0.0-6.0-0.1","","img/orange.png","32","trial","null","false","0.2,0.8","4:nogo_d","",""
"null","","html-keyboard-response","224","795691","0.0-6.0-1.1","","<img src=""img/orange-r.png"" border=""10"">","null","trial","null","","0.2,0.8","4:nogo_d","1",""
"null","","html-keyboard-response","225","796697","0.0-6.0-2.1","","<div style=""font-size:60px;"">+</div>","null","","","","","","",""
"null","","image-keyboard-response","226","798204","0.0-6.0-0.2","","img/blue.png","null","trial","32","false","0.8,0.2","3:go_c","",""
"null","","html-keyboard-response","227","799212","0.0-6.0-1.2","","<img src=""img/blue-r.png"">","null","trial","32","","0.8,0.2","3:go_c","1",""
"null","","html-keyboard-response","228","800219","0.0-6.0-2.2","","<div style=""font-size:60px;"">+</div>","null","","","","","","",""
"795.1199999952223","","image-keyboard-response","229","801017","0.0-6.0-0.3","","img/yellow.png","32","trial","null","false","0.2,0.8","2:nogo_b","",""
"null","","html-keyboard-response","230","802023","0.0-6.0-1.3","","<img src=""img/yellow-n.png"" border=""10"">","null","trial","null","","0.2,0.8","2:nogo_b","0",""
"null","","html-keyboard-response","231","803025","0.0-6.0-2.3","","<div style=""font-size:60px;"">+</div>","null","","","","","","",""
"463.080000015907","","image-keyboard-response","232","803491","0.0-6.0-0.4","","img/orange.png","32","trial","null","false","0.2,0.8","4:nogo_d","",""
"null","","html-keyboard-response","233","804506","0.0-6.0-1.4","","<img src=""img/orange-n.png"" border=""10"">","null","trial","null","","0.2,0.8","4:nogo_d","0",""
"null","","html-keyboard-response","234","805520","0.0-6.0-2.4","","<div style=""font-size:60px;"">+</div>","null","","","","","","",""
"478.0249999894295","","image-keyboard-response","235","806000","0.0-6.0-0.5","","img/blue.png","32","trial","32","true","0.8,0.2","3:go_c","",""
"null","","html-keyboard-response","236","807009","0.0-6.0-1.5","","<img src=""img/blue-n.png"" border=""10"">","null","trial","32","","0.8,0.2","3:go_c","0",""
"null","","html-keyboard-response","237","808024","0.0-6.0-2.5","","<div style=""font-size:60px;"">+</div>","null","","","","","","",""
"526.9700000062585","","image-keyboard-response","238","808552","0.0-6.0-0.6","","img/yellow.png","32","trial","null","false","0.2,0.8","2:nogo_b","",""
"null","","html-keyboard-response","239","809562","0.0-6.0-1.6","","<img src=""img/yellow-n.png"" border=""10"">","null","trial","null","","0.2,0.8","2:nogo_b","0",""
"null","","html-keyboard-response","240","810578","0.0-6.0-2.6","","<div style=""font-size:60px;"">+</div>","null","","","","","","",""
"585.5199999932665","","image-keyboard-response","241","811165","0.0-6.0-0.7","","img/pink.png","32","trial","32","true","0.8,0.2","1:go_a","",""
"null","","html-keyboard-response","242","812175","0.0-6.0-1.7","","<img src=""img/pink-r.png"" border=""10"">","null","trial","32","","0.8,0.2","1:go_a","1",""
"null","","html-keyboard-response","243","813191","0.0-6.0-2.7","","<div style=""font-size:60px;"">+</div>","null","","","","","","",""
"null","","image-keyboard-response","244","814696","0.0-6.0-0.8","","img/blue.png","null","trial","32","false","0.8,0.2","3:go_c","",""
"null","","html-keyboard-response","245","815705","0.0-6.0-1.8","","<img src=""img/blue-n.png"">","null","trial","32","","0.8,0.2","3:go_c","0",""
"null","","html-keyboard-response","246","816715","0.0-6.0-2.8","","<div style=""font-size:60px;"">+</div>","null","","","","","","",""
"864.4999999960419","","image-keyboard-response","247","817581","0.0-6.0-0.9","","img/yellow.png","32","trial","null","false","0.2,0.8","2:nogo_b","",""
"null","","html-keyboard-response","248","818594","0.0-6.0-1.9","","<img src=""img/yellow-n.png"" border=""10"">","null","trial","null","","0.2,0.8","2:nogo_b","0",""
"null","","html-keyboard-response","249","819608","0.0-6.0-2.9","","<div style=""font-size:60px;"">+</div>","null","","","","","","",""
"510.73000000906177","","image-keyboard-response","250","820127","0.0-6.0-0.10","","img/orange.png","32","trial","null","false","0.2,0.8","4:nogo_d","",""
"null","","html-keyboard-response","251","821131","0.0-6.0-1.10","","<img src=""img/orange-r.png"" border=""10"">","null","trial","null","","0.2,0.8","4:nogo_d","1",""
"null","","html-keyboard-response","252","822144","0.0-6.0-2.10","","<div style=""font-size:60px;"">+</div>","null","","","","","","",""
"789.3750000221189","","image-keyboard-response","253","822935","0.0-6.0-0.11","","img/pink.png","32","trial","32","true","0.8,0.2","1:go_a","",""
"null","","html-keyboard-response","254","823942","0.0-6.0-1.11","","<img src=""img/pink-r.png"" border=""10"">","null","trial","32","","0.8,0.2","1:go_a","1",""
"null","","html-keyboard-response","255","824953","0.0-6.0-2.11","","<div style=""font-size:60px;"">+</div>","null","","","","","","",""
"null","","image-keyboard-response","256","826459","0.0-6.0-0.12","","img/blue.png","null","trial","32","false","0.8,0.2","3:go_c","",""
"null","","html-keyboard-response","257","827469","0.0-6.0-1.12","","<img src=""img/blue-n.png"">","null","trial","32","","0.8,0.2","3:go_c","0",""
"null","","html-keyboard-response","258","828481","0.0-6.0-2.12","","<div style=""font-size:60px;"">+</div>","null","","","","","","",""
"null","","image-keyboard-response","259","829994","0.0-6.0-0.13","","img/yellow.png","null","trial","null","true","0.2,0.8","2:nogo_b","",""
"null","","html-keyboard-response","260","831004","0.0-6.0-1.13","","<img src=""img/yellow-r.png"">","null","trial","null","","0.2,0.8","2:nogo_b","1",""
"null","","html-keyboard-response","261","832019","0.0-6.0-2.13","","<div style=""font-size:60px;"">+</div>","null","","","","","","",""
"526.3949999934994","","image-keyboard-response","262","832546","0.0-6.0-0.14","","img/pink.png","32","trial","32","true","0.8,0.2","1:go_a","",""
"null","","html-keyboard-response","263","833560","0.0-6.0-1.14","","<img src=""img/pink-r.png"" border=""10"">","null","trial","32","","0.8,0.2","1:go_a","1",""
"null","","html-keyboard-response","264","834565","0.0-6.0-2.14","","<div style=""font-size:60px;"">+</div>","null","","","","","","",""
"457.4150000116788","","image-keyboard-response","265","835023","0.0-6.0-0.15","","img/orange.png","32","trial","null","false","0.2,0.8","4:nogo_d","",""
"null","","html-keyboard-response","266","836042","0.0-6.0-1.15","","<img src=""img/orange-n.png"" border=""10"">","null","trial","null","","0.2,0.8","4:nogo_d","0",""
"null","","html-keyboard-response","267","837054","0.0-6.0-2.15","","<div style=""font-size:60px;"">+</div>","null","","","","","","",""
"926.290000003064","","image-keyboard-response","268","837981","0.0-6.0-0.16","","img/orange.png","32","trial","null","false","0.2,0.8","4:nogo_d","",""
"null","","html-keyboard-response","269","838998","0.0-6.0-1.16","","<img src=""img/orange-n.png"" border=""10"">","null","trial","null","","0.2,0.8","4:nogo_d","0",""
"null","","html-keyboard-response","270","840014","0.0-6.0-2.16","","<div style=""font-size:60px;"">+</div>","null","","","","","","",""
"593.7149999954272","","image-keyboard-response","271","840610","0.0-6.0-0.17","","img/pink.png","32","trial","32","true","0.8,0.2","1:go_a","",""
"null","","html-keyboard-response","272","841626","0.0-6.0-1.17","","<img src=""img/pink-r.png"" border=""10"">","null","trial","32","","0.8,0.2","1:go_a","1",""
"null","","html-keyboard-response","273","842629","0.0-6.0-2.17","","<div style=""font-size:60px;"">+</div>","null","","","","","","",""
"928.6499999871012","","image-keyboard-response","274","843559","0.0-6.0-0.18","","img/yellow.png","32","trial","null","false","0.2,0.8","2:nogo_b","",""
"null","","html-keyboard-response","275","844563","0.0-6.0-1.18","","<img src=""img/yellow-n.png"" border=""10"">","null","trial","null","","0.2,0.8","2:nogo_b","0",""
"null","","html-keyboard-response","276","845580","0.0-6.0-2.18","","<div style=""font-size:60px;"">+</div>","null","","","","","","",""
"1017.0099999813829","","image-keyboard-response","277","846599","0.0-6.0-0.19","","img/blue.png","32","trial","32","true","0.8,0.2","3:go_c","",""
"null","","html-keyboard-response","278","847609","0.0-6.0-1.19","","<img src=""img/blue-r.png"" border=""10"">","null","trial","32","","0.8,0.2","3:go_c","1",""
"null","","html-keyboard-response","279","848623","0.0-6.0-2.19","","<div style=""font-size:60px;"">+</div>","null","","","","","","",""
"488.53499998222105","","image-keyboard-response","280","849113","0.0-6.0-0.20","","img/pink.png","32","trial","32","true","0.8,0.2","1:go_a","",""
"null","","html-keyboard-response","281","850123","0.0-6.0-1.20","","<img src=""img/pink-n.png"" border=""10"">","null","trial","32","","0.8,0.2","1:go_a","0",""
"null","","html-keyboard-response","282","851138","0.0-6.0-2.20","","<div style=""font-size:60px;"">+</div>","null","","","","","","",""
"null","","image-keyboard-response","283","852641","0.0-6.0-0.21","","img/yellow.png","null","trial","null","true","0.2,0.8","2:nogo_b","",""
"null","","html-keyboard-response","284","853651","0.0-6.0-1.21","","<img src=""img/yellow-n.png"">","null","trial","null","","0.2,0.8","2:nogo_b","0",""
"null","","html-keyboard-response","285","854658","0.0-6.0-2.21","","<div style=""font-size:60px;"">+</div>","null","","","","","","",""
"713.2100000162609","","image-keyboard-response","286","855374","0.0-6.0-0.22","","img/blue.png","32","trial","32","true","0.8,0.2","3:go_c","",""
"null","","html-keyboard-response","287","856384","0.0-6.0-1.22","","<img src=""img/blue-n.png"" border=""10"">","null","trial","32","","0.8,0.2","3:go_c","0",""
"null","","html-keyboard-response","288","857395","0.0-6.0-2.22","","<div style=""font-size:60px;"">+</div>","null","","","","","","",""
"566.6250000067521","","image-keyboard-response","289","857964","0.0-6.0-0.23","","img/orange.png","32","trial","null","false","0.2,0.8","4:nogo_d","",""
"null","","html-keyboard-response","290","858972","0.0-6.0-1.23","","<img src=""img/orange-n.png"" border=""10"">","null","trial","null","","0.2,0.8","4:nogo_d","0",""
"null","","html-keyboard-response","291","859986","0.0-6.0-2.23","","<div style=""font-size:60px;"">+</div>","null","","","","","","",""
"583.0600000044797","","image-keyboard-response","292","860572","0.0-6.0-0.24","","img/pink.png","32","trial","32","true","0.8,0.2","1:go_a","",""
"null","","html-keyboard-response","293","861581","0.0-6.0-1.24","","<img src=""img/pink-r.png"" border=""10"">","null","trial","32","","0.8,0.2","1:go_a","1",""
"null","","html-keyboard-response","294","862595","0.0-6.0-2.24","","<div style=""font-size:60px;"">+</div>","null","","","","","","",""
"null","","image-keyboard-response","295","864108","0.0-6.0-0.25","","img/yellow.png","null","trial","null","true","0.2,0.8","2:nogo_b","",""
"null","","html-keyboard-response","296","865120","0.0-6.0-1.25","","<img src=""img/yellow-r.png"">","null","trial","null","","0.2,0.8","2:nogo_b","1",""
"null","","html-keyboard-response","297","866137","0.0-6.0-2.25","","<div style=""font-size:60px;"">+</div>","null","","","","","","",""
"null","","image-keyboard-response","298","867650","0.0-6.0-0.26","","img/blue.png","null","trial","32","false","0.8,0.2","3:go_c","",""
"null","","html-keyboard-response","299","868667","0.0-6.0-1.26","","<img src=""img/blue-n.png"">","null","trial","32","","0.8,0.2","3:go_c","0",""
"null","","html-keyboard-response","300","869679","0.0-6.0-2.26","","<div style=""font-size:60px;"">+</div>","null","","","","","","",""
"493.9799999992829","","image-keyboard-response","301","870175","0.0-6.0-0.27","","img/orange.png","32","trial","null","false","0.2,0.8","4:nogo_d","",""
"null","","html-keyboard-response","302","871183","0.0-6.0-1.27","","<img src=""img/orange-r.png"" border=""10"">","null","trial","null","","0.2,0.8","4:nogo_d","1",""
"null","","html-keyboard-response","303","872192","0.0-6.0-2.27","","<div style=""font-size:60px;"">+</div>","null","","","","","","",""
"null","","image-keyboard-response","304","873697","0.0-6.0-0.28","","img/yellow.png","null","trial","null","true","0.2,0.8","2:nogo_b","",""
"null","","html-keyboard-response","305","874715","0.0-6.0-1.28","","<img src=""img/yellow-r.png"">","null","trial","null","","0.2,0.8","2:nogo_b","1",""
"null","","html-keyboard-response","306","875728","0.0-6.0-2.28","","<div style=""font-size:60px;"">+</div>","null","","","","","","",""
"628.7899999879301","","image-keyboard-response","307","876359","0.0-6.0-0.29","","img/pink.png","32","trial","32","true","0.8,0.2","1:go_a","",""
"null","","html-keyboard-response","308","877366","0.0-6.0-1.29","","<img src=""img/pink-r.png"" border=""10"">","null","trial","32","","0.8,0.2","1:go_a","1",""
"null","","html-keyboard-response","309","878378","0.0-6.0-2.29","","<div style=""font-size:60px;"">+</div>","null","","","","","","",""
"1083.0449999775738","","image-keyboard-response","310","879464","0.0-6.0-0.30","","img/orange.png","32","trial","null","false","0.2,0.8","4:nogo_d","",""
"null","","html-keyboard-response","311","880477","0.0-6.0-1.30","","<img src=""img/orange-n.png"" border=""10"">","null","trial","null","","0.2,0.8","4:nogo_d","0",""
"null","","html-keyboard-response","312","881491","0.0-6.0-2.30","","<div style=""font-size:60px;"">+</div>","null","","","","","","",""
"null","","image-keyboard-response","313","882994","0.0-6.0-0.31","","img/blue.png","null","trial","32","false","0.8,0.2","3:go_c","",""
"null","","html-keyboard-response","314","883999","0.0-6.0-1.31","","<img src=""img/blue-n.png"">","null","trial","32","","0.8,0.2","3:go_c","0",""
"null","","html-keyboard-response","315","885005","0.0-6.0-2.31","","<div style=""font-size:60px;"">+</div>","null","","","","","","",""
"null","","image-keyboard-response","316","886513","0.0-6.0-0.32","","img/yellow.png","null","trial","null","true","0.2,0.8","2:nogo_b","",""
"null","","html-keyboard-response","317","887526","0.0-6.0-1.32","","<img src=""img/yellow-r.png"">","null","trial","null","","0.2,0.8","2:nogo_b","1",""
"null","","html-keyboard-response","318","888529","0.0-6.0-2.32","","<div style=""font-size:60px;"">+</div>","null","","","","","","",""
"1398.444999998901","","image-keyboard-response","319","889934","0.0-6.0-0.33","","img/blue.png","32","trial","32","true","0.8,0.2","3:go_c","",""
"null","","html-keyboard-response","320","890949","0.0-6.0-1.33","","<img src=""img/blue-r.png"" border=""10"">","null","trial","32","","0.8,0.2","3:go_c","1",""
"null","","html-keyboard-response","321","891966","0.0-6.0-2.33","","<div style=""font-size:60px;"">+</div>","null","","","","","","",""
"563.4650000138208","","image-keyboard-response","322","892531","0.0-6.0-0.34","","img/pink.png","32","trial","32","true","0.8,0.2","1:go_a","",""
"null","","html-keyboard-response","323","893547","0.0-6.0-1.34","","<img src=""img/pink-r.png"" border=""10"">","null","trial","32","","0.8,0.2","1:go_a","1",""
"null","","html-keyboard-response","324","894554","0.0-6.0-2.34","","<div style=""font-size:60px;"">+</div>","null","","","","","","",""
"null","","image-keyboard-response","325","896058","0.0-6.0-0.35","","img/orange.png","null","trial","null","true","0.2,0.8","4:nogo_d","",""
"null","","html-keyboard-response","326","897064","0.0-6.0-1.35","","<img src=""img/orange-r.png"">","null","trial","null","","0.2,0.8","4:nogo_d","1",""
"null","","html-keyboard-response","327","898081","0.0-6.0-2.35","","<div style=""font-size:60px;"">+</div>","null","","","","","","",""
"null","","image-keyboard-response","328","899587","0.0-6.0-0.36","","img/pink.png","null","trial","32","false","0.8,0.2","1:go_a","",""
"null","","html-keyboard-response","329","900603","0.0-6.0-1.36","","<img src=""img/pink-n.png"">","null","trial","32","","0.8,0.2","1:go_a","0",""
"null","","html-keyboard-response","330","901606","0.0-6.0-2.36","","<div style=""font-size:60px;"">+</div>","null","","","","","","",""
"602.4000000033993","","image-keyboard-response","331","902211","0.0-6.0-0.37","","img/yellow.png","32","trial","null","false","0.2,0.8","2:nogo_b","",""
"null","","html-keyboard-response","332","903223","0.0-6.0-1.37","","<img src=""img/yellow-n.png"" border=""10"">","null","trial","null","","0.2,0.8","2:nogo_b","0",""
"null","","html-keyboard-response","333","904227","0.0-6.0-2.37","","<div style=""font-size:60px;"">+</div>","null","","","","","","",""
"924.3650000134949","","image-keyboard-response","334","905154","0.0-6.0-0.38","","img/orange.png","32","trial","null","false","0.2,0.8","4:nogo_d","",""
"null","","html-keyboard-response","335","906168","0.0-6.0-1.38","","<img src=""img/orange-n.png"" border=""10"">","null","trial","null","","0.2,0.8","4:nogo_d","0",""
"null","","html-keyboard-response","336","907183","0.0-6.0-2.38","","<div style=""font-size:60px;"">+</div>","null","","","","","","",""
"null","","image-keyboard-response","337","908701","0.0-6.0-0.39","","img/blue.png","null","trial","32","false","0.8,0.2","3:go_c","",""
"null","","html-keyboard-response","338","909706","0.0-6.0-1.39","","<img src=""img/blue-n.png"">","null","trial","32","","0.8,0.2","3:go_c","0",""
"null","","html-keyboard-response","339","910721","0.0-6.0-2.39","","<div style=""font-size:60px;"">+</div>","null","","","","","","",""
"null","","image-keyboard-response","340","912225","0.0-6.0-0.40","","img/blue.png","null","trial","32","false","0.8,0.2","3:go_c","",""
"null","","html-keyboard-response","341","913231","0.0-6.0-1.40","","<img src=""img/blue-n.png"">","null","trial","32","","0.8,0.2","3:go_c","0",""
"null","","html-keyboard-response","342","914234","0.0-6.0-2.40","","<div style=""font-size:60px;"">+</div>","null","","","","","","",""
"511.2199999857694","","image-keyboard-response","343","914746","0.0-6.0-0.41","","img/orange.png","32","trial","null","false","0.2,0.8","4:nogo_d","",""
"null","","html-keyboard-response","344","915756","0.0-6.0-1.41","","<img src=""img/orange-n.png"" border=""10"">","null","trial","null","","0.2,0.8","4:nogo_d","0",""
"null","","html-keyboard-response","345","916757","0.0-6.0-2.41","","<div style=""font-size:60px;"">+</div>","null","","","","","","",""
"630.265000014333","","image-keyboard-response","346","917390","0.0-6.0-0.42","","img/pink.png","32","trial","32","true","0.8,0.2","1:go_a","",""
"null","","html-keyboard-response","347","918401","0.0-6.0-1.42","","<img src=""img/pink-n.png"" border=""10"">","null","trial","32","","0.8,0.2","1:go_a","0",""
"null","","html-keyboard-response","348","919412","0.0-6.0-2.42","","<div style=""font-size:60px;"">+</div>","null","","","","","","",""
"null","","image-keyboard-response","349","920917","0.0-6.0-0.43","","img/yellow.png","null","trial","null","true","0.2,0.8","2:nogo_b","",""
"null","","html-keyboard-response","350","921924","0.0-6.0-1.43","","<img src=""img/yellow-r.png"">","null","trial","null","","0.2,0.8","2:nogo_b","1",""
"null","","html-keyboard-response","351","922934","0.0-6.0-2.43","","<div style=""font-size:60px;"">+</div>","null","","","","","","",""
"533.770000009099","","image-keyboard-response","352","923469","0.0-6.0-0.44","","img/blue.png","32","trial","32","true","0.8,0.2","3:go_c","",""
"null","","html-keyboard-response","353","924487","0.0-6.0-1.44","","<img src=""img/blue-n.png"" border=""10"">","null","trial","32","","0.8,0.2","3:go_c","0",""
"null","","html-keyboard-response","354","925500","0.0-6.0-2.44","","<div style=""font-size:60px;"">+</div>","null","","","","","","",""
"517.6999999966938","","image-keyboard-response","355","926018","0.0-6.0-0.45","","img/pink.png","32","trial","32","true","0.8,0.2","1:go_a","",""
"null","","html-keyboard-response","356","927029","0.0-6.0-1.45","","<img src=""img/pink-r.png"" border=""10"">","null","trial","32","","0.8,0.2","1:go_a","1",""
"null","","html-keyboard-response","357","928031","0.0-6.0-2.45","","<div style=""font-size:60px;"">+</div>","null","","","","","","",""
"1486.6749999928288","","image-keyboard-response","358","929519","0.0-6.0-0.46","","img/yellow.png","32","trial","null","false","0.2,0.8","2:nogo_b","",""
"null","","html-keyboard-response","359","930535","0.0-6.0-1.46","","<img src=""img/yellow-r.png"" border=""10"">","null","trial","null","","0.2,0.8","2:nogo_b","1",""
"null","","html-keyboard-response","360","931538","0.0-6.0-2.46","","<div style=""font-size:60px;"">+</div>","null","","","","","","",""
"788.8800000073388","","image-keyboard-response","361","932329","0.0-6.0-0.47","","img/orange.png","32","trial","null","false","0.2,0.8","4:nogo_d","",""
"null","","html-keyboard-response","362","933344","0.0-6.0-1.47","","<img src=""img/orange-n.png"" border=""10"">","null","trial","null","","0.2,0.8","4:nogo_d","0",""
"null","","html-keyboard-response","363","934358","0.0-6.0-2.47","","<div style=""font-size:60px;"">+</div>","null","","","","","","",""
"603.0549999850336","","image-keyboard-response","364","934963","0.0-6.0-0.48","","img/pink.png","32","trial","32","true","0.8,0.2","1:go_a","",""
"null","","html-keyboard-response","365","935968","0.0-6.0-1.48","","<img src=""img/pink-n.png"" border=""10"">","null","trial","32","","0.8,0.2","1:go_a","0",""
"null","","html-keyboard-response","366","936981","0.0-6.0-2.48","","<div style=""font-size:60px;"">+</div>","null","","","","","","",""
"1427.140000014333","","image-keyboard-response","367","938410","0.0-6.0-0.49","","img/blue.png","32","trial","32","true","0.8,0.2","3:go_c","",""
"null","","html-keyboard-response","368","939416","0.0-6.0-1.49","","<img src=""img/blue-r.png"" border=""10"">","null","trial","32","","0.8,0.2","3:go_c","1",""
"null","","html-keyboard-response","369","940429","0.0-6.0-2.49","","<div style=""font-size:60px;"">+</div>","null","","","","","","",""
"null","","image-keyboard-response","370","941947","0.0-6.0-0.50","","img/orange.png","null","trial","null","true","0.2,0.8","4:nogo_d","",""
"null","","html-keyboard-response","371","942960","0.0-6.0-1.50","","<img src=""img/orange-r.png"">","null","trial","null","","0.2,0.8","4:nogo_d","1",""
"null","","html-keyboard-response","372","943967","0.0-6.0-2.50","","<div style=""font-size:60px;"">+</div>","null","","","","","","",""
"691.3599999970756","","image-keyboard-response","373","944660","0.0-6.0-0.51","","img/yellow.png","32","trial","null","false","0.2,0.8","2:nogo_b","",""
"null","","html-keyboard-response","374","945675","0.0-6.0-1.51","","<img src=""img/yellow-n.png"" border=""10"">","null","trial","null","","0.2,0.8","2:nogo_b","0",""
"null","","html-keyboard-response","375","946687","0.0-6.0-2.51","","<div style=""font-size:60px;"">+</div>","null","","","","","","",""
"1031.955000013113","","image-keyboard-response","376","947722","0.0-6.0-0.52","","img/blue.png","32","trial","32","true","0.8,0.2","3:go_c","",""
"null","","html-keyboard-response","377","948728","0.0-6.0-1.52","","<img src=""img/blue-r.png"" border=""10"">","null","trial","32","","0.8,0.2","3:go_c","1",""
"null","","html-keyboard-response","378","949731","0.0-6.0-2.52","","<div style=""font-size:60px;"">+</div>","null","","","","","","",""
"null","","image-keyboard-response","379","951235","0.0-6.0-0.53","","img/orange.png","null","trial","null","true","0.2,0.8","4:nogo_d","",""
"null","","html-keyboard-response","380","952250","0.0-6.0-1.53","","<img src=""img/orange-r.png"">","null","trial","null","","0.2,0.8","4:nogo_d","1",""
"null","","html-keyboard-response","381","953254","0.0-6.0-2.53","","<div style=""font-size:60px;"">+</div>","null","","","","","","",""
"582.7450000215322","","image-keyboard-response","382","953839","0.0-6.0-0.54","","img/pink.png","32","trial","32","true","0.8,0.2","1:go_a","",""
"null","","html-keyboard-response","383","954856","0.0-6.0-1.54","","<img src=""img/pink-r.png"" border=""10"">","null","trial","32","","0.8,0.2","1:go_a","1",""
"null","","html-keyboard-response","384","955871","0.0-6.0-2.54","","<div style=""font-size:60px;"">+</div>","null","","","","","","",""
"null","","image-keyboard-response","385","957386","0.0-6.0-0.55","","img/yellow.png","null","trial","null","true","0.2,0.8","2:nogo_b","",""
"null","","html-keyboard-response","386","958402","0.0-6.0-1.55","","<img src=""img/yellow-r.png"">","null","trial","null","","0.2,0.8","2:nogo_b","1",""
"null","","html-keyboard-response","387","959415","0.0-6.0-2.55","","<div style=""font-size:60px;"">+</div>","null","","","","","","",""
"512.4850000138395","","image-keyboard-response","388","959929","0.0-6.0-0.56","","img/pink.png","32","trial","32","true","0.8,0.2","1:go_a","",""
"null","","html-keyboard-response","389","960938","0.0-6.0-1.56","","<img src=""img/pink-r.png"" border=""10"">","null","trial","32","","0.8,0.2","1:go_a","1",""
"null","","html-keyboard-response","390","961951","0.0-6.0-2.56","","<div style=""font-size:60px;"">+</div>","null","","","","","","",""
"null","","image-keyboard-response","391","963459","0.0-6.0-0.57","","img/orange.png","null","trial","null","true","0.2,0.8","4:nogo_d","",""
"null","","html-keyboard-response","392","964475","0.0-6.0-1.57","","<img src=""img/orange-n.png"">","null","trial","null","","0.2,0.8","4:nogo_d","0",""
"null","","html-keyboard-response","393","965483","0.0-6.0-2.57","","<div style=""font-size:60px;"">+</div>","null","","","","","","",""
"810.1150000002235","","image-keyboard-response","394","966296","0.0-6.0-0.58","","img/yellow.png","32","trial","null","false","0.2,0.8","2:nogo_b","",""
"null","","html-keyboard-response","395","967301","0.0-6.0-1.58","","<img src=""img/yellow-n.png"" border=""10"">","null","trial","null","","0.2,0.8","2:nogo_b","0",""
"null","","html-keyboard-response","396","968314","0.0-6.0-2.58","","<div style=""font-size:60px;"">+</div>","null","","","","","","",""
"863.4000000020023","","image-keyboard-response","397","969180","0.0-6.0-0.59","","img/blue.png","32","trial","32","true","0.8,0.2","3:go_c","",""
"null","","html-keyboard-response","398","970194","0.0-6.0-1.59","","<img src=""img/blue-r.png"" border=""10"">","null","trial","32","","0.8,0.2","3:go_c","1",""
"null","","html-keyboard-response","399","971203","0.0-6.0-2.59","","<div style=""font-size:60px;"">+</div>","null","","","","","","",""
"853.8600000028964","","image-keyboard-response","400","972059","0.0-6.0-0.60","","img/pink.png","32","trial","32","true","0.8,0.2","1:go_a","",""
"null","","html-keyboard-response","401","973077","0.0-6.0-1.60","","<img src=""img/pink-r.png"" border=""10"">","null","trial","32","","0.8,0.2","1:go_a","1",""
"null","","html-keyboard-response","402","974089","0.0-6.0-2.60","","<div style=""font-size:60px;"">+</div>","null","","","","","","",""
"null","","image-keyboard-response","403","975598","0.0-6.0-0.61","","img/yellow.png","null","trial","null","true","0.2,0.8","2:nogo_b","",""
"null","","html-keyboard-response","404","976614","0.0-6.0-1.61","","<img src=""img/yellow-n.png"">","null","trial","null","","0.2,0.8","2:nogo_b","0",""
"null","","html-keyboard-response","405","977619","0.0-6.0-2.61","","<div style=""font-size:60px;"">+</div>","null","","","","","","",""
"619.4949999917299","","image-keyboard-response","406","978241","0.0-6.0-0.62","","img/orange.png","32","trial","null","false","0.2,0.8","4:nogo_d","",""
"null","","html-keyboard-response","407","979256","0.0-6.0-1.62","","<img src=""img/orange-n.png"" border=""10"">","null","trial","null","","0.2,0.8","4:nogo_d","0",""
"null","","html-keyboard-response","408","980260","0.0-6.0-2.62","","<div style=""font-size:60px;"">+</div>","null","","","","","","",""
"860.6399999989662","","image-keyboard-response","409","981123","0.0-6.0-0.63","","img/blue.png","32","trial","32","true","0.8,0.2","3:go_c","",""
"null","","html-keyboard-response","410","982135","0.0-6.0-1.63","","<img src=""img/blue-r.png"" border=""10"">","null","trial","32","","0.8,0.2","3:go_c","1",""
"null","","html-keyboard-response","411","983147","0.0-6.0-2.63","","<div style=""font-size:60px;"">+</div>","null","","","","","","",""
"577.5549999962095","","image-keyboard-response","412","983727","0.0-6.0-0.64","","img/pink.png","32","trial","32","true","0.8,0.2","1:go_a","",""
"null","","html-keyboard-response","413","984743","0.0-6.0-1.64","","<img src=""img/pink-r.png"" border=""10"">","null","trial","32","","0.8,0.2","1:go_a","1",""
"null","","html-keyboard-response","414","985752","0.0-6.0-2.64","","<div style=""font-size:60px;"">+</div>","null","","","","","","",""
"946.7699999804609","","image-keyboard-response","415","986701","0.0-6.0-0.65","","img/blue.png","32","trial","32","true","0.8,0.2","3:go_c","",""
"null","","html-keyboard-response","416","987719","0.0-6.0-1.65","","<img src=""img/blue-n.png"" border=""10"">","null","trial","32","","0.8,0.2","3:go_c","0",""
"null","","html-keyboard-response","417","988728","0.0-6.0-2.65","","<div style=""font-size:60px;"">+</div>","null","","","","","","",""
"740.3049999848008","","image-keyboard-response","418","989472","0.0-6.0-0.66","","img/yellow.png","32","trial","null","false","0.2,0.8","2:nogo_b","",""
"null","","html-keyboard-response","419","990483","0.0-6.0-1.66","","<img src=""img/yellow-n.png"" border=""10"">","null","trial","null","","0.2,0.8","2:nogo_b","0",""
"null","","html-keyboard-response","420","991494","0.0-6.0-2.66","","<div style=""font-size:60px;"">+</div>","null","","","","","","",""
"585.190000012517","","image-keyboard-response","421","992083","0.0-6.0-0.67","","img/orange.png","32","trial","null","false","0.2,0.8","4:nogo_d","",""
"null","","html-keyboard-response","422","993095","0.0-6.0-1.67","","<img src=""img/orange-n.png"" border=""10"">","null","trial","null","","0.2,0.8","4:nogo_d","0",""
"null","","html-keyboard-response","423","994112","0.0-6.0-2.67","","<div style=""font-size:60px;"">+</div>","null","","","","","","",""
"null","","image-keyboard-response","424","995619","0.0-6.0-0.68","","img/yellow.png","null","trial","null","true","0.2,0.8","2:nogo_b","",""
"null","","html-keyboard-response","425","996622","0.0-6.0-1.68","","<img src=""img/yellow-r.png"">","null","trial","null","","0.2,0.8","2:nogo_b","1",""
"null","","html-keyboard-response","426","997630","0.0-6.0-2.68","","<div style=""font-size:60px;"">+</div>","null","","","","","","",""
"566.9749999942724","","image-keyboard-response","427","998199","0.0-6.0-0.69","","img/blue.png","32","trial","32","true","0.8,0.2","3:go_c","",""
"null","","html-keyboard-response","428","999204","0.0-6.0-1.69","","<img src=""img/blue-n.png"" border=""10"">","null","trial","32","","0.8,0.2","3:go_c","0",""
"null","","html-keyboard-response","429","1000211","0.0-6.0-2.69","","<div style=""font-size:60px;"">+</div>","null","","","","","","",""
"534.1149999876507","","image-keyboard-response","430","1000747","0.0-6.0-0.70","","img/pink.png","32","trial","32","true","0.8,0.2","1:go_a","",""
"null","","html-keyboard-response","431","1001752","0.0-6.0-1.70","","<img src=""img/pink-r.png"" border=""10"">","null","trial","32","","0.8,0.2","1:go_a","1",""
"null","","html-keyboard-response","432","1002768","0.0-6.0-2.70","","<div style=""font-size:60px;"">+</div>","null","","","","","","",""
"1161.5599999786355","","image-keyboard-response","433","1003932","0.0-6.0-0.71","","img/orange.png","32","trial","null","false","0.2,0.8","4:nogo_d","",""
"null","","html-keyboard-response","434","1004943","0.0-6.0-1.71","","<img src=""img/orange-n.png"" border=""10"">","null","trial","null","","0.2,0.8","4:nogo_d","0",""
"null","","html-keyboard-response","435","1005952","0.0-6.0-2.71","","<div style=""font-size:60px;"">+</div>","null","","","","","","",""
"null","","image-keyboard-response","436","1007470","0.0-6.0-0.72","","img/yellow.png","null","trial","null","true","0.2,0.8","2:nogo_b","",""
"null","","html-keyboard-response","437","1008474","0.0-6.0-1.72","","<img src=""img/yellow-r.png"">","null","trial","null","","0.2,0.8","2:nogo_b","1",""
"null","","html-keyboard-response","438","1009482","0.0-6.0-2.72","","<div style=""font-size:60px;"">+</div>","null","","","","","","",""
"995.5149999877904","","image-keyboard-response","439","1010478","0.0-6.0-0.73","","img/blue.png","32","trial","32","true","0.8,0.2","3:go_c","",""
"null","","html-keyboard-response","440","1011495","0.0-6.0-1.73","","<img src=""img/blue-r.png"" border=""10"">","null","trial","32","","0.8,0.2","3:go_c","1",""
"null","","html-keyboard-response","441","1012510","0.0-6.0-2.73","","<div style=""font-size:60px;"">+</div>","null","","","","","","",""
"null","","image-keyboard-response","442","1014024","0.0-6.0-0.74","","img/orange.png","null","trial","null","true","0.2,0.8","4:nogo_d","",""
"null","","html-keyboard-response","443","1015034","0.0-6.0-1.74","","<img src=""img/orange-r.png"">","null","trial","null","","0.2,0.8","4:nogo_d","1",""
"null","","html-keyboard-response","444","1016038","0.0-6.0-2.74","","<div style=""font-size:60px;"">+</div>","null","","","","","","",""
"506.49499997962266","","image-keyboard-response","445","1016547","0.0-6.0-0.75","","img/pink.png","32","trial","32","true","0.8,0.2","1:go_a","",""
"null","","html-keyboard-response","446","1017561","0.0-6.0-1.75","","<img src=""img/pink-r.png"" border=""10"">","null","trial","32","","0.8,0.2","1:go_a","1",""
"null","","html-keyboard-response","447","1018574","0.0-6.0-2.75","","<div style=""font-size:60px;"">+</div>","null","","","","","","",""
"653.7100000132341","","image-keyboard-response","448","1019230","0.0-6.0-0.76","","img/pink.png","32","trial","32","true","0.8,0.2","1:go_a","",""
"null","","html-keyboard-response","449","1020238","0.0-6.0-1.76","","<img src=""img/pink-n.png"" border=""10"">","null","trial","32","","0.8,0.2","1:go_a","0",""
"null","","html-keyboard-response","450","1021243","0.0-6.0-2.76","","<div style=""font-size:60px;"">+</div>","null","","","","","","",""
"466.3799999980256","","image-keyboard-response","451","1021711","0.0-6.0-0.77","","img/yellow.png","32","trial","null","false","0.2,0.8","2:nogo_b","",""
"null","","html-keyboard-response","452","1022727","0.0-6.0-1.77","","<img src=""img/yellow-r.png"" border=""10"">","null","trial","null","","0.2,0.8","2:nogo_b","1",""
"null","","html-keyboard-response","453","1023742","0.0-6.0-2.77","","<div style=""font-size:60px;"">+</div>","null","","","","","","",""
"1040.8900000038557","","image-keyboard-response","454","1024785","0.0-6.0-0.78","","img/orange.png","32","trial","null","false","0.2,0.8","4:nogo_d","",""
"null","","html-keyboard-response","455","1025788","0.0-6.0-1.78","","<img src=""img/orange-n.png"" border=""10"">","null","trial","null","","0.2,0.8","4:nogo_d","0",""
"null","","html-keyboard-response","456","1026790","0.0-6.0-2.78","","<div style=""font-size:60px;"">+</div>","null","","","","","","",""
"null","","image-keyboard-response","457","1028302","0.0-6.0-0.79","","img/blue.png","null","trial","32","false","0.8,0.2","3:go_c","",""
"null","","html-keyboard-response","458","1029316","0.0-6.0-1.79","","<img src=""img/blue-n.png"">","null","trial","32","","0.8,0.2","3:go_c","0",""
"null","","html-keyboard-response","459","1030322","0.0-6.0-2.79","","<div style=""font-size:60px;"">+</div>","null","","","","","","",""
"null","","image-keyboard-response","460","1031840","0.0-6.0-0.80","","img/pink.png","null","trial","32","false","0.8,0.2","1:go_a","",""
"null","","html-keyboard-response","461","1032850","0.0-6.0-1.80","","<img src=""img/pink-r.png"">","null","trial","32","","0.8,0.2","1:go_a","1",""
"null","","html-keyboard-response","462","1033861","0.0-6.0-2.80","","<div style=""font-size:60px;"">+</div>","null","","","","","","",""
"596.7700000037439","","image-keyboard-response","463","1034454","0.0-6.0-0.81","","img/orange.png","32","trial","null","false","0.2,0.8","4:nogo_d","",""
"null","","html-keyboard-response","464","1035472","0.0-6.0-1.81","","<img src=""img/orange-n.png"" border=""10"">","null","trial","null","","0.2,0.8","4:nogo_d","0",""
"null","","html-keyboard-response","465","1036483","0.0-6.0-2.81","","<div style=""font-size:60px;"">+</div>","null","","","","","","",""
"null","","image-keyboard-response","466","1037989","0.0-6.0-0.82","","img/blue.png","null","trial","32","false","0.8,0.2","3:go_c","",""
"null","","html-keyboard-response","467","1039001","0.0-6.0-1.82","","<img src=""img/blue-n.png"">","null","trial","32","","0.8,0.2","3:go_c","0",""
"null","","html-keyboard-response","468","1040006","0.0-6.0-2.82","","<div style=""font-size:60px;"">+</div>","null","","","","","","",""
"488.4449999954086","","image-keyboard-response","469","1040497","0.0-6.0-0.83","","img/yellow.png","32","trial","null","false","0.2,0.8","2:nogo_b","",""
"null","","html-keyboard-response","470","1041502","0.0-6.0-1.83","","<img src=""img/yellow-n.png"" border=""10"">","null","trial","null","","0.2,0.8","2:nogo_b","0",""
"null","","html-keyboard-response","471","1042513","0.0-6.0-2.83","","<div style=""font-size:60px;"">+</div>","null","","","","","","",""
"null","","image-keyboard-response","472","1044022","0.0-6.0-0.84","","img/yellow.png","null","trial","null","true","0.2,0.8","2:nogo_b","",""
"null","","html-keyboard-response","473","1045035","0.0-6.0-1.84","","<img src=""img/yellow-r.png"">","null","trial","null","","0.2,0.8","2:nogo_b","1",""
"null","","html-keyboard-response","474","1046037","0.0-6.0-2.84","","<div style=""font-size:60px;"">+</div>","null","","","","","","",""
"428.684999991674","","image-keyboard-response","475","1046468","0.0-6.0-0.85","","img/pink.png","32","trial","32","true","0.8,0.2","1:go_a","",""
"null","","html-keyboard-response","476","1047478","0.0-6.0-1.85","","<img src=""img/pink-r.png"" border=""10"">","null","trial","32","","0.8,0.2","1:go_a","1",""
"null","","html-keyboard-response","477","1048488","0.0-6.0-2.85","","<div style=""font-size:60px;"">+</div>","null","","","","","","",""
"1051.115000009304","","image-keyboard-response","478","1049541","0.0-6.0-0.86","","img/orange.png","32","trial","null","false","0.2,0.8","4:nogo_d","",""
"null","","html-keyboard-response","479","1050549","0.0-6.0-1.86","","<img src=""img/orange-n.png"" border=""10"">","null","trial","null","","0.2,0.8","4:nogo_d","0",""
"null","","html-keyboard-response","480","1051559","0.0-6.0-2.86","","<div style=""font-size:60px;"">+</div>","null","","","","","","",""
"null","","image-keyboard-response","481","1053061","0.0-6.0-0.87","","img/blue.png","null","trial","32","false","0.8,0.2","3:go_c","",""
"null","","html-keyboard-response","482","1054069","0.0-6.0-1.87","","<img src=""img/blue-n.png"">","null","trial","32","","0.8,0.2","3:go_c","0",""
"null","","html-keyboard-response","483","1055083","0.0-6.0-2.87","","<div style=""font-size:60px;"">+</div>","null","","","","","","",""
"1170.5549999896903","","image-keyboard-response","484","1056256","0.0-6.0-0.88","","img/blue.png","32","trial","32","true","0.8,0.2","3:go_c","",""
"null","","html-keyboard-response","485","1057261","0.0-6.0-1.88","","<img src=""img/blue-r.png"" border=""10"">","null","trial","32","","0.8,0.2","3:go_c","1",""
"null","","html-keyboard-response","486","1058268","0.0-6.0-2.88","","<div style=""font-size:60px;"">+</div>","null","","","","","","",""
"765.0900000007823","","image-keyboard-response","487","1059034","0.0-6.0-0.89","","img/orange.png","32","trial","null","false","0.2,0.8","4:nogo_d","",""
"null","","html-keyboard-response","488","1060039","0.0-6.0-1.89","","<img src=""img/orange-n.png"" border=""10"">","null","trial","null","","0.2,0.8","4:nogo_d","0",""
"null","","html-keyboard-response","489","1061054","0.0-6.0-2.89","","<div style=""font-size:60px;"">+</div>","null","","","","","","",""
"1011.9000000122469","","image-keyboard-response","490","1062069","0.0-6.0-0.90","","img/yellow.png","32","trial","null","false","0.2,0.8","2:nogo_b","",""
"null","","html-keyboard-response","491","1063083","0.0-6.0-1.90","","<img src=""img/yellow-n.png"" border=""10"">","null","trial","null","","0.2,0.8","2:nogo_b","0",""
"null","","html-keyboard-response","492","1064086","0.0-6.0-2.90","","<div style=""font-size:60px;"">+</div>","null","","","","","","",""
"768.8850000267848","","image-keyboard-response","493","1064857","0.0-6.0-0.91","","img/pink.png","32","trial","32","true","0.8,0.2","1:go_a","",""
"null","","html-keyboard-response","494","1065863","0.0-6.0-1.91","","<img src=""img/pink-r.png"" border=""10"">","null","trial","32","","0.8,0.2","1:go_a","1",""
"null","","html-keyboard-response","495","1066878","0.0-6.0-2.91","","<div style=""font-size:60px;"">+</div>","null","","","","","","",""
"1038.3849999925587","","image-keyboard-response","496","1067919","0.0-6.0-0.92","","img/pink.png","32","trial","32","true","0.8,0.2","1:go_a","",""
"null","","html-keyboard-response","497","1068933","0.0-6.0-1.92","","<img src=""img/pink-r.png"" border=""10"">","null","trial","32","","0.8,0.2","1:go_a","1",""
"null","","html-keyboard-response","498","1069947","0.0-6.0-2.92","","<div style=""font-size:60px;"">+</div>","null","","","","","","",""
"743.7300000165123","","image-keyboard-response","499","1070693","0.0-6.0-0.93","","img/yellow.png","32","trial","null","false","0.2,0.8","2:nogo_b","",""
"null","","html-keyboard-response","500","1071701","0.0-6.0-1.93","","<img src=""img/yellow-n.png"" border=""10"">","null","trial","null","","0.2,0.8","2:nogo_b","0",""
"null","","html-keyboard-response","501","1072708","0.0-6.0-2.93","","<div style=""font-size:60px;"">+</div>","null","","","","","","",""
"null","","image-keyboard-response","502","1074222","0.0-6.0-0.94","","img/blue.png","null","trial","32","false","0.8,0.2","3:go_c","",""
"null","","html-keyboard-response","503","1075232","0.0-6.0-1.94","","<img src=""img/blue-n.png"">","null","trial","32","","0.8,0.2","3:go_c","0",""
"null","","html-keyboard-response","504","1076237","0.0-6.0-2.94","","<div style=""font-size:60px;"">+</div>","null","","","","","","",""
"586.5099999937229","","image-keyboard-response","505","1076826","0.0-6.0-0.95","","img/orange.png","32","trial","null","false","0.2,0.8","4:nogo_d","",""
"null","","html-keyboard-response","506","1077845","0.0-6.0-1.95","","<img src=""img/orange-r.png"" border=""10"">","null","trial","null","","0.2,0.8","4:nogo_d","1",""
"null","","html-keyboard-response","507","1078851","0.0-6.0-2.95","","<div style=""font-size:60px;"">+</div>","null","","","","","","",""
"806.7699999955948","","image-keyboard-response","508","1079660","0.0-6.0-0.96","","img/orange.png","32","trial","null","false","0.2,0.8","4:nogo_d","",""
"null","","html-keyboard-response","509","1080665","0.0-6.0-1.96","","<img src=""img/orange-n.png"" border=""10"">","null","trial","null","","0.2,0.8","4:nogo_d","0",""
"null","","html-keyboard-response","510","1081682","0.0-6.0-2.96","","<div style=""font-size:60px;"">+</div>","null","","","","","","",""
"null","","image-keyboard-response","511","1083191","0.0-6.0-0.97","","img/blue.png","null","trial","32","false","0.8,0.2","3:go_c","",""
"null","","html-keyboard-response","512","1084207","0.0-6.0-1.97","","<img src=""img/blue-r.png"">","null","trial","32","","0.8,0.2","3:go_c","1",""
"null","","html-keyboard-response","513","1085209","0.0-6.0-2.97","","<div style=""font-size:60px;"">+</div>","null","","","","","","",""
"397.0749999862164","","image-keyboard-response","514","1085610","0.0-6.0-0.98","","img/pink.png","32","trial","32","true","0.8,0.2","1:go_a","",""
"null","","html-keyboard-response","515","1086620","0.0-6.0-1.98","","<img src=""img/pink-r.png"" border=""10"">","null","trial","32","","0.8,0.2","1:go_a","1",""
"null","","html-keyboard-response","516","1087635","0.0-6.0-2.98","","<div style=""font-size:60px;"">+</div>","null","","","","","","",""
"null","","image-keyboard-response","517","1089146","0.0-6.0-0.99","","img/yellow.png","null","trial","null","true","0.2,0.8","2:nogo_b","",""
"null","","html-keyboard-response","518","1090162","0.0-6.0-1.99","","<img src=""img/yellow-r.png"">","null","trial","null","","0.2,0.8","2:nogo_b","1",""
"null","","html-keyboard-response","519","1091165","0.0-6.0-2.99","","<div style=""font-size:60px;"">+</div>","null","","","","","","",""
"824.4399999966845","","image-keyboard-response","520","1091992","0.0-6.0-0.100","","img/orange.png","32","trial","null","false","0.2,0.8","4:nogo_d","",""
"null","","html-keyboard-response","521","1093010","0.0-6.0-1.100","","<img src=""img/orange-n.png"" border=""10"">","null","trial","null","","0.2,0.8","4:nogo_d","0",""
"null","","html-keyboard-response","522","1094021","0.0-6.0-2.100","","<div style=""font-size:60px;"">+</div>","null","","","","","","",""
"713.900000002468","","image-keyboard-response","523","1094740","0.0-6.0-0.101","","img/blue.png","32","trial","32","true","0.8,0.2","3:go_c","",""
"null","","html-keyboard-response","524","1095751","0.0-6.0-1.101","","<img src=""img/blue-r.png"" border=""10"">","null","trial","32","","0.8,0.2","3:go_c","1",""
"null","","html-keyboard-response","525","1096755","0.0-6.0-2.101","","<div style=""font-size:60px;"">+</div>","null","","","","","","",""
"1227.69500000868","","image-keyboard-response","526","1097985","0.0-6.0-0.102","","img/yellow.png","32","trial","null","false","0.2,0.8","2:nogo_b","",""
"null","","html-keyboard-response","527","1098993","0.0-6.0-1.102","","<img src=""img/yellow-n.png"" border=""10"">","null","trial","null","","0.2,0.8","2:nogo_b","0",""
"null","","html-keyboard-response","528","1099998","0.0-6.0-2.102","","<div style=""font-size:60px;"">+</div>","null","","","","","","",""
"486.97999998694286","","image-keyboard-response","529","1100487","0.0-6.0-0.103","","img/pink.png","32","trial","32","true","0.8,0.2","1:go_a","",""
"null","","html-keyboard-response","530","1101492","0.0-6.0-1.103","","<img src=""img/pink-r.png"" border=""10"">","null","trial","32","","0.8,0.2","1:go_a","1",""
"null","","html-keyboard-response","531","1102508","0.0-6.0-2.103","","<div style=""font-size:60px;"">+</div>","null","","","","","","",""
"null","","image-keyboard-response","532","1104027","0.0-6.0-0.104","","img/orange.png","null","trial","null","true","0.2,0.8","4:nogo_d","",""
"null","","html-keyboard-response","533","1105039","0.0-6.0-1.104","","<img src=""img/orange-r.png"">","null","trial","null","","0.2,0.8","4:nogo_d","1",""
"null","","html-keyboard-response","534","1106051","0.0-6.0-2.104","","<div style=""font-size:60px;"">+</div>","null","","","","","","",""
"486.2450000073295","","image-keyboard-response","535","1106539","0.0-6.0-0.105","","img/blue.png","32","trial","32","true","0.8,0.2","3:go_c","",""
"null","","html-keyboard-response","536","1107549","0.0-6.0-1.105","","<img src=""img/blue-r.png"" border=""10"">","null","trial","32","","0.8,0.2","3:go_c","1",""
"null","","html-keyboard-response","537","1108560","0.0-6.0-2.105","","<div style=""font-size:60px;"">+</div>","null","","","","","","",""
"523.8649999955669","","image-keyboard-response","538","1109086","0.0-6.0-0.106","","img/pink.png","32","trial","32","true","0.8,0.2","1:go_a","",""
"null","","html-keyboard-response","539","1110098","0.0-6.0-1.106","","<img src=""img/pink-r.png"" border=""10"">","null","trial","32","","0.8,0.2","1:go_a","1",""
"null","","html-keyboard-response","540","1111101","0.0-6.0-2.106","","<div style=""font-size:60px;"">+</div>","null","","","","","","",""
"802.7500000025611","","image-keyboard-response","541","1111906","0.0-6.0-0.107","","img/yellow.png","32","trial","null","false","0.2,0.8","2:nogo_b","",""
"null","","html-keyboard-response","542","1112911","0.0-6.0-1.107","","<img src=""img/yellow-n.png"" border=""10"">","null","trial","null","","0.2,0.8","2:nogo_b","0",""
"null","","html-keyboard-response","543","1113927","0.0-6.0-2.107","","<div style=""font-size:60px;"">+</div>","null","","","","","","",""
"551.4599999878556","","image-keyboard-response","544","1114482","0.0-6.0-0.108","","img/pink.png","32","trial","32","true","0.8,0.2","1:go_a","",""
"null","","html-keyboard-response","545","1115495","0.0-6.0-1.108","","<img src=""img/pink-n.png"" border=""10"">","null","trial","32","","0.8,0.2","1:go_a","0",""
"null","","html-keyboard-response","546","1116505","0.0-6.0-2.108","","<div style=""font-size:60px;"">+</div>","null","","","","","","",""
"null","","image-keyboard-response","547","1118014","0.0-6.0-0.109","","img/yellow.png","null","trial","null","true","0.2,0.8","2:nogo_b","",""
"null","","html-keyboard-response","548","1119023","0.0-6.0-1.109","","<img src=""img/yellow-n.png"">","null","trial","null","","0.2,0.8","2:nogo_b","0",""
"null","","html-keyboard-response","549","1120033","0.0-6.0-2.109","","<div style=""font-size:60px;"">+</div>","null","","","","","","",""
"543.7849999871105","","image-keyboard-response","550","1120578","0.0-6.0-0.110","","img/blue.png","32","trial","32","true","0.8,0.2","3:go_c","",""
"null","","html-keyboard-response","551","1121592","0.0-6.0-1.110","","<img src=""img/blue-r.png"" border=""10"">","null","trial","32","","0.8,0.2","3:go_c","1",""
"null","","html-keyboard-response","552","1122607","0.0-6.0-2.110","","<div style=""font-size:60px;"">+</div>","null","","","","","","",""
"685.0050000066403","","image-keyboard-response","553","1123294","0.0-6.0-0.111","","img/orange.png","32","trial","null","false","0.2,0.8","4:nogo_d","",""
"null","","html-keyboard-response","554","1124313","0.0-6.0-1.111","","<img src=""img/orange-n.png"" border=""10"">","null","trial","null","","0.2,0.8","4:nogo_d","0",""
"null","","html-keyboard-response","555","1125322","0.0-6.0-2.111","","<div style=""font-size:60px;"">+</div>","null","","","","","","",""
"null","","image-keyboard-response","556","1126826","0.0-6.0-0.112","","img/orange.png","null","trial","null","true","0.2,0.8","4:nogo_d","",""
"null","","html-keyboard-response","557","1127839","0.0-6.0-1.112","","<img src=""img/orange-r.png"">","null","trial","null","","0.2,0.8","4:nogo_d","1",""
"null","","html-keyboard-response","558","1128853","0.0-6.0-2.112","","<div style=""font-size:60px;"">+</div>","null","","","","","","",""
"507.91499999468215","","image-keyboard-response","559","1129363","0.0-6.0-0.113","","img/pink.png","32","trial","32","true","0.8,0.2","1:go_a","",""
"null","","html-keyboard-response","560","1130375","0.0-6.0-1.113","","<img src=""img/pink-r.png"" border=""10"">","null","trial","32","","0.8,0.2","1:go_a","1",""
"null","","html-keyboard-response","561","1131382","0.0-6.0-2.113","","<div style=""font-size:60px;"">+</div>","null","","","","","","",""
"573.7599999993108","","image-keyboard-response","562","1131958","0.0-6.0-0.114","","img/blue.png","32","trial","32","true","0.8,0.2","3:go_c","",""
"null","","html-keyboard-response","563","1132963","0.0-6.0-1.114","","<img src=""img/blue-n.png"" border=""10"">","null","trial","32","","0.8,0.2","3:go_c","0",""
"null","","html-keyboard-response","564","1133969","0.0-6.0-2.114","","<div style=""font-size:60px;"">+</div>","null","","","","","","",""
"null","","image-keyboard-response","565","1135485","0.0-6.0-0.115","","img/yellow.png","null","trial","null","true","0.2,0.8","2:nogo_b","",""
"null","","html-keyboard-response","566","1136489","0.0-6.0-1.115","","<img src=""img/yellow-r.png"">","null","trial","null","","0.2,0.8","2:nogo_b","1",""
"null","","html-keyboard-response","567","1137499","0.0-6.0-2.115","","<div style=""font-size:60px;"">+</div>","null","","","","","","",""
"561.8300000205636","","image-keyboard-response","568","1138063","0.0-6.0-0.116","","img/blue.png","32","trial","32","true","0.8,0.2","3:go_c","",""
"null","","html-keyboard-response","569","1139082","0.0-6.0-1.116","","<img src=""img/blue-r.png"" border=""10"">","null","trial","32","","0.8,0.2","3:go_c","1",""
"null","","html-keyboard-response","570","1140084","0.0-6.0-2.116","","<div style=""font-size:60px;"">+</div>","null","","","","","","",""
"650.6999999983236","","image-keyboard-response","571","1140737","0.0-6.0-0.117","","img/pink.png","32","trial","32","true","0.8,0.2","1:go_a","",""
"null","","html-keyboard-response","572","1141745","0.0-6.0-1.117","","<img src=""img/pink-n.png"" border=""10"">","null","trial","32","","0.8,0.2","1:go_a","0",""
"null","","html-keyboard-response","573","1142758","0.0-6.0-2.117","","<div style=""font-size:60px;"">+</div>","null","","","","","","",""
"877.1399999968708","","image-keyboard-response","574","1143639","0.0-6.0-0.118","","img/orange.png","32","trial","null","false","0.2,0.8","4:nogo_d","",""
"null","","html-keyboard-response","575","1144647","0.0-6.0-1.118","","<img src=""img/orange-n.png"" border=""10"">","null","trial","null","","0.2,0.8","4:nogo_d","0",""
"null","","html-keyboard-response","576","1145652","0.0-6.0-2.118","","<div style=""font-size:60px;"">+</div>","null","","","","","","",""
"856.4349999942351","","image-keyboard-response","577","1146510","0.0-6.0-0.119","","img/yellow.png","32","trial","null","false","0.2,0.8","2:nogo_b","",""
"null","","html-keyboard-response","578","1147525","0.0-6.0-1.119","","<img src=""img/yellow-r.png"" border=""10"">","null","trial","null","","0.2,0.8","2:nogo_b","1",""
"null","","html-keyboard-response","579","1148542","0.0-6.0-2.119","","<div style=""font-size:60px;"">+</div>","null","","","","","","",""
"56704.90000001155","","instructions","580","1205253","0.0-7.0","[{""page_index"":0,""viewing_time"":56704.274999996414}]","","","","","","","","",""
"1133.979999984149","","image-keyboard-response","581","1206390","0.0-8.0-0.0","","img/orange.png","32","trial","null","false","0.4,0.6","4:nogo_d","",""
"null","","html-keyboard-response","582","1207410","0.0-8.0-1.0","","<img src=""img/orange-n.png"" border=""10"">","null","trial","null","","0.4,0.6","4:nogo_d","0",""
"null","","html-keyboard-response","583","1208417","0.0-8.0-2.0","","<div style=""font-size:60px;"">+</div>","null","","","","","","",""
"881.5799999865703","","image-keyboard-response","584","1209301","0.0-8.0-0.1","","img/yellow.png","32","trial","32","true","0.8,0.2","1:go_a","",""
"null","","html-keyboard-response","585","1210307","0.0-8.0-1.1","","<img src=""img/yellow-r.png"" border=""10"">","null","trial","32","","0.8,0.2","1:go_a","1",""
"null","","html-keyboard-response","586","1211318","0.0-8.0-2.1","","<div style=""font-size:60px;"">+</div>","null","","","","","","",""
"471.4549999916926","","image-keyboard-response","587","1211798","0.0-8.0-0.2","","img/blue.png","32","trial","32","true","0.6,0.4","3:go_c","",""
"null","","html-keyboard-response","588","1212811","0.0-8.0-1.2","","<img src=""img/blue-r.png"" border=""10"">","null","trial","32","","0.6,0.4","3:go_c","1",""
"null","","html-keyboard-response","589","1213819","0.0-8.0-2.2","","<div style=""font-size:60px;"">+</div>","null","","","","","","",""
"940.2750000008382","","image-keyboard-response","590","1214760","0.0-8.0-0.3","","img/grey.png","32","trial","null","false","0.2,0.8","2:nogo_b","",""
"null","","html-keyboard-response","591","1215770","0.0-8.0-1.3","","<img src=""img/grey-n.png"" border=""10"">","null","trial","null","","0.2,0.8","2:nogo_b","0",""
"null","","html-keyboard-response","592","1216780","0.0-8.0-2.3","","<div style=""font-size:60px;"">+</div>","null","","","","","","",""
"802.5699999998324","","image-keyboard-response","593","1217585","0.0-8.0-0.4","","img/orange.png","32","trial","null","false","0.4,0.6","4:nogo_d","",""
"null","","html-keyboard-response","594","1218588","0.0-8.0-1.4","","<img src=""img/orange-n.png"" border=""10"">","null","trial","null","","0.4,0.6","4:nogo_d","0",""
"null","","html-keyboard-response","595","1219606","0.0-8.0-2.4","","<div style=""font-size:60px;"">+</div>","null","","","","","","",""
"492.115000000922","","image-keyboard-response","596","1220101","0.0-8.0-0.5","","img/blue.png","32","trial","32","true","0.6,0.4","3:go_c","",""
"null","","html-keyboard-response","597","1221110","0.0-8.0-1.5","","<img src=""img/blue-n.png"" border=""10"">","null","trial","32","","0.6,0.4","3:go_c","0",""
"null","","html-keyboard-response","598","1222117","0.0-8.0-2.5","","<div style=""font-size:60px;"">+</div>","null","","","","","","",""
"null","","image-keyboard-response","599","1223632","0.0-8.0-0.6","","img/grey.png","null","trial","null","true","0.2,0.8","2:nogo_b","",""
"null","","html-keyboard-response","600","1224638","0.0-8.0-1.6","","<img src=""img/grey-r.png"">","null","trial","null","","0.2,0.8","2:nogo_b","1",""
"null","","html-keyboard-response","601","1225648","0.0-8.0-2.6","","<div style=""font-size:60px;"">+</div>","null","","","","","","",""
"489.54500001855195","","image-keyboard-response","602","1226138","0.0-8.0-0.7","","img/yellow.png","32","trial","32","true","0.8,0.2","1:go_a","",""
"null","","html-keyboard-response","603","1227147","0.0-8.0-1.7","","<img src=""img/yellow-n.png"" border=""10"">","null","trial","32","","0.8,0.2","1:go_a","0",""
"null","","html-keyboard-response","604","1228155","0.0-8.0-2.7","","<div style=""font-size:60px;"">+</div>","null","","","","","","",""
"802.9549999919254","","image-keyboard-response","605","1228960","0.0-8.0-0.8","","img/grey.png","32","trial","null","false","0.2,0.8","2:nogo_b","",""
"null","","html-keyboard-response","606","1229966","0.0-8.0-1.8","","<img src=""img/grey-n.png"" border=""10"">","null","trial","null","","0.2,0.8","2:nogo_b","0",""
"null","","html-keyboard-response","607","1230970","0.0-8.0-2.8","","<div style=""font-size:60px;"">+</div>","null","","","","","","",""
"765.5500000109896","","image-keyboard-response","608","1231738","0.0-8.0-0.9","","img/orange.png","32","trial","null","false","0.4,0.6","4:nogo_d","",""
"null","","html-keyboard-response","609","1232748","0.0-8.0-1.9","","<img src=""img/orange-r.png"" border=""10"">","null","trial","null","","0.4,0.6","4:nogo_d","1",""
"null","","html-keyboard-response","610","1233760","0.0-8.0-2.9","","<div style=""font-size:60px;"">+</div>","null","","","","","","",""
"651.1549999995623","","image-keyboard-response","611","1234413","0.0-8.0-0.10","","img/blue.png","32","trial","32","true","0.6,0.4","3:go_c","",""
"null","","html-keyboard-response","612","1235433","0.0-8.0-1.10","","<img src=""img/blue-n.png"" border=""10"">","null","trial","32","","0.6,0.4","3:go_c","0",""
"null","","html-keyboard-response","613","1236448","0.0-8.0-2.10","","<div style=""font-size:60px;"">+</div>","null","","","","","","",""
"899.0300000004936","","image-keyboard-response","614","1237348","0.0-8.0-0.11","","img/yellow.png","32","trial","32","true","0.8,0.2","1:go_a","",""
"null","","html-keyboard-response","615","1238366","0.0-8.0-1.11","","<img src=""img/yellow-r.png"" border=""10"">","null","trial","32","","0.8,0.2","1:go_a","1",""
"null","","html-keyboard-response","616","1239376","0.0-8.0-2.11","","<div style=""font-size:60px;"">+</div>","null","","","","","","",""
"null","","image-keyboard-response","617","1240882","0.0-8.0-0.12","","img/orange.png","null","trial","null","true","0.4,0.6","4:nogo_d","",""
"null","","html-keyboard-response","618","1241893","0.0-8.0-1.12","","<img src=""img/orange-n.png"">","null","trial","null","","0.4,0.6","4:nogo_d","0",""
"null","","html-keyboard-response","619","1242903","0.0-8.0-2.12","","<div style=""font-size:60px;"">+</div>","null","","","","","","",""
"452.385000011418","","image-keyboard-response","620","1243357","0.0-8.0-0.13","","img/yellow.png","32","trial","32","true","0.8,0.2","1:go_a","",""
"null","","html-keyboard-response","621","1244376","0.0-8.0-1.13","","<img src=""img/yellow-n.png"" border=""10"">","null","trial","32","","0.8,0.2","1:go_a","0",""
"null","","html-keyboard-response","622","1245386","0.0-8.0-2.13","","<div style=""font-size:60px;"">+</div>","null","","","","","","",""
"698.3949999848846","","image-keyboard-response","623","1246088","0.0-8.0-0.14","","img/grey.png","32","trial","null","false","0.2,0.8","2:nogo_b","",""
"null","","html-keyboard-response","624","1247102","0.0-8.0-1.14","","<img src=""img/grey-n.png"" border=""10"">","null","trial","null","","0.2,0.8","2:nogo_b","0",""
"null","","html-keyboard-response","625","1248111","0.0-8.0-2.14","","<div style=""font-size:60px;"">+</div>","null","","","","","","",""
"null","","image-keyboard-response","626","1249623","0.0-8.0-0.15","","img/blue.png","null","trial","32","false","0.6,0.4","3:go_c","",""
"null","","html-keyboard-response","627","1250640","0.0-8.0-1.15","","<img src=""img/blue-n.png"">","null","trial","32","","0.6,0.4","3:go_c","0",""
"null","","html-keyboard-response","628","1251658","0.0-8.0-2.15","","<div style=""font-size:60px;"">+</div>","null","","","","","","",""
"482.3599999945145","","image-keyboard-response","629","1252143","0.0-8.0-0.16","","img/yellow.png","32","trial","32","true","0.8,0.2","1:go_a","",""
"null","","html-keyboard-response","630","1253151","0.0-8.0-1.16","","<img src=""img/yellow-r.png"" border=""10"">","null","trial","32","","0.8,0.2","1:go_a","1",""
"null","","html-keyboard-response","631","1254154","0.0-8.0-2.16","","<div style=""font-size:60px;"">+</div>","null","","","","","","",""
"null","","image-keyboard-response","632","1255665","0.0-8.0-0.17","","img/grey.png","null","trial","null","true","0.2,0.8","2:nogo_b","",""
"null","","html-keyboard-response","633","1256675","0.0-8.0-1.17","","<img src=""img/grey-r.png"">","null","trial","null","","0.2,0.8","2:nogo_b","1",""
"null","","html-keyboard-response","634","1257687","0.0-8.0-2.17","","<div style=""font-size:60px;"">+</div>","null","","","","","","",""
"519.9749999737833","","image-keyboard-response","635","1258208","0.0-8.0-0.18","","img/blue.png","32","trial","32","true","0.6,0.4","3:go_c","",""
"null","","html-keyboard-response","636","1259214","0.0-8.0-1.18","","<img src=""img/blue-r.png"" border=""10"">","null","trial","32","","0.6,0.4","3:go_c","1",""
"null","","html-keyboard-response","637","1260224","0.0-8.0-2.18","","<div style=""font-size:60px;"">+</div>","null","","","","","","",""
"null","","image-keyboard-response","638","1261730","0.0-8.0-0.19","","img/orange.png","null","trial","null","true","0.4,0.6","4:nogo_d","",""
"null","","html-keyboard-response","639","1262738","0.0-8.0-1.19","","<img src=""img/orange-r.png"">","null","trial","null","","0.4,0.6","4:nogo_d","1",""
"null","","html-keyboard-response","640","1263748","0.0-8.0-2.19","","<div style=""font-size:60px;"">+</div>","null","","","","","","",""
"null","","image-keyboard-response","641","1265256","0.0-8.0-0.20","","img/blue.png","null","trial","32","false","0.6,0.4","3:go_c","",""
"null","","html-keyboard-response","642","1266266","0.0-8.0-1.20","","<img src=""img/blue-n.png"">","null","trial","32","","0.6,0.4","3:go_c","0",""
"null","","html-keyboard-response","643","1267280","0.0-8.0-2.20","","<div style=""font-size:60px;"">+</div>","null","","","","","","",""
"602.1100000070874","","image-keyboard-response","644","1267884","0.0-8.0-0.21","","img/orange.png","32","trial","null","false","0.4,0.6","4:nogo_d","",""
"null","","html-keyboard-response","645","1268890","0.0-8.0-1.21","","<img src=""img/orange-n.png"" border=""10"">","null","trial","null","","0.4,0.6","4:nogo_d","0",""
"null","","html-keyboard-response","646","1269902","0.0-8.0-2.21","","<div style=""font-size:60px;"">+</div>","null","","","","","","",""
"678.459999995539","","image-keyboard-response","647","1270582","0.0-8.0-0.22","","img/yellow.png","32","trial","32","true","0.8,0.2","1:go_a","",""
"null","","html-keyboard-response","648","1271596","0.0-8.0-1.22","","<img src=""img/yellow-n.png"" border=""10"">","null","trial","32","","0.8,0.2","1:go_a","0",""
"null","","html-keyboard-response","649","1272609","0.0-8.0-2.22","","<div style=""font-size:60px;"">+</div>","null","","","","","","",""
"997.6350000069942","","image-keyboard-response","650","1273608","0.0-8.0-0.23","","img/grey.png","32","trial","null","false","0.2,0.8","2:nogo_b","",""
"null","","html-keyboard-response","651","1274622","0.0-8.0-1.23","","<img src=""img/grey-n.png"" border=""10"">","null","trial","null","","0.2,0.8","2:nogo_b","0",""
"null","","html-keyboard-response","652","1275625","0.0-8.0-2.23","","<div style=""font-size:60px;"">+</div>","null","","","","","","",""
"556.4350000058766","","image-keyboard-response","653","1276183","0.0-8.0-0.24","","img/blue.png","32","trial","32","true","0.6,0.4","3:go_c","",""
"null","","html-keyboard-response","654","1277201","0.0-8.0-1.24","","<img src=""img/blue-n.png"" border=""10"">","null","trial","32","","0.6,0.4","3:go_c","0",""
"null","","html-keyboard-response","655","1278208","0.0-8.0-2.24","","<div style=""font-size:60px;"">+</div>","null","","","","","","",""
"433.355000015581","","image-keyboard-response","656","1278644","0.0-8.0-0.25","","img/orange.png","32","trial","null","false","0.4,0.6","4:nogo_d","",""
"null","","html-keyboard-response","657","1279655","0.0-8.0-1.25","","<img src=""img/orange-r.png"" border=""10"">","null","trial","null","","0.4,0.6","4:nogo_d","1",""
"null","","html-keyboard-response","658","1280673","0.0-8.0-2.25","","<div style=""font-size:60px;"">+</div>","null","","","","","","",""
"954.265000007581","","image-keyboard-response","659","1281629","0.0-8.0-0.26","","img/yellow.png","32","trial","32","true","0.8,0.2","1:go_a","",""
"null","","html-keyboard-response","660","1282639","0.0-8.0-1.26","","<img src=""img/yellow-n.png"" border=""10"">","null","trial","32","","0.8,0.2","1:go_a","0",""
"null","","html-keyboard-response","661","1283650","0.0-8.0-2.26","","<div style=""font-size:60px;"">+</div>","null","","","","","","",""
"745.5799999879673","","image-keyboard-response","662","1284396","0.0-8.0-0.27","","img/grey.png","32","trial","null","false","0.2,0.8","2:nogo_b","",""
"null","","html-keyboard-response","663","1285410","0.0-8.0-1.27","","<img src=""img/grey-n.png"" border=""10"">","null","trial","null","","0.2,0.8","2:nogo_b","0",""
"null","","html-keyboard-response","664","1286419","0.0-8.0-2.27","","<div style=""font-size:60px;"">+</div>","null","","","","","","",""
"765.9500000008848","","image-keyboard-response","665","1287186","0.0-8.0-0.28","","img/orange.png","32","trial","null","false","0.4,0.6","4:nogo_d","",""
"null","","html-keyboard-response","666","1288196","0.0-8.0-1.28","","<img src=""img/orange-n.png"" border=""10"">","null","trial","null","","0.4,0.6","4:nogo_d","0",""
"null","","html-keyboard-response","667","1289213","0.0-8.0-2.28","","<div style=""font-size:60px;"">+</div>","null","","","","","","",""
"null","","image-keyboard-response","668","1290723","0.0-8.0-0.29","","img/yellow.png","null","trial","32","false","0.8,0.2","1:go_a","",""
"null","","html-keyboard-response","669","1291734","0.0-8.0-1.29","","<img src=""img/yellow-r.png"">","null","trial","32","","0.8,0.2","1:go_a","1",""
"null","","html-keyboard-response","670","1292748","0.0-8.0-2.29","","<div style=""font-size:60px;"">+</div>","null","","","","","","",""
"745.4999999899883","","image-keyboard-response","671","1293496","0.0-8.0-0.30","","img/grey.png","32","trial","null","false","0.2,0.8","2:nogo_b","",""
"null","","html-keyboard-response","672","1294506","0.0-8.0-1.30","","<img src=""img/grey-n.png"" border=""10"">","null","trial","null","","0.2,0.8","2:nogo_b","0",""
