"rt","url","trial_type","trial_index","time_elapsed","internal_node_id","view_history","stimulus","key_press","test_part","correct_response","correct","use_rew","which_stim","reward","responses"
"3546.39999999851","consent.html","external-html","0","3777","0.0-0.0","","","","","","","","","",""
"139550","","instructions","1","143331","0.0-1.0","[{""page_index"":0,""viewing_time"":5267.10000000149},{""page_index"":1,""viewing_time"":30673.800000000745},{""page_index"":2,""viewing_time"":12439.699999999255},{""page_index"":3,""viewing_time"":30514.699999999255},{""page_index"":4,""viewing_time"":25127.39999999851},{""page_index"":5,""viewing_time"":13776.10000000149},{""page_index"":6,""viewing_time"":21749.89999999851}]","","","","","","","","",""
"null","","image-keyboard-response","2","144837","0.0-2.0-0.0","","img/test3.PNG","null","practice","null","true","","","",""
"null","","html-keyboard-response","3","145843","0.0-2.0-1.0","","<img src=""img/test3-reward.PNG"">","null","","","","","","",""
"null","","html-keyboard-response","4","146847","0.0-2.0-2.0","","<div style=""font-size:60px;"">+</div>","null","","","","","","",""
"496.5999999977648","","image-keyboard-response","5","147346","0.0-2.0-0.1","","img/test1.PNG","32","practice","32","true","","","",""
"null","","html-keyboard-response","6","148351","0.0-2.0-1.1","","<img src=""img/test1-reward.PNG"" border=""10px; grey"">","null","","","","","","",""
"null","","html-keyboard-response","7","149356","0.0-2.0-2.1","","<div style=""font-size:60px;"">+</div>","null","","","","","","",""
"null","","image-keyboard-response","8","150861","0.0-2.0-0.2","","img/test2.PNG","null","practice","null","true","","","",""
"null","","html-keyboard-response","9","151863","0.0-2.0-1.2","","<img src=""img/test2-reward.PNG"">","null","","","","","","",""
"null","","html-keyboard-response","10","152866","0.0-2.0-2.2","","<div style=""font-size:60px;"">+</div>","null","","","","","","",""
"461.8999999985099","","image-keyboard-response","11","153329","0.0-2.0-0.3","","img/test1.PNG","32","practice","32","true","","","",""
"null","","html-keyboard-response","12","154335","0.0-2.0-1.3","","<img src=""img/test1-reward.PNG"" border=""10px; grey"">","null","","","","","","",""
"null","","html-keyboard-response","13","155337","0.0-2.0-2.3","","<div style=""font-size:60px;"">+</div>","null","","","","","","",""
"null","","image-keyboard-response","14","156842","0.0-2.0-0.4","","img/test2.PNG","null","practice","null","true","","","",""
"null","","html-keyboard-response","15","157845","0.0-2.0-1.4","","<img src=""img/test2-reward.PNG"">","null","","","","","","",""
"null","","html-keyboard-response","16","158847","0.0-2.0-2.4","","<div style=""font-size:60px;"">+</div>","null","","","","","","",""
"null","","image-keyboard-response","17","160349","0.0-2.0-0.5","","img/test3.PNG","null","practice","null","true","","","",""
"null","","html-keyboard-response","18","161351","0.0-2.0-1.5","","<img src=""img/test3-reward.PNG"">","null","","","","","","",""
"null","","html-keyboard-response","19","162357","0.0-2.0-2.5","","<div style=""font-size:60px;"">+</div>","null","","","","","","",""
"null","","image-keyboard-response","20","163859","0.0-2.0-0.6","","img/test2.PNG","null","practice","null","true","","","",""
"null","","html-keyboard-response","21","164863","0.0-2.0-1.6","","<img src=""img/test2-reward.PNG"">","null","","","","","","",""
"null","","html-keyboard-response","22","165865","0.0-2.0-2.6","","<div style=""font-size:60px;"">+</div>","null","","","","","","",""
"null","","image-keyboard-response","23","167368","0.0-2.0-0.7","","img/test3.PNG","null","practice","null","true","","","",""
"null","","html-keyboard-response","24","168370","0.0-2.0-1.7","","<img src=""img/test3-reward.PNG"">","null","","","","","","",""
"null","","html-keyboard-response","25","169374","0.0-2.0-2.7","","<div style=""font-size:60px;"">+</div>","null","","","","","","",""
"409.20000000298023","","image-keyboard-response","26","169785","0.0-2.0-0.8","","img/test1.PNG","32","practice","32","true","","","",""
"null","","html-keyboard-response","27","170790","0.0-2.0-1.8","","<img src=""img/test1-reward.PNG"" border=""10px; grey"">","null","","","","","","",""
"null","","html-keyboard-response","28","171793","0.0-2.0-2.8","","<div style=""font-size:60px;"">+</div>","null","","","","","","",""
"null","","image-keyboard-response","29","173295","0.0-2.0-0.9","","img/test2.PNG","null","practice","null","true","","","",""
"null","","html-keyboard-response","30","174299","0.0-2.0-1.9","","<img src=""img/test2-reward.PNG"">","null","","","","","","",""
"null","","html-keyboard-response","31","175304","0.0-2.0-2.9","","<div style=""font-size:60px;"">+</div>","null","","","","","","",""
"495.6000000014901","","image-keyboard-response","32","175800","0.0-2.0-0.10","","img/test1.PNG","32","practice","32","true","","","",""
"null","","html-keyboard-response","33","176804","0.0-2.0-1.10","","<img src=""img/test1-reward.PNG"" border=""10px; grey"">","null","","","","","","",""
"null","","html-keyboard-response","34","177808","0.0-2.0-2.10","","<div style=""font-size:60px;"">+</div>","null","","","","","","",""
"null","","image-keyboard-response","35","179309","0.0-2.0-0.11","","img/test3.PNG","null","practice","null","true","","","",""
"null","","html-keyboard-response","36","180311","0.0-2.0-1.11","","<img src=""img/test3-reward.PNG"">","null","","","","","","",""
"null","","html-keyboard-response","37","181314","0.0-2.0-2.11","","<div style=""font-size:60px;"">+</div>","null","","","","","","",""
"3094.60000000149","","instructions","38","184409","0.0-3.0","[{""page_index"":0,""viewing_time"":3094.199999999255}]","","","","","","","","",""
"733.5","","image-keyboard-response","39","185144","0.0-4.0-0.0","","img/blue.png","32","trial","null","false","0.2,0.8","2:nogo_b","",""
"null","","html-keyboard-response","40","186150","0.0-4.0-1.0","","<img src=""img/blue-n.png"" border=""10"">","null","trial","null","","0.2,0.8","2:nogo_b","0",""
"null","","html-keyboard-response","41","187153","0.0-4.0-2.0","","<div style=""font-size:60px;"">+</div>","null","","","","","","",""
"693.6999999992549","","image-keyboard-response","42","187848","0.0-4.0-0.1","","img/grey.png","32","trial","32","true","0.8,0.2","1:go_a","",""
"null","","html-keyboard-response","43","188850","0.0-4.0-1.1","","<img src=""img/grey-r.png"" border=""10"">","null","trial","32","","0.8,0.2","1:go_a","1",""
"null","","html-keyboard-response","44","189851","0.0-4.0-2.1","","<div style=""font-size:60px;"">+</div>","null","","","","","","",""
"null","","image-keyboard-response","45","191356","0.0-4.0-0.2","","img/blue.png","null","trial","null","true","0.2,0.8","2:nogo_b","",""
"null","","html-keyboard-response","46","192359","0.0-4.0-1.2","","<img src=""img/blue-r.png"">","null","trial","null","","0.2,0.8","2:nogo_b","1",""
"null","","html-keyboard-response","47","193364","0.0-4.0-2.2","","<div style=""font-size:60px;"">+</div>","null","","","","","","",""
"467.79999999701977","","image-keyboard-response","48","193833","0.0-4.0-0.3","","img/grey.png","32","trial","32","true","0.8,0.2","1:go_a","",""
"null","","html-keyboard-response","49","194835","0.0-4.0-1.3","","<img src=""img/grey-n.png"" border=""10"">","null","trial","32","","0.8,0.2","1:go_a","0",""
"null","","html-keyboard-response","50","195840","0.0-4.0-2.3","","<div style=""font-size:60px;"">+</div>","null","","","","","","",""
"863.5","","image-keyboard-response","51","196705","0.0-4.0-0.4","","img/blue.png","32","trial","null","false","0.2,0.8","2:nogo_b","",""
"null","","html-keyboard-response","52","197709","0.0-4.0-1.4","","<img src=""img/blue-n.png"" border=""10"">","null","trial","null","","0.2,0.8","2:nogo_b","0",""
"null","","html-keyboard-response","53","198712","0.0-4.0-2.4","","<div style=""font-size:60px;"">+</div>","null","","","","","","",""
"566.3000000007451","","image-keyboard-response","54","199280","0.0-4.0-0.5","","img/grey.png","32","trial","32","true","0.8,0.2","1:go_a","",""
"null","","html-keyboard-response","55","200284","0.0-4.0-1.5","","<img src=""img/grey-r.png"" border=""10"">","null","trial","32","","0.8,0.2","1:go_a","1",""
"null","","html-keyboard-response","56","201288","0.0-4.0-2.5","","<div style=""font-size:60px;"">+</div>","null","","","","","","",""
"758.8999999985099","","image-keyboard-response","57","202048","0.0-4.0-0.6","","img/grey.png","32","trial","32","true","0.8,0.2","1:go_a","",""
"null","","html-keyboard-response","58","203053","0.0-4.0-1.6","","<img src=""img/grey-r.png"" border=""10"">","null","trial","32","","0.8,0.2","1:go_a","1",""
"null","","html-keyboard-response","59","204056","0.0-4.0-2.6","","<div style=""font-size:60px;"">+</div>","null","","","","","","",""
"null","","image-keyboard-response","60","205559","0.0-4.0-0.7","","img/blue.png","null","trial","null","true","0.2,0.8","2:nogo_b","",""
"null","","html-keyboard-response","61","206564","0.0-4.0-1.7","","<img src=""img/blue-r.png"">","null","trial","null","","0.2,0.8","2:nogo_b","1",""
"null","","html-keyboard-response","62","207570","0.0-4.0-2.7","","<div style=""font-size:60px;"">+</div>","null","","","","","","",""
"null","","image-keyboard-response","63","209073","0.0-4.0-0.8","","img/blue.png","null","trial","null","true","0.2,0.8","2:nogo_b","",""
"null","","html-keyboard-response","64","210075","0.0-4.0-1.8","","<img src=""img/blue-r.png"">","null","trial","null","","0.2,0.8","2:nogo_b","1",""
"null","","html-keyboard-response","65","211078","0.0-4.0-2.8","","<div style=""font-size:60px;"">+</div>","null","","","","","","",""
"585.8000000007451","","image-keyboard-response","66","211665","0.0-4.0-0.9","","img/grey.png","32","trial","32","true","0.8,0.2","1:go_a","",""
"null","","html-keyboard-response","67","212668","0.0-4.0-1.9","","<img src=""img/grey-r.png"" border=""10"">","null","trial","32","","0.8,0.2","1:go_a","1",""
"null","","html-keyboard-response","68","213673","0.0-4.0-2.9","","<div style=""font-size:60px;"">+</div>","null","","","","","","",""
"null","","image-keyboard-response","69","215177","0.0-4.0-0.10","","img/blue.png","null","trial","null","true","0.2,0.8","2:nogo_b","",""
"null","","html-keyboard-response","70","216181","0.0-4.0-1.10","","<img src=""img/blue-r.png"">","null","trial","null","","0.2,0.8","2:nogo_b","1",""
"null","","html-keyboard-response","71","217186","0.0-4.0-2.10","","<div style=""font-size:60px;"">+</div>","null","","","","","","",""
"556.8999999985099","","image-keyboard-response","72","217744","0.0-4.0-0.11","","img/grey.png","32","trial","32","true","0.8,0.2","1:go_a","",""
"null","","html-keyboard-response","73","218749","0.0-4.0-1.11","","<img src=""img/grey-r.png"" border=""10"">","null","trial","32","","0.8,0.2","1:go_a","1",""
"null","","html-keyboard-response","74","219752","0.0-4.0-2.11","","<div style=""font-size:60px;"">+</div>","null","","","","","","",""
"494.5","","image-keyboard-response","75","220247","0.0-4.0-0.12","","img/grey.png","32","trial","32","true","0.8,0.2","1:go_a","",""
"null","","html-keyboard-response","76","221254","0.0-4.0-1.12","","<img src=""img/grey-r.png"" border=""10"">","null","trial","32","","0.8,0.2","1:go_a","1",""
"null","","html-keyboard-response","77","222256","0.0-4.0-2.12","","<div style=""font-size:60px;"">+</div>","null","","","","","","",""
"null","","image-keyboard-response","78","223757","0.0-4.0-0.13","","img/blue.png","null","trial","null","true","0.2,0.8","2:nogo_b","",""
"null","","html-keyboard-response","79","224763","0.0-4.0-1.13","","<img src=""img/blue-r.png"">","null","trial","null","","0.2,0.8","2:nogo_b","1",""
"null","","html-keyboard-response","80","225765","0.0-4.0-2.13","","<div style=""font-size:60px;"">+</div>","null","","","","","","",""
"457.69999999925494","","image-keyboard-response","81","226223","0.0-4.0-0.14","","img/grey.png","32","trial","32","true","0.8,0.2","1:go_a","",""
"null","","html-keyboard-response","82","227225","0.0-4.0-1.14","","<img src=""img/grey-r.png"" border=""10"">","null","trial","32","","0.8,0.2","1:go_a","1",""
"null","","html-keyboard-response","83","228227","0.0-4.0-2.14","","<div style=""font-size:60px;"">+</div>","null","","","","","","",""
"null","","image-keyboard-response","84","229730","0.0-4.0-0.15","","img/blue.png","null","trial","null","true","0.2,0.8","2:nogo_b","",""
"null","","html-keyboard-response","85","230736","0.0-4.0-1.15","","<img src=""img/blue-r.png"">","null","trial","null","","0.2,0.8","2:nogo_b","1",""
"null","","html-keyboard-response","86","231739","0.0-4.0-2.15","","<div style=""font-size:60px;"">+</div>","null","","","","","","",""
"395.6000000014901","","image-keyboard-response","87","232135","0.0-4.0-0.16","","img/grey.png","32","trial","32","true","0.8,0.2","1:go_a","",""
"null","","html-keyboard-response","88","233139","0.0-4.0-1.16","","<img src=""img/grey-r.png"" border=""10"">","null","trial","32","","0.8,0.2","1:go_a","1",""
"null","","html-keyboard-response","89","234142","0.0-4.0-2.16","","<div style=""font-size:60px;"">+</div>","null","","","","","","",""
"null","","image-keyboard-response","90","235644","0.0-4.0-0.17","","img/blue.png","null","trial","null","true","0.2,0.8","2:nogo_b","",""
"null","","html-keyboard-response","91","236645","0.0-4.0-1.17","","<img src=""img/blue-r.png"">","null","trial","null","","0.2,0.8","2:nogo_b","1",""
"null","","html-keyboard-response","92","237648","0.0-4.0-2.17","","<div style=""font-size:60px;"">+</div>","null","","","","","","",""
"null","","image-keyboard-response","93","239152","0.0-4.0-0.18","","img/blue.png","null","trial","null","true","0.2,0.8","2:nogo_b","",""
"null","","html-keyboard-response","94","240155","0.0-4.0-1.18","","<img src=""img/blue-n.png"">","null","trial","null","","0.2,0.8","2:nogo_b","0",""
"null","","html-keyboard-response","95","241161","0.0-4.0-2.18","","<div style=""font-size:60px;"">+</div>","null","","","","","","",""
"414.6000000014901","","image-keyboard-response","96","241576","0.0-4.0-0.19","","img/grey.png","32","trial","32","true","0.8,0.2","1:go_a","",""
"null","","html-keyboard-response","97","242577","0.0-4.0-1.19","","<img src=""img/grey-r.png"" border=""10"">","null","trial","32","","0.8,0.2","1:go_a","1",""
"null","","html-keyboard-response","98","243580","0.0-4.0-2.19","","<div style=""font-size:60px;"">+</div>","null","","","","","","",""
"null","","image-keyboard-response","99","245086","0.0-4.0-0.20","","img/blue.png","null","trial","null","true","0.2,0.8","2:nogo_b","",""
"null","","html-keyboard-response","100","246090","0.0-4.0-1.20","","<img src=""img/blue-r.png"">","null","trial","null","","0.2,0.8","2:nogo_b","1",""
"null","","html-keyboard-response","101","247093","0.0-4.0-2.20","","<div style=""font-size:60px;"">+</div>","null","","","","","","",""
"368.4000000022352","","image-keyboard-response","102","247463","0.0-4.0-0.21","","img/grey.png","32","trial","32","true","0.8,0.2","1:go_a","",""
"null","","html-keyboard-response","103","248467","0.0-4.0-1.21","","<img src=""img/grey-n.png"" border=""10"">","null","trial","32","","0.8,0.2","1:go_a","0",""
"null","","html-keyboard-response","104","249471","0.0-4.0-2.21","","<div style=""font-size:60px;"">+</div>","null","","","","","","",""
"467.69999999925494","","image-keyboard-response","105","249940","0.0-4.0-0.22","","img/grey.png","32","trial","32","true","0.8,0.2","1:go_a","",""
"null","","html-keyboard-response","106","250945","0.0-4.0-1.22","","<img src=""img/grey-n.png"" border=""10"">","null","trial","32","","0.8,0.2","1:go_a","0",""
"null","","html-keyboard-response","107","251949","0.0-4.0-2.22","","<div style=""font-size:60px;"">+</div>","null","","","","","","",""
"457.19999999925494","","image-keyboard-response","108","252407","0.0-4.0-0.23","","img/blue.png","32","trial","null","false","0.2,0.8","2:nogo_b","",""
"null","","html-keyboard-response","109","253409","0.0-4.0-1.23","","<img src=""img/blue-n.png"" border=""10"">","null","trial","null","","0.2,0.8","2:nogo_b","0",""
"null","","html-keyboard-response","110","254412","0.0-4.0-2.23","","<div style=""font-size:60px;"">+</div>","null","","","","","","",""
"577.6000000014901","","image-keyboard-response","111","254990","0.0-4.0-0.24","","img/grey.png","32","trial","32","true","0.8,0.2","1:go_a","",""
"null","","html-keyboard-response","112","255993","0.0-4.0-1.24","","<img src=""img/grey-r.png"" border=""10"">","null","trial","32","","0.8,0.2","1:go_a","1",""
"null","","html-keyboard-response","113","256996","0.0-4.0-2.24","","<div style=""font-size:60px;"">+</div>","null","","","","","","",""
"null","","image-keyboard-response","114","258501","0.0-4.0-0.25","","img/blue.png","null","trial","null","true","0.2,0.8","2:nogo_b","",""
"null","","html-keyboard-response","115","259504","0.0-4.0-1.25","","<img src=""img/blue-r.png"">","null","trial","null","","0.2,0.8","2:nogo_b","1",""
"null","","html-keyboard-response","116","260505","0.0-4.0-2.25","","<div style=""font-size:60px;"">+</div>","null","","","","","","",""
"460.4000000022352","","image-keyboard-response","117","260966","0.0-4.0-0.26","","img/grey.png","32","trial","32","true","0.8,0.2","1:go_a","",""
"null","","html-keyboard-response","118","261970","0.0-4.0-1.26","","<img src=""img/grey-r.png"" border=""10"">","null","trial","32","","0.8,0.2","1:go_a","1",""
"null","","html-keyboard-response","119","262973","0.0-4.0-2.26","","<div style=""font-size:60px;"">+</div>","null","","","","","","",""
"null","","image-keyboard-response","120","264475","0.0-4.0-0.27","","img/blue.png","null","trial","null","true","0.2,0.8","2:nogo_b","",""
"null","","html-keyboard-response","121","265478","0.0-4.0-1.27","","<img src=""img/blue-r.png"">","null","trial","null","","0.2,0.8","2:nogo_b","1",""
"null","","html-keyboard-response","122","266482","0.0-4.0-2.27","","<div style=""font-size:60px;"">+</div>","null","","","","","","",""
"null","","image-keyboard-response","123","267988","0.0-4.0-0.28","","img/blue.png","null","trial","null","true","0.2,0.8","2:nogo_b","",""
"null","","html-keyboard-response","124","268993","0.0-4.0-1.28","","<img src=""img/blue-n.png"">","null","trial","null","","0.2,0.8","2:nogo_b","0",""
"null","","html-keyboard-response","125","269996","0.0-4.0-2.28","","<div style=""font-size:60px;"">+</div>","null","","","","","","",""
"449.30000000074506","","image-keyboard-response","126","270446","0.0-4.0-0.29","","img/grey.png","32","trial","32","true","0.8,0.2","1:go_a","",""
"null","","html-keyboard-response","127","271452","0.0-4.0-1.29","","<img src=""img/grey-n.png"" border=""10"">","null","trial","32","","0.8,0.2","1:go_a","0",""
"null","","html-keyboard-response","128","272455","0.0-4.0-2.29","","<div style=""font-size:60px;"">+</div>","null","","","","","","",""
"null","","image-keyboard-response","129","273959","0.0-4.0-0.30","","img/blue.png","null","trial","null","true","0.2,0.8","2:nogo_b","",""
"null","","html-keyboard-response","130","274964","0.0-4.0-1.30","","<img src=""img/blue-n.png"">","null","trial","null","","0.2,0.8","2:nogo_b","0",""
"null","","html-keyboard-response","131","275966","0.0-4.0-2.30","","<div style=""font-size:60px;"">+</div>","null","","","","","","",""
"399.30000000074506","","image-keyboard-response","132","276366","0.0-4.0-0.31","","img/grey.png","32","trial","32","true","0.8,0.2","1:go_a","",""
"null","","html-keyboard-response","133","277369","0.0-4.0-1.31","","<img src=""img/grey-r.png"" border=""10"">","null","trial","32","","0.8,0.2","1:go_a","1",""
"null","","html-keyboard-response","134","278373","0.0-4.0-2.31","","<div style=""font-size:60px;"">+</div>","null","","","","","","",""
"640.1000000014901","","image-keyboard-response","135","279014","0.0-4.0-0.32","","img/grey.png","32","trial","32","true","0.8,0.2","1:go_a","",""
"null","","html-keyboard-response","136","280019","0.0-4.0-1.32","","<img src=""img/grey-r.png"" border=""10"">","null","trial","32","","0.8,0.2","1:go_a","1",""
"null","","html-keyboard-response","137","281023","0.0-4.0-2.32","","<div style=""font-size:60px;"">+</div>","null","","","","","","",""
"null","","image-keyboard-response","138","282524","0.0-4.0-0.33","","img/blue.png","null","trial","null","true","0.2,0.8","2:nogo_b","",""
"null","","html-keyboard-response","139","283530","0.0-4.0-1.33","","<img src=""img/blue-n.png"">","null","trial","null","","0.2,0.8","2:nogo_b","0",""
"null","","html-keyboard-response","140","284535","0.0-4.0-2.33","","<div style=""font-size:60px;"">+</div>","null","","","","","","",""
"526.6000000014901","","image-keyboard-response","141","285062","0.0-4.0-0.34","","img/grey.png","32","trial","32","true","0.8,0.2","1:go_a","",""
"null","","html-keyboard-response","142","286063","0.0-4.0-1.34","","<img src=""img/grey-r.png"" border=""10"">","null","trial","32","","0.8,0.2","1:go_a","1",""
"null","","html-keyboard-response","143","287068","0.0-4.0-2.34","","<div style=""font-size:60px;"">+</div>","null","","","","","","",""
"null","","image-keyboard-response","144","288573","0.0-4.0-0.35","","img/blue.png","null","trial","null","true","0.2,0.8","2:nogo_b","",""
"null","","html-keyboard-response","145","289576","0.0-4.0-1.35","","<img src=""img/blue-r.png"">","null","trial","null","","0.2,0.8","2:nogo_b","1",""
"null","","html-keyboard-response","146","290581","0.0-4.0-2.35","","<div style=""font-size:60px;"">+</div>","null","","","","","","",""
"743.8000000007451","","image-keyboard-response","147","291326","0.0-4.0-0.36","","img/grey.png","32","trial","32","true","0.8,0.2","1:go_a","",""
"null","","html-keyboard-response","148","292331","0.0-4.0-1.36","","<img src=""img/grey-r.png"" border=""10"">","null","trial","32","","0.8,0.2","1:go_a","1",""
"null","","html-keyboard-response","149","293336","0.0-4.0-2.36","","<div style=""font-size:60px;"">+</div>","null","","","","","","",""
"null","","image-keyboard-response","150","294838","0.0-4.0-0.37","","img/blue.png","null","trial","null","true","0.2,0.8","2:nogo_b","",""
"null","","html-keyboard-response","151","295842","0.0-4.0-1.37","","<img src=""img/blue-n.png"">","null","trial","null","","0.2,0.8","2:nogo_b","0",""
"null","","html-keyboard-response","152","296846","0.0-4.0-2.37","","<div style=""font-size:60px;"">+</div>","null","","","","","","",""
"526.7000000029802","","image-keyboard-response","153","297374","0.0-4.0-0.38","","img/grey.png","32","trial","32","true","0.8,0.2","1:go_a","",""
"null","","html-keyboard-response","154","298379","0.0-4.0-1.38","","<img src=""img/grey-r.png"" border=""10"">","null","trial","32","","0.8,0.2","1:go_a","1",""
"null","","html-keyboard-response","155","299381","0.0-4.0-2.38","","<div style=""font-size:60px;"">+</div>","null","","","","","","",""
"null","","image-keyboard-response","156","300885","0.0-4.0-0.39","","img/blue.png","null","trial","null","true","0.2,0.8","2:nogo_b","",""
"null","","html-keyboard-response","157","301890","0.0-4.0-1.39","","<img src=""img/blue-r.png"">","null","trial","null","","0.2,0.8","2:nogo_b","1",""
"null","","html-keyboard-response","158","302891","0.0-4.0-2.39","","<div style=""font-size:60px;"">+</div>","null","","","","","","",""
"null","","image-keyboard-response","159","304392","0.0-4.0-0.40","","img/blue.png","null","trial","null","true","0.2,0.8","2:nogo_b","",""
"null","","html-keyboard-response","160","305397","0.0-4.0-1.40","","<img src=""img/blue-n.png"">","null","trial","null","","0.2,0.8","2:nogo_b","0",""
"null","","html-keyboard-response","161","306400","0.0-4.0-2.40","","<div style=""font-size:60px;"">+</div>","null","","","","","","",""
"460.69999999925494","","image-keyboard-response","162","306861","0.0-4.0-0.41","","img/grey.png","32","trial","32","true","0.8,0.2","1:go_a","",""
"null","","html-keyboard-response","163","307865","0.0-4.0-1.41","","<img src=""img/grey-r.png"" border=""10"">","null","trial","32","","0.8,0.2","1:go_a","1",""
"null","","html-keyboard-response","164","308868","0.0-4.0-2.41","","<div style=""font-size:60px;"">+</div>","null","","","","","","",""
"568.6000000014901","","image-keyboard-response","165","309438","0.0-4.0-0.42","","img/grey.png","32","trial","32","true","0.8,0.2","1:go_a","",""
"null","","html-keyboard-response","166","310440","0.0-4.0-1.42","","<img src=""img/grey-n.png"" border=""10"">","null","trial","32","","0.8,0.2","1:go_a","0",""
"null","","html-keyboard-response","167","311444","0.0-4.0-2.42","","<div style=""font-size:60px;"">+</div>","null","","","","","","",""
"null","","image-keyboard-response","168","312948","0.0-4.0-0.43","","img/blue.png","null","trial","null","true","0.2,0.8","2:nogo_b","",""
"null","","html-keyboard-response","169","313952","0.0-4.0-1.43","","<img src=""img/blue-r.png"">","null","trial","null","","0.2,0.8","2:nogo_b","1",""
"null","","html-keyboard-response","170","314954","0.0-4.0-2.43","","<div style=""font-size:60px;"">+</div>","null","","","","","","",""
"null","","image-keyboard-response","171","316456","0.0-4.0-0.44","","img/blue.png","null","trial","null","true","0.2,0.8","2:nogo_b","",""
"null","","html-keyboard-response","172","317459","0.0-4.0-1.44","","<img src=""img/blue-r.png"">","null","trial","null","","0.2,0.8","2:nogo_b","1",""
"null","","html-keyboard-response","173","318461","0.0-4.0-2.44","","<div style=""font-size:60px;"">+</div>","null","","","","","","",""
"527.5999999977648","","image-keyboard-response","174","318989","0.0-4.0-0.45","","img/grey.png","32","trial","32","true","0.8,0.2","1:go_a","",""
"null","","html-keyboard-response","175","319995","0.0-4.0-1.45","","<img src=""img/grey-r.png"" border=""10"">","null","trial","32","","0.8,0.2","1:go_a","1",""
"null","","html-keyboard-response","176","320995","0.0-4.0-2.45","","<div style=""font-size:60px;"">+</div>","null","","","","","","",""
"528.8999999985099","","image-keyboard-response","177","321525","0.0-4.0-0.46","","img/grey.png","32","trial","32","true","0.8,0.2","1:go_a","",""
"null","","html-keyboard-response","178","322528","0.0-4.0-1.46","","<img src=""img/grey-r.png"" border=""10"">","null","trial","32","","0.8,0.2","1:go_a","1",""
"null","","html-keyboard-response","179","323533","0.0-4.0-2.46","","<div style=""font-size:60px;"">+</div>","null","","","","","","",""
"null","","image-keyboard-response","180","325035","0.0-4.0-0.47","","img/blue.png","null","trial","null","true","0.2,0.8","2:nogo_b","",""
"null","","html-keyboard-response","181","326038","0.0-4.0-1.47","","<img src=""img/blue-r.png"">","null","trial","null","","0.2,0.8","2:nogo_b","1",""
"null","","html-keyboard-response","182","327039","0.0-4.0-2.47","","<div style=""font-size:60px;"">+</div>","null","","","","","","",""
"485.1000000014901","","image-keyboard-response","183","327525","0.0-4.0-0.48","","img/grey.png","32","trial","32","true","0.8,0.2","1:go_a","",""
"null","","html-keyboard-response","184","328529","0.0-4.0-1.48","","<img src=""img/grey-n.png"" border=""10"">","null","trial","32","","0.8,0.2","1:go_a","0",""
"null","","html-keyboard-response","185","329534","0.0-4.0-2.48","","<div style=""font-size:60px;"">+</div>","null","","","","","","",""
"null","","image-keyboard-response","186","331037","0.0-4.0-0.49","","img/blue.png","null","trial","null","true","0.2,0.8","2:nogo_b","",""
"null","","html-keyboard-response","187","332038","0.0-4.0-1.49","","<img src=""img/blue-r.png"">","null","trial","null","","0.2,0.8","2:nogo_b","1",""
"null","","html-keyboard-response","188","333039","0.0-4.0-2.49","","<div style=""font-size:60px;"">+</div>","null","","","","","","",""
"null","","image-keyboard-response","189","334543","0.0-4.0-0.50","","img/blue.png","null","trial","null","true","0.2,0.8","2:nogo_b","",""
"null","","html-keyboard-response","190","335545","0.0-4.0-1.50","","<img src=""img/blue-n.png"">","null","trial","null","","0.2,0.8","2:nogo_b","0",""
"null","","html-keyboard-response","191","336548","0.0-4.0-2.50","","<div style=""font-size:60px;"">+</div>","null","","","","","","",""
"607.8000000007451","","image-keyboard-response","192","337157","0.0-4.0-0.51","","img/grey.png","32","trial","32","true","0.8,0.2","1:go_a","",""
"null","","html-keyboard-response","193","338158","0.0-4.0-1.51","","<img src=""img/grey-r.png"" border=""10"">","null","trial","32","","0.8,0.2","1:go_a","1",""
"null","","html-keyboard-response","194","339161","0.0-4.0-2.51","","<div style=""font-size:60px;"">+</div>","null","","","","","","",""
"null","","image-keyboard-response","195","340662","0.0-4.0-0.52","","img/blue.png","null","trial","null","true","0.2,0.8","2:nogo_b","",""
"null","","html-keyboard-response","196","341663","0.0-4.0-1.52","","<img src=""img/blue-r.png"">","null","trial","null","","0.2,0.8","2:nogo_b","1",""
"null","","html-keyboard-response","197","342667","0.0-4.0-2.52","","<div style=""font-size:60px;"">+</div>","null","","","","","","",""
"480.70000000298023","","image-keyboard-response","198","343148","0.0-4.0-0.53","","img/grey.png","32","trial","32","true","0.8,0.2","1:go_a","",""
"null","","html-keyboard-response","199","344153","0.0-4.0-1.53","","<img src=""img/grey-r.png"" border=""10"">","null","trial","32","","0.8,0.2","1:go_a","1",""
"null","","html-keyboard-response","200","345158","0.0-4.0-2.53","","<div style=""font-size:60px;"">+</div>","null","","","","","","",""
"517.9000000059605","","image-keyboard-response","201","345676","0.0-4.0-0.54","","img/grey.png","32","trial","32","true","0.8,0.2","1:go_a","",""
"null","","html-keyboard-response","202","346678","0.0-4.0-1.54","","<img src=""img/grey-r.png"" border=""10"">","null","trial","32","","0.8,0.2","1:go_a","1",""
"null","","html-keyboard-response","203","347682","0.0-4.0-2.54","","<div style=""font-size:60px;"">+</div>","null","","","","","","",""
"null","","image-keyboard-response","204","349185","0.0-4.0-0.55","","img/blue.png","null","trial","null","true","0.2,0.8","2:nogo_b","",""
"null","","html-keyboard-response","205","350191","0.0-4.0-1.55","","<img src=""img/blue-r.png"">","null","trial","null","","0.2,0.8","2:nogo_b","1",""
"null","","html-keyboard-response","206","351193","0.0-4.0-2.55","","<div style=""font-size:60px;"">+</div>","null","","","","","","",""
"null","","image-keyboard-response","207","352696","0.0-4.0-0.56","","img/blue.png","null","trial","null","true","0.2,0.8","2:nogo_b","",""
"null","","html-keyboard-response","208","353701","0.0-4.0-1.56","","<img src=""img/blue-r.png"">","null","trial","null","","0.2,0.8","2:nogo_b","1",""
"null","","html-keyboard-response","209","354704","0.0-4.0-2.56","","<div style=""font-size:60px;"">+</div>","null","","","","","","",""
"572","","image-keyboard-response","210","355277","0.0-4.0-0.57","","img/grey.png","32","trial","32","true","0.8,0.2","1:go_a","",""
"null","","html-keyboard-response","211","356280","0.0-4.0-1.57","","<img src=""img/grey-r.png"" border=""10"">","null","trial","32","","0.8,0.2","1:go_a","1",""
"null","","html-keyboard-response","212","357284","0.0-4.0-2.57","","<div style=""font-size:60px;"">+</div>","null","","","","","","",""
"null","","image-keyboard-response","213","358788","0.0-4.0-0.58","","img/blue.png","null","trial","null","true","0.2,0.8","2:nogo_b","",""
"null","","html-keyboard-response","214","359792","0.0-4.0-1.58","","<img src=""img/blue-r.png"">","null","trial","null","","0.2,0.8","2:nogo_b","1",""
"null","","html-keyboard-response","215","360796","0.0-4.0-2.58","","<div style=""font-size:60px;"">+</div>","null","","","","","","",""
"479.29999999701977","","image-keyboard-response","216","361276","0.0-4.0-0.59","","img/grey.png","32","trial","32","true","0.8,0.2","1:go_a","",""
"null","","html-keyboard-response","217","362280","0.0-4.0-1.59","","<img src=""img/grey-r.png"" border=""10"">","null","trial","32","","0.8,0.2","1:go_a","1",""
"null","","html-keyboard-response","218","363285","0.0-4.0-2.59","","<div style=""font-size:60px;"">+</div>","null","","","","","","",""
"2945.5","","instructions","219","366231","0.0-5.0","[{""page_index"":0,""viewing_time"":2945.2999999970198}]","","","","","","","","",""
"1011.5","","image-keyboard-response","220","367244","0.0-6.0-0.0","","img/purple.png","32","trial","32","true","0.6,0.4","3:go_c","",""
"null","","html-keyboard-response","221","368245","0.0-6.0-1.0","","<img src=""img/purple-r.png"" border=""10"">","null","trial","32","","0.6,0.4","3:go_c","1",""
"null","","html-keyboard-response","222","369250","0.0-6.0-2.0","","<div style=""font-size:60px;"">+</div>","null","","","","","","",""
"null","","image-keyboard-response","223","370754","0.0-6.0-0.1","","img/grey.png","null","trial","null","true","0.4,0.6","4:nogo_d","",""
"null","","html-keyboard-response","224","371760","0.0-6.0-1.1","","<img src=""img/grey-r.png"">","null","trial","null","","0.4,0.6","4:nogo_d","1",""
"null","","html-keyboard-response","225","372766","0.0-6.0-2.1","","<div style=""font-size:60px;"">+</div>","null","","","","","","",""
"null","","image-keyboard-response","226","374268","0.0-6.0-0.2","","img/orange.png","null","trial","null","true","0.4,0.6","2:nogo_b","",""
"null","","html-keyboard-response","227","375273","0.0-6.0-1.2","","<img src=""img/orange-r.png"">","null","trial","null","","0.4,0.6","2:nogo_b","1",""
"null","","html-keyboard-response","228","376278","0.0-6.0-2.2","","<div style=""font-size:60px;"">+</div>","null","","","","","","",""
"null","","image-keyboard-response","229","377779","0.0-6.0-0.3","","img/blue.png","null","trial","32","false","0.6,0.4","1:go_a","",""
"null","","html-keyboard-response","230","378784","0.0-6.0-1.3","","<img src=""img/blue-n.png"">","null","trial","32","","0.6,0.4","1:go_a","0",""
"null","","html-keyboard-response","231","379785","0.0-6.0-2.3","","<div style=""font-size:60px;"">+</div>","null","","","","","","",""
"698.3000000044703","","image-keyboard-response","232","380484","0.0-6.0-0.4","","img/blue.png","32","trial","32","true","0.6,0.4","1:go_a","",""
"null","","html-keyboard-response","233","381486","0.0-6.0-1.4","","<img src=""img/blue-n.png"" border=""10"">","null","trial","32","","0.6,0.4","1:go_a","0",""
"null","","html-keyboard-response","234","382490","0.0-6.0-2.4","","<div style=""font-size:60px;"">+</div>","null","","","","","","",""
"null","","image-keyboard-response","235","383993","0.0-6.0-0.5","","img/grey.png","null","trial","null","true","0.4,0.6","4:nogo_d","",""
"null","","html-keyboard-response","236","384999","0.0-6.0-1.5","","<img src=""img/grey-n.png"">","null","trial","null","","0.4,0.6","4:nogo_d","0",""
"null","","html-keyboard-response","237","386005","0.0-6.0-2.5","","<div style=""font-size:60px;"">+</div>","null","","","","","","",""
"639.1000000014901","","image-keyboard-response","238","386645","0.0-6.0-0.6","","img/purple.png","32","trial","32","true","0.6,0.4","3:go_c","",""
"null","","html-keyboard-response","239","387650","0.0-6.0-1.6","","<img src=""img/purple-r.png"" border=""10"">","null","trial","32","","0.6,0.4","3:go_c","1",""
"null","","html-keyboard-response","240","388652","0.0-6.0-2.6","","<div style=""font-size:60px;"">+</div>","null","","","","","","",""
"null","","image-keyboard-response","241","390157","0.0-6.0-0.7","","img/orange.png","null","trial","null","true","0.4,0.6","2:nogo_b","",""
"null","","html-keyboard-response","242","391162","0.0-6.0-1.7","","<img src=""img/orange-r.png"">","null","trial","null","","0.4,0.6","2:nogo_b","1",""
"null","","html-keyboard-response","243","392167","0.0-6.0-2.7","","<div style=""font-size:60px;"">+</div>","null","","","","","","",""
"916.5","","image-keyboard-response","244","393084","0.0-6.0-0.8","","img/purple.png","32","trial","32","true","0.6,0.4","3:go_c","",""
"null","","html-keyboard-response","245","394088","0.0-6.0-1.8","","<img src=""img/purple-n.png"" border=""10"">","null","trial","32","","0.6,0.4","3:go_c","0",""
"null","","html-keyboard-response","246","395094","0.0-6.0-2.8","","<div style=""font-size:60px;"">+</div>","null","","","","","","",""
"660.8000000044703","","image-keyboard-response","247","395755","0.0-6.0-0.9","","img/grey.png","32","trial","null","false","0.4,0.6","4:nogo_d","",""
"null","","html-keyboard-response","248","396761","0.0-6.0-1.9","","<img src=""img/grey-n.png"" border=""10"">","null","trial","null","","0.4,0.6","4:nogo_d","0",""
"null","","html-keyboard-response","249","397765","0.0-6.0-2.9","","<div style=""font-size:60px;"">+</div>","null","","","","","","",""
"null","","image-keyboard-response","250","399269","0.0-6.0-0.10","","img/blue.png","null","trial","32","false","0.6,0.4","1:go_a","",""
"null","","html-keyboard-response","251","400273","0.0-6.0-1.10","","<img src=""img/blue-r.png"">","null","trial","32","","0.6,0.4","1:go_a","1",""
"null","","html-keyboard-response","252","401277","0.0-6.0-2.10","","<div style=""font-size:60px;"">+</div>","null","","","","","","",""
"null","","image-keyboard-response","253","402780","0.0-6.0-0.11","","img/orange.png","null","trial","null","true","0.4,0.6","2:nogo_b","",""
"null","","html-keyboard-response","254","403783","0.0-6.0-1.11","","<img src=""img/orange-n.png"">","null","trial","null","","0.4,0.6","2:nogo_b","0",""
"null","","html-keyboard-response","255","404783","0.0-6.0-2.11","","<div style=""font-size:60px;"">+</div>","null","","","","","","",""
"null","","image-keyboard-response","256","406288","0.0-6.0-0.12","","img/blue.png","null","trial","32","false","0.6,0.4","1:go_a","",""
"null","","html-keyboard-response","257","407293","0.0-6.0-1.12","","<img src=""img/blue-r.png"">","null","trial","32","","0.6,0.4","1:go_a","1",""
"null","","html-keyboard-response","258","408296","0.0-6.0-2.12","","<div style=""font-size:60px;"">+</div>","null","","","","","","",""
"850.8000000044703","","image-keyboard-response","259","409148","0.0-6.0-0.13","","img/grey.png","32","trial","null","false","0.4,0.6","4:nogo_d","",""
"null","","html-keyboard-response","260","410153","0.0-6.0-1.13","","<img src=""img/grey-n.png"" border=""10"">","null","trial","null","","0.4,0.6","4:nogo_d","0",""
"null","","html-keyboard-response","261","411157","0.0-6.0-2.13","","<div style=""font-size:60px;"">+</div>","null","","","","","","",""
"797.5","","image-keyboard-response","262","411955","0.0-6.0-0.14","","img/orange.png","32","trial","null","false","0.4,0.6","2:nogo_b","",""
"null","","html-keyboard-response","263","412959","0.0-6.0-1.14","","<img src=""img/orange-r.png"" border=""10"">","null","trial","null","","0.4,0.6","2:nogo_b","1",""
"null","","html-keyboard-response","264","413962","0.0-6.0-2.14","","<div style=""font-size:60px;"">+</div>","null","","","","","","",""
"576.2999999970198","","image-keyboard-response","265","414539","0.0-6.0-0.15","","img/purple.png","32","trial","32","true","0.6,0.4","3:go_c","",""
"null","","html-keyboard-response","266","415541","0.0-6.0-1.15","","<img src=""img/purple-r.png"" border=""10"">","null","trial","32","","0.6,0.4","3:go_c","1",""
"null","","html-keyboard-response","267","416545","0.0-6.0-2.15","","<div style=""font-size:60px;"">+</div>","null","","","","","","",""
"null","","image-keyboard-response","268","418051","0.0-6.0-0.16","","img/blue.png","null","trial","32","false","0.6,0.4","1:go_a","",""
"null","","html-keyboard-response","269","419052","0.0-6.0-1.16","","<img src=""img/blue-n.png"">","null","trial","32","","0.6,0.4","1:go_a","0",""
"null","","html-keyboard-response","270","420054","0.0-6.0-2.16","","<div style=""font-size:60px;"">+</div>","null","","","","","","",""
"716.1000000014901","","image-keyboard-response","271","420771","0.0-6.0-0.17","","img/orange.png","32","trial","null","false","0.4,0.6","2:nogo_b","",""
"null","","html-keyboard-response","272","421774","0.0-6.0-1.17","","<img src=""img/orange-n.png"" border=""10"">","null","trial","null","","0.4,0.6","2:nogo_b","0",""
"null","","html-keyboard-response","273","422778","0.0-6.0-2.17","","<div style=""font-size:60px;"">+</div>","null","","","","","","",""
"519.7000000029802","","image-keyboard-response","274","423299","0.0-6.0-0.18","","img/purple.png","32","trial","32","true","0.6,0.4","3:go_c","",""
"null","","html-keyboard-response","275","424302","0.0-6.0-1.18","","<img src=""img/purple-n.png"" border=""10"">","null","trial","32","","0.6,0.4","3:go_c","0",""
"null","","html-keyboard-response","276","425304","0.0-6.0-2.18","","<div style=""font-size:60px;"">+</div>","null","","","","","","",""
"921.5","","image-keyboard-response","277","426227","0.0-6.0-0.19","","img/grey.png","32","trial","null","false","0.4,0.6","4:nogo_d","",""
"null","","html-keyboard-response","278","427231","0.0-6.0-1.19","","<img src=""img/grey-n.png"" border=""10"">","null","trial","null","","0.4,0.6","4:nogo_d","0",""
"null","","html-keyboard-response","279","428234","0.0-6.0-2.19","","<div style=""font-size:60px;"">+</div>","null","","","","","","",""
"695.8999999985099","","image-keyboard-response","280","428931","0.0-6.0-0.20","","img/purple.png","32","trial","32","true","0.6,0.4","3:go_c","",""
"null","","html-keyboard-response","281","429935","0.0-6.0-1.20","","<img src=""img/purple-n.png"" border=""10"">","null","trial","32","","0.6,0.4","3:go_c","0",""
"null","","html-keyboard-response","282","430936","0.0-6.0-2.20","","<div style=""font-size:60px;"">+</div>","null","","","","","","",""
"1001.9000000059605","","image-keyboard-response","283","431939","0.0-6.0-0.21","","img/orange.png","32","trial","null","false","0.4,0.6","2:nogo_b","",""
"null","","html-keyboard-response","284","432944","0.0-6.0-1.21","","<img src=""img/orange-r.png"" border=""10"">","null","trial","null","","0.4,0.6","2:nogo_b","1",""
"null","","html-keyboard-response","285","433947","0.0-6.0-2.21","","<div style=""font-size:60px;"">+</div>","null","","","","","","",""
"null","","image-keyboard-response","286","435450","0.0-6.0-0.22","","img/grey.png","null","trial","null","true","0.4,0.6","4:nogo_d","",""
"null","","html-keyboard-response","287","436454","0.0-6.0-1.22","","<img src=""img/grey-n.png"">","null","trial","null","","0.4,0.6","4:nogo_d","0",""
"null","","html-keyboard-response","288","437458","0.0-6.0-2.22","","<div style=""font-size:60px;"">+</div>","null","","","","","","",""
"null","","image-keyboard-response","289","438961","0.0-6.0-0.23","","img/blue.png","null","trial","32","false","0.6,0.4","1:go_a","",""
"null","","html-keyboard-response","290","439964","0.0-6.0-1.23","","<img src=""img/blue-n.png"">","null","trial","32","","0.6,0.4","1:go_a","0",""
"null","","html-keyboard-response","291","440968","0.0-6.0-2.23","","<div style=""font-size:60px;"">+</div>","null","","","","","","",""
"898.0999999940395","","image-keyboard-response","292","441866","0.0-6.0-0.24","","img/grey.png","32","trial","null","false","0.4,0.6","4:nogo_d","",""
"null","","html-keyboard-response","293","442872","0.0-6.0-1.24","","<img src=""img/grey-n.png"" border=""10"">","null","trial","null","","0.4,0.6","4:nogo_d","0",""
"null","","html-keyboard-response","294","443874","0.0-6.0-2.24","","<div style=""font-size:60px;"">+</div>","null","","","","","","",""
"591.5","","image-keyboard-response","295","444467","0.0-6.0-0.25","","img/purple.png","32","trial","32","true","0.6,0.4","3:go_c","",""
"null","","html-keyboard-response","296","445473","0.0-6.0-1.25","","<img src=""img/purple-n.png"" border=""10"">","null","trial","32","","0.6,0.4","3:go_c","0",""
"null","","html-keyboard-response","297","446477","0.0-6.0-2.25","","<div style=""font-size:60px;"">+</div>","null","","","","","","",""
"null","","image-keyboard-response","298","447979","0.0-6.0-0.26","","img/blue.png","null","trial","32","false","0.6,0.4","1:go_a","",""
"null","","html-keyboard-response","299","448982","0.0-6.0-1.26","","<img src=""img/blue-n.png"">","null","trial","32","","0.6,0.4","1:go_a","0",""
"null","","html-keyboard-response","300","449985","0.0-6.0-2.26","","<div style=""font-size:60px;"">+</div>","null","","","","","","",""
"776.2000000029802","","image-keyboard-response","301","450762","0.0-6.0-0.27","","img/orange.png","32","trial","null","false","0.4,0.6","2:nogo_b","",""
"null","","html-keyboard-response","302","451765","0.0-6.0-1.27","","<img src=""img/orange-r.png"" border=""10"">","null","trial","null","","0.4,0.6","2:nogo_b","1",""
"null","","html-keyboard-response","303","452769","0.0-6.0-2.27","","<div style=""font-size:60px;"">+</div>","null","","","","","","",""
"null","","image-keyboard-response","304","454270","0.0-6.0-0.28","","img/grey.png","null","trial","null","true","0.4,0.6","4:nogo_d","",""
"null","","html-keyboard-response","305","455276","0.0-6.0-1.28","","<img src=""img/grey-r.png"">","null","trial","null","","0.4,0.6","4:nogo_d","1",""
"null","","html-keyboard-response","306","456279","0.0-6.0-2.28","","<div style=""font-size:60px;"">+</div>","null","","","","","","",""
"802.8999999985099","","image-keyboard-response","307","457082","0.0-6.0-0.29","","img/purple.png","32","trial","32","true","0.6,0.4","3:go_c","",""
"null","","html-keyboard-response","308","458084","0.0-6.0-1.29","","<img src=""img/purple-n.png"" border=""10"">","null","trial","32","","0.6,0.4","3:go_c","0",""
"null","","html-keyboard-response","309","459084","0.0-6.0-2.29","","<div style=""font-size:60px;"">+</div>","null","","","","","","",""
"null","","image-keyboard-response","310","460586","0.0-6.0-0.30","","img/blue.png","null","trial","32","false","0.6,0.4","1:go_a","",""
"null","","html-keyboard-response","311","461592","0.0-6.0-1.30","","<img src=""img/blue-r.png"">","null","trial","32","","0.6,0.4","1:go_a","1",""
"null","","html-keyboard-response","312","462595","0.0-6.0-2.30","","<div style=""font-size:60px;"">+</div>","null","","","","","","",""
"669.7999999970198","","image-keyboard-response","313","463266","0.0-6.0-0.31","","img/orange.png","32","trial","null","false","0.4,0.6","2:nogo_b","",""
"null","","html-keyboard-response","314","464270","0.0-6.0-1.31","","<img src=""img/orange-r.png"" border=""10"">","null","trial","null","","0.4,0.6","2:nogo_b","1",""
"null","","html-keyboard-response","315","465273","0.0-6.0-2.31","","<div style=""font-size:60px;"">+</div>","null","","","","","","",""
"null","","image-keyboard-response","316","466774","0.0-6.0-0.32","","img/purple.png","null","trial","32","false","0.6,0.4","3:go_c","",""
"null","","html-keyboard-response","317","467776","0.0-6.0-1.32","","<img src=""img/purple-r.png"">","null","trial","32","","0.6,0.4","3:go_c","1",""
"null","","html-keyboard-response","318","468780","0.0-6.0-2.32","","<div style=""font-size:60px;"">+</div>","null","","","","","","",""
"null","","image-keyboard-response","319","470286","0.0-6.0-0.33","","img/grey.png","null","trial","null","true","0.4,0.6","4:nogo_d","",""
"null","","html-keyboard-response","320","471291","0.0-6.0-1.33","","<img src=""img/grey-r.png"">","null","trial","null","","0.4,0.6","4:nogo_d","1",""
"null","","html-keyboard-response","321","472295","0.0-6.0-2.33","","<div style=""font-size:60px;"">+</div>","null","","","","","","",""
"null","","image-keyboard-response","322","473800","0.0-6.0-0.34","","img/blue.png","null","trial","32","false","0.6,0.4","1:go_a","",""
"null","","html-keyboard-response","323","474805","0.0-6.0-1.34","","<img src=""img/blue-n.png"">","null","trial","32","","0.6,0.4","1:go_a","0",""
"null","","html-keyboard-response","324","475810","0.0-6.0-2.34","","<div style=""font-size:60px;"">+</div>","null","","","","","","",""
"575.1000000014901","","image-keyboard-response","325","476386","0.0-6.0-0.35","","img/orange.png","32","trial","null","false","0.4,0.6","2:nogo_b","",""
"null","","html-keyboard-response","326","477391","0.0-6.0-1.35","","<img src=""img/orange-r.png"" border=""10"">","null","trial","null","","0.4,0.6","2:nogo_b","1",""
"null","","html-keyboard-response","327","478395","0.0-6.0-2.35","","<div style=""font-size:60px;"">+</div>","null","","","","","","",""
"null","","image-keyboard-response","328","479900","0.0-6.0-0.36","","img/grey.png","null","trial","null","true","0.4,0.6","4:nogo_d","",""
"null","","html-keyboard-response","329","480905","0.0-6.0-1.36","","<img src=""img/grey-r.png"">","null","trial","null","","0.4,0.6","4:nogo_d","1",""
"null","","html-keyboard-response","330","481908","0.0-6.0-2.36","","<div style=""font-size:60px;"">+</div>","null","","","","","","",""
"null","","image-keyboard-response","331","483410","0.0-6.0-0.37","","img/blue.png","null","trial","32","false","0.6,0.4","1:go_a","",""
"null","","html-keyboard-response","332","484414","0.0-6.0-1.37","","<img src=""img/blue-n.png"">","null","trial","32","","0.6,0.4","1:go_a","0",""
"null","","html-keyboard-response","333","485417","0.0-6.0-2.37","","<div style=""font-size:60px;"">+</div>","null","","","","","","",""
"568.1999999955297","","image-keyboard-response","334","485985","0.0-6.0-0.38","","img/orange.png","32","trial","null","false","0.4,0.6","2:nogo_b","",""
"null","","html-keyboard-response","335","486989","0.0-6.0-1.38","","<img src=""img/orange-n.png"" border=""10"">","null","trial","null","","0.4,0.6","2:nogo_b","0",""
"null","","html-keyboard-response","336","487990","0.0-6.0-2.38","","<div style=""font-size:60px;"">+</div>","null","","","","","","",""
"null","","image-keyboard-response","337","489495","0.0-6.0-0.39","","img/purple.png","null","trial","32","false","0.6,0.4","3:go_c","",""
"null","","html-keyboard-response","338","490501","0.0-6.0-1.39","","<img src=""img/purple-n.png"">","null","trial","32","","0.6,0.4","3:go_c","0",""
"null","","html-keyboard-response","339","491505","0.0-6.0-2.39","","<div style=""font-size:60px;"">+</div>","null","","","","","","",""
"null","","image-keyboard-response","340","493009","0.0-6.0-0.40","","img/purple.png","null","trial","32","false","0.6,0.4","3:go_c","",""
"null","","html-keyboard-response","341","494014","0.0-6.0-1.40","","<img src=""img/purple-n.png"">","null","trial","32","","0.6,0.4","3:go_c","0",""
"null","","html-keyboard-response","342","495014","0.0-6.0-2.40","","<div style=""font-size:60px;"">+</div>","null","","","","","","",""
"null","","image-keyboard-response","343","496517","0.0-6.0-0.41","","img/blue.png","null","trial","32","false","0.6,0.4","1:go_a","",""
"null","","html-keyboard-response","344","497522","0.0-6.0-1.41","","<img src=""img/blue-n.png"">","null","trial","32","","0.6,0.4","1:go_a","0",""
"null","","html-keyboard-response","345","498525","0.0-6.0-2.41","","<div style=""font-size:60px;"">+</div>","null","","","","","","",""
"null","","image-keyboard-response","346","500030","0.0-6.0-0.42","","img/grey.png","null","trial","null","true","0.4,0.6","4:nogo_d","",""
"null","","html-keyboard-response","347","501036","0.0-6.0-1.42","","<img src=""img/grey-r.png"">","null","trial","null","","0.4,0.6","4:nogo_d","1",""
"null","","html-keyboard-response","348","502040","0.0-6.0-2.42","","<div style=""font-size:60px;"">+</div>","null","","","","","","",""
"441.20000000298023","","image-keyboard-response","349","502482","0.0-6.0-0.43","","img/orange.png","32","trial","null","false","0.4,0.6","2:nogo_b","",""
"null","","html-keyboard-response","350","503486","0.0-6.0-1.43","","<img src=""img/orange-r.png"" border=""10"">","null","trial","null","","0.4,0.6","2:nogo_b","1",""
"null","","html-keyboard-response","351","504491","0.0-6.0-2.43","","<div style=""font-size:60px;"">+</div>","null","","","","","","",""
"709.2999999970198","","image-keyboard-response","352","505201","0.0-6.0-0.44","","img/orange.png","32","trial","null","false","0.4,0.6","2:nogo_b","",""
"null","","html-keyboard-response","353","506203","0.0-6.0-1.44","","<img src=""img/orange-n.png"" border=""10"">","null","trial","null","","0.4,0.6","2:nogo_b","0",""
"null","","html-keyboard-response","354","507208","0.0-6.0-2.44","","<div style=""font-size:60px;"">+</div>","null","","","","","","",""
"null","","image-keyboard-response","355","508709","0.0-6.0-0.45","","img/purple.png","null","trial","32","false","0.6,0.4","3:go_c","",""
"null","","html-keyboard-response","356","509714","0.0-6.0-1.45","","<img src=""img/purple-n.png"">","null","trial","32","","0.6,0.4","3:go_c","0",""
"null","","html-keyboard-response","357","510717","0.0-6.0-2.45","","<div style=""font-size:60px;"">+</div>","null","","","","","","",""
"null","","image-keyboard-response","358","512220","0.0-6.0-0.46","","img/blue.png","null","trial","32","false","0.6,0.4","1:go_a","",""
"null","","html-keyboard-response","359","513223","0.0-6.0-1.46","","<img src=""img/blue-r.png"">","null","trial","32","","0.6,0.4","1:go_a","1",""
"null","","html-keyboard-response","360","514226","0.0-6.0-2.46","","<div style=""font-size:60px;"">+</div>","null","","","","","","",""
"null","","image-keyboard-response","361","515728","0.0-6.0-0.47","","img/grey.png","null","trial","null","true","0.4,0.6","4:nogo_d","",""
"null","","html-keyboard-response","362","516733","0.0-6.0-1.47","","<img src=""img/grey-n.png"">","null","trial","null","","0.4,0.6","4:nogo_d","0",""
"null","","html-keyboard-response","363","517735","0.0-6.0-2.47","","<div style=""font-size:60px;"">+</div>","null","","","","","","",""
"568.9000000059605","","image-keyboard-response","364","518305","0.0-6.0-0.48","","img/orange.png","32","trial","null","false","0.4,0.6","2:nogo_b","",""
"null","","html-keyboard-response","365","519307","0.0-6.0-1.48","","<img src=""img/orange-r.png"" border=""10"">","null","trial","null","","0.4,0.6","2:nogo_b","1",""
"null","","html-keyboard-response","366","520310","0.0-6.0-2.48","","<div style=""font-size:60px;"">+</div>","null","","","","","","",""
"null","","image-keyboard-response","367","521814","0.0-6.0-0.49","","img/grey.png","null","trial","null","true","0.4,0.6","4:nogo_d","",""
"null","","html-keyboard-response","368","522819","0.0-6.0-1.49","","<img src=""img/grey-r.png"">","null","trial","null","","0.4,0.6","4:nogo_d","1",""
"null","","html-keyboard-response","369","523820","0.0-6.0-2.49","","<div style=""font-size:60px;"">+</div>","null","","","","","","",""
"null","","image-keyboard-response","370","525325","0.0-6.0-0.50","","img/blue.png","null","trial","32","false","0.6,0.4","1:go_a","",""
"null","","html-keyboard-response","371","526330","0.0-6.0-1.50","","<img src=""img/blue-n.png"">","null","trial","32","","0.6,0.4","1:go_a","0",""
"null","","html-keyboard-response","372","527335","0.0-6.0-2.50","","<div style=""font-size:60px;"">+</div>","null","","","","","","",""
"null","","image-keyboard-response","373","528841","0.0-6.0-0.51","","img/purple.png","null","trial","32","false","0.6,0.4","3:go_c","",""
"null","","html-keyboard-response","374","529844","0.0-6.0-1.51","","<img src=""img/purple-n.png"">","null","trial","32","","0.6,0.4","3:go_c","0",""
"null","","html-keyboard-response","375","530848","0.0-6.0-2.51","","<div style=""font-size:60px;"">+</div>","null","","","","","","",""
"431.5","","image-keyboard-response","376","531281","0.0-6.0-0.52","","img/orange.png","32","trial","null","false","0.4,0.6","2:nogo_b","",""
"null","","html-keyboard-response","377","532287","0.0-6.0-1.52","","<img src=""img/orange-n.png"" border=""10"">","null","trial","null","","0.4,0.6","2:nogo_b","0",""
"null","","html-keyboard-response","378","533292","0.0-6.0-2.52","","<div style=""font-size:60px;"">+</div>","null","","","","","","",""
"916.0999999940395","","image-keyboard-response","379","534208","0.0-6.0-0.53","","img/grey.png","32","trial","null","false","0.4,0.6","4:nogo_d","",""
"null","","html-keyboard-response","380","535210","0.0-6.0-1.53","","<img src=""img/grey-n.png"" border=""10"">","null","trial","null","","0.4,0.6","4:nogo_d","0",""
"null","","html-keyboard-response","381","536215","0.0-6.0-2.53","","<div style=""font-size:60px;"">+</div>","null","","","","","","",""
"null","","image-keyboard-response","382","537716","0.0-6.0-0.54","","img/blue.png","null","trial","32","false","0.6,0.4","1:go_a","",""
"null","","html-keyboard-response","383","538722","0.0-6.0-1.54","","<img src=""img/blue-n.png"">","null","trial","32","","0.6,0.4","1:go_a","0",""
"null","","html-keyboard-response","384","539725","0.0-6.0-2.54","","<div style=""font-size:60px;"">+</div>","null","","","","","","",""
"null","","image-keyboard-response","385","541228","0.0-6.0-0.55","","img/purple.png","null","trial","32","false","0.6,0.4","3:go_c","",""
"null","","html-keyboard-response","386","542230","0.0-6.0-1.55","","<img src=""img/purple-r.png"">","null","trial","32","","0.6,0.4","3:go_c","1",""
"null","","html-keyboard-response","387","543234","0.0-6.0-2.55","","<div style=""font-size:60px;"">+</div>","null","","","","","","",""
"null","","image-keyboard-response","388","544739","0.0-6.0-0.56","","img/blue.png","null","trial","32","false","0.6,0.4","1:go_a","",""
"null","","html-keyboard-response","389","545743","0.0-6.0-1.56","","<img src=""img/blue-n.png"">","null","trial","32","","0.6,0.4","1:go_a","0",""
"null","","html-keyboard-response","390","546747","0.0-6.0-2.56","","<div style=""font-size:60px;"">+</div>","null","","","","","","",""
"388.20000000298023","","image-keyboard-response","391","547137","0.0-6.0-0.57","","img/orange.png","32","trial","null","false","0.4,0.6","2:nogo_b","",""
"null","","html-keyboard-response","392","548142","0.0-6.0-1.57","","<img src=""img/orange-r.png"" border=""10"">","null","trial","null","","0.4,0.6","2:nogo_b","1",""
"null","","html-keyboard-response","393","549146","0.0-6.0-2.57","","<div style=""font-size:60px;"">+</div>","null","","","","","","",""
"null","","image-keyboard-response","394","550650","0.0-6.0-0.58","","img/purple.png","null","trial","32","false","0.6,0.4","3:go_c","",""
"null","","html-keyboard-response","395","551652","0.0-6.0-1.58","","<img src=""img/purple-r.png"">","null","trial","32","","0.6,0.4","3:go_c","1",""
"null","","html-keyboard-response","396","552656","0.0-6.0-2.58","","<div style=""font-size:60px;"">+</div>","null","","","","","","",""
"null","","image-keyboard-response","397","554160","0.0-6.0-0.59","","img/grey.png","null","trial","null","true","0.4,0.6","4:nogo_d","",""
"null","","html-keyboard-response","398","555165","0.0-6.0-1.59","","<img src=""img/grey-n.png"">","null","trial","null","","0.4,0.6","4:nogo_d","0",""
"null","","html-keyboard-response","399","556168","0.0-6.0-2.59","","<div style=""font-size:60px;"">+</div>","null","","","","","","",""
"null","","image-keyboard-response","400","557673","0.0-6.0-0.60","","img/blue.png","null","trial","32","false","0.6,0.4","1:go_a","",""
"null","","html-keyboard-response","401","558674","0.0-6.0-1.60","","<img src=""img/blue-n.png"">","null","trial","32","","0.6,0.4","1:go_a","0",""
"null","","html-keyboard-response","402","559677","0.0-6.0-2.60","","<div style=""font-size:60px;"">+</div>","null","","","","","","",""
"449.8999999985099","","image-keyboard-response","403","560128","0.0-6.0-0.61","","img/orange.png","32","trial","null","false","0.4,0.6","2:nogo_b","",""
"null","","html-keyboard-response","404","561133","0.0-6.0-1.61","","<img src=""img/orange-n.png"" border=""10"">","null","trial","null","","0.4,0.6","2:nogo_b","0",""
"null","","html-keyboard-response","405","562136","0.0-6.0-2.61","","<div style=""font-size:60px;"">+</div>","null","","","","","","",""
"null","","image-keyboard-response","406","563638","0.0-6.0-0.62","","img/grey.png","null","trial","null","true","0.4,0.6","4:nogo_d","",""
"null","","html-keyboard-response","407","564642","0.0-6.0-1.62","","<img src=""img/grey-r.png"">","null","trial","null","","0.4,0.6","4:nogo_d","1",""
"null","","html-keyboard-response","408","565648","0.0-6.0-2.62","","<div style=""font-size:60px;"">+</div>","null","","","","","","",""
"null","","image-keyboard-response","409","567153","0.0-6.0-0.63","","img/purple.png","null","trial","32","false","0.6,0.4","3:go_c","",""
"null","","html-keyboard-response","410","568160","0.0-6.0-1.63","","<img src=""img/purple-n.png"">","null","trial","32","","0.6,0.4","3:go_c","0",""
"null","","html-keyboard-response","411","569161","0.0-6.0-2.63","","<div style=""font-size:60px;"">+</div>","null","","","","","","",""
"null","","image-keyboard-response","412","570665","0.0-6.0-0.64","","img/blue.png","null","trial","32","false","0.6,0.4","1:go_a","",""
"null","","html-keyboard-response","413","571671","0.0-6.0-1.64","","<img src=""img/blue-r.png"">","null","trial","32","","0.6,0.4","1:go_a","1",""
"null","","html-keyboard-response","414","572676","0.0-6.0-2.64","","<div style=""font-size:60px;"">+</div>","null","","","","","","",""
"971.5","","image-keyboard-response","415","573648","0.0-6.0-0.65","","img/purple.png","32","trial","32","true","0.6,0.4","3:go_c","",""
"null","","html-keyboard-response","416","574649","0.0-6.0-1.65","","<img src=""img/purple-r.png"" border=""10"">","null","trial","32","","0.6,0.4","3:go_c","1",""
"null","","html-keyboard-response","417","575651","0.0-6.0-2.65","","<div style=""font-size:60px;"">+</div>","null","","","","","","",""
"659.5","","image-keyboard-response","418","576312","0.0-6.0-0.66","","img/orange.png","32","trial","null","false","0.4,0.6","2:nogo_b","",""
"null","","html-keyboard-response","419","577314","0.0-6.0-1.66","","<img src=""img/orange-n.png"" border=""10"">","null","trial","null","","0.4,0.6","2:nogo_b","0",""
"null","","html-keyboard-response","420","578317","0.0-6.0-2.66","","<div style=""font-size:60px;"">+</div>","null","","","","","","",""
"null","","image-keyboard-response","421","579819","0.0-6.0-0.67","","img/grey.png","null","trial","null","true","0.4,0.6","4:nogo_d","",""
"null","","html-keyboard-response","422","580823","0.0-6.0-1.67","","<img src=""img/grey-r.png"">","null","trial","null","","0.4,0.6","4:nogo_d","1",""
"null","","html-keyboard-response","423","581824","0.0-6.0-2.67","","<div style=""font-size:60px;"">+</div>","null","","","","","","",""
"446.5","","image-keyboard-response","424","582271","0.0-6.0-0.68","","img/orange.png","32","trial","null","false","0.4,0.6","2:nogo_b","",""
"null","","html-keyboard-response","425","583273","0.0-6.0-1.68","","<img src=""img/orange-n.png"" border=""10"">","null","trial","null","","0.4,0.6","2:nogo_b","0",""
"null","","html-keyboard-response","426","584275","0.0-6.0-2.68","","<div style=""font-size:60px;"">+</div>","null","","","","","","",""
"403.90000000596046","","image-keyboard-response","427","584680","0.0-6.0-0.69","","img/purple.png","32","trial","32","true","0.6,0.4","3:go_c","",""
"null","","html-keyboard-response","428","585686","0.0-6.0-1.69","","<img src=""img/purple-n.png"" border=""10"">","null","trial","32","","0.6,0.4","3:go_c","0",""
"null","","html-keyboard-response","429","586688","0.0-6.0-2.69","","<div style=""font-size:60px;"">+</div>","null","","","","","","",""
"null","","image-keyboard-response","430","588194","0.0-6.0-0.70","","img/blue.png","null","trial","32","false","0.6,0.4","1:go_a","",""
"null","","html-keyboard-response","431","589198","0.0-6.0-1.70","","<img src=""img/blue-n.png"">","null","trial","32","","0.6,0.4","1:go_a","0",""
"null","","html-keyboard-response","432","590202","0.0-6.0-2.70","","<div style=""font-size:60px;"">+</div>","null","","","","","","",""
"883.7000000029802","","image-keyboard-response","433","591087","0.0-6.0-0.71","","img/grey.png","32","trial","null","false","0.4,0.6","4:nogo_d","",""
"null","","html-keyboard-response","434","592090","0.0-6.0-1.71","","<img src=""img/grey-r.png"" border=""10"">","null","trial","null","","0.4,0.6","4:nogo_d","1",""
"null","","html-keyboard-response","435","593095","0.0-6.0-2.71","","<div style=""font-size:60px;"">+</div>","null","","","","","","",""
"null","","image-keyboard-response","436","594598","0.0-6.0-0.72","","img/blue.png","null","trial","32","false","0.6,0.4","1:go_a","",""
"null","","html-keyboard-response","437","595600","0.0-6.0-1.72","","<img src=""img/blue-n.png"">","null","trial","32","","0.6,0.4","1:go_a","0",""
"null","","html-keyboard-response","438","596604","0.0-6.0-2.72","","<div style=""font-size:60px;"">+</div>","null","","","","","","",""
"569.6000000014901","","image-keyboard-response","439","597175","0.0-6.0-0.73","","img/purple.png","32","trial","32","true","0.6,0.4","3:go_c","",""
"null","","html-keyboard-response","440","598181","0.0-6.0-1.73","","<img src=""img/purple-n.png"" border=""10"">","null","trial","32","","0.6,0.4","3:go_c","0",""
"null","","html-keyboard-response","441","599184","0.0-6.0-2.73","","<div style=""font-size:60px;"">+</div>","null","","","","","","",""
"837.4000000059605","","image-keyboard-response","442","600023","0.0-6.0-0.74","","img/orange.png","32","trial","null","false","0.4,0.6","2:nogo_b","",""
"null","","html-keyboard-response","443","601024","0.0-6.0-1.74","","<img src=""img/orange-n.png"" border=""10"">","null","trial","null","","0.4,0.6","2:nogo_b","0",""
"null","","html-keyboard-response","444","602028","0.0-6.0-2.74","","<div style=""font-size:60px;"">+</div>","null","","","","","","",""
"857.3000000044703","","image-keyboard-response","445","602886","0.0-6.0-0.75","","img/grey.png","32","trial","null","false","0.4,0.6","4:nogo_d","",""
"null","","html-keyboard-response","446","603891","0.0-6.0-1.75","","<img src=""img/grey-r.png"" border=""10"">","null","trial","null","","0.4,0.6","4:nogo_d","1",""
"null","","html-keyboard-response","447","604892","0.0-6.0-2.75","","<div style=""font-size:60px;"">+</div>","null","","","","","","",""
"705.6000000014901","","image-keyboard-response","448","605599","0.0-6.0-0.76","","img/grey.png","32","trial","null","false","0.4,0.6","4:nogo_d","",""
"null","","html-keyboard-response","449","606606","0.0-6.0-1.76","","<img src=""img/grey-n.png"" border=""10"">","null","trial","null","","0.4,0.6","4:nogo_d","0",""
"null","","html-keyboard-response","450","607611","0.0-6.0-2.76","","<div style=""font-size:60px;"">+</div>","null","","","","","","",""
"null","","image-keyboard-response","451","609116","0.0-6.0-0.77","","img/orange.png","null","trial","null","true","0.4,0.6","2:nogo_b","",""
"null","","html-keyboard-response","452","610121","0.0-6.0-1.77","","<img src=""img/orange-n.png"">","null","trial","null","","0.4,0.6","2:nogo_b","0",""
"null","","html-keyboard-response","453","611122","0.0-6.0-2.77","","<div style=""font-size:60px;"">+</div>","null","","","","","","",""
"1003.7999999970198","","image-keyboard-response","454","612126","0.0-6.0-0.78","","img/blue.png","32","trial","32","true","0.6,0.4","1:go_a","",""
"null","","html-keyboard-response","455","613128","0.0-6.0-1.78","","<img src=""img/blue-r.png"" border=""10"">","null","trial","32","","0.6,0.4","1:go_a","1",""
"null","","html-keyboard-response","456","614130","0.0-6.0-2.78","","<div style=""font-size:60px;"">+</div>","null","","","","","","",""
"null","","image-keyboard-response","457","615634","0.0-6.0-0.79","","img/purple.png","null","trial","32","false","0.6,0.4","3:go_c","",""
"null","","html-keyboard-response","458","616636","0.0-6.0-1.79","","<img src=""img/purple-r.png"">","null","trial","32","","0.6,0.4","3:go_c","1",""
"null","","html-keyboard-response","459","617641","0.0-6.0-2.79","","<div style=""font-size:60px;"">+</div>","null","","","","","","",""
"700.5","","image-keyboard-response","460","618342","0.0-6.0-0.80","","img/blue.png","32","trial","32","true","0.6,0.4","1:go_a","",""
"null","","html-keyboard-response","461","619346","0.0-6.0-1.80","","<img src=""img/blue-r.png"" border=""10"">","null","trial","32","","0.6,0.4","1:go_a","1",""
"null","","html-keyboard-response","462","620350","0.0-6.0-2.80","","<div style=""font-size:60px;"">+</div>","null","","","","","","",""
"815.6000000014901","","image-keyboard-response","463","621167","0.0-6.0-0.81","","img/grey.png","32","trial","null","false","0.4,0.6","4:nogo_d","",""
"null","","html-keyboard-response","464","622169","0.0-6.0-1.81","","<img src=""img/grey-n.png"" border=""10"">","null","trial","null","","0.4,0.6","4:nogo_d","0",""
"null","","html-keyboard-response","465","623170","0.0-6.0-2.81","","<div style=""font-size:60px;"">+</div>","null","","","","","","",""
"null","","image-keyboard-response","466","624673","0.0-6.0-0.82","","img/orange.png","null","trial","null","true","0.4,0.6","2:nogo_b","",""
"null","","html-keyboard-response","467","625674","0.0-6.0-1.82","","<img src=""img/orange-n.png"">","null","trial","null","","0.4,0.6","2:nogo_b","0",""
"null","","html-keyboard-response","468","626677","0.0-6.0-2.82","","<div style=""font-size:60px;"">+</div>","null","","","","","","",""
"null","","image-keyboard-response","469","628182","0.0-6.0-0.83","","img/purple.png","null","trial","32","false","0.6,0.4","3:go_c","",""
"null","","html-keyboard-response","470","629185","0.0-6.0-1.83","","<img src=""img/purple-r.png"">","null","trial","32","","0.6,0.4","3:go_c","1",""
"null","","html-keyboard-response","471","630187","0.0-6.0-2.83","","<div style=""font-size:60px;"">+</div>","null","","","","","","",""
"null","","image-keyboard-response","472","631689","0.0-6.0-0.84","","img/purple.png","null","trial","32","false","0.6,0.4","3:go_c","",""
"null","","html-keyboard-response","473","632693","0.0-6.0-1.84","","<img src=""img/purple-n.png"">","null","trial","32","","0.6,0.4","3:go_c","0",""
"null","","html-keyboard-response","474","633696","0.0-6.0-2.84","","<div style=""font-size:60px;"">+</div>","null","","","","","","",""
"null","","image-keyboard-response","475","635200","0.0-6.0-0.85","","img/orange.png","null","trial","null","true","0.4,0.6","2:nogo_b","",""
"null","","html-keyboard-response","476","636203","0.0-6.0-1.85","","<img src=""img/orange-r.png"">","null","trial","null","","0.4,0.6","2:nogo_b","1",""
"null","","html-keyboard-response","477","637206","0.0-6.0-2.85","","<div style=""font-size:60px;"">+</div>","null","","","","","","",""
"505.1000000014901","","image-keyboard-response","478","637712","0.0-6.0-0.86","","img/blue.png","32","trial","32","true","0.6,0.4","1:go_a","",""
"null","","html-keyboard-response","479","638717","0.0-6.0-1.86","","<img src=""img/blue-n.png"" border=""10"">","null","trial","32","","0.6,0.4","1:go_a","0",""
"null","","html-keyboard-response","480","639721","0.0-6.0-2.86","","<div style=""font-size:60px;"">+</div>","null","","","","","","",""
"514.6000000014901","","image-keyboard-response","481","640237","0.0-6.0-0.87","","img/grey.png","32","trial","null","false","0.4,0.6","4:nogo_d","",""
"null","","html-keyboard-response","482","641239","0.0-6.0-1.87","","<img src=""img/grey-n.png"" border=""10"">","null","trial","null","","0.4,0.6","4:nogo_d","0",""
"null","","html-keyboard-response","483","642245","0.0-6.0-2.87","","<div style=""font-size:60px;"">+</div>","null","","","","","","",""
"null","","image-keyboard-response","484","643746","0.0-6.0-0.88","","img/purple.png","null","trial","32","false","0.6,0.4","3:go_c","",""
"null","","html-keyboard-response","485","644748","0.0-6.0-1.88","","<img src=""img/purple-n.png"">","null","trial","32","","0.6,0.4","3:go_c","0",""
"null","","html-keyboard-response","486","645753","0.0-6.0-2.88","","<div style=""font-size:60px;"">+</div>","null","","","","","","",""
"null","","image-keyboard-response","487","647254","0.0-6.0-0.89","","img/orange.png","null","trial","null","true","0.4,0.6","2:nogo_b","",""
"null","","html-keyboard-response","488","648259","0.0-6.0-1.89","","<img src=""img/orange-n.png"">","null","trial","null","","0.4,0.6","2:nogo_b","0",""
"null","","html-keyboard-response","489","649260","0.0-6.0-2.89","","<div style=""font-size:60px;"">+</div>","null","","","","","","",""
"632.0999999940395","","image-keyboard-response","490","649893","0.0-6.0-0.90","","img/grey.png","32","trial","null","false","0.4,0.6","4:nogo_d","",""
"null","","html-keyboard-response","491","650896","0.0-6.0-1.90","","<img src=""img/grey-r.png"" border=""10"">","null","trial","null","","0.4,0.6","4:nogo_d","1",""
"null","","html-keyboard-response","492","651897","0.0-6.0-2.90","","<div style=""font-size:60px;"">+</div>","null","","","","","","",""
"866.7000000029802","","image-keyboard-response","493","652765","0.0-6.0-0.91","","img/blue.png","32","trial","32","true","0.6,0.4","1:go_a","",""
"null","","html-keyboard-response","494","653767","0.0-6.0-1.91","","<img src=""img/blue-r.png"" border=""10"">","null","trial","32","","0.6,0.4","1:go_a","1",""
"null","","html-keyboard-response","495","654769","0.0-6.0-2.91","","<div style=""font-size:60px;"">+</div>","null","","","","","","",""
"null","","image-keyboard-response","496","656271","0.0-6.0-0.92","","img/purple.png","null","trial","32","false","0.6,0.4","3:go_c","",""
"null","","html-keyboard-response","497","657274","0.0-6.0-1.92","","<img src=""img/purple-r.png"">","null","trial","32","","0.6,0.4","3:go_c","1",""
"null","","html-keyboard-response","498","658275","0.0-6.0-2.92","","<div style=""font-size:60px;"">+</div>","null","","","","","","",""
"785.0999999940395","","image-keyboard-response","499","659061","0.0-6.0-0.93","","img/blue.png","32","trial","32","true","0.6,0.4","1:go_a","",""
"null","","html-keyboard-response","500","660063","0.0-6.0-1.93","","<img src=""img/blue-r.png"" border=""10"">","null","trial","32","","0.6,0.4","1:go_a","1",""
"null","","html-keyboard-response","501","661064","0.0-6.0-2.93","","<div style=""font-size:60px;"">+</div>","null","","","","","","",""
"null","","image-keyboard-response","502","662566","0.0-6.0-0.94","","img/orange.png","null","trial","null","true","0.4,0.6","2:nogo_b","",""
"null","","html-keyboard-response","503","663571","0.0-6.0-1.94","","<img src=""img/orange-r.png"">","null","trial","null","","0.4,0.6","2:nogo_b","1",""
"null","","html-keyboard-response","504","664575","0.0-6.0-2.94","","<div style=""font-size:60px;"">+</div>","null","","","","","","",""
"652.6000000014901","","image-keyboard-response","505","665229","0.0-6.0-0.95","","img/grey.png","32","trial","null","false","0.4,0.6","4:nogo_d","",""
"null","","html-keyboard-response","506","666232","0.0-6.0-1.95","","<img src=""img/grey-n.png"" border=""10"">","null","trial","null","","0.4,0.6","4:nogo_d","0",""
"null","","html-keyboard-response","507","667237","0.0-6.0-2.95","","<div style=""font-size:60px;"">+</div>","null","","","","","","",""
"null","","image-keyboard-response","508","668738","0.0-6.0-0.96","","img/orange.png","null","trial","null","true","0.4,0.6","2:nogo_b","",""
"null","","html-keyboard-response","509","669739","0.0-6.0-1.96","","<img src=""img/orange-r.png"">","null","trial","null","","0.4,0.6","2:nogo_b","1",""
"null","","html-keyboard-response","510","670743","0.0-6.0-2.96","","<div style=""font-size:60px;"">+</div>","null","","","","","","",""
"588.5","","image-keyboard-response","511","671333","0.0-6.0-0.97","","img/grey.png","32","trial","null","false","0.4,0.6","4:nogo_d","",""
"null","","html-keyboard-response","512","672339","0.0-6.0-1.97","","<img src=""img/grey-n.png"" border=""10"">","null","trial","null","","0.4,0.6","4:nogo_d","0",""
"null","","html-keyboard-response","513","673344","0.0-6.0-2.97","","<div style=""font-size:60px;"">+</div>","null","","","","","","",""
"963.3999999985099","","image-keyboard-response","514","674308","0.0-6.0-0.98","","img/blue.png","32","trial","32","true","0.6,0.4","1:go_a","",""
"null","","html-keyboard-response","515","675311","0.0-6.0-1.98","","<img src=""img/blue-r.png"" border=""10"">","null","trial","32","","0.6,0.4","1:go_a","1",""
"null","","html-keyboard-response","516","676314","0.0-6.0-2.98","","<div style=""font-size:60px;"">+</div>","null","","","","","","",""
"null","","image-keyboard-response","517","677816","0.0-6.0-0.99","","img/purple.png","null","trial","32","false","0.6,0.4","3:go_c","",""
"null","","html-keyboard-response","518","678821","0.0-6.0-1.99","","<img src=""img/purple-n.png"">","null","trial","32","","0.6,0.4","3:go_c","0",""
"null","","html-keyboard-response","519","679822","0.0-6.0-2.99","","<div style=""font-size:60px;"">+</div>","null","","","","","","",""
"null","","image-keyboard-response","520","681325","0.0-6.0-0.100","","img/orange.png","null","trial","null","true","0.4,0.6","2:nogo_b","",""
"null","","html-keyboard-response","521","682330","0.0-6.0-1.100","","<img src=""img/orange-n.png"">","null","trial","null","","0.4,0.6","2:nogo_b","0",""
"null","","html-keyboard-response","522","683336","0.0-6.0-2.100","","<div style=""font-size:60px;"">+</div>","null","","","","","","",""
"724","","image-keyboard-response","523","684060","0.0-6.0-0.101","","img/blue.png","32","trial","32","true","0.6,0.4","1:go_a","",""
"null","","html-keyboard-response","524","685066","0.0-6.0-1.101","","<img src=""img/blue-n.png"" border=""10"">","null","trial","32","","0.6,0.4","1:go_a","0",""
"null","","html-keyboard-response","525","686068","0.0-6.0-2.101","","<div style=""font-size:60px;"">+</div>","null","","","","","","",""
"551.1000000014901","","image-keyboard-response","526","686620","0.0-6.0-0.102","","img/grey.png","32","trial","null","false","0.4,0.6","4:nogo_d","",""
"null","","html-keyboard-response","527","687624","0.0-6.0-1.102","","<img src=""img/grey-n.png"" border=""10"">","null","trial","null","","0.4,0.6","4:nogo_d","0",""
"null","","html-keyboard-response","528","688627","0.0-6.0-2.102","","<div style=""font-size:60px;"">+</div>","null","","","","","","",""
"null","","image-keyboard-response","529","690132","0.0-6.0-0.103","","img/purple.png","null","trial","32","false","0.6,0.4","3:go_c","",""
"null","","html-keyboard-response","530","691134","0.0-6.0-1.103","","<img src=""img/purple-n.png"">","null","trial","32","","0.6,0.4","3:go_c","0",""
"null","","html-keyboard-response","531","692138","0.0-6.0-2.103","","<div style=""font-size:60px;"">+</div>","null","","","","","","",""
"889.4000000059605","","image-keyboard-response","532","693028","0.0-6.0-0.104","","img/grey.png","32","trial","null","false","0.4,0.6","4:nogo_d","",""
"null","","html-keyboard-response","533","694030","0.0-6.0-1.104","","<img src=""img/grey-n.png"" border=""10"">","null","trial","null","","0.4,0.6","4:nogo_d","0",""
"null","","html-keyboard-response","534","695031","0.0-6.0-2.104","","<div style=""font-size:60px;"">+</div>","null","","","","","","",""
"819.7999999970198","","image-keyboard-response","535","695852","0.0-6.0-0.105","","img/orange.png","32","trial","null","false","0.4,0.6","2:nogo_b","",""
"null","","html-keyboard-response","536","696859","0.0-6.0-1.105","","<img src=""img/orange-n.png"" border=""10"">","null","trial","null","","0.4,0.6","2:nogo_b","0",""
"null","","html-keyboard-response","537","697864","0.0-6.0-2.105","","<div style=""font-size:60px;"">+</div>","null","","","","","","",""
"null","","image-keyboard-response","538","699366","0.0-6.0-0.106","","img/blue.png","null","trial","32","false","0.6,0.4","1:go_a","",""
"null","","html-keyboard-response","539","700371","0.0-6.0-1.106","","<img src=""img/blue-n.png"">","null","trial","32","","0.6,0.4","1:go_a","0",""
"null","","html-keyboard-response","540","701373","0.0-6.0-2.106","","<div style=""font-size:60px;"">+</div>","null","","","","","","",""
"982.1999999955297","","image-keyboard-response","541","702356","0.0-6.0-0.107","","img/purple.png","32","trial","32","true","0.6,0.4","3:go_c","",""
"null","","html-keyboard-response","542","703360","0.0-6.0-1.107","","<img src=""img/purple-r.png"" border=""10"">","null","trial","32","","0.6,0.4","3:go_c","1",""
"null","","html-keyboard-response","543","704365","0.0-6.0-2.107","","<div style=""font-size:60px;"">+</div>","null","","","","","","",""
"null","","image-keyboard-response","544","705868","0.0-6.0-0.108","","img/grey.png","null","trial","null","true","0.4,0.6","4:nogo_d","",""
"null","","html-keyboard-response","545","706871","0.0-6.0-1.108","","<img src=""img/grey-r.png"">","null","trial","null","","0.4,0.6","4:nogo_d","1",""
"null","","html-keyboard-response","546","707875","0.0-6.0-2.108","","<div style=""font-size:60px;"">+</div>","null","","","","","","",""
"584","","image-keyboard-response","547","708460","0.0-6.0-0.109","","img/purple.png","32","trial","32","true","0.6,0.4","3:go_c","",""
"null","","html-keyboard-response","548","709465","0.0-6.0-1.109","","<img src=""img/purple-n.png"" border=""10"">","null","trial","32","","0.6,0.4","3:go_c","0",""
"null","","html-keyboard-response","549","710470","0.0-6.0-2.109","","<div style=""font-size:60px;"">+</div>","null","","","","","","",""
"null","","image-keyboard-response","550","711972","0.0-6.0-0.110","","img/blue.png","null","trial","32","false","0.6,0.4","1:go_a","",""
"null","","html-keyboard-response","551","712973","0.0-6.0-1.110","","<img src=""img/blue-r.png"">","null","trial","32","","0.6,0.4","1:go_a","1",""
"null","","html-keyboard-response","552","713978","0.0-6.0-2.110","","<div style=""font-size:60px;"">+</div>","null","","","","","","",""
"null","","image-keyboard-response","553","715481","0.0-6.0-0.111","","img/orange.png","null","trial","null","true","0.4,0.6","2:nogo_b","",""
"null","","html-keyboard-response","554","716486","0.0-6.0-1.111","","<img src=""img/orange-n.png"">","null","trial","null","","0.4,0.6","2:nogo_b","0",""
"null","","html-keyboard-response","555","717487","0.0-6.0-2.111","","<div style=""font-size:60px;"">+</div>","null","","","","","","",""
"null","","image-keyboard-response","556","718988","0.0-6.0-0.112","","img/grey.png","null","trial","null","true","0.4,0.6","4:nogo_d","",""
"null","","html-keyboard-response","557","719991","0.0-6.0-1.112","","<img src=""img/grey-n.png"">","null","trial","null","","0.4,0.6","4:nogo_d","0",""
"null","","html-keyboard-response","558","720994","0.0-6.0-2.112","","<div style=""font-size:60px;"">+</div>","null","","","","","","",""
"null","","image-keyboard-response","559","722495","0.0-6.0-0.113","","img/blue.png","null","trial","32","false","0.6,0.4","1:go_a","",""
"null","","html-keyboard-response","560","723498","0.0-6.0-1.113","","<img src=""img/blue-r.png"">","null","trial","32","","0.6,0.4","1:go_a","1",""
"null","","html-keyboard-response","561","724500","0.0-6.0-2.113","","<div style=""font-size:60px;"">+</div>","null","","","","","","",""
"494.40000000596046","","image-keyboard-response","562","724996","0.0-6.0-0.114","","img/purple.png","32","trial","32","true","0.6,0.4","3:go_c","",""
"null","","html-keyboard-response","563","726002","0.0-6.0-1.114","","<img src=""img/purple-n.png"" border=""10"">","null","trial","32","","0.6,0.4","3:go_c","0",""
"null","","html-keyboard-response","564","727007","0.0-6.0-2.114","","<div style=""font-size:60px;"">+</div>","null","","","","","","",""
"778.6000000014901","","image-keyboard-response","565","727787","0.0-6.0-0.115","","img/orange.png","32","trial","null","false","0.4,0.6","2:nogo_b","",""
"null","","html-keyboard-response","566","728790","0.0-6.0-1.115","","<img src=""img/orange-r.png"" border=""10"">","null","trial","null","","0.4,0.6","2:nogo_b","1",""
"null","","html-keyboard-response","567","729793","0.0-6.0-2.115","","<div style=""font-size:60px;"">+</div>","null","","","","","","",""
"null","","image-keyboard-response","568","731294","0.0-6.0-0.116","","img/grey.png","null","trial","null","true","0.4,0.6","4:nogo_d","",""
"null","","html-keyboard-response","569","732298","0.0-6.0-1.116","","<img src=""img/grey-n.png"">","null","trial","null","","0.4,0.6","4:nogo_d","0",""
"null","","html-keyboard-response","570","733301","0.0-6.0-2.116","","<div style=""font-size:60px;"">+</div>","null","","","","","","",""
"621.2999999970198","","image-keyboard-response","571","733923","0.0-6.0-0.117","","img/orange.png","32","trial","null","false","0.4,0.6","2:nogo_b","",""
"null","","html-keyboard-response","572","734927","0.0-6.0-1.117","","<img src=""img/orange-r.png"" border=""10"">","null","trial","null","","0.4,0.6","2:nogo_b","1",""
"null","","html-keyboard-response","573","735929","0.0-6.0-2.117","","<div style=""font-size:60px;"">+</div>","null","","","","","","",""
"848.8999999985099","","image-keyboard-response","574","736779","0.0-6.0-0.118","","img/purple.png","32","trial","32","true","0.6,0.4","3:go_c","",""
"null","","html-keyboard-response","575","737783","0.0-6.0-1.118","","<img src=""img/purple-r.png"" border=""10"">","null","trial","32","","0.6,0.4","3:go_c","1",""
"null","","html-keyboard-response","576","738784","0.0-6.0-2.118","","<div style=""font-size:60px;"">+</div>","null","","","","","","",""
"null","","image-keyboard-response","577","740286","0.0-6.0-0.119","","img/blue.png","null","trial","32","false","0.6,0.4","1:go_a","",""
"null","","html-keyboard-response","578","741289","0.0-6.0-1.119","","<img src=""img/blue-n.png"">","null","trial","32","","0.6,0.4","1:go_a","0",""
"null","","html-keyboard-response","579","742292","0.0-6.0-2.119","","<div style=""font-size:60px;"">+</div>","null","","","","","","",""
"91461.40000000596","","instructions","580","833752","0.0-7.0","[{""page_index"":0,""viewing_time"":91461}]","","","","","","","","",""
"767.7999999970198","","image-keyboard-response","581","834521","0.0-8.0-0.0","","img/red.png","32","trial","32","true","0.8,0.2","1:go_a","",""
"null","","html-keyboard-response","582","835526","0.0-8.0-1.0","","<img src=""img/red-r.png"" border=""10"">","null","trial","32","","0.8,0.2","1:go_a","1",""
"null","","html-keyboard-response","583","836529","0.0-8.0-2.0","","<div style=""font-size:60px;"">+</div>","null","","","","","","",""
"406.30000000447035","","image-keyboard-response","584","836937","0.0-8.0-0.1","","img/grey.png","32","trial","32","true","1,0","3:go_c","",""
"null","","html-keyboard-response","585","837942","0.0-8.0-1.1","","<img src=""img/grey-r.png"" border=""10"">","null","trial","32","","1,0","3:go_c","1",""
"null","","html-keyboard-response","586","838944","0.0-8.0-2.1","","<div style=""font-size:60px;"">+</div>","null","","","","","","",""
"null","","image-keyboard-response","587","840450","0.0-8.0-0.2","","img/green.png","null","trial","null","true","0.2,0.8","2:nogo_b","",""
"null","","html-keyboard-response","588","841451","0.0-8.0-1.2","","<img src=""img/green-r.png"">","null","trial","null","","0.2,0.8","2:nogo_b","1",""
"null","","html-keyboard-response","589","842455","0.0-8.0-2.2","","<div style=""font-size:60px;"">+</div>","null","","","","","","",""
"null","","image-keyboard-response","590","843959","0.0-8.0-0.3","","img/yellow.png","null","trial","null","true","0,1","4:nogo_d","",""
"null","","html-keyboard-response","591","844961","0.0-8.0-1.3","","<img src=""img/yellow-r.png"">","null","trial","null","","0,1","4:nogo_d","1",""
"null","","html-keyboard-response","592","845965","0.0-8.0-2.3","","<div style=""font-size:60px;"">+</div>","null","","","","","","",""
"null","","image-keyboard-response","593","847468","0.0-8.0-0.4","","img/green.png","null","trial","null","true","0.2,0.8","2:nogo_b","",""
"null","","html-keyboard-response","594","848473","0.0-8.0-1.4","","<img src=""img/green-r.png"">","null","trial","null","","0.2,0.8","2:nogo_b","1",""
"null","","html-keyboard-response","595","849476","0.0-8.0-2.4","","<div style=""font-size:60px;"">+</div>","null","","","","","","",""
"null","","image-keyboard-response","596","850980","0.0-8.0-0.5","","img/yellow.png","null","trial","null","true","0,1","4:nogo_d","",""
"null","","html-keyboard-response","597","851983","0.0-8.0-1.5","","<img src=""img/yellow-r.png"">","null","trial","null","","0,1","4:nogo_d","1",""
"null","","html-keyboard-response","598","852987","0.0-8.0-2.5","","<div style=""font-size:60px;"">+</div>","null","","","","","","",""
"573.2999999970198","","image-keyboard-response","599","853561","0.0-8.0-0.6","","img/red.png","32","trial","32","true","0.8,0.2","1:go_a","",""
"null","","html-keyboard-response","600","854566","0.0-8.0-1.6","","<img src=""img/red-r.png"" border=""10"">","null","trial","32","","0.8,0.2","1:go_a","1",""
"null","","html-keyboard-response","601","855568","0.0-8.0-2.6","","<div style=""font-size:60px;"">+</div>","null","","","","","","",""
"471.20000000298023","","image-keyboard-response","602","856041","0.0-8.0-0.7","","img/grey.png","32","trial","32","true","1,0","3:go_c","",""
"null","","html-keyboard-response","603","857042","0.0-8.0-1.7","","<img src=""img/grey-r.png"" border=""10"">","null","trial","32","","1,0","3:go_c","1",""
"null","","html-keyboard-response","604","858044","0.0-8.0-2.7","","<div style=""font-size:60px;"">+</div>","null","","","","","","",""
"null","","image-keyboard-response","605","859547","0.0-8.0-0.8","","img/green.png","null","trial","null","true","0.2,0.8","2:nogo_b","",""
"null","","html-keyboard-response","606","860552","0.0-8.0-1.8","","<img src=""img/green-r.png"">","null","trial","null","","0.2,0.8","2:nogo_b","1",""
"null","","html-keyboard-response","607","861556","0.0-8.0-2.8","","<div style=""font-size:60px;"">+</div>","null","","","","","","",""
"627.2000000029802","","image-keyboard-response","608","862184","0.0-8.0-0.9","","img/red.png","32","trial","32","true","0.8,0.2","1:go_a","",""
"null","","html-keyboard-response","609","863185","0.0-8.0-1.9","","<img src=""img/red-n.png"" border=""10"">","null","trial","32","","0.8,0.2","1:go_a","0",""
"null","","html-keyboard-response","610","864188","0.0-8.0-2.9","","<div style=""font-size:60px;"">+</div>","null","","","","","","",""
"683.3999999985099","","image-keyboard-response","611","864872","0.0-8.0-0.10","","img/grey.png","32","trial","32","true","1,0","3:go_c","",""
"null","","html-keyboard-response","612","865876","0.0-8.0-1.10","","<img src=""img/grey-r.png"" border=""10"">","null","trial","32","","1,0","3:go_c","1",""
"null","","html-keyboard-response","613","866877","0.0-8.0-2.10","","<div style=""font-size:60px;"">+</div>","null","","","","","","",""
"null","","image-keyboard-response","614","868382","0.0-8.0-0.11","","img/yellow.png","null","trial","null","true","0,1","4:nogo_d","",""
"null","","html-keyboard-response","615","869388","0.0-8.0-1.11","","<img src=""img/yellow-r.png"">","null","trial","null","","0,1","4:nogo_d","1",""
"null","","html-keyboard-response","616","870390","0.0-8.0-2.11","","<div style=""font-size:60px;"">+</div>","null","","","","","","",""
"921","","image-keyboard-response","617","871312","0.0-8.0-0.12","","img/grey.png","32","trial","32","true","1,0","3:go_c","",""
"null","","html-keyboard-response","618","872316","0.0-8.0-1.12","","<img src=""img/grey-r.png"" border=""10"">","null","trial","32","","1,0","3:go_c","1",""
"null","","html-keyboard-response","619","873322","0.0-8.0-2.12","","<div style=""font-size:60px;"">+</div>","null","","","","","","",""
"null","","image-keyboard-response","620","874827","0.0-8.0-0.13","","img/green.png","null","trial","null","true","0.2,0.8","2:nogo_b","",""
"null","","html-keyboard-response","621","875831","0.0-8.0-1.13","","<img src=""img/green-r.png"">","null","trial","null","","0.2,0.8","2:nogo_b","1",""
"null","","html-keyboard-response","622","876835","0.0-8.0-2.13","","<div style=""font-size:60px;"">+</div>","null","","","","","","",""
"836.2999999970198","","image-keyboard-response","623","877672","0.0-8.0-0.14","","img/red.png","32","trial","32","true","0.8,0.2","1:go_a","",""
"null","","html-keyboard-response","624","878678","0.0-8.0-1.14","","<img src=""img/red-r.png"" border=""10"">","null","trial","32","","0.8,0.2","1:go_a","1",""
"null","","html-keyboard-response","625","879679","0.0-8.0-2.14","","<div style=""font-size:60px;"">+</div>","null","","","","","","",""
"831.6999999955297","","image-keyboard-response","626","880512","0.0-8.0-0.15","","img/yellow.png","32","trial","null","false","0,1","4:nogo_d","",""
"null","","html-keyboard-response","627","881515","0.0-8.0-1.15","","<img src=""img/yellow-n.png"" border=""10"">","null","trial","null","","0,1","4:nogo_d","0",""
"null","","html-keyboard-response","628","882516","0.0-8.0-2.15","","<div style=""font-size:60px;"">+</div>","null","","","","","","",""
"null","","image-keyboard-response","629","884018","0.0-8.0-0.16","","img/yellow.png","null","trial","null","true","0,1","4:nogo_d","",""
"null","","html-keyboard-response","630","885023","0.0-8.0-1.16","","<img src=""img/yellow-r.png"">","null","trial","null","","0,1","4:nogo_d","1",""
"null","","html-keyboard-response","631","886028","0.0-8.0-2.16","","<div style=""font-size:60px;"">+</div>","null","","","","","","",""
"null","","image-keyboard-response","632","887532","0.0-8.0-0.17","","img/green.png","null","trial","null","true","0.2,0.8","2:nogo_b","",""
"null","","html-keyboard-response","633","888536","0.0-8.0-1.17","","<img src=""img/green-r.png"">","null","trial","null","","0.2,0.8","2:nogo_b","1",""
"null","","html-keyboard-response","634","889540","0.0-8.0-2.17","","<div style=""font-size:60px;"">+</div>","null","","","","","","",""
"682.5","","image-keyboard-response","635","890224","0.0-8.0-0.18","","img/grey.png","32","trial","32","true","1,0","3:go_c","",""
"null","","html-keyboard-response","636","891227","0.0-8.0-1.18","","<img src=""img/grey-r.png"" border=""10"">","null","trial","32","","1,0","3:go_c","1",""
"null","","html-keyboard-response","637","892229","0.0-8.0-2.18","","<div style=""font-size:60px;"">+</div>","null","","","","","","",""
"683.6000000014901","","image-keyboard-response","638","892914","0.0-8.0-0.19","","img/red.png","32","trial","32","true","0.8,0.2","1:go_a","",""
"null","","html-keyboard-response","639","893916","0.0-8.0-1.19","","<img src=""img/red-n.png"" border=""10"">","null","trial","32","","0.8,0.2","1:go_a","0",""
"null","","html-keyboard-response","640","894918","0.0-8.0-2.19","","<div style=""font-size:60px;"">+</div>","null","","","","","","",""
"null","","image-keyboard-response","641","896419","0.0-8.0-0.20","","img/green.png","null","trial","null","true","0.2,0.8","2:nogo_b","",""
"null","","html-keyboard-response","642","897420","0.0-8.0-1.20","","<img src=""img/green-r.png"">","null","trial","null","","0.2,0.8","2:nogo_b","1",""
"null","","html-keyboard-response","643","898426","0.0-8.0-2.20","","<div style=""font-size:60px;"">+</div>","null","","","","","","",""
"null","","image-keyboard-response","644","899930","0.0-8.0-0.21","","img/yellow.png","null","trial","null","true","0,1","4:nogo_d","",""
"null","","html-keyboard-response","645","900935","0.0-8.0-1.21","","<img src=""img/yellow-r.png"">","null","trial","null","","0,1","4:nogo_d","1",""
"null","","html-keyboard-response","646","901939","0.0-8.0-2.21","","<div style=""font-size:60px;"">+</div>","null","","","","","","",""
"644.7999999970198","","image-keyboard-response","647","902585","0.0-8.0-0.22","","img/red.png","32","trial","32","true","0.8,0.2","1:go_a","",""
"null","","html-keyboard-response","648","903586","0.0-8.0-1.22","","<img src=""img/red-n.png"" border=""10"">","null","trial","32","","0.8,0.2","1:go_a","0",""
"null","","html-keyboard-response","649","904589","0.0-8.0-2.22","","<div style=""font-size:60px;"">+</div>","null","","","","","","",""
"600.7999999970198","","image-keyboard-response","650","905191","0.0-8.0-0.23","","img/grey.png","32","trial","32","true","1,0","3:go_c","",""
"null","","html-keyboard-response","651","906196","0.0-8.0-1.23","","<img src=""img/grey-r.png"" border=""10"">","null","trial","32","","1,0","3:go_c","1",""
"null","","html-keyboard-response","652","907197","0.0-8.0-2.23","","<div style=""font-size:60px;"">+</div>","null","","","","","","",""
"null","","image-keyboard-response","653","908703","0.0-8.0-0.24","","img/red.png","null","trial","32","false","0.8,0.2","1:go_a","",""
"null","","html-keyboard-response","654","909705","0.0-8.0-1.24","","<img src=""img/red-n.png"">","null","trial","32","","0.8,0.2","1:go_a","0",""
"null","","html-keyboard-response","655","910709","0.0-8.0-2.24","","<div style=""font-size:60px;"">+</div>","null","","","","","","",""
"473","","image-keyboard-response","656","911183","0.0-8.0-0.25","","img/grey.png","32","trial","32","true","1,0","3:go_c","",""
"null","","html-keyboard-response","657","912186","0.0-8.0-1.25","","<img src=""img/grey-r.png"" border=""10"">","null","trial","32","","1,0","3:go_c","1",""
"null","","html-keyboard-response","658","913190","0.0-8.0-2.25","","<div style=""font-size:60px;"">+</div>","null","","","","","","",""
"null","","image-keyboard-response","659","914693","0.0-8.0-0.26","","img/green.png","null","trial","null","true","0.2,0.8","2:nogo_b","",""
"null","","html-keyboard-response","660","915698","0.0-8.0-1.26","","<img src=""img/green-r.png"">","null","trial","null","","0.2,0.8","2:nogo_b","1",""
"null","","html-keyboard-response","661","916704","0.0-8.0-2.26","","<div style=""font-size:60px;"">+</div>","null","","","","","","",""
"null","","image-keyboard-response","662","918206","0.0-8.0-0.27","","img/yellow.png","null","trial","null","true","0,1","4:nogo_d","",""
"null","","html-keyboard-response","663","919208","0.0-8.0-1.27","","<img src=""img/yellow-r.png"">","null","trial","null","","0,1","4:nogo_d","1",""
"null","","html-keyboard-response","664","920213","0.0-8.0-2.27","","<div style=""font-size:60px;"">+</div>","null","","","","","","",""
"657.1000000014901","","image-keyboard-response","665","920871","0.0-8.0-0.28","","img/red.png","32","trial","32","true","0.8,0.2","1:go_a","",""
"null","","html-keyboard-response","666","921876","0.0-8.0-1.28","","<img src=""img/red-r.png"" border=""10"">","null","trial","32","","0.8,0.2","1:go_a","1",""
"null","","html-keyboard-response","667","922880","0.0-8.0-2.28","","<div style=""font-size:60px;"">+</div>","null","","","","","","",""
"null","","image-keyboard-response","668","924383","0.0-8.0-0.29","","img/yellow.png","null","trial","null","true","0,1","4:nogo_d","",""
"null","","html-keyboard-response","669","925384","0.0-8.0-1.29","","<img src=""img/yellow-r.png"">","null","trial","null","","0,1","4:nogo_d","1",""
"null","","html-keyboard-response","670","926389","0.0-8.0-2.29","","<div style=""font-size:60px;"">+</div>","null","","","","","","",""
"null","","image-keyboard-response","671","927891","0.0-8.0-0.30","","img/green.png","null","trial","null","true","0.2,0.8","2:nogo_b","",""
"null","","html-keyboard-response","672","928893","0.0-8.0-1.30","","<img src=""img/green-r.png"">","null","trial","null","","0.2,0.8","2:nogo_b","1",""
"null","","html-keyboard-response","673","929898","0.0-8.0-2.30","","<div style=""font-size:60px;"">+</div>","null","","","","","","",""
"891.6000000014901","","image-keyboard-response","674","930791","0.0-8.0-0.31","","img/grey.png","32","trial","32","true","1,0","3:go_c","",""
"null","","html-keyboard-response","675","931796","0.0-8.0-1.31","","<img src=""img/grey-r.png"" border=""10"">","null","trial","32","","1,0","3:go_c","1",""
"null","","html-keyboard-response","676","932801","0.0-8.0-2.31","","<div style=""font-size:60px;"">+</div>","null","","","","","","",""
"null","","image-keyboard-response","677","934303","0.0-8.0-0.32","","img/yellow.png","null","trial","null","true","0,1","4:nogo_d","",""
"null","","html-keyboard-response","678","935307","0.0-8.0-1.32","","<img src=""img/yellow-r.png"">","null","trial","null","","0,1","4:nogo_d","1",""
"null","","html-keyboard-response","679","936312","0.0-8.0-2.32","","<div style=""font-size:60px;"">+</div>","null","","","","","","",""
"581.2999999970198","","image-keyboard-response","680","936894","0.0-8.0-0.33","","img/grey.png","32","trial","32","true","1,0","3:go_c","",""
"null","","html-keyboard-response","681","937899","0.0-8.0-1.33","","<img src=""img/grey-r.png"" border=""10"">","null","trial","32","","1,0","3:go_c","1",""
"null","","html-keyboard-response","682","938900","0.0-8.0-2.33","","<div style=""font-size:60px;"">+</div>","null","","","","","","",""
"null","","image-keyboard-response","683","940404","0.0-8.0-0.34","","img/green.png","null","trial","null","true","0.2,0.8","2:nogo_b","",""
"null","","html-keyboard-response","684","941409","0.0-8.0-1.34","","<img src=""img/green-r.png"">","null","trial","null","","0.2,0.8","2:nogo_b","1",""
"null","","html-keyboard-response","685","942414","0.0-8.0-2.34","","<div style=""font-size:60px;"">+</div>","null","","","","","","",""
