"rt","url","trial_type","trial_index","time_elapsed","internal_node_id","view_history","stimulus","key_press","test_part","correct_response","correct","use_rew","which_stim","reward","responses"
"24528.81499999785","consent.html","external-html","0","24598","0.0-0.0","","","","","","","","","",""
"164985.50000000978","","instructions","1","189584","0.0-1.0","[{""page_index"":0,""viewing_time"":3968.2450000254903},{""page_index"":1,""viewing_time"":34199.319999985164},{""page_index"":2,""viewing_time"":6121.329999994487},{""page_index"":3,""viewing_time"":27578.745000006165},{""page_index"":4,""viewing_time"":68864.07999999938},{""page_index"":5,""viewing_time"":8412.05000001355},{""page_index"":6,""viewing_time"":15841.18999997736}]","","","","","","","","",""
"null","","image-keyboard-response","2","191090","0.0-2.0-0.0","","img/test2.PNG","null","practice","null","true","","","",""
"null","","html-keyboard-response","3","192093","0.0-2.0-1.0","","<img src=""img/test2-reward.PNG"">","null","","","","","","",""
"null","","html-keyboard-response","4","193098","0.0-2.0-2.0","","<div style=""font-size:60px;"">+</div>","null","","","","","","",""
"null","","image-keyboard-response","5","194603","0.0-2.0-0.1","","img/test3.PNG","null","practice","null","true","","","",""
"null","","html-keyboard-response","6","195606","0.0-2.0-1.1","","<img src=""img/test3-reward.PNG"">","null","","","","","","",""
"null","","html-keyboard-response","7","196622","0.0-2.0-2.1","","<div style=""font-size:60px;"">+</div>","null","","","","","","",""
"411.0050000017509","","image-keyboard-response","8","197034","0.0-2.0-0.2","","img/test1.PNG","32","practice","32","true","","","",""
"null","","html-keyboard-response","9","198046","0.0-2.0-1.2","","<img src=""img/test1-reward.PNG"" border=""10px; grey"">","null","","","","","","",""
"null","","html-keyboard-response","10","199053","0.0-2.0-2.2","","<div style=""font-size:60px;"">+</div>","null","","","","","","",""
"564.0450000064448","","image-keyboard-response","11","199618","0.0-2.0-0.3","","img/test1.PNG","32","practice","32","true","","","",""
"null","","html-keyboard-response","12","200620","0.0-2.0-1.3","","<img src=""img/test1-reward.PNG"" border=""10px; grey"">","null","","","","","","",""
"null","","html-keyboard-response","13","201622","0.0-2.0-2.3","","<div style=""font-size:60px;"">+</div>","null","","","","","","",""
"null","","image-keyboard-response","14","203134","0.0-2.0-0.4","","img/test2.PNG","null","practice","null","true","","","",""
"null","","html-keyboard-response","15","204138","0.0-2.0-1.4","","<img src=""img/test2-reward.PNG"">","null","","","","","","",""
"null","","html-keyboard-response","16","205143","0.0-2.0-2.4","","<div style=""font-size:60px;"">+</div>","null","","","","","","",""
"null","","image-keyboard-response","17","206657","0.0-2.0-0.5","","img/test3.PNG","null","practice","null","true","","","",""
"null","","html-keyboard-response","18","207664","0.0-2.0-1.5","","<img src=""img/test3-reward.PNG"">","null","","","","","","",""
"null","","html-keyboard-response","19","208671","0.0-2.0-2.5","","<div style=""font-size:60px;"">+</div>","null","","","","","","",""
"null","","image-keyboard-response","20","210173","0.0-2.0-0.6","","img/test2.PNG","null","practice","null","true","","","",""
"null","","html-keyboard-response","21","211183","0.0-2.0-1.6","","<img src=""img/test2-reward.PNG"">","null","","","","","","",""
"null","","html-keyboard-response","22","212188","0.0-2.0-2.6","","<div style=""font-size:60px;"">+</div>","null","","","","","","",""
"446.5599999821279","","image-keyboard-response","23","212635","0.0-2.0-0.7","","img/test1.PNG","32","practice","32","true","","","",""
"null","","html-keyboard-response","24","213644","0.0-2.0-1.7","","<img src=""img/test1-reward.PNG"" border=""10px; grey"">","null","","","","","","",""
"null","","html-keyboard-response","25","214653","0.0-2.0-2.7","","<div style=""font-size:60px;"">+</div>","null","","","","","","",""
"null","","image-keyboard-response","26","216156","0.0-2.0-0.8","","img/test3.PNG","null","practice","null","true","","","",""
"null","","html-keyboard-response","27","217163","0.0-2.0-1.8","","<img src=""img/test3-reward.PNG"">","null","","","","","","",""
"null","","html-keyboard-response","28","218168","0.0-2.0-2.8","","<div style=""font-size:60px;"">+</div>","null","","","","","","",""
"570.6550000177231","","image-keyboard-response","29","218739","0.0-2.0-0.9","","img/test1.PNG","32","practice","32","true","","","",""
"null","","html-keyboard-response","30","219746","0.0-2.0-1.9","","<img src=""img/test1-reward.PNG"" border=""10px; grey"">","null","","","","","","",""
"null","","html-keyboard-response","31","220755","0.0-2.0-2.9","","<div style=""font-size:60px;"">+</div>","null","","","","","","",""
"null","","image-keyboard-response","32","222266","0.0-2.0-0.10","","img/test3.PNG","null","practice","null","true","","","",""
"null","","html-keyboard-response","33","223270","0.0-2.0-1.10","","<img src=""img/test3-reward.PNG"">","null","","","","","","",""
"null","","html-keyboard-response","34","224286","0.0-2.0-2.10","","<div style=""font-size:60px;"">+</div>","null","","","","","","",""
"null","","image-keyboard-response","35","225789","0.0-2.0-0.11","","img/test2.PNG","null","practice","null","true","","","",""
"null","","html-keyboard-response","36","226796","0.0-2.0-1.11","","<img src=""img/test2-reward.PNG"">","null","","","","","","",""
"null","","html-keyboard-response","37","227800","0.0-2.0-2.11","","<div style=""font-size:60px;"">+</div>","null","","","","","","",""
"2153.6400000040885","","instructions","38","229954","0.0-3.0","[{""page_index"":0,""viewing_time"":2153.5449999792036}]","","","","","","","","",""
"921.6149999992922","","image-keyboard-response","39","230876","0.0-4.0-0.0","","img/green.png","32","trial","32","true","0.8,0.2","1:go_a","",""
"null","","html-keyboard-response","40","231884","0.0-4.0-1.0","","<img src=""img/green-r.png"" border=""10"">","null","trial","32","","0.8,0.2","1:go_a","1",""
"null","","html-keyboard-response","41","232888","0.0-4.0-2.0","","<div style=""font-size:60px;"">+</div>","null","","","","","","",""
"null","","image-keyboard-response","42","234402","0.0-4.0-0.1","","img/grey.png","null","trial","null","true","0.2,0.8","2:nogo_b","",""
"null","","html-keyboard-response","43","235412","0.0-4.0-1.1","","<img src=""img/grey-r.png"">","null","trial","null","","0.2,0.8","2:nogo_b","1",""
"null","","html-keyboard-response","44","236421","0.0-4.0-2.1","","<div style=""font-size:60px;"">+</div>","null","","","","","","",""
"null","","image-keyboard-response","45","237924","0.0-4.0-0.2","","img/grey.png","null","trial","null","true","0.2,0.8","2:nogo_b","",""
"null","","html-keyboard-response","46","238930","0.0-4.0-1.2","","<img src=""img/grey-r.png"">","null","trial","null","","0.2,0.8","2:nogo_b","1",""
"null","","html-keyboard-response","47","239931","0.0-4.0-2.2","","<div style=""font-size:60px;"">+</div>","null","","","","","","",""
"553.6699999938719","","image-keyboard-response","48","240485","0.0-4.0-0.3","","img/green.png","32","trial","32","true","0.8,0.2","1:go_a","",""
"null","","html-keyboard-response","49","241495","0.0-4.0-1.3","","<img src=""img/green-r.png"" border=""10"">","null","trial","32","","0.8,0.2","1:go_a","1",""
"null","","html-keyboard-response","50","242503","0.0-4.0-2.3","","<div style=""font-size:60px;"">+</div>","null","","","","","","",""
"549.3650000134949","","image-keyboard-response","51","243053","0.0-4.0-0.4","","img/green.png","32","trial","32","true","0.8,0.2","1:go_a","",""
"null","","html-keyboard-response","52","244068","0.0-4.0-1.4","","<img src=""img/green-r.png"" border=""10"">","null","trial","32","","0.8,0.2","1:go_a","1",""
"null","","html-keyboard-response","53","245079","0.0-4.0-2.4","","<div style=""font-size:60px;"">+</div>","null","","","","","","",""
"null","","image-keyboard-response","54","246594","0.0-4.0-0.5","","img/grey.png","null","trial","null","true","0.2,0.8","2:nogo_b","",""
"null","","html-keyboard-response","55","247601","0.0-4.0-1.5","","<img src=""img/grey-r.png"">","null","trial","null","","0.2,0.8","2:nogo_b","1",""
"null","","html-keyboard-response","56","248608","0.0-4.0-2.5","","<div style=""font-size:60px;"">+</div>","null","","","","","","",""
"468.77999999560416","","image-keyboard-response","57","249077","0.0-4.0-0.6","","img/green.png","32","trial","32","true","0.8,0.2","1:go_a","",""
"null","","html-keyboard-response","58","250083","0.0-4.0-1.6","","<img src=""img/green-r.png"" border=""10"">","null","trial","32","","0.8,0.2","1:go_a","1",""
"null","","html-keyboard-response","59","251091","0.0-4.0-2.6","","<div style=""font-size:60px;"">+</div>","null","","","","","","",""
"null","","image-keyboard-response","60","252606","0.0-4.0-0.7","","img/grey.png","null","trial","null","true","0.2,0.8","2:nogo_b","",""
"null","","html-keyboard-response","61","253610","0.0-4.0-1.7","","<img src=""img/grey-r.png"">","null","trial","null","","0.2,0.8","2:nogo_b","1",""
"null","","html-keyboard-response","62","254617","0.0-4.0-2.7","","<div style=""font-size:60px;"">+</div>","null","","","","","","",""
"null","","image-keyboard-response","63","256133","0.0-4.0-0.8","","img/grey.png","null","trial","null","true","0.2,0.8","2:nogo_b","",""
"null","","html-keyboard-response","64","257141","0.0-4.0-1.8","","<img src=""img/grey-r.png"">","null","trial","null","","0.2,0.8","2:nogo_b","1",""
"null","","html-keyboard-response","65","258146","0.0-4.0-2.8","","<div style=""font-size:60px;"">+</div>","null","","","","","","",""
"492.5949999887962","","image-keyboard-response","66","258639","0.0-4.0-0.9","","img/green.png","32","trial","32","true","0.8,0.2","1:go_a","",""
"null","","html-keyboard-response","67","259646","0.0-4.0-1.9","","<img src=""img/green-r.png"" border=""10"">","null","trial","32","","0.8,0.2","1:go_a","1",""
"null","","html-keyboard-response","68","260654","0.0-4.0-2.9","","<div style=""font-size:60px;"">+</div>","null","","","","","","",""
"480.5250000208616","","image-keyboard-response","69","261135","0.0-4.0-0.10","","img/green.png","32","trial","32","true","0.8,0.2","1:go_a","",""
"null","","html-keyboard-response","70","262142","0.0-4.0-1.10","","<img src=""img/green-r.png"" border=""10"">","null","trial","32","","0.8,0.2","1:go_a","1",""
"null","","html-keyboard-response","71","263149","0.0-4.0-2.10","","<div style=""font-size:60px;"">+</div>","null","","","","","","",""
"null","","image-keyboard-response","72","264660","0.0-4.0-0.11","","img/grey.png","null","trial","null","true","0.2,0.8","2:nogo_b","",""
"null","","html-keyboard-response","73","265670","0.0-4.0-1.11","","<img src=""img/grey-r.png"">","null","trial","null","","0.2,0.8","2:nogo_b","1",""
"null","","html-keyboard-response","74","266676","0.0-4.0-2.11","","<div style=""font-size:60px;"">+</div>","null","","","","","","",""
"426.1199999891687","","image-keyboard-response","75","267103","0.0-4.0-0.12","","img/green.png","32","trial","32","true","0.8,0.2","1:go_a","",""
"null","","html-keyboard-response","76","268104","0.0-4.0-1.12","","<img src=""img/green-r.png"" border=""10"">","null","trial","32","","0.8,0.2","1:go_a","1",""
"null","","html-keyboard-response","77","269109","0.0-4.0-2.12","","<div style=""font-size:60px;"">+</div>","null","","","","","","",""
"null","","image-keyboard-response","78","270612","0.0-4.0-0.13","","img/grey.png","null","trial","null","true","0.2,0.8","2:nogo_b","",""
"null","","html-keyboard-response","79","271618","0.0-4.0-1.13","","<img src=""img/grey-n.png"">","null","trial","null","","0.2,0.8","2:nogo_b","0",""
"null","","html-keyboard-response","80","272622","0.0-4.0-2.13","","<div style=""font-size:60px;"">+</div>","null","","","","","","",""
"null","","image-keyboard-response","81","274127","0.0-4.0-0.14","","img/grey.png","null","trial","null","true","0.2,0.8","2:nogo_b","",""
"null","","html-keyboard-response","82","275134","0.0-4.0-1.14","","<img src=""img/grey-r.png"">","null","trial","null","","0.2,0.8","2:nogo_b","1",""
"null","","html-keyboard-response","83","276141","0.0-4.0-2.14","","<div style=""font-size:60px;"">+</div>","null","","","","","","",""
"394.4049999990966","","image-keyboard-response","84","276536","0.0-4.0-0.15","","img/green.png","32","trial","32","true","0.8,0.2","1:go_a","",""
"null","","html-keyboard-response","85","277548","0.0-4.0-1.15","","<img src=""img/green-n.png"" border=""10"">","null","trial","32","","0.8,0.2","1:go_a","0",""
"null","","html-keyboard-response","86","278551","0.0-4.0-2.15","","<div style=""font-size:60px;"">+</div>","null","","","","","","",""
"null","","image-keyboard-response","87","280054","0.0-4.0-0.16","","img/grey.png","null","trial","null","true","0.2,0.8","2:nogo_b","",""
"null","","html-keyboard-response","88","281062","0.0-4.0-1.16","","<img src=""img/grey-r.png"">","null","trial","null","","0.2,0.8","2:nogo_b","1",""
"null","","html-keyboard-response","89","282066","0.0-4.0-2.16","","<div style=""font-size:60px;"">+</div>","null","","","","","","",""
"349.61000000475906","","image-keyboard-response","90","282416","0.0-4.0-0.17","","img/green.png","32","trial","32","true","0.8,0.2","1:go_a","",""
"null","","html-keyboard-response","91","283426","0.0-4.0-1.17","","<img src=""img/green-r.png"" border=""10"">","null","trial","32","","0.8,0.2","1:go_a","1",""
"null","","html-keyboard-response","92","284431","0.0-4.0-2.17","","<div style=""font-size:60px;"">+</div>","null","","","","","","",""
"457.4199999915436","","image-keyboard-response","93","284889","0.0-4.0-0.18","","img/green.png","32","trial","32","true","0.8,0.2","1:go_a","",""
"null","","html-keyboard-response","94","285898","0.0-4.0-1.18","","<img src=""img/green-n.png"" border=""10"">","null","trial","32","","0.8,0.2","1:go_a","0",""
"null","","html-keyboard-response","95","286911","0.0-4.0-2.18","","<div style=""font-size:60px;"">+</div>","null","","","","","","",""
"null","","image-keyboard-response","96","288414","0.0-4.0-0.19","","img/grey.png","null","trial","null","true","0.2,0.8","2:nogo_b","",""
"null","","html-keyboard-response","97","289431","0.0-4.0-1.19","","<img src=""img/grey-r.png"">","null","trial","null","","0.2,0.8","2:nogo_b","1",""
"null","","html-keyboard-response","98","290433","0.0-4.0-2.19","","<div style=""font-size:60px;"">+</div>","null","","","","","","",""
"null","","image-keyboard-response","99","291949","0.0-4.0-0.20","","img/grey.png","null","trial","null","true","0.2,0.8","2:nogo_b","",""
"null","","html-keyboard-response","100","292963","0.0-4.0-1.20","","<img src=""img/grey-r.png"">","null","trial","null","","0.2,0.8","2:nogo_b","1",""
"null","","html-keyboard-response","101","293969","0.0-4.0-2.20","","<div style=""font-size:60px;"">+</div>","null","","","","","","",""
"400.00500000314787","","image-keyboard-response","102","294370","0.0-4.0-0.21","","img/green.png","32","trial","32","true","0.8,0.2","1:go_a","",""
"null","","html-keyboard-response","103","295381","0.0-4.0-1.21","","<img src=""img/green-r.png"" border=""10"">","null","trial","32","","0.8,0.2","1:go_a","1",""
"null","","html-keyboard-response","104","296387","0.0-4.0-2.21","","<div style=""font-size:60px;"">+</div>","null","","","","","","",""
"469.4300000264775","","image-keyboard-response","105","296857","0.0-4.0-0.22","","img/green.png","32","trial","32","true","0.8,0.2","1:go_a","",""
"null","","html-keyboard-response","106","297863","0.0-4.0-1.22","","<img src=""img/green-r.png"" border=""10"">","null","trial","32","","0.8,0.2","1:go_a","1",""
"null","","html-keyboard-response","107","298870","0.0-4.0-2.22","","<div style=""font-size:60px;"">+</div>","null","","","","","","",""
"null","","image-keyboard-response","108","300386","0.0-4.0-0.23","","img/grey.png","null","trial","null","true","0.2,0.8","2:nogo_b","",""
"null","","html-keyboard-response","109","301389","0.0-4.0-1.23","","<img src=""img/grey-n.png"">","null","trial","null","","0.2,0.8","2:nogo_b","0",""
"null","","html-keyboard-response","110","302391","0.0-4.0-2.23","","<div style=""font-size:60px;"">+</div>","null","","","","","","",""
"null","","image-keyboard-response","111","303896","0.0-4.0-0.24","","img/grey.png","null","trial","null","true","0.2,0.8","2:nogo_b","",""
"null","","html-keyboard-response","112","304903","0.0-4.0-1.24","","<img src=""img/grey-r.png"">","null","trial","null","","0.2,0.8","2:nogo_b","1",""
"null","","html-keyboard-response","113","305904","0.0-4.0-2.24","","<div style=""font-size:60px;"">+</div>","null","","","","","","",""
"402.8249999973923","","image-keyboard-response","114","306308","0.0-4.0-0.25","","img/green.png","32","trial","32","true","0.8,0.2","1:go_a","",""
"null","","html-keyboard-response","115","307311","0.0-4.0-1.25","","<img src=""img/green-r.png"" border=""10"">","null","trial","32","","0.8,0.2","1:go_a","1",""
"null","","html-keyboard-response","116","308318","0.0-4.0-2.25","","<div style=""font-size:60px;"">+</div>","null","","","","","","",""
"null","","image-keyboard-response","117","309834","0.0-4.0-0.26","","img/grey.png","null","trial","null","true","0.2,0.8","2:nogo_b","",""
"null","","html-keyboard-response","118","310838","0.0-4.0-1.26","","<img src=""img/grey-r.png"">","null","trial","null","","0.2,0.8","2:nogo_b","1",""
"null","","html-keyboard-response","119","311844","0.0-4.0-2.26","","<div style=""font-size:60px;"">+</div>","null","","","","","","",""
"478.0750000209082","","image-keyboard-response","120","312323","0.0-4.0-0.27","","img/green.png","32","trial","32","true","0.8,0.2","1:go_a","",""
"null","","html-keyboard-response","121","313320","0.0-4.0-1.27","","<img src=""img/green-r.png"" border=""10"">","null","trial","32","","0.8,0.2","1:go_a","1",""
"null","","html-keyboard-response","122","314329","0.0-4.0-2.27","","<div style=""font-size:60px;"">+</div>","null","","","","","","",""
"null","","image-keyboard-response","123","315831","0.0-4.0-0.28","","img/grey.png","null","trial","null","true","0.2,0.8","2:nogo_b","",""
"null","","html-keyboard-response","124","316836","0.0-4.0-1.28","","<img src=""img/grey-r.png"">","null","trial","null","","0.2,0.8","2:nogo_b","1",""
"null","","html-keyboard-response","125","317845","0.0-4.0-2.28","","<div style=""font-size:60px;"">+</div>","null","","","","","","",""
"405.5649999936577","","image-keyboard-response","126","318251","0.0-4.0-0.29","","img/green.png","32","trial","32","true","0.8,0.2","1:go_a","",""
"null","","html-keyboard-response","127","319254","0.0-4.0-1.29","","<img src=""img/green-r.png"" border=""10"">","null","trial","32","","0.8,0.2","1:go_a","1",""
"null","","html-keyboard-response","128","320260","0.0-4.0-2.29","","<div style=""font-size:60px;"">+</div>","null","","","","","","",""
"null","","image-keyboard-response","129","321776","0.0-4.0-0.30","","img/grey.png","null","trial","null","true","0.2,0.8","2:nogo_b","",""
"null","","html-keyboard-response","130","322782","0.0-4.0-1.30","","<img src=""img/grey-r.png"">","null","trial","null","","0.2,0.8","2:nogo_b","1",""
"null","","html-keyboard-response","131","323787","0.0-4.0-2.30","","<div style=""font-size:60px;"">+</div>","null","","","","","","",""
"407.8049999952782","","image-keyboard-response","132","324195","0.0-4.0-0.31","","img/green.png","32","trial","32","true","0.8,0.2","1:go_a","",""
"null","","html-keyboard-response","133","325197","0.0-4.0-1.31","","<img src=""img/green-r.png"" border=""10"">","null","trial","32","","0.8,0.2","1:go_a","1",""
"null","","html-keyboard-response","134","326205","0.0-4.0-2.31","","<div style=""font-size:60px;"">+</div>","null","","","","","","",""
"null","","image-keyboard-response","135","327710","0.0-4.0-0.32","","img/grey.png","null","trial","null","true","0.2,0.8","2:nogo_b","",""
"null","","html-keyboard-response","136","328718","0.0-4.0-1.32","","<img src=""img/grey-n.png"">","null","trial","null","","0.2,0.8","2:nogo_b","0",""
"null","","html-keyboard-response","137","329721","0.0-4.0-2.32","","<div style=""font-size:60px;"">+</div>","null","","","","","","",""
"465.8249999920372","","image-keyboard-response","138","330188","0.0-4.0-0.33","","img/green.png","32","trial","32","true","0.8,0.2","1:go_a","",""
"null","","html-keyboard-response","139","331204","0.0-4.0-1.33","","<img src=""img/green-r.png"" border=""10"">","null","trial","32","","0.8,0.2","1:go_a","1",""
"null","","html-keyboard-response","140","332209","0.0-4.0-2.33","","<div style=""font-size:60px;"">+</div>","null","","","","","","",""
"null","","image-keyboard-response","141","333725","0.0-4.0-0.34","","img/grey.png","null","trial","null","true","0.2,0.8","2:nogo_b","",""
"null","","html-keyboard-response","142","334736","0.0-4.0-1.34","","<img src=""img/grey-r.png"">","null","trial","null","","0.2,0.8","2:nogo_b","1",""
"null","","html-keyboard-response","143","335750","0.0-4.0-2.34","","<div style=""font-size:60px;"">+</div>","null","","","","","","",""
"405.59000000939704","","image-keyboard-response","144","336156","0.0-4.0-0.35","","img/green.png","32","trial","32","true","0.8,0.2","1:go_a","",""
"null","","html-keyboard-response","145","337169","0.0-4.0-1.35","","<img src=""img/green-r.png"" border=""10"">","null","trial","32","","0.8,0.2","1:go_a","1",""
"null","","html-keyboard-response","146","338177","0.0-4.0-2.35","","<div style=""font-size:60px;"">+</div>","null","","","","","","",""
"null","","image-keyboard-response","147","339680","0.0-4.0-0.36","","img/grey.png","null","trial","null","true","0.2,0.8","2:nogo_b","",""
"null","","html-keyboard-response","148","340684","0.0-4.0-1.36","","<img src=""img/grey-r.png"">","null","trial","null","","0.2,0.8","2:nogo_b","1",""
"null","","html-keyboard-response","149","341700","0.0-4.0-2.36","","<div style=""font-size:60px;"">+</div>","null","","","","","","",""
"376.6450000111945","","image-keyboard-response","150","342077","0.0-4.0-0.37","","img/green.png","32","trial","32","true","0.8,0.2","1:go_a","",""
"null","","html-keyboard-response","151","343091","0.0-4.0-1.37","","<img src=""img/green-r.png"" border=""10"">","null","trial","32","","0.8,0.2","1:go_a","1",""
"null","","html-keyboard-response","152","344100","0.0-4.0-2.37","","<div style=""font-size:60px;"">+</div>","null","","","","","","",""
"417.42000001249835","","image-keyboard-response","153","344517","0.0-4.0-0.38","","img/green.png","32","trial","32","true","0.8,0.2","1:go_a","",""
"null","","html-keyboard-response","154","345519","0.0-4.0-1.38","","<img src=""img/green-r.png"" border=""10"">","null","trial","32","","0.8,0.2","1:go_a","1",""
"null","","html-keyboard-response","155","346527","0.0-4.0-2.38","","<div style=""font-size:60px;"">+</div>","null","","","","","","",""
"null","","image-keyboard-response","156","348043","0.0-4.0-0.39","","img/grey.png","null","trial","null","true","0.2,0.8","2:nogo_b","",""
"null","","html-keyboard-response","157","349047","0.0-4.0-1.39","","<img src=""img/grey-r.png"">","null","trial","null","","0.2,0.8","2:nogo_b","1",""
"null","","html-keyboard-response","158","350053","0.0-4.0-2.39","","<div style=""font-size:60px;"">+</div>","null","","","","","","",""
"407.3050000006333","","image-keyboard-response","159","350461","0.0-4.0-0.40","","img/green.png","32","trial","32","true","0.8,0.2","1:go_a","",""
"null","","html-keyboard-response","160","351475","0.0-4.0-1.40","","<img src=""img/green-r.png"" border=""10"">","null","trial","32","","0.8,0.2","1:go_a","1",""
"null","","html-keyboard-response","161","352480","0.0-4.0-2.40","","<div style=""font-size:60px;"">+</div>","null","","","","","","",""
"null","","image-keyboard-response","162","353996","0.0-4.0-0.41","","img/grey.png","null","trial","null","true","0.2,0.8","2:nogo_b","",""
"null","","html-keyboard-response","163","355002","0.0-4.0-1.41","","<img src=""img/grey-r.png"">","null","trial","null","","0.2,0.8","2:nogo_b","1",""
"null","","html-keyboard-response","164","356005","0.0-4.0-2.41","","<div style=""font-size:60px;"">+</div>","null","","","","","","",""
"null","","image-keyboard-response","165","357509","0.0-4.0-0.42","","img/grey.png","null","trial","null","true","0.2,0.8","2:nogo_b","",""
"null","","html-keyboard-response","166","358525","0.0-4.0-1.42","","<img src=""img/grey-r.png"">","null","trial","null","","0.2,0.8","2:nogo_b","1",""
"null","","html-keyboard-response","167","359531","0.0-4.0-2.42","","<div style=""font-size:60px;"">+</div>","null","","","","","","",""
"426.9849999982398","","image-keyboard-response","168","359958","0.0-4.0-0.43","","img/green.png","32","trial","32","true","0.8,0.2","1:go_a","",""
"null","","html-keyboard-response","169","360964","0.0-4.0-1.43","","<img src=""img/green-r.png"" border=""10"">","null","trial","32","","0.8,0.2","1:go_a","1",""
"null","","html-keyboard-response","170","361973","0.0-4.0-2.43","","<div style=""font-size:60px;"">+</div>","null","","","","","","",""
"null","","image-keyboard-response","171","363489","0.0-4.0-0.44","","img/grey.png","null","trial","null","true","0.2,0.8","2:nogo_b","",""
"null","","html-keyboard-response","172","364495","0.0-4.0-1.44","","<img src=""img/grey-r.png"">","null","trial","null","","0.2,0.8","2:nogo_b","1",""
"null","","html-keyboard-response","173","365503","0.0-4.0-2.44","","<div style=""font-size:60px;"">+</div>","null","","","","","","",""
"438.58499999623746","","image-keyboard-response","174","365942","0.0-4.0-0.45","","img/green.png","32","trial","32","true","0.8,0.2","1:go_a","",""
"null","","html-keyboard-response","175","366958","0.0-4.0-1.45","","<img src=""img/green-r.png"" border=""10"">","null","trial","32","","0.8,0.2","1:go_a","1",""
"null","","html-keyboard-response","176","367967","0.0-4.0-2.45","","<div style=""font-size:60px;"">+</div>","null","","","","","","",""
"407.01500000432134","","image-keyboard-response","177","368374","0.0-4.0-0.46","","img/green.png","32","trial","32","true","0.8,0.2","1:go_a","",""
"null","","html-keyboard-response","178","369388","0.0-4.0-1.46","","<img src=""img/green-r.png"" border=""10"">","null","trial","32","","0.8,0.2","1:go_a","1",""
"null","","html-keyboard-response","179","370393","0.0-4.0-2.46","","<div style=""font-size:60px;"">+</div>","null","","","","","","",""
"null","","image-keyboard-response","180","371896","0.0-4.0-0.47","","img/grey.png","null","trial","null","true","0.2,0.8","2:nogo_b","",""
"null","","html-keyboard-response","181","372902","0.0-4.0-1.47","","<img src=""img/grey-n.png"">","null","trial","null","","0.2,0.8","2:nogo_b","0",""
"null","","html-keyboard-response","182","373905","0.0-4.0-2.47","","<div style=""font-size:60px;"">+</div>","null","","","","","","",""
"358.96000001230277","","image-keyboard-response","183","374264","0.0-4.0-0.48","","img/green.png","32","trial","32","true","0.8,0.2","1:go_a","",""
"null","","html-keyboard-response","184","375280","0.0-4.0-1.48","","<img src=""img/green-r.png"" border=""10"">","null","trial","32","","0.8,0.2","1:go_a","1",""
"null","","html-keyboard-response","185","376282","0.0-4.0-2.48","","<div style=""font-size:60px;"">+</div>","null","","","","","","",""
"null","","image-keyboard-response","186","377784","0.0-4.0-0.49","","img/grey.png","null","trial","null","true","0.2,0.8","2:nogo_b","",""
"null","","html-keyboard-response","187","378791","0.0-4.0-1.49","","<img src=""img/grey-r.png"">","null","trial","null","","0.2,0.8","2:nogo_b","1",""
"null","","html-keyboard-response","188","379799","0.0-4.0-2.49","","<div style=""font-size:60px;"">+</div>","null","","","","","","",""
"null","","image-keyboard-response","189","381302","0.0-4.0-0.50","","img/grey.png","null","trial","null","true","0.2,0.8","2:nogo_b","",""
"null","","html-keyboard-response","190","382310","0.0-4.0-1.50","","<img src=""img/grey-r.png"">","null","trial","null","","0.2,0.8","2:nogo_b","1",""
"null","","html-keyboard-response","191","383319","0.0-4.0-2.50","","<div style=""font-size:60px;"">+</div>","null","","","","","","",""
"527.6550000126008","","image-keyboard-response","192","383848","0.0-4.0-0.51","","img/green.png","32","trial","32","true","0.8,0.2","1:go_a","",""
"null","","html-keyboard-response","193","384856","0.0-4.0-1.51","","<img src=""img/green-r.png"" border=""10"">","null","trial","32","","0.8,0.2","1:go_a","1",""
"null","","html-keyboard-response","194","385864","0.0-4.0-2.51","","<div style=""font-size:60px;"">+</div>","null","","","","","","",""
"496.2600000144448","","image-keyboard-response","195","386361","0.0-4.0-0.52","","img/green.png","32","trial","32","true","0.8,0.2","1:go_a","",""
"null","","html-keyboard-response","196","387367","0.0-4.0-1.52","","<img src=""img/green-n.png"" border=""10"">","null","trial","32","","0.8,0.2","1:go_a","0",""
"null","","html-keyboard-response","197","388371","0.0-4.0-2.52","","<div style=""font-size:60px;"">+</div>","null","","","","","","",""
"null","","image-keyboard-response","198","389877","0.0-4.0-0.53","","img/grey.png","null","trial","null","true","0.2,0.8","2:nogo_b","",""
"null","","html-keyboard-response","199","390880","0.0-4.0-1.53","","<img src=""img/grey-r.png"">","null","trial","null","","0.2,0.8","2:nogo_b","1",""
"null","","html-keyboard-response","200","391886","0.0-4.0-2.53","","<div style=""font-size:60px;"">+</div>","null","","","","","","",""
"null","","image-keyboard-response","201","393389","0.0-4.0-0.54","","img/grey.png","null","trial","null","true","0.2,0.8","2:nogo_b","",""
"null","","html-keyboard-response","202","394395","0.0-4.0-1.54","","<img src=""img/grey-r.png"">","null","trial","null","","0.2,0.8","2:nogo_b","1",""
"null","","html-keyboard-response","203","395406","0.0-4.0-2.54","","<div style=""font-size:60px;"">+</div>","null","","","","","","",""
"466.00499999476597","","image-keyboard-response","204","395873","0.0-4.0-0.55","","img/green.png","32","trial","32","true","0.8,0.2","1:go_a","",""
"null","","html-keyboard-response","205","396875","0.0-4.0-1.55","","<img src=""img/green-r.png"" border=""10"">","null","trial","32","","0.8,0.2","1:go_a","1",""
"null","","html-keyboard-response","206","397881","0.0-4.0-2.55","","<div style=""font-size:60px;"">+</div>","null","","","","","","",""
"null","","image-keyboard-response","207","399387","0.0-4.0-0.56","","img/grey.png","null","trial","null","true","0.2,0.8","2:nogo_b","",""
"null","","html-keyboard-response","208","400396","0.0-4.0-1.56","","<img src=""img/grey-r.png"">","null","trial","null","","0.2,0.8","2:nogo_b","1",""
"null","","html-keyboard-response","209","401402","0.0-4.0-2.56","","<div style=""font-size:60px;"">+</div>","null","","","","","","",""
"407.29999999166466","","image-keyboard-response","210","401810","0.0-4.0-0.57","","img/green.png","32","trial","32","true","0.8,0.2","1:go_a","",""
"null","","html-keyboard-response","211","402823","0.0-4.0-1.57","","<img src=""img/green-n.png"" border=""10"">","null","trial","32","","0.8,0.2","1:go_a","0",""
"null","","html-keyboard-response","212","403828","0.0-4.0-2.57","","<div style=""font-size:60px;"">+</div>","null","","","","","","",""
"null","","image-keyboard-response","213","405331","0.0-4.0-0.58","","img/grey.png","null","trial","null","true","0.2,0.8","2:nogo_b","",""
"null","","html-keyboard-response","214","406337","0.0-4.0-1.58","","<img src=""img/grey-r.png"">","null","trial","null","","0.2,0.8","2:nogo_b","1",""
"null","","html-keyboard-response","215","407345","0.0-4.0-2.58","","<div style=""font-size:60px;"">+</div>","null","","","","","","",""
"408.4149999835063","","image-keyboard-response","216","407754","0.0-4.0-0.59","","img/green.png","32","trial","32","true","0.8,0.2","1:go_a","",""
"null","","html-keyboard-response","217","408767","0.0-4.0-1.59","","<img src=""img/green-n.png"" border=""10"">","null","trial","32","","0.8,0.2","1:go_a","0",""
"null","","html-keyboard-response","218","409775","0.0-4.0-2.59","","<div style=""font-size:60px;"">+</div>","null","","","","","","",""
"6289.8950000235345","","instructions","219","416065","0.0-5.0","[{""page_index"":0,""viewing_time"":6289.780000020983}]","","","","","","","","",""
"480.62000001664273","","image-keyboard-response","220","416546","0.0-6.0-0.0","","img/blue.png","32","trial","32","true","0.8,0.2","1:go_a","",""
"null","","html-keyboard-response","221","417553","0.0-6.0-1.0","","<img src=""img/blue-r.png"" border=""10"">","null","trial","32","","0.8,0.2","1:go_a","1",""
"null","","html-keyboard-response","222","418555","0.0-6.0-2.0","","<div style=""font-size:60px;"">+</div>","null","","","","","","",""
"null","","image-keyboard-response","223","420070","0.0-6.0-0.1","","img/red.png","null","trial","32","false","1,0","3:go_c","",""
"null","","html-keyboard-response","224","421076","0.0-6.0-1.1","","<img src=""img/red-n.png"">","null","trial","32","","1,0","3:go_c","0",""
"null","","html-keyboard-response","225","422084","0.0-6.0-2.1","","<div style=""font-size:60px;"">+</div>","null","","","","","","",""
"574.1850000049453","","image-keyboard-response","226","422659","0.0-6.0-0.2","","img/orange.png","32","trial","null","false","0,1","4:nogo_d","",""
"null","","html-keyboard-response","227","423665","0.0-6.0-1.2","","<img src=""img/orange-n.png"" border=""10"">","null","trial","null","","0,1","4:nogo_d","0",""
"null","","html-keyboard-response","228","424672","0.0-6.0-2.2","","<div style=""font-size:60px;"">+</div>","null","","","","","","",""
"null","","image-keyboard-response","229","426186","0.0-6.0-0.3","","img/yellow.png","null","trial","null","true","0.2,0.8","2:nogo_b","",""
"null","","html-keyboard-response","230","427193","0.0-6.0-1.3","","<img src=""img/yellow-r.png"">","null","trial","null","","0.2,0.8","2:nogo_b","1",""
"null","","html-keyboard-response","231","428199","0.0-6.0-2.3","","<div style=""font-size:60px;"">+</div>","null","","","","","","",""
"null","","image-keyboard-response","232","429707","0.0-6.0-0.4","","img/yellow.png","null","trial","null","true","0.2,0.8","2:nogo_b","",""
"null","","html-keyboard-response","233","430716","0.0-6.0-1.4","","<img src=""img/yellow-r.png"">","null","trial","null","","0.2,0.8","2:nogo_b","1",""
"null","","html-keyboard-response","234","431722","0.0-6.0-2.4","","<div style=""font-size:60px;"">+</div>","null","","","","","","",""
"449.5499999902677","","image-keyboard-response","235","432172","0.0-6.0-0.5","","img/blue.png","32","trial","32","true","0.8,0.2","1:go_a","",""
"null","","html-keyboard-response","236","433188","0.0-6.0-1.5","","<img src=""img/blue-r.png"" border=""10"">","null","trial","32","","0.8,0.2","1:go_a","1",""
"null","","html-keyboard-response","237","434197","0.0-6.0-2.5","","<div style=""font-size:60px;"">+</div>","null","","","","","","",""
"null","","image-keyboard-response","238","435705","0.0-6.0-0.6","","img/orange.png","null","trial","null","true","0,1","4:nogo_d","",""
"null","","html-keyboard-response","239","436712","0.0-6.0-1.6","","<img src=""img/orange-r.png"">","null","trial","null","","0,1","4:nogo_d","1",""
"null","","html-keyboard-response","240","437729","0.0-6.0-2.6","","<div style=""font-size:60px;"">+</div>","null","","","","","","",""
"363.10499999672174","","image-keyboard-response","241","438092","0.0-6.0-0.7","","img/red.png","32","trial","32","true","1,0","3:go_c","",""
"null","","html-keyboard-response","242","439108","0.0-6.0-1.7","","<img src=""img/red-r.png"" border=""10"">","null","trial","32","","1,0","3:go_c","1",""
"null","","html-keyboard-response","243","440114","0.0-6.0-2.7","","<div style=""font-size:60px;"">+</div>","null","","","","","","",""
"null","","image-keyboard-response","244","441616","0.0-6.0-0.8","","img/yellow.png","null","trial","null","true","0.2,0.8","2:nogo_b","",""
"null","","html-keyboard-response","245","442621","0.0-6.0-1.8","","<img src=""img/yellow-r.png"">","null","trial","null","","0.2,0.8","2:nogo_b","1",""
"null","","html-keyboard-response","246","443628","0.0-6.0-2.8","","<div style=""font-size:60px;"">+</div>","null","","","","","","",""
"528.6850000265986","","image-keyboard-response","247","444157","0.0-6.0-0.9","","img/blue.png","32","trial","32","true","0.8,0.2","1:go_a","",""
"null","","html-keyboard-response","248","445172","0.0-6.0-1.9","","<img src=""img/blue-r.png"" border=""10"">","null","trial","32","","0.8,0.2","1:go_a","1",""
"null","","html-keyboard-response","249","446179","0.0-6.0-2.9","","<div style=""font-size:60px;"">+</div>","null","","","","","","",""
"401.76000000792556","","image-keyboard-response","250","446581","0.0-6.0-0.10","","img/red.png","32","trial","32","true","1,0","3:go_c","",""
"null","","html-keyboard-response","251","447593","0.0-6.0-1.10","","<img src=""img/red-r.png"" border=""10"">","null","trial","32","","1,0","3:go_c","1",""
"null","","html-keyboard-response","252","448600","0.0-6.0-2.10","","<div style=""font-size:60px;"">+</div>","null","","","","","","",""
"null","","image-keyboard-response","253","450102","0.0-6.0-0.11","","img/orange.png","null","trial","null","true","0,1","4:nogo_d","",""
"null","","html-keyboard-response","254","451108","0.0-6.0-1.11","","<img src=""img/orange-r.png"">","null","trial","null","","0,1","4:nogo_d","1",""
"null","","html-keyboard-response","255","452118","0.0-6.0-2.11","","<div style=""font-size:60px;"">+</div>","null","","","","","","",""
"null","","image-keyboard-response","256","453620","0.0-6.0-0.12","","img/orange.png","null","trial","null","true","0,1","4:nogo_d","",""
"null","","html-keyboard-response","257","454628","0.0-6.0-1.12","","<img src=""img/orange-r.png"">","null","trial","null","","0,1","4:nogo_d","1",""
"null","","html-keyboard-response","258","455630","0.0-6.0-2.12","","<div style=""font-size:60px;"">+</div>","null","","","","","","",""
"407.59499999694526","","image-keyboard-response","259","456038","0.0-6.0-0.13","","img/blue.png","32","trial","32","true","0.8,0.2","1:go_a","",""
"null","","html-keyboard-response","260","457040","0.0-6.0-1.13","","<img src=""img/blue-r.png"" border=""10"">","null","trial","32","","0.8,0.2","1:go_a","1",""
"null","","html-keyboard-response","261","458045","0.0-6.0-2.13","","<div style=""font-size:60px;"">+</div>","null","","","","","","",""
"null","","image-keyboard-response","262","459561","0.0-6.0-0.14","","img/yellow.png","null","trial","null","true","0.2,0.8","2:nogo_b","",""
"null","","html-keyboard-response","263","460566","0.0-6.0-1.14","","<img src=""img/yellow-n.png"">","null","trial","null","","0.2,0.8","2:nogo_b","0",""
"null","","html-keyboard-response","264","461571","0.0-6.0-2.14","","<div style=""font-size:60px;"">+</div>","null","","","","","","",""
"394.6200000063982","","image-keyboard-response","265","461966","0.0-6.0-0.15","","img/red.png","32","trial","32","true","1,0","3:go_c","",""
"null","","html-keyboard-response","266","462979","0.0-6.0-1.15","","<img src=""img/red-r.png"" border=""10"">","null","trial","32","","1,0","3:go_c","1",""
"null","","html-keyboard-response","267","463983","0.0-6.0-2.15","","<div style=""font-size:60px;"">+</div>","null","","","","","","",""
"null","","image-keyboard-response","268","465486","0.0-6.0-0.16","","img/orange.png","null","trial","null","true","0,1","4:nogo_d","",""
"null","","html-keyboard-response","269","466490","0.0-6.0-1.16","","<img src=""img/orange-r.png"">","null","trial","null","","0,1","4:nogo_d","1",""
"null","","html-keyboard-response","270","467496","0.0-6.0-2.16","","<div style=""font-size:60px;"">+</div>","null","","","","","","",""
"630.6400000175927","","image-keyboard-response","271","468127","0.0-6.0-0.17","","img/blue.png","32","trial","32","true","0.8,0.2","1:go_a","",""
"null","","html-keyboard-response","272","469137","0.0-6.0-1.17","","<img src=""img/blue-r.png"" border=""10"">","null","trial","32","","0.8,0.2","1:go_a","1",""
"null","","html-keyboard-response","273","470141","0.0-6.0-2.17","","<div style=""font-size:60px;"">+</div>","null","","","","","","",""
"null","","image-keyboard-response","274","471643","0.0-6.0-0.18","","img/yellow.png","null","trial","null","true","0.2,0.8","2:nogo_b","",""
"null","","html-keyboard-response","275","472647","0.0-6.0-1.18","","<img src=""img/yellow-n.png"">","null","trial","null","","0.2,0.8","2:nogo_b","0",""
"null","","html-keyboard-response","276","473651","0.0-6.0-2.18","","<div style=""font-size:60px;"">+</div>","null","","","","","","",""
"420.5950000032317","","image-keyboard-response","277","474072","0.0-6.0-0.19","","img/red.png","32","trial","32","true","1,0","3:go_c","",""
"null","","html-keyboard-response","278","475078","0.0-6.0-1.19","","<img src=""img/red-r.png"" border=""10"">","null","trial","32","","1,0","3:go_c","1",""
"null","","html-keyboard-response","279","476082","0.0-6.0-2.19","","<div style=""font-size:60px;"">+</div>","null","","","","","","",""
"null","","image-keyboard-response","280","477596","0.0-6.0-0.20","","img/yellow.png","null","trial","null","true","0.2,0.8","2:nogo_b","",""
"null","","html-keyboard-response","281","478600","0.0-6.0-1.20","","<img src=""img/yellow-r.png"">","null","trial","null","","0.2,0.8","2:nogo_b","1",""
"null","","html-keyboard-response","282","479604","0.0-6.0-2.20","","<div style=""font-size:60px;"">+</div>","null","","","","","","",""
"458.9350000023842","","image-keyboard-response","283","480064","0.0-6.0-0.21","","img/red.png","32","trial","32","true","1,0","3:go_c","",""
"null","","html-keyboard-response","284","481072","0.0-6.0-1.21","","<img src=""img/red-r.png"" border=""10"">","null","trial","32","","1,0","3:go_c","1",""
"null","","html-keyboard-response","285","482080","0.0-6.0-2.21","","<div style=""font-size:60px;"">+</div>","null","","","","","","",""
"null","","image-keyboard-response","286","483587","0.0-6.0-0.22","","img/orange.png","null","trial","null","true","0,1","4:nogo_d","",""
"null","","html-keyboard-response","287","484591","0.0-6.0-1.22","","<img src=""img/orange-r.png"">","null","trial","null","","0,1","4:nogo_d","1",""
"null","","html-keyboard-response","288","485602","0.0-6.0-2.22","","<div style=""font-size:60px;"">+</div>","null","","","","","","",""
"445.71499997982755","","image-keyboard-response","289","486048","0.0-6.0-0.23","","img/blue.png","32","trial","32","true","0.8,0.2","1:go_a","",""
"null","","html-keyboard-response","290","487060","0.0-6.0-1.23","","<img src=""img/blue-r.png"" border=""10"">","null","trial","32","","0.8,0.2","1:go_a","1",""
"null","","html-keyboard-response","291","488065","0.0-6.0-2.23","","<div style=""font-size:60px;"">+</div>","null","","","","","","",""
"null","","image-keyboard-response","292","489570","0.0-6.0-0.24","","img/yellow.png","null","trial","null","true","0.2,0.8","2:nogo_b","",""
"null","","html-keyboard-response","293","490574","0.0-6.0-1.24","","<img src=""img/yellow-r.png"">","null","trial","null","","0.2,0.8","2:nogo_b","1",""
"null","","html-keyboard-response","294","491582","0.0-6.0-2.24","","<div style=""font-size:60px;"">+</div>","null","","","","","","",""
"338.5800000105519","","image-keyboard-response","295","491921","0.0-6.0-0.25","","img/blue.png","32","trial","32","true","0.8,0.2","1:go_a","",""
"null","","html-keyboard-response","296","492933","0.0-6.0-1.25","","<img src=""img/blue-r.png"" border=""10"">","null","trial","32","","0.8,0.2","1:go_a","1",""
"null","","html-keyboard-response","297","493940","0.0-6.0-2.25","","<div style=""font-size:60px;"">+</div>","null","","","","","","",""
"764.2500000074506","","image-keyboard-response","298","494705","0.0-6.0-0.26","","img/red.png","32","trial","32","true","1,0","3:go_c","",""
"null","","html-keyboard-response","299","495721","0.0-6.0-1.26","","<img src=""img/red-r.png"" border=""10"">","null","trial","32","","1,0","3:go_c","1",""
"null","","html-keyboard-response","300","496730","0.0-6.0-2.26","","<div style=""font-size:60px;"">+</div>","null","","","","","","",""
"null","","image-keyboard-response","301","498243","0.0-6.0-0.27","","img/orange.png","null","trial","null","true","0,1","4:nogo_d","",""
"null","","html-keyboard-response","302","499250","0.0-6.0-1.27","","<img src=""img/orange-r.png"">","null","trial","null","","0,1","4:nogo_d","1",""
"null","","html-keyboard-response","303","500258","0.0-6.0-2.27","","<div style=""font-size:60px;"">+</div>","null","","","","","","",""
"null","","image-keyboard-response","304","501764","0.0-6.0-0.28","","img/yellow.png","null","trial","null","true","0.2,0.8","2:nogo_b","",""
"null","","html-keyboard-response","305","502772","0.0-6.0-1.28","","<img src=""img/yellow-r.png"">","null","trial","null","","0.2,0.8","2:nogo_b","1",""
"null","","html-keyboard-response","306","503780","0.0-6.0-2.28","","<div style=""font-size:60px;"">+</div>","null","","","","","","",""
"389.6799999929499","","image-keyboard-response","307","504170","0.0-6.0-0.29","","img/blue.png","32","trial","32","true","0.8,0.2","1:go_a","",""
"null","","html-keyboard-response","308","505185","0.0-6.0-1.29","","<img src=""img/blue-n.png"" border=""10"">","null","trial","32","","0.8,0.2","1:go_a","0",""
"null","","html-keyboard-response","309","506189","0.0-6.0-2.29","","<div style=""font-size:60px;"">+</div>","null","","","","","","",""
"643.7049999949522","","image-keyboard-response","310","506834","0.0-6.0-0.30","","img/red.png","32","trial","32","true","1,0","3:go_c","",""
"null","","html-keyboard-response","311","507841","0.0-6.0-1.30","","<img src=""img/red-r.png"" border=""10"">","null","trial","32","","1,0","3:go_c","1",""
"null","","html-keyboard-response","312","508845","0.0-6.0-2.30","","<div style=""font-size:60px;"">+</div>","null","","","","","","",""
"null","","image-keyboard-response","313","510349","0.0-6.0-0.31","","img/orange.png","null","trial","null","true","0,1","4:nogo_d","",""
"null","","html-keyboard-response","314","511362","0.0-6.0-1.31","","<img src=""img/orange-r.png"">","null","trial","null","","0,1","4:nogo_d","1",""
"null","","html-keyboard-response","315","512366","0.0-6.0-2.31","","<div style=""font-size:60px;"">+</div>","null","","","","","","",""
"627.9050000011921","","image-keyboard-response","316","512994","0.0-6.0-0.32","","img/red.png","32","trial","32","true","1,0","3:go_c","",""
"null","","html-keyboard-response","317","514006","0.0-6.0-1.32","","<img src=""img/red-r.png"" border=""10"">","null","trial","32","","1,0","3:go_c","1",""
"null","","html-keyboard-response","318","515012","0.0-6.0-2.32","","<div style=""font-size:60px;"">+</div>","null","","","","","","",""
"null","","image-keyboard-response","319","516526","0.0-6.0-0.33","","img/yellow.png","null","trial","null","true","0.2,0.8","2:nogo_b","",""
"null","","html-keyboard-response","320","517528","0.0-6.0-1.33","","<img src=""img/yellow-r.png"">","null","trial","null","","0.2,0.8","2:nogo_b","1",""
"null","","html-keyboard-response","321","518535","0.0-6.0-2.33","","<div style=""font-size:60px;"">+</div>","null","","","","","","",""
"null","","image-keyboard-response","322","520037","0.0-6.0-0.34","","img/orange.png","null","trial","null","true","0,1","4:nogo_d","",""
"null","","html-keyboard-response","323","521046","0.0-6.0-1.34","","<img src=""img/orange-r.png"">","null","trial","null","","0,1","4:nogo_d","1",""
"null","","html-keyboard-response","324","522061","0.0-6.0-2.34","","<div style=""font-size:60px;"">+</div>","null","","","","","","",""
"365.3850000118837","","image-keyboard-response","325","522427","0.0-6.0-0.35","","img/blue.png","32","trial","32","true","0.8,0.2","1:go_a","",""
"null","","html-keyboard-response","326","523442","0.0-6.0-1.35","","<img src=""img/blue-r.png"" border=""10"">","null","trial","32","","0.8,0.2","1:go_a","1",""
"null","","html-keyboard-response","327","524449","0.0-6.0-2.35","","<div style=""font-size:60px;"">+</div>","null","","","","","","",""
"505.8499999868218","","image-keyboard-response","328","524955","0.0-6.0-0.36","","img/blue.png","32","trial","32","true","0.8,0.2","1:go_a","",""
"null","","html-keyboard-response","329","525964","0.0-6.0-1.36","","<img src=""img/blue-r.png"" border=""10"">","null","trial","32","","0.8,0.2","1:go_a","1",""
"null","","html-keyboard-response","330","526970","0.0-6.0-2.36","","<div style=""font-size:60px;"">+</div>","null","","","","","","",""
"null","","image-keyboard-response","331","528483","0.0-6.0-0.37","","img/orange.png","null","trial","null","true","0,1","4:nogo_d","",""
"null","","html-keyboard-response","332","529489","0.0-6.0-1.37","","<img src=""img/orange-r.png"">","null","trial","null","","0,1","4:nogo_d","1",""
"null","","html-keyboard-response","333","530499","0.0-6.0-2.37","","<div style=""font-size:60px;"">+</div>","null","","","","","","",""
"408.3800000080373","","image-keyboard-response","334","530908","0.0-6.0-0.38","","img/red.png","32","trial","32","true","1,0","3:go_c","",""
"null","","html-keyboard-response","335","531924","0.0-6.0-1.38","","<img src=""img/red-r.png"" border=""10"">","null","trial","32","","1,0","3:go_c","1",""
"null","","html-keyboard-response","336","532928","0.0-6.0-2.38","","<div style=""font-size:60px;"">+</div>","null","","","","","","",""
"null","","image-keyboard-response","337","534433","0.0-6.0-0.39","","img/yellow.png","null","trial","null","true","0.2,0.8","2:nogo_b","",""
"null","","html-keyboard-response","338","535442","0.0-6.0-1.39","","<img src=""img/yellow-r.png"">","null","trial","null","","0.2,0.8","2:nogo_b","1",""
"null","","html-keyboard-response","339","536449","0.0-6.0-2.39","","<div style=""font-size:60px;"">+</div>","null","","","","","","",""
"514.4250000012107","","image-keyboard-response","340","536964","0.0-6.0-0.40","","img/red.png","32","trial","32","true","1,0","3:go_c","",""
"null","","html-keyboard-response","341","537981","0.0-6.0-1.40","","<img src=""img/red-r.png"" border=""10"">","null","trial","32","","1,0","3:go_c","1",""
"null","","html-keyboard-response","342","538987","0.0-6.0-2.40","","<div style=""font-size:60px;"">+</div>","null","","","","","","",""
"416.67999999481253","","image-keyboard-response","343","539404","0.0-6.0-0.41","","img/blue.png","32","trial","32","true","0.8,0.2","1:go_a","",""
"null","","html-keyboard-response","344","540410","0.0-6.0-1.41","","<img src=""img/blue-r.png"" border=""10"">","null","trial","32","","0.8,0.2","1:go_a","1",""
"null","","html-keyboard-response","345","541416","0.0-6.0-2.41","","<div style=""font-size:60px;"">+</div>","null","","","","","","",""
"null","","image-keyboard-response","346","542926","0.0-6.0-0.42","","img/orange.png","null","trial","null","true","0,1","4:nogo_d","",""
"null","","html-keyboard-response","347","543929","0.0-6.0-1.42","","<img src=""img/orange-r.png"">","null","trial","null","","0,1","4:nogo_d","1",""
"null","","html-keyboard-response","348","544943","0.0-6.0-2.42","","<div style=""font-size:60px;"">+</div>","null","","","","","","",""
"null","","image-keyboard-response","349","546459","0.0-6.0-0.43","","img/yellow.png","null","trial","null","true","0.2,0.8","2:nogo_b","",""
"null","","html-keyboard-response","350","547465","0.0-6.0-1.43","","<img src=""img/yellow-r.png"">","null","trial","null","","0.2,0.8","2:nogo_b","1",""
"null","","html-keyboard-response","351","548469","0.0-6.0-2.43","","<div style=""font-size:60px;"">+</div>","null","","","","","","",""
"439.1999999934342","","image-keyboard-response","352","548909","0.0-6.0-0.44","","img/blue.png","32","trial","32","true","0.8,0.2","1:go_a","",""
"null","","html-keyboard-response","353","549913","0.0-6.0-1.44","","<img src=""img/blue-r.png"" border=""10"">","null","trial","32","","0.8,0.2","1:go_a","1",""
"null","","html-keyboard-response","354","550921","0.0-6.0-2.44","","<div style=""font-size:60px;"">+</div>","null","","","","","","",""
"404.24000000348315","","image-keyboard-response","355","551326","0.0-6.0-0.45","","img/red.png","32","trial","32","true","1,0","3:go_c","",""
"null","","html-keyboard-response","356","552328","0.0-6.0-1.45","","<img src=""img/red-r.png"" border=""10"">","null","trial","32","","1,0","3:go_c","1",""
"null","","html-keyboard-response","357","553332","0.0-6.0-2.45","","<div style=""font-size:60px;"">+</div>","null","","","","","","",""
"null","","image-keyboard-response","358","554834","0.0-6.0-0.46","","img/yellow.png","null","trial","null","true","0.2,0.8","2:nogo_b","",""
"null","","html-keyboard-response","359","555840","0.0-6.0-1.46","","<img src=""img/yellow-r.png"">","null","trial","null","","0.2,0.8","2:nogo_b","1",""
"null","","html-keyboard-response","360","556844","0.0-6.0-2.46","","<div style=""font-size:60px;"">+</div>","null","","","","","","",""
"null","","image-keyboard-response","361","558358","0.0-6.0-0.47","","img/orange.png","null","trial","null","true","0,1","4:nogo_d","",""
"null","","html-keyboard-response","362","559366","0.0-6.0-1.47","","<img src=""img/orange-r.png"">","null","trial","null","","0,1","4:nogo_d","1",""
"null","","html-keyboard-response","363","560373","0.0-6.0-2.47","","<div style=""font-size:60px;"">+</div>","null","","","","","","",""
"null","","image-keyboard-response","364","561889","0.0-6.0-0.48","","img/yellow.png","null","trial","null","true","0.2,0.8","2:nogo_b","",""
"null","","html-keyboard-response","365","562892","0.0-6.0-1.48","","<img src=""img/yellow-n.png"">","null","trial","null","","0.2,0.8","2:nogo_b","0",""
"null","","html-keyboard-response","366","563900","0.0-6.0-2.48","","<div style=""font-size:60px;"">+</div>","null","","","","","","",""
"null","","image-keyboard-response","367","565405","0.0-6.0-0.49","","img/orange.png","null","trial","null","true","0,1","4:nogo_d","",""
"null","","html-keyboard-response","368","566408","0.0-6.0-1.49","","<img src=""img/orange-r.png"">","null","trial","null","","0,1","4:nogo_d","1",""
"null","","html-keyboard-response","369","567415","0.0-6.0-2.49","","<div style=""font-size:60px;"">+</div>","null","","","","","","",""
"464.68500001356006","","image-keyboard-response","370","567880","0.0-6.0-0.50","","img/red.png","32","trial","32","true","1,0","3:go_c","",""
"null","","html-keyboard-response","371","568885","0.0-6.0-1.50","","<img src=""img/red-r.png"" border=""10"">","null","trial","32","","1,0","3:go_c","1",""
"null","","html-keyboard-response","372","569890","0.0-6.0-2.50","","<div style=""font-size:60px;"">+</div>","null","","","","","","",""
"436.71499998890795","","image-keyboard-response","373","570327","0.0-6.0-0.51","","img/blue.png","32","trial","32","true","0.8,0.2","1:go_a","",""
"null","","html-keyboard-response","374","571331","0.0-6.0-1.51","","<img src=""img/blue-r.png"" border=""10"">","null","trial","32","","0.8,0.2","1:go_a","1",""
"null","","html-keyboard-response","375","572341","0.0-6.0-2.51","","<div style=""font-size:60px;"">+</div>","null","","","","","","",""
"505.925000004936","","image-keyboard-response","376","572847","0.0-6.0-0.52","","img/blue.png","32","trial","32","true","0.8,0.2","1:go_a","",""
"null","","html-keyboard-response","377","573853","0.0-6.0-1.52","","<img src=""img/blue-n.png"" border=""10"">","null","trial","32","","0.8,0.2","1:go_a","0",""
"null","","html-keyboard-response","378","574855","0.0-6.0-2.52","","<div style=""font-size:60px;"">+</div>","null","","","","","","",""
"606.999999989057","","image-keyboard-response","379","575463","0.0-6.0-0.53","","img/red.png","32","trial","32","true","1,0","3:go_c","",""
"null","","html-keyboard-response","380","576473","0.0-6.0-1.53","","<img src=""img/red-r.png"" border=""10"">","null","trial","32","","1,0","3:go_c","1",""
"null","","html-keyboard-response","381","577478","0.0-6.0-2.53","","<div style=""font-size:60px;"">+</div>","null","","","","","","",""
"null","","image-keyboard-response","382","578992","0.0-6.0-0.54","","img/orange.png","null","trial","null","true","0,1","4:nogo_d","",""
"null","","html-keyboard-response","383","580002","0.0-6.0-1.54","","<img src=""img/orange-r.png"">","null","trial","null","","0,1","4:nogo_d","1",""
"null","","html-keyboard-response","384","581007","0.0-6.0-2.54","","<div style=""font-size:60px;"">+</div>","null","","","","","","",""
"null","","image-keyboard-response","385","582521","0.0-6.0-0.55","","img/yellow.png","null","trial","null","true","0.2,0.8","2:nogo_b","",""
"null","","html-keyboard-response","386","583537","0.0-6.0-1.55","","<img src=""img/yellow-r.png"">","null","trial","null","","0.2,0.8","2:nogo_b","1",""
"null","","html-keyboard-response","387","584538","0.0-6.0-2.55","","<div style=""font-size:60px;"">+</div>","null","","","","","","",""
"null","","image-keyboard-response","388","586040","0.0-6.0-0.56","","img/yellow.png","null","trial","null","true","0.2,0.8","2:nogo_b","",""
"null","","html-keyboard-response","389","587043","0.0-6.0-1.56","","<img src=""img/yellow-n.png"">","null","trial","null","","0.2,0.8","2:nogo_b","0",""
"null","","html-keyboard-response","390","588049","0.0-6.0-2.56","","<div style=""font-size:60px;"">+</div>","null","","","","","","",""
"415.21500001545064","","image-keyboard-response","391","588465","0.0-6.0-0.57","","img/red.png","32","trial","32","true","1,0","3:go_c","",""
"null","","html-keyboard-response","392","589474","0.0-6.0-1.57","","<img src=""img/red-r.png"" border=""10"">","null","trial","32","","1,0","3:go_c","1",""
"null","","html-keyboard-response","393","590480","0.0-6.0-2.57","","<div style=""font-size:60px;"">+</div>","null","","","","","","",""
"392.3500000091735","","image-keyboard-response","394","590872","0.0-6.0-0.58","","img/blue.png","32","trial","32","true","0.8,0.2","1:go_a","",""
"null","","html-keyboard-response","395","591886","0.0-6.0-1.58","","<img src=""img/blue-r.png"" border=""10"">","null","trial","32","","0.8,0.2","1:go_a","1",""
"null","","html-keyboard-response","396","592893","0.0-6.0-2.58","","<div style=""font-size:60px;"">+</div>","null","","","","","","",""
"null","","image-keyboard-response","397","594406","0.0-6.0-0.59","","img/orange.png","null","trial","null","true","0,1","4:nogo_d","",""
"null","","html-keyboard-response","398","595415","0.0-6.0-1.59","","<img src=""img/orange-r.png"">","null","trial","null","","0,1","4:nogo_d","1",""
"null","","html-keyboard-response","399","596417","0.0-6.0-2.59","","<div style=""font-size:60px;"">+</div>","null","","","","","","",""
"455.3499999747146","","image-keyboard-response","400","596873","0.0-6.0-0.60","","img/blue.png","32","trial","32","true","0.8,0.2","1:go_a","",""
"null","","html-keyboard-response","401","597884","0.0-6.0-1.60","","<img src=""img/blue-r.png"" border=""10"">","null","trial","32","","0.8,0.2","1:go_a","1",""
"null","","html-keyboard-response","402","598889","0.0-6.0-2.60","","<div style=""font-size:60px;"">+</div>","null","","","","","","",""
"null","","image-keyboard-response","403","600404","0.0-6.0-0.61","","img/yellow.png","null","trial","null","true","0.2,0.8","2:nogo_b","",""
"null","","html-keyboard-response","404","601407","0.0-6.0-1.61","","<img src=""img/yellow-r.png"">","null","trial","null","","0.2,0.8","2:nogo_b","1",""
"null","","html-keyboard-response","405","602417","0.0-6.0-2.61","","<div style=""font-size:60px;"">+</div>","null","","","","","","",""
"null","","image-keyboard-response","406","603918","0.0-6.0-0.62","","img/orange.png","null","trial","null","true","0,1","4:nogo_d","",""
"null","","html-keyboard-response","407","604928","0.0-6.0-1.62","","<img src=""img/orange-r.png"">","null","trial","null","","0,1","4:nogo_d","1",""
"null","","html-keyboard-response","408","605933","0.0-6.0-2.62","","<div style=""font-size:60px;"">+</div>","null","","","","","","",""
"428.5249999957159","","image-keyboard-response","409","606362","0.0-6.0-0.63","","img/red.png","32","trial","32","true","1,0","3:go_c","",""
"null","","html-keyboard-response","410","607375","0.0-6.0-1.63","","<img src=""img/red-r.png"" border=""10"">","null","trial","32","","1,0","3:go_c","1",""
"null","","html-keyboard-response","411","608380","0.0-6.0-2.63","","<div style=""font-size:60px;"">+</div>","null","","","","","","",""
"437.83999999868684","","image-keyboard-response","412","608818","0.0-6.0-0.64","","img/red.png","32","trial","32","true","1,0","3:go_c","",""
"null","","html-keyboard-response","413","609834","0.0-6.0-1.64","","<img src=""img/red-r.png"" border=""10"">","null","trial","32","","1,0","3:go_c","1",""
"null","","html-keyboard-response","414","610845","0.0-6.0-2.64","","<div style=""font-size:60px;"">+</div>","null","","","","","","",""
"548.9050000032876","","image-keyboard-response","415","611394","0.0-6.0-0.65","","img/blue.png","32","trial","32","true","0.8,0.2","1:go_a","",""
"null","","html-keyboard-response","416","612407","0.0-6.0-1.65","","<img src=""img/blue-r.png"" border=""10"">","null","trial","32","","0.8,0.2","1:go_a","1",""
"null","","html-keyboard-response","417","613417","0.0-6.0-2.65","","<div style=""font-size:60px;"">+</div>","null","","","","","","",""
"null","","image-keyboard-response","418","614925","0.0-6.0-0.66","","img/orange.png","null","trial","null","true","0,1","4:nogo_d","",""
"null","","html-keyboard-response","419","615930","0.0-6.0-1.66","","<img src=""img/orange-r.png"">","null","trial","null","","0,1","4:nogo_d","1",""
"null","","html-keyboard-response","420","616936","0.0-6.0-2.66","","<div style=""font-size:60px;"">+</div>","null","","","","","","",""
"null","","image-keyboard-response","421","618441","0.0-6.0-0.67","","img/yellow.png","null","trial","null","true","0.2,0.8","2:nogo_b","",""
"null","","html-keyboard-response","422","619444","0.0-6.0-1.67","","<img src=""img/yellow-r.png"">","null","trial","null","","0.2,0.8","2:nogo_b","1",""
"null","","html-keyboard-response","423","620458","0.0-6.0-2.67","","<div style=""font-size:60px;"">+</div>","null","","","","","","",""
"392.9800000041723","","image-keyboard-response","424","620851","0.0-6.0-0.68","","img/red.png","32","trial","32","true","1,0","3:go_c","",""
"null","","html-keyboard-response","425","621867","0.0-6.0-1.68","","<img src=""img/red-r.png"" border=""10"">","null","trial","32","","1,0","3:go_c","1",""
"null","","html-keyboard-response","426","622871","0.0-6.0-2.68","","<div style=""font-size:60px;"">+</div>","null","","","","","","",""
"514.965000009397","","image-keyboard-response","427","623387","0.0-6.0-0.69","","img/blue.png","32","trial","32","true","0.8,0.2","1:go_a","",""
"null","","html-keyboard-response","428","624389","0.0-6.0-1.69","","<img src=""img/blue-n.png"" border=""10"">","null","trial","32","","0.8,0.2","1:go_a","0",""
"null","","html-keyboard-response","429","625390","0.0-6.0-2.69","","<div style=""font-size:60px;"">+</div>","null","","","","","","",""
"null","","image-keyboard-response","430","626904","0.0-6.0-0.70","","img/orange.png","null","trial","null","true","0,1","4:nogo_d","",""
"null","","html-keyboard-response","431","627917","0.0-6.0-1.70","","<img src=""img/orange-r.png"">","null","trial","null","","0,1","4:nogo_d","1",""
"null","","html-keyboard-response","432","628923","0.0-6.0-2.70","","<div style=""font-size:60px;"">+</div>","null","","","","","","",""
"null","","image-keyboard-response","433","630438","0.0-6.0-0.71","","img/yellow.png","null","trial","null","true","0.2,0.8","2:nogo_b","",""
"null","","html-keyboard-response","434","631446","0.0-6.0-1.71","","<img src=""img/yellow-r.png"">","null","trial","null","","0.2,0.8","2:nogo_b","1",""
"null","","html-keyboard-response","435","632448","0.0-6.0-2.71","","<div style=""font-size:60px;"">+</div>","null","","","","","","",""
"null","","image-keyboard-response","436","633950","0.0-6.0-0.72","","img/orange.png","null","trial","null","true","0,1","4:nogo_d","",""
"null","","html-keyboard-response","437","634958","0.0-6.0-1.72","","<img src=""img/orange-r.png"">","null","trial","null","","0,1","4:nogo_d","1",""
"null","","html-keyboard-response","438","635965","0.0-6.0-2.72","","<div style=""font-size:60px;"">+</div>","null","","","","","","",""
"702.3650000046473","","image-keyboard-response","439","636668","0.0-6.0-0.73","","img/blue.png","32","trial","32","true","0.8,0.2","1:go_a","",""
"null","","html-keyboard-response","440","637672","0.0-6.0-1.73","","<img src=""img/blue-r.png"" border=""10"">","null","trial","32","","0.8,0.2","1:go_a","1",""
"null","","html-keyboard-response","441","638687","0.0-6.0-2.73","","<div style=""font-size:60px;"">+</div>","null","","","","","","",""
"null","","image-keyboard-response","442","640193","0.0-6.0-0.74","","img/yellow.png","null","trial","null","true","0.2,0.8","2:nogo_b","",""
"null","","html-keyboard-response","443","641200","0.0-6.0-1.74","","<img src=""img/yellow-n.png"">","null","trial","null","","0.2,0.8","2:nogo_b","0",""
"null","","html-keyboard-response","444","642204","0.0-6.0-2.74","","<div style=""font-size:60px;"">+</div>","null","","","","","","",""
"512.3350000067148","","image-keyboard-response","445","642716","0.0-6.0-0.75","","img/red.png","32","trial","32","true","1,0","3:go_c","",""
"null","","html-keyboard-response","446","643722","0.0-6.0-1.75","","<img src=""img/red-r.png"" border=""10"">","null","trial","32","","1,0","3:go_c","1",""
"null","","html-keyboard-response","447","644727","0.0-6.0-2.75","","<div style=""font-size:60px;"">+</div>","null","","","","","","",""
"436.8850000028033","","image-keyboard-response","448","645165","0.0-6.0-0.76","","img/red.png","32","trial","32","true","1,0","3:go_c","",""
"null","","html-keyboard-response","449","646181","0.0-6.0-1.76","","<img src=""img/red-r.png"" border=""10"">","null","trial","32","","1,0","3:go_c","1",""
"null","","html-keyboard-response","450","647187","0.0-6.0-2.76","","<div style=""font-size:60px;"">+</div>","null","","","","","","",""
"null","","image-keyboard-response","451","648703","0.0-6.0-0.77","","img/orange.png","null","trial","null","true","0,1","4:nogo_d","",""
"null","","html-keyboard-response","452","649711","0.0-6.0-1.77","","<img src=""img/orange-r.png"">","null","trial","null","","0,1","4:nogo_d","1",""
"null","","html-keyboard-response","453","650722","0.0-6.0-2.77","","<div style=""font-size:60px;"">+</div>","null","","","","","","",""
"null","","image-keyboard-response","454","652229","0.0-6.0-0.78","","img/yellow.png","null","trial","null","true","0.2,0.8","2:nogo_b","",""
"null","","html-keyboard-response","455","653233","0.0-6.0-1.78","","<img src=""img/yellow-r.png"">","null","trial","null","","0.2,0.8","2:nogo_b","1",""
"null","","html-keyboard-response","456","654236","0.0-6.0-2.78","","<div style=""font-size:60px;"">+</div>","null","","","","","","",""
"401.4549999847077","","image-keyboard-response","457","654638","0.0-6.0-0.79","","img/blue.png","32","trial","32","true","0.8,0.2","1:go_a","",""
"null","","html-keyboard-response","458","655651","0.0-6.0-1.79","","<img src=""img/blue-r.png"" border=""10"">","null","trial","32","","0.8,0.2","1:go_a","1",""
"null","","html-keyboard-response","459","656666","0.0-6.0-2.79","","<div style=""font-size:60px;"">+</div>","null","","","","","","",""
"null","","image-keyboard-response","460","658180","0.0-6.0-0.80","","img/orange.png","null","trial","null","true","0,1","4:nogo_d","",""
"null","","html-keyboard-response","461","659189","0.0-6.0-1.80","","<img src=""img/orange-r.png"">","null","trial","null","","0,1","4:nogo_d","1",""
"null","","html-keyboard-response","462","660198","0.0-6.0-2.80","","<div style=""font-size:60px;"">+</div>","null","","","","","","",""
"null","","image-keyboard-response","463","661703","0.0-6.0-0.81","","img/yellow.png","null","trial","null","true","0.2,0.8","2:nogo_b","",""
"null","","html-keyboard-response","464","662709","0.0-6.0-1.81","","<img src=""img/yellow-r.png"">","null","trial","null","","0.2,0.8","2:nogo_b","1",""
"null","","html-keyboard-response","465","663715","0.0-6.0-2.81","","<div style=""font-size:60px;"">+</div>","null","","","","","","",""
"562.9049999988638","","image-keyboard-response","466","664278","0.0-6.0-0.82","","img/blue.png","32","trial","32","true","0.8,0.2","1:go_a","",""
"null","","html-keyboard-response","467","665283","0.0-6.0-1.82","","<img src=""img/blue-r.png"" border=""10"">","null","trial","32","","0.8,0.2","1:go_a","1",""
"null","","html-keyboard-response","468","666292","0.0-6.0-2.82","","<div style=""font-size:60px;"">+</div>","null","","","","","","",""
"562.7349999849685","","image-keyboard-response","469","666855","0.0-6.0-0.83","","img/red.png","32","trial","32","true","1,0","3:go_c","",""
"null","","html-keyboard-response","470","667871","0.0-6.0-1.83","","<img src=""img/red-r.png"" border=""10"">","null","trial","32","","1,0","3:go_c","1",""
"null","","html-keyboard-response","471","668874","0.0-6.0-2.83","","<div style=""font-size:60px;"">+</div>","null","","","","","","",""
"null","","image-keyboard-response","472","670390","0.0-6.0-0.84","","img/yellow.png","null","trial","null","true","0.2,0.8","2:nogo_b","",""
"null","","html-keyboard-response","473","671394","0.0-6.0-1.84","","<img src=""img/yellow-r.png"">","null","trial","null","","0.2,0.8","2:nogo_b","1",""
"null","","html-keyboard-response","474","672403","0.0-6.0-2.84","","<div style=""font-size:60px;"">+</div>","null","","","","","","",""
"499.0549999929499","","image-keyboard-response","475","672903","0.0-6.0-0.85","","img/red.png","32","trial","32","true","1,0","3:go_c","",""
"null","","html-keyboard-response","476","673918","0.0-6.0-1.85","","<img src=""img/red-r.png"" border=""10"">","null","trial","32","","1,0","3:go_c","1",""
"null","","html-keyboard-response","477","674925","0.0-6.0-2.85","","<div style=""font-size:60px;"">+</div>","null","","","","","","",""
"569.2849999759346","","image-keyboard-response","478","675495","0.0-6.0-0.86","","img/blue.png","32","trial","32","true","0.8,0.2","1:go_a","",""
"null","","html-keyboard-response","479","676502","0.0-6.0-1.86","","<img src=""img/blue-r.png"" border=""10"">","null","trial","32","","0.8,0.2","1:go_a","1",""
"null","","html-keyboard-response","480","677514","0.0-6.0-2.86","","<div style=""font-size:60px;"">+</div>","null","","","","","","",""
"null","","image-keyboard-response","481","679029","0.0-6.0-0.87","","img/orange.png","null","trial","null","true","0,1","4:nogo_d","",""
"null","","html-keyboard-response","482","680036","0.0-6.0-1.87","","<img src=""img/orange-r.png"">","null","trial","null","","0,1","4:nogo_d","1",""
"null","","html-keyboard-response","483","681043","0.0-6.0-2.87","","<div style=""font-size:60px;"">+</div>","null","","","","","","",""
"500.514999992447","","image-keyboard-response","484","681544","0.0-6.0-0.88","","img/red.png","32","trial","32","true","1,0","3:go_c","",""
"null","","html-keyboard-response","485","682546","0.0-6.0-1.88","","<img src=""img/red-r.png"" border=""10"">","null","trial","32","","1,0","3:go_c","1",""
"null","","html-keyboard-response","486","683551","0.0-6.0-2.88","","<div style=""font-size:60px;"">+</div>","null","","","","","","",""
"465.3050000197254","","image-keyboard-response","487","684017","0.0-6.0-0.89","","img/blue.png","32","trial","32","true","0.8,0.2","1:go_a","",""
"null","","html-keyboard-response","488","685030","0.0-6.0-1.89","","<img src=""img/blue-n.png"" border=""10"">","null","trial","32","","0.8,0.2","1:go_a","0",""
"null","","html-keyboard-response","489","686034","0.0-6.0-2.89","","<div style=""font-size:60px;"">+</div>","null","","","","","","",""
"null","","image-keyboard-response","490","687549","0.0-6.0-0.90","","img/yellow.png","null","trial","null","true","0.2,0.8","2:nogo_b","",""
"null","","html-keyboard-response","491","688557","0.0-6.0-1.90","","<img src=""img/yellow-r.png"">","null","trial","null","","0.2,0.8","2:nogo_b","1",""
"null","","html-keyboard-response","492","689567","0.0-6.0-2.90","","<div style=""font-size:60px;"">+</div>","null","","","","","","",""
"null","","image-keyboard-response","493","691072","0.0-6.0-0.91","","img/orange.png","null","trial","null","true","0,1","4:nogo_d","",""
"null","","html-keyboard-response","494","692080","0.0-6.0-1.91","","<img src=""img/orange-r.png"">","null","trial","null","","0,1","4:nogo_d","1",""
"null","","html-keyboard-response","495","693085","0.0-6.0-2.91","","<div style=""font-size:60px;"">+</div>","null","","","","","","",""
"427.060000016354","","image-keyboard-response","496","693513","0.0-6.0-0.92","","img/red.png","32","trial","32","true","1,0","3:go_c","",""
"null","","html-keyboard-response","497","694521","0.0-6.0-1.92","","<img src=""img/red-r.png"" border=""10"">","null","trial","32","","1,0","3:go_c","1",""
"null","","html-keyboard-response","498","695526","0.0-6.0-2.92","","<div style=""font-size:60px;"">+</div>","null","","","","","","",""
"null","","image-keyboard-response","499","697028","0.0-6.0-0.93","","img/orange.png","null","trial","null","true","0,1","4:nogo_d","",""
"null","","html-keyboard-response","500","698032","0.0-6.0-1.93","","<img src=""img/orange-r.png"">","null","trial","null","","0,1","4:nogo_d","1",""
"null","","html-keyboard-response","501","699038","0.0-6.0-2.93","","<div style=""font-size:60px;"">+</div>","null","","","","","","",""
"570.2800000144634","","image-keyboard-response","502","699609","0.0-6.0-0.94","","img/blue.png","32","trial","32","true","0.8,0.2","1:go_a","",""
"null","","html-keyboard-response","503","700621","0.0-6.0-1.94","","<img src=""img/blue-r.png"" border=""10"">","null","trial","32","","0.8,0.2","1:go_a","1",""
"null","","html-keyboard-response","504","701626","0.0-6.0-2.94","","<div style=""font-size:60px;"">+</div>","null","","","","","","",""
"null","","image-keyboard-response","505","703127","0.0-6.0-0.95","","img/yellow.png","null","trial","null","true","0.2,0.8","2:nogo_b","",""
"null","","html-keyboard-response","506","704133","0.0-6.0-1.95","","<img src=""img/yellow-r.png"">","null","trial","null","","0.2,0.8","2:nogo_b","1",""
"null","","html-keyboard-response","507","705142","0.0-6.0-2.95","","<div style=""font-size:60px;"">+</div>","null","","","","","","",""
"null","","image-keyboard-response","508","706658","0.0-6.0-0.96","","img/orange.png","null","trial","null","true","0,1","4:nogo_d","",""
"null","","html-keyboard-response","509","707661","0.0-6.0-1.96","","<img src=""img/orange-r.png"">","null","trial","null","","0,1","4:nogo_d","1",""
"null","","html-keyboard-response","510","708666","0.0-6.0-2.96","","<div style=""font-size:60px;"">+</div>","null","","","","","","",""
"535.9500000195112","","image-keyboard-response","511","709202","0.0-6.0-0.97","","img/blue.png","32","trial","32","true","0.8,0.2","1:go_a","",""
"null","","html-keyboard-response","512","710217","0.0-6.0-1.97","","<img src=""img/blue-r.png"" border=""10"">","null","trial","32","","0.8,0.2","1:go_a","1",""
"null","","html-keyboard-response","513","711223","0.0-6.0-2.97","","<div style=""font-size:60px;"">+</div>","null","","","","","","",""
"578.3850000007078","","image-keyboard-response","514","711802","0.0-6.0-0.98","","img/red.png","32","trial","32","true","1,0","3:go_c","",""
"null","","html-keyboard-response","515","712809","0.0-6.0-1.98","","<img src=""img/red-r.png"" border=""10"">","null","trial","32","","1,0","3:go_c","1",""
"null","","html-keyboard-response","516","713822","0.0-6.0-2.98","","<div style=""font-size:60px;"">+</div>","null","","","","","","",""
"null","","image-keyboard-response","517","715329","0.0-6.0-0.99","","img/yellow.png","null","trial","null","true","0.2,0.8","2:nogo_b","",""
"null","","html-keyboard-response","518","716345","0.0-6.0-1.99","","<img src=""img/yellow-r.png"">","null","trial","null","","0.2,0.8","2:nogo_b","1",""
"null","","html-keyboard-response","519","717356","0.0-6.0-2.99","","<div style=""font-size:60px;"">+</div>","null","","","","","","",""
"438.1449999928009","","image-keyboard-response","520","717794","0.0-6.0-0.100","","img/red.png","32","trial","32","true","1,0","3:go_c","",""
"null","","html-keyboard-response","521","718803","0.0-6.0-1.100","","<img src=""img/red-r.png"" border=""10"">","null","trial","32","","1,0","3:go_c","1",""
"null","","html-keyboard-response","522","719812","0.0-6.0-2.100","","<div style=""font-size:60px;"">+</div>","null","","","","","","",""
"478.8000000116881","","image-keyboard-response","523","720291","0.0-6.0-0.101","","img/blue.png","32","trial","32","true","0.8,0.2","1:go_a","",""
"null","","html-keyboard-response","524","721300","0.0-6.0-1.101","","<img src=""img/blue-n.png"" border=""10"">","null","trial","32","","0.8,0.2","1:go_a","0",""
"null","","html-keyboard-response","525","722310","0.0-6.0-2.101","","<div style=""font-size:60px;"">+</div>","null","","","","","","",""
"null","","image-keyboard-response","526","723811","0.0-6.0-0.102","","img/yellow.png","null","trial","null","true","0.2,0.8","2:nogo_b","",""
"null","","html-keyboard-response","527","724823","0.0-6.0-1.102","","<img src=""img/yellow-r.png"">","null","trial","null","","0.2,0.8","2:nogo_b","1",""
"null","","html-keyboard-response","528","725825","0.0-6.0-2.102","","<div style=""font-size:60px;"">+</div>","null","","","","","","",""
"null","","image-keyboard-response","529","727336","0.0-6.0-0.103","","img/orange.png","null","trial","null","true","0,1","4:nogo_d","",""
"null","","html-keyboard-response","530","728347","0.0-6.0-1.103","","<img src=""img/orange-r.png"">","null","trial","null","","0,1","4:nogo_d","1",""
"null","","html-keyboard-response","531","729351","0.0-6.0-2.103","","<div style=""font-size:60px;"">+</div>","null","","","","","","",""
"451.9200000213459","","image-keyboard-response","532","729803","0.0-6.0-0.104","","img/red.png","32","trial","32","true","1,0","3:go_c","",""
"null","","html-keyboard-response","533","730808","0.0-6.0-1.104","","<img src=""img/red-r.png"" border=""10"">","null","trial","32","","1,0","3:go_c","1",""
"null","","html-keyboard-response","534","731824","0.0-6.0-2.104","","<div style=""font-size:60px;"">+</div>","null","","","","","","",""
"null","","image-keyboard-response","535","733327","0.0-6.0-0.105","","img/orange.png","null","trial","null","true","0,1","4:nogo_d","",""
"null","","html-keyboard-response","536","734340","0.0-6.0-1.105","","<img src=""img/orange-r.png"">","null","trial","null","","0,1","4:nogo_d","1",""
"null","","html-keyboard-response","537","735352","0.0-6.0-2.105","","<div style=""font-size:60px;"">+</div>","null","","","","","","",""
"null","","image-keyboard-response","538","736866","0.0-6.0-0.106","","img/yellow.png","null","trial","null","true","0.2,0.8","2:nogo_b","",""
"null","","html-keyboard-response","539","737877","0.0-6.0-1.106","","<img src=""img/yellow-r.png"">","null","trial","null","","0.2,0.8","2:nogo_b","1",""
"null","","html-keyboard-response","540","738888","0.0-6.0-2.106","","<div style=""font-size:60px;"">+</div>","null","","","","","","",""
"460.1949999923818","","image-keyboard-response","541","739349","0.0-6.0-0.107","","img/blue.png","32","trial","32","true","0.8,0.2","1:go_a","",""
"null","","html-keyboard-response","542","740361","0.0-6.0-1.107","","<img src=""img/blue-r.png"" border=""10"">","null","trial","32","","0.8,0.2","1:go_a","1",""
"null","","html-keyboard-response","543","741371","0.0-6.0-2.107","","<div style=""font-size:60px;"">+</div>","null","","","","","","",""
"null","","image-keyboard-response","544","742874","0.0-6.0-0.108","","img/yellow.png","null","trial","null","true","0.2,0.8","2:nogo_b","",""
"null","","html-keyboard-response","545","743882","0.0-6.0-1.108","","<img src=""img/yellow-r.png"">","null","trial","null","","0.2,0.8","2:nogo_b","1",""
"null","","html-keyboard-response","546","744893","0.0-6.0-2.108","","<div style=""font-size:60px;"">+</div>","null","","","","","","",""
"535.5750000162516","","image-keyboard-response","547","745429","0.0-6.0-0.109","","img/red.png","32","trial","32","true","1,0","3:go_c","",""
"null","","html-keyboard-response","548","746440","0.0-6.0-1.109","","<img src=""img/red-r.png"" border=""10"">","null","trial","32","","1,0","3:go_c","1",""
"null","","html-keyboard-response","549","747453","0.0-6.0-2.109","","<div style=""font-size:60px;"">+</div>","null","","","","","","",""
"null","","image-keyboard-response","550","748965","0.0-6.0-0.110","","img/orange.png","null","trial","null","true","0,1","4:nogo_d","",""
"null","","html-keyboard-response","551","749980","0.0-6.0-1.110","","<img src=""img/orange-r.png"">","null","trial","null","","0,1","4:nogo_d","1",""
"null","","html-keyboard-response","552","750991","0.0-6.0-2.110","","<div style=""font-size:60px;"">+</div>","null","","","","","","",""
"646.4199999754783","","image-keyboard-response","553","751638","0.0-6.0-0.111","","img/blue.png","32","trial","32","true","0.8,0.2","1:go_a","",""
"null","","html-keyboard-response","554","752643","0.0-6.0-1.111","","<img src=""img/blue-n.png"" border=""10"">","null","trial","32","","0.8,0.2","1:go_a","0",""
"null","","html-keyboard-response","555","753653","0.0-6.0-2.111","","<div style=""font-size:60px;"">+</div>","null","","","","","","",""
"400.404999993043","","image-keyboard-response","556","754053","0.0-6.0-0.112","","img/red.png","32","trial","32","true","1,0","3:go_c","",""
"null","","html-keyboard-response","557","755055","0.0-6.0-1.112","","<img src=""img/red-r.png"" border=""10"">","null","trial","32","","1,0","3:go_c","1",""
"null","","html-keyboard-response","558","756059","0.0-6.0-2.112","","<div style=""font-size:60px;"">+</div>","null","","","","","","",""
"505.78999999561347","","image-keyboard-response","559","756566","0.0-6.0-0.113","","img/blue.png","32","trial","32","true","0.8,0.2","1:go_a","",""
"null","","html-keyboard-response","560","757571","0.0-6.0-1.113","","<img src=""img/blue-r.png"" border=""10"">","null","trial","32","","0.8,0.2","1:go_a","1",""
"null","","html-keyboard-response","561","758577","0.0-6.0-2.113","","<div style=""font-size:60px;"">+</div>","null","","","","","","",""
"null","","image-keyboard-response","562","760082","0.0-6.0-0.114","","img/orange.png","null","trial","null","true","0,1","4:nogo_d","",""
"null","","html-keyboard-response","563","761091","0.0-6.0-1.114","","<img src=""img/orange-r.png"">","null","trial","null","","0,1","4:nogo_d","1",""
"null","","html-keyboard-response","564","762101","0.0-6.0-2.114","","<div style=""font-size:60px;"">+</div>","null","","","","","","",""
"null","","image-keyboard-response","565","763603","0.0-6.0-0.115","","img/yellow.png","null","trial","null","true","0.2,0.8","2:nogo_b","",""
"null","","html-keyboard-response","566","764614","0.0-6.0-1.115","","<img src=""img/yellow-r.png"">","null","trial","null","","0.2,0.8","2:nogo_b","1",""
"null","","html-keyboard-response","567","765619","0.0-6.0-2.115","","<div style=""font-size:60px;"">+</div>","null","","","","","","",""
"null","","image-keyboard-response","568","767135","0.0-6.0-0.116","","img/orange.png","null","trial","null","true","0,1","4:nogo_d","",""
"null","","html-keyboard-response","569","768141","0.0-6.0-1.116","","<img src=""img/orange-r.png"">","null","trial","null","","0,1","4:nogo_d","1",""
"null","","html-keyboard-response","570","769149","0.0-6.0-2.116","","<div style=""font-size:60px;"">+</div>","null","","","","","","",""
"null","","image-keyboard-response","571","770652","0.0-6.0-0.117","","img/yellow.png","null","trial","null","true","0.2,0.8","2:nogo_b","",""
"null","","html-keyboard-response","572","771658","0.0-6.0-1.117","","<img src=""img/yellow-r.png"">","null","trial","null","","0.2,0.8","2:nogo_b","1",""
"null","","html-keyboard-response","573","772666","0.0-6.0-2.117","","<div style=""font-size:60px;"">+</div>","null","","","","","","",""
"460.96999998553656","","image-keyboard-response","574","773128","0.0-6.0-0.118","","img/blue.png","32","trial","32","true","0.8,0.2","1:go_a","",""
"null","","html-keyboard-response","575","774140","0.0-6.0-1.118","","<img src=""img/blue-r.png"" border=""10"">","null","trial","32","","0.8,0.2","1:go_a","1",""
"null","","html-keyboard-response","576","775155","0.0-6.0-2.118","","<div style=""font-size:60px;"">+</div>","null","","","","","","",""
"460.0349999964237","","image-keyboard-response","577","775615","0.0-6.0-0.119","","img/red.png","32","trial","32","true","1,0","3:go_c","",""
"null","","html-keyboard-response","578","776627","0.0-6.0-1.119","","<img src=""img/red-r.png"" border=""10"">","null","trial","32","","1,0","3:go_c","1",""
"null","","html-keyboard-response","579","777634","0.0-6.0-2.119","","<div style=""font-size:60px;"">+</div>","null","","","","","","",""
"8097.160000004806","","instructions","580","785732","0.0-7.0","[{""page_index"":0,""viewing_time"":8097.005000017816}]","","","","","","","","",""
"467.35500000067987","","image-keyboard-response","581","786200","0.0-8.0-0.0","","img/yellow.png","32","trial","null","false","0.4,0.6","4:nogo_d","",""
"null","","html-keyboard-response","582","787215","0.0-8.0-1.0","","<img src=""img/yellow-n.png"" border=""10"">","null","trial","null","","0.4,0.6","4:nogo_d","0",""
"null","","html-keyboard-response","583","788224","0.0-8.0-2.0","","<div style=""font-size:60px;"">+</div>","null","","","","","","",""
"456.0099999944214","","image-keyboard-response","584","788680","0.0-8.0-0.1","","img/green.png","32","trial","32","true","0.6,0.4","3:go_c","",""
"null","","html-keyboard-response","585","789686","0.0-8.0-1.1","","<img src=""img/green-n.png"" border=""10"">","null","trial","32","","0.6,0.4","3:go_c","0",""
"null","","html-keyboard-response","586","790692","0.0-8.0-2.1","","<div style=""font-size:60px;"">+</div>","null","","","","","","",""
"420.2649999933783","","image-keyboard-response","587","791113","0.0-8.0-0.2","","img/orange.png","32","trial","null","false","0.2,0.8","2:nogo_b","",""
"null","","html-keyboard-response","588","792118","0.0-8.0-1.2","","<img src=""img/orange-n.png"" border=""10"">","null","trial","null","","0.2,0.8","2:nogo_b","0",""
"null","","html-keyboard-response","589","793124","0.0-8.0-2.2","","<div style=""font-size:60px;"">+</div>","null","","","","","","",""
"420.2899999800138","","image-keyboard-response","590","793545","0.0-8.0-0.3","","img/blue.png","32","trial","32","true","0.8,0.2","1:go_a","",""
"null","","html-keyboard-response","591","794559","0.0-8.0-1.3","","<img src=""img/blue-r.png"" border=""10"">","null","trial","32","","0.8,0.2","1:go_a","1",""
"null","","html-keyboard-response","592","795565","0.0-8.0-2.3","","<div style=""font-size:60px;"">+</div>","null","","","","","","",""
"468.0099999823142","","image-keyboard-response","593","796033","0.0-8.0-0.4","","img/green.png","32","trial","32","true","0.6,0.4","3:go_c","",""
"null","","html-keyboard-response","594","797038","0.0-8.0-1.4","","<img src=""img/green-n.png"" border=""10"">","null","trial","32","","0.6,0.4","3:go_c","0",""
"null","","html-keyboard-response","595","798044","0.0-8.0-2.4","","<div style=""font-size:60px;"">+</div>","null","","","","","","",""
"428.07499997434206","","image-keyboard-response","596","798473","0.0-8.0-0.5","","img/orange.png","32","trial","null","false","0.2,0.8","2:nogo_b","",""
"null","","html-keyboard-response","597","799484","0.0-8.0-1.5","","<img src=""img/orange-n.png"" border=""10"">","null","trial","null","","0.2,0.8","2:nogo_b","0",""
"null","","html-keyboard-response","598","800490","0.0-8.0-2.5","","<div style=""font-size:60px;"">+</div>","null","","","","","","",""
"567.1199999924283","","image-keyboard-response","599","801057","0.0-8.0-0.6","","img/yellow.png","32","trial","null","false","0.4,0.6","4:nogo_d","",""
"null","","html-keyboard-response","600","802066","0.0-8.0-1.6","","<img src=""img/yellow-r.png"" border=""10"">","null","trial","null","","0.4,0.6","4:nogo_d","1",""
"null","","html-keyboard-response","601","803071","0.0-8.0-2.6","","<div style=""font-size:60px;"">+</div>","null","","","","","","",""
"578.0099999974482","","image-keyboard-response","602","803649","0.0-8.0-0.7","","img/blue.png","32","trial","32","true","0.8,0.2","1:go_a","",""
"null","","html-keyboard-response","603","804652","0.0-8.0-1.7","","<img src=""img/blue-n.png"" border=""10"">","null","trial","32","","0.8,0.2","1:go_a","0",""
"null","","html-keyboard-response","604","805663","0.0-8.0-2.7","","<div style=""font-size:60px;"">+</div>","null","","","","","","",""
"null","","image-keyboard-response","605","807172","0.0-8.0-0.8","","img/orange.png","null","trial","null","true","0.2,0.8","2:nogo_b","",""
"null","","html-keyboard-response","606","808180","0.0-8.0-1.8","","<img src=""img/orange-n.png"">","null","trial","null","","0.2,0.8","2:nogo_b","0",""
"null","","html-keyboard-response","607","809186","0.0-8.0-2.8","","<div style=""font-size:60px;"">+</div>","null","","","","","","",""
"null","","image-keyboard-response","608","810688","0.0-8.0-0.9","","img/green.png","null","trial","32","false","0.6,0.4","3:go_c","",""
"null","","html-keyboard-response","609","811696","0.0-8.0-1.9","","<img src=""img/green-r.png"">","null","trial","32","","0.6,0.4","3:go_c","1",""
"null","","html-keyboard-response","610","812704","0.0-8.0-2.9","","<div style=""font-size:60px;"">+</div>","null","","","","","","",""
"538.4000000194646","","image-keyboard-response","611","813243","0.0-8.0-0.10","","img/blue.png","32","trial","32","true","0.8,0.2","1:go_a","",""
"null","","html-keyboard-response","612","814250","0.0-8.0-1.10","","<img src=""img/blue-n.png"" border=""10"">","null","trial","32","","0.8,0.2","1:go_a","0",""
"null","","html-keyboard-response","613","815257","0.0-8.0-2.10","","<div style=""font-size:60px;"">+</div>","null","","","","","","",""
"504.9449999933131","","image-keyboard-response","614","815763","0.0-8.0-0.11","","img/yellow.png","32","trial","null","false","0.4,0.6","4:nogo_d","",""
"null","","html-keyboard-response","615","816779","0.0-8.0-1.11","","<img src=""img/yellow-n.png"" border=""10"">","null","trial","null","","0.4,0.6","4:nogo_d","0",""
"null","","html-keyboard-response","616","817785","0.0-8.0-2.11","","<div style=""font-size:60px;"">+</div>","null","","","","","","",""
"null","","image-keyboard-response","617","819300","0.0-8.0-0.12","","img/orange.png","null","trial","null","true","0.2,0.8","2:nogo_b","",""
"null","","html-keyboard-response","618","820307","0.0-8.0-1.12","","<img src=""img/orange-r.png"">","null","trial","null","","0.2,0.8","2:nogo_b","1",""
"null","","html-keyboard-response","619","821314","0.0-8.0-2.12","","<div style=""font-size:60px;"">+</div>","null","","","","","","",""
"null","","image-keyboard-response","620","822816","0.0-8.0-0.13","","img/yellow.png","null","trial","null","true","0.4,0.6","4:nogo_d","",""
"null","","html-keyboard-response","621","823822","0.0-8.0-1.13","","<img src=""img/yellow-r.png"">","null","trial","null","","0.4,0.6","4:nogo_d","1",""
"null","","html-keyboard-response","622","824828","0.0-8.0-2.13","","<div style=""font-size:60px;"">+</div>","null","","","","","","",""
"null","","image-keyboard-response","623","826331","0.0-8.0-0.14","","img/blue.png","null","trial","32","false","0.8,0.2","1:go_a","",""
"null","","html-keyboard-response","624","827337","0.0-8.0-1.14","","<img src=""img/blue-n.png"">","null","trial","32","","0.8,0.2","1:go_a","0",""
"null","","html-keyboard-response","625","828342","0.0-8.0-2.14","","<div style=""font-size:60px;"">+</div>","null","","","","","","",""
"null","","image-keyboard-response","626","829846","0.0-8.0-0.15","","img/green.png","null","trial","32","false","0.6,0.4","3:go_c","",""
"null","","html-keyboard-response","627","830851","0.0-8.0-1.15","","<img src=""img/green-n.png"">","null","trial","32","","0.6,0.4","3:go_c","0",""
"null","","html-keyboard-response","628","831861","0.0-8.0-2.15","","<div style=""font-size:60px;"">+</div>","null","","","","","","",""
"null","","image-keyboard-response","629","833365","0.0-8.0-0.16","","img/orange.png","null","trial","null","true","0.2,0.8","2:nogo_b","",""
"null","","html-keyboard-response","630","834371","0.0-8.0-1.16","","<img src=""img/orange-r.png"">","null","trial","null","","0.2,0.8","2:nogo_b","1",""
"null","","html-keyboard-response","631","835379","0.0-8.0-2.16","","<div style=""font-size:60px;"">+</div>","null","","","","","","",""
"null","","image-keyboard-response","632","836883","0.0-8.0-0.17","","img/green.png","null","trial","32","false","0.6,0.4","3:go_c","",""
"null","","html-keyboard-response","633","837890","0.0-8.0-1.17","","<img src=""img/green-n.png"">","null","trial","32","","0.6,0.4","3:go_c","0",""
"null","","html-keyboard-response","634","838894","0.0-8.0-2.17","","<div style=""font-size:60px;"">+</div>","null","","","","","","",""
"null","","image-keyboard-response","635","840398","0.0-8.0-0.18","","img/yellow.png","null","trial","null","true","0.4,0.6","4:nogo_d","",""
"null","","html-keyboard-response","636","841405","0.0-8.0-1.18","","<img src=""img/yellow-r.png"">","null","trial","null","","0.4,0.6","4:nogo_d","1",""
"null","","html-keyboard-response","637","842410","0.0-8.0-2.18","","<div style=""font-size:60px;"">+</div>","null","","","","","","",""
"433.9800000016112","","image-keyboard-response","638","842845","0.0-8.0-0.19","","img/blue.png","32","trial","32","true","0.8,0.2","1:go_a","",""
"null","","html-keyboard-response","639","843851","0.0-8.0-1.19","","<img src=""img/blue-r.png"" border=""10"">","null","trial","32","","0.8,0.2","1:go_a","1",""
"null","","html-keyboard-response","640","844867","0.0-8.0-2.19","","<div style=""font-size:60px;"">+</div>","null","","","","","","",""
"null","","image-keyboard-response","641","846370","0.0-8.0-0.20","","img/orange.png","null","trial","null","true","0.2,0.8","2:nogo_b","",""
"null","","html-keyboard-response","642","847379","0.0-8.0-1.20","","<img src=""img/orange-n.png"">","null","trial","null","","0.2,0.8","2:nogo_b","0",""
"null","","html-keyboard-response","643","848381","0.0-8.0-2.20","","<div style=""font-size:60px;"">+</div>","null","","","","","","",""
"847.7200000197627","","image-keyboard-response","644","849229","0.0-8.0-0.21","","img/blue.png","32","trial","32","true","0.8,0.2","1:go_a","",""
"null","","html-keyboard-response","645","850243","0.0-8.0-1.21","","<img src=""img/blue-r.png"" border=""10"">","null","trial","32","","0.8,0.2","1:go_a","1",""
"null","","html-keyboard-response","646","851254","0.0-8.0-2.21","","<div style=""font-size:60px;"">+</div>","null","","","","","","",""
"447.15500000165775","","image-keyboard-response","647","851701","0.0-8.0-0.22","","img/green.png","32","trial","32","true","0.6,0.4","3:go_c","",""
"null","","html-keyboard-response","648","852709","0.0-8.0-1.22","","<img src=""img/green-n.png"" border=""10"">","null","trial","32","","0.6,0.4","3:go_c","0",""
"null","","html-keyboard-response","649","853714","0.0-8.0-2.22","","<div style=""font-size:60px;"">+</div>","null","","","","","","",""
"null","","image-keyboard-response","650","855225","0.0-8.0-0.23","","img/yellow.png","null","trial","null","true","0.4,0.6","4:nogo_d","",""
"null","","html-keyboard-response","651","856233","0.0-8.0-1.23","","<img src=""img/yellow-n.png"">","null","trial","null","","0.4,0.6","4:nogo_d","0",""
"null","","html-keyboard-response","652","857237","0.0-8.0-2.23","","<div style=""font-size:60px;"">+</div>","null","","","","","","",""
"824.5950000127777","","image-keyboard-response","653","858062","0.0-8.0-0.24","","img/green.png","32","trial","32","true","0.6,0.4","3:go_c","",""
"null","","html-keyboard-response","654","859067","0.0-8.0-1.24","","<img src=""img/green-r.png"" border=""10"">","null","trial","32","","0.6,0.4","3:go_c","1",""
"null","","html-keyboard-response","655","860073","0.0-8.0-2.24","","<div style=""font-size:60px;"">+</div>","null","","","","","","",""
"436.6450000088662","","image-keyboard-response","656","860510","0.0-8.0-0.25","","img/blue.png","32","trial","32","true","0.8,0.2","1:go_a","",""
"null","","html-keyboard-response","657","861513","0.0-8.0-1.25","","<img src=""img/blue-n.png"" border=""10"">","null","trial","32","","0.8,0.2","1:go_a","0",""
"null","","html-keyboard-response","658","862523","0.0-8.0-2.25","","<div style=""font-size:60px;"">+</div>","null","","","","","","",""
"null","","image-keyboard-response","659","864036","0.0-8.0-0.26","","img/orange.png","null","trial","null","true","0.2,0.8","2:nogo_b","",""
"null","","html-keyboard-response","660","865042","0.0-8.0-1.26","","<img src=""img/orange-r.png"">","null","trial","null","","0.2,0.8","2:nogo_b","1",""
"null","","html-keyboard-response","661","866046","0.0-8.0-2.26","","<div style=""font-size:60px;"">+</div>","null","","","","","","",""
"null","","image-keyboard-response","662","867554","0.0-8.0-0.27","","img/yellow.png","null","trial","null","true","0.4,0.6","4:nogo_d","",""
"null","","html-keyboard-response","663","868564","0.0-8.0-1.27","","<img src=""img/yellow-r.png"">","null","trial","null","","0.4,0.6","4:nogo_d","1",""
"null","","html-keyboard-response","664","869572","0.0-8.0-2.27","","<div style=""font-size:60px;"">+</div>","null","","","","","","",""
"null","","image-keyboard-response","665","871076","0.0-8.0-0.28","","img/yellow.png","null","trial","null","true","0.4,0.6","4:nogo_d","",""
"null","","html-keyboard-response","666","872081","0.0-8.0-1.28","","<img src=""img/yellow-n.png"">","null","trial","null","","0.4,0.6","4:nogo_d","0",""
"null","","html-keyboard-response","667","873087","0.0-8.0-2.28","","<div style=""font-size:60px;"">+</div>","null","","","","","","",""
"424.14000001735985","","image-keyboard-response","668","873511","0.0-8.0-0.29","","img/green.png","32","trial","32","true","0.6,0.4","3:go_c","",""
"null","","html-keyboard-response","669","874526","0.0-8.0-1.29","","<img src=""img/green-n.png"" border=""10"">","null","trial","32","","0.6,0.4","3:go_c","0",""
"null","","html-keyboard-response","670","875534","0.0-8.0-2.29","","<div style=""font-size:60px;"">+</div>","null","","","","","","",""
"null","","image-keyboard-response","671","877048","0.0-8.0-0.30","","img/orange.png","null","trial","null","true","0.2,0.8","2:nogo_b","",""
"null","","html-keyboard-response","672","878055","0.0-8.0-1.30","","<img src=""img/orange-r.png"">","null","trial","null","","0.2,0.8","2:nogo_b","1",""
"null","","html-keyboard-response","673","879061","0.0-8.0-2.30","","<div style=""font-size:60px;"">+</div>","null","","","","","","",""
"362.03499999828637","","image-keyboard-response","674","879423","0.0-8.0-0.31","","img/blue.png","32","trial","32","true","0.8,0.2","1:go_a","",""
"null","","html-keyboard-response","675","880439","0.0-8.0-1.31","","<img src=""img/blue-r.png"" border=""10"">","null","trial","32","","0.8,0.2","1:go_a","1",""
"null","","html-keyboard-response","676","881449","0.0-8.0-2.31","","<div style=""font-size:60px;"">+</div>","null","","","","","","",""
"774.2750000033993","","image-keyboard-response","677","882224","0.0-8.0-0.32","","img/blue.png","32","trial","32","true","0.8,0.2","1:go_a","",""
"null","","html-keyboard-response","678","883229","0.0-8.0-1.32","","<img src=""img/blue-r.png"" border=""10"">","null","trial","32","","0.8,0.2","1:go_a","1",""
"null","","html-keyboard-response","679","884235","0.0-8.0-2.32","","<div style=""font-size:60px;"">+</div>","null","","","","","","",""
"null","","image-keyboard-response","680","885750","0.0-8.0-0.33","","img/orange.png","null","trial","null","true","0.2,0.8","2:nogo_b","",""
"null","","html-keyboard-response","681","886759","0.0-8.0-1.33","","<img src=""img/orange-r.png"">","null","trial","null","","0.2,0.8","2:nogo_b","1",""
"null","","html-keyboard-response","682","887766","0.0-8.0-2.33","","<div style=""font-size:60px;"">+</div>","null","","","","","","",""
"null","","image-keyboard-response","683","889275","0.0-8.0-0.34","","img/green.png","null","trial","32","false","0.6,0.4","3:go_c","",""
"null","","html-keyboard-response","684","890285","0.0-8.0-1.34","","<img src=""img/green-r.png"">","null","trial","32","","0.6,0.4","3:go_c","1",""
"null","","html-keyboard-response","685","891288","0.0-8.0-2.34","","<div style=""font-size:60px;"">+</div>","null","","","","","","",""
