"rt","url","trial_type","trial_index","time_elapsed","internal_node_id","view_history","stimulus","key_press","test_part","correct_response","correct","use_rew","which_stim","reward","responses"
"14117.635000002338","consent.html","external-html","0","14164","0.0-0.0","","","","","","","","","",""
"27995.599999994738","","instructions","1","42160","0.0-1.0","[{""page_index"":0,""viewing_time"":4282.894999982091},{""page_index"":1,""viewing_time"":7856.835000013234},{""page_index"":2,""viewing_time"":4589.099999982864},{""page_index"":3,""viewing_time"":2123.4950000070967},{""page_index"":4,""viewing_time"":2341.8100000126287},{""page_index"":5,""viewing_time"":4757.07500000135},{""page_index"":6,""viewing_time"":2043.854999996256}]","","","","","","","","",""
"1067.220000026282","","image-keyboard-response","2","43228","0.0-2.0-0.0","","img/test1.PNG","32","practice","32","true","","","",""
"null","","html-keyboard-response","3","44244","0.0-2.0-1.0","","<img src=""img/test1-reward.PNG"" border=""10px; grey"">","null","","","","","","",""
"null","","html-keyboard-response","4","45250","0.0-2.0-2.0","","<div style=""font-size:60px;"">+</div>","null","","","","","","",""
"1276.2649999931455","","image-keyboard-response","5","46527","0.0-2.0-0.1","","img/test3.PNG","32","practice","null","false","","","",""
"null","","html-keyboard-response","6","47531","0.0-2.0-1.1","","<img src=""img/test3-neutral.PNG"" border=""10px; grey"">","null","","","","","","",""
"null","","html-keyboard-response","7","48537","0.0-2.0-2.1","","<div style=""font-size:60px;"">+</div>","null","","","","","","",""
"835.4899999976624","","image-keyboard-response","8","49373","0.0-2.0-0.2","","img/test2.PNG","32","practice","null","false","","","",""
"null","","html-keyboard-response","9","50389","0.0-2.0-1.2","","<img src=""img/test2-neutral.PNG"" border=""10px; grey"">","null","","","","","","",""
"null","","html-keyboard-response","10","51397","0.0-2.0-2.2","","<div style=""font-size:60px;"">+</div>","null","","","","","","",""
"null","","image-keyboard-response","11","52913","0.0-2.0-0.3","","img/test2.PNG","null","practice","null","true","","","",""
"null","","html-keyboard-response","12","53918","0.0-2.0-1.3","","<img src=""img/test2-reward.PNG"">","null","","","","","","",""
"null","","html-keyboard-response","13","54925","0.0-2.0-2.3","","<div style=""font-size:60px;"">+</div>","null","","","","","","",""
"null","","image-keyboard-response","14","56426","0.0-2.0-0.4","","img/test3.PNG","null","practice","null","true","","","",""
"null","","html-keyboard-response","15","57428","0.0-2.0-1.4","","<img src=""img/test3-reward.PNG"">","null","","","","","","",""
"null","","html-keyboard-response","16","58441","0.0-2.0-2.4","","<div style=""font-size:60px;"">+</div>","null","","","","","","",""
"331.9550000014715","","image-keyboard-response","17","58774","0.0-2.0-0.5","","img/test1.PNG","32","practice","32","true","","","",""
"null","","html-keyboard-response","18","59783","0.0-2.0-1.5","","<img src=""img/test1-reward.PNG"" border=""10px; grey"">","null","","","","","","",""
"null","","html-keyboard-response","19","60787","0.0-2.0-2.5","","<div style=""font-size:60px;"">+</div>","null","","","","","","",""
"null","","image-keyboard-response","20","62291","0.0-2.0-0.6","","img/test2.PNG","null","practice","null","true","","","",""
"null","","html-keyboard-response","21","63297","0.0-2.0-1.6","","<img src=""img/test2-reward.PNG"">","null","","","","","","",""
"null","","html-keyboard-response","22","64303","0.0-2.0-2.6","","<div style=""font-size:60px;"">+</div>","null","","","","","","",""
"null","","image-keyboard-response","23","65807","0.0-2.0-0.7","","img/test3.PNG","null","practice","null","true","","","",""
"null","","html-keyboard-response","24","66813","0.0-2.0-1.7","","<img src=""img/test3-reward.PNG"">","null","","","","","","",""
"null","","html-keyboard-response","25","67819","0.0-2.0-2.7","","<div style=""font-size:60px;"">+</div>","null","","","","","","",""
"330.61500001349486","","image-keyboard-response","26","68150","0.0-2.0-0.8","","img/test1.PNG","32","practice","32","true","","","",""
"null","","html-keyboard-response","27","69163","0.0-2.0-1.8","","<img src=""img/test1-reward.PNG"" border=""10px; grey"">","null","","","","","","",""
"null","","html-keyboard-response","28","70166","0.0-2.0-2.8","","<div style=""font-size:60px;"">+</div>","null","","","","","","",""
"null","","image-keyboard-response","29","71668","0.0-2.0-0.9","","img/test3.PNG","null","practice","null","true","","","",""
"null","","html-keyboard-response","30","72674","0.0-2.0-1.9","","<img src=""img/test3-reward.PNG"">","null","","","","","","",""
"null","","html-keyboard-response","31","73681","0.0-2.0-2.9","","<div style=""font-size:60px;"">+</div>","null","","","","","","",""
"null","","image-keyboard-response","32","75197","0.0-2.0-0.10","","img/test2.PNG","null","practice","null","true","","","",""
"null","","html-keyboard-response","33","76204","0.0-2.0-1.10","","<img src=""img/test2-reward.PNG"">","null","","","","","","",""
"null","","html-keyboard-response","34","77209","0.0-2.0-2.10","","<div style=""font-size:60px;"">+</div>","null","","","","","","",""
"371.0999999893829","","image-keyboard-response","35","77581","0.0-2.0-0.11","","img/test1.PNG","32","practice","32","true","","","",""
"null","","html-keyboard-response","36","78584","0.0-2.0-1.11","","<img src=""img/test1-reward.PNG"" border=""10px; grey"">","null","","","","","","",""
"null","","html-keyboard-response","37","79589","0.0-2.0-2.11","","<div style=""font-size:60px;"">+</div>","null","","","","","","",""
"2516.044999996666","","instructions","38","82106","0.0-3.0","[{""page_index"":0,""viewing_time"":2515.9050000074785}]","","","","","","","","",""
"841.9449999928474","","image-keyboard-response","39","82949","0.0-4.0-0.0","","img/green.png","32","trial","null","false","0.2,0.8","2:nogo_b","",""
"null","","html-keyboard-response","40","83950","0.0-4.0-1.0","","<img src=""img/green-r.png"" border=""10"">","null","trial","null","","0.2,0.8","2:nogo_b","1",""
"null","","html-keyboard-response","41","84964","0.0-4.0-2.0","","<div style=""font-size:60px;"">+</div>","null","","","","","","",""
"600.574999989476","","image-keyboard-response","42","85566","0.0-4.0-0.1","","img/yellow.png","32","trial","32","true","0.8,0.2","1:go_a","",""
"null","","html-keyboard-response","43","86572","0.0-4.0-1.1","","<img src=""img/yellow-r.png"" border=""10"">","null","trial","32","","0.8,0.2","1:go_a","1",""
"null","","html-keyboard-response","44","87578","0.0-4.0-2.1","","<div style=""font-size:60px;"">+</div>","null","","","","","","",""
"592.3899999761488","","image-keyboard-response","45","88171","0.0-4.0-0.2","","img/yellow.png","32","trial","32","true","0.8,0.2","1:go_a","",""
"null","","html-keyboard-response","46","89176","0.0-4.0-1.2","","<img src=""img/yellow-r.png"" border=""10"">","null","trial","32","","0.8,0.2","1:go_a","1",""
"null","","html-keyboard-response","47","90183","0.0-4.0-2.2","","<div style=""font-size:60px;"">+</div>","null","","","","","","",""
"604.5499999891035","","image-keyboard-response","48","90788","0.0-4.0-0.3","","img/green.png","32","trial","null","false","0.2,0.8","2:nogo_b","",""
"null","","html-keyboard-response","49","91794","0.0-4.0-1.3","","<img src=""img/green-n.png"" border=""10"">","null","trial","null","","0.2,0.8","2:nogo_b","0",""
"null","","html-keyboard-response","50","92801","0.0-4.0-2.3","","<div style=""font-size:60px;"">+</div>","null","","","","","","",""
"693.8550000195391","","image-keyboard-response","51","93495","0.0-4.0-0.4","","img/green.png","32","trial","null","false","0.2,0.8","2:nogo_b","",""
"null","","html-keyboard-response","52","94509","0.0-4.0-1.4","","<img src=""img/green-n.png"" border=""10"">","null","trial","null","","0.2,0.8","2:nogo_b","0",""
"null","","html-keyboard-response","53","95516","0.0-4.0-2.4","","<div style=""font-size:60px;"">+</div>","null","","","","","","",""
"366.9499999959953","","image-keyboard-response","54","95883","0.0-4.0-0.5","","img/yellow.png","32","trial","32","true","0.8,0.2","1:go_a","",""
"null","","html-keyboard-response","55","96885","0.0-4.0-1.5","","<img src=""img/yellow-r.png"" border=""10"">","null","trial","32","","0.8,0.2","1:go_a","1",""
"null","","html-keyboard-response","56","97893","0.0-4.0-2.5","","<div style=""font-size:60px;"">+</div>","null","","","","","","",""
"505.41499999235384","","image-keyboard-response","57","98399","0.0-4.0-0.6","","img/yellow.png","32","trial","32","true","0.8,0.2","1:go_a","",""
"null","","html-keyboard-response","58","99409","0.0-4.0-1.6","","<img src=""img/yellow-r.png"" border=""10"">","null","trial","32","","0.8,0.2","1:go_a","1",""
"null","","html-keyboard-response","59","100416","0.0-4.0-2.6","","<div style=""font-size:60px;"">+</div>","null","","","","","","",""
"610.450000007404","","image-keyboard-response","60","101027","0.0-4.0-0.7","","img/green.png","32","trial","null","false","0.2,0.8","2:nogo_b","",""
"null","","html-keyboard-response","61","102029","0.0-4.0-1.7","","<img src=""img/green-n.png"" border=""10"">","null","trial","null","","0.2,0.8","2:nogo_b","0",""
"null","","html-keyboard-response","62","103034","0.0-4.0-2.7","","<div style=""font-size:60px;"">+</div>","null","","","","","","",""
"null","","image-keyboard-response","63","104538","0.0-4.0-0.8","","img/green.png","null","trial","null","true","0.2,0.8","2:nogo_b","",""
"null","","html-keyboard-response","64","105544","0.0-4.0-1.8","","<img src=""img/green-r.png"">","null","trial","null","","0.2,0.8","2:nogo_b","1",""
"null","","html-keyboard-response","65","106548","0.0-4.0-2.8","","<div style=""font-size:60px;"">+</div>","null","","","","","","",""
"389.4950000103563","","image-keyboard-response","66","106938","0.0-4.0-0.9","","img/yellow.png","32","trial","32","true","0.8,0.2","1:go_a","",""
"null","","html-keyboard-response","67","107953","0.0-4.0-1.9","","<img src=""img/yellow-n.png"" border=""10"">","null","trial","32","","0.8,0.2","1:go_a","0",""
"null","","html-keyboard-response","68","108956","0.0-4.0-2.9","","<div style=""font-size:60px;"">+</div>","null","","","","","","",""
"null","","image-keyboard-response","69","110458","0.0-4.0-0.10","","img/green.png","null","trial","null","true","0.2,0.8","2:nogo_b","",""
"null","","html-keyboard-response","70","111466","0.0-4.0-1.10","","<img src=""img/green-r.png"">","null","trial","null","","0.2,0.8","2:nogo_b","1",""
"null","","html-keyboard-response","71","112472","0.0-4.0-2.10","","<div style=""font-size:60px;"">+</div>","null","","","","","","",""
"496.1650000186637","","image-keyboard-response","72","112969","0.0-4.0-0.11","","img/yellow.png","32","trial","32","true","0.8,0.2","1:go_a","",""
"null","","html-keyboard-response","73","113975","0.0-4.0-1.11","","<img src=""img/yellow-r.png"" border=""10"">","null","trial","32","","0.8,0.2","1:go_a","1",""
"null","","html-keyboard-response","74","114981","0.0-4.0-2.11","","<div style=""font-size:60px;"">+</div>","null","","","","","","",""
"591.004999994766","","image-keyboard-response","75","115573","0.0-4.0-0.12","","img/yellow.png","32","trial","32","true","0.8,0.2","1:go_a","",""
"null","","html-keyboard-response","76","116577","0.0-4.0-1.12","","<img src=""img/yellow-r.png"" border=""10"">","null","trial","32","","0.8,0.2","1:go_a","1",""
"null","","html-keyboard-response","77","117585","0.0-4.0-2.12","","<div style=""font-size:60px;"">+</div>","null","","","","","","",""
"null","","image-keyboard-response","78","119101","0.0-4.0-0.13","","img/green.png","null","trial","null","true","0.2,0.8","2:nogo_b","",""
"null","","html-keyboard-response","79","120105","0.0-4.0-1.13","","<img src=""img/green-r.png"">","null","trial","null","","0.2,0.8","2:nogo_b","1",""
"null","","html-keyboard-response","80","121111","0.0-4.0-2.13","","<div style=""font-size:60px;"">+</div>","null","","","","","","",""
"null","","image-keyboard-response","81","122627","0.0-4.0-0.14","","img/green.png","null","trial","null","true","0.2,0.8","2:nogo_b","",""
"null","","html-keyboard-response","82","123642","0.0-4.0-1.14","","<img src=""img/green-r.png"">","null","trial","null","","0.2,0.8","2:nogo_b","1",""
"null","","html-keyboard-response","83","124647","0.0-4.0-2.14","","<div style=""font-size:60px;"">+</div>","null","","","","","","",""
"409.44499999750406","","image-keyboard-response","84","125057","0.0-4.0-0.15","","img/yellow.png","32","trial","32","true","0.8,0.2","1:go_a","",""
"null","","html-keyboard-response","85","126070","0.0-4.0-1.15","","<img src=""img/yellow-r.png"" border=""10"">","null","trial","32","","0.8,0.2","1:go_a","1",""
"null","","html-keyboard-response","86","127077","0.0-4.0-2.15","","<div style=""font-size:60px;"">+</div>","null","","","","","","",""
"416.9199999887496","","image-keyboard-response","87","127494","0.0-4.0-0.16","","img/yellow.png","32","trial","32","true","0.8,0.2","1:go_a","",""
"null","","html-keyboard-response","88","128498","0.0-4.0-1.16","","<img src=""img/yellow-r.png"" border=""10"">","null","trial","32","","0.8,0.2","1:go_a","1",""
"null","","html-keyboard-response","89","129507","0.0-4.0-2.16","","<div style=""font-size:60px;"">+</div>","null","","","","","","",""
"null","","image-keyboard-response","90","131022","0.0-4.0-0.17","","img/green.png","null","trial","null","true","0.2,0.8","2:nogo_b","",""
"null","","html-keyboard-response","91","132031","0.0-4.0-1.17","","<img src=""img/green-r.png"">","null","trial","null","","0.2,0.8","2:nogo_b","1",""
"null","","html-keyboard-response","92","133037","0.0-4.0-2.17","","<div style=""font-size:60px;"">+</div>","null","","","","","","",""
"456.80000001448207","","image-keyboard-response","93","133494","0.0-4.0-0.18","","img/yellow.png","32","trial","32","true","0.8,0.2","1:go_a","",""
"null","","html-keyboard-response","94","134504","0.0-4.0-1.18","","<img src=""img/yellow-r.png"" border=""10"">","null","trial","32","","0.8,0.2","1:go_a","1",""
"null","","html-keyboard-response","95","135511","0.0-4.0-2.18","","<div style=""font-size:60px;"">+</div>","null","","","","","","",""
"427.21500000334345","","image-keyboard-response","96","135938","0.0-4.0-0.19","","img/green.png","32","trial","null","false","0.2,0.8","2:nogo_b","",""
"null","","html-keyboard-response","97","136949","0.0-4.0-1.19","","<img src=""img/green-n.png"" border=""10"">","null","trial","null","","0.2,0.8","2:nogo_b","0",""
"null","","html-keyboard-response","98","137956","0.0-4.0-2.19","","<div style=""font-size:60px;"">+</div>","null","","","","","","",""
"367.709999991348","","image-keyboard-response","99","138324","0.0-4.0-0.20","","img/yellow.png","32","trial","32","true","0.8,0.2","1:go_a","",""
"null","","html-keyboard-response","100","139330","0.0-4.0-1.20","","<img src=""img/yellow-r.png"" border=""10"">","null","trial","32","","0.8,0.2","1:go_a","1",""
"null","","html-keyboard-response","101","140338","0.0-4.0-2.20","","<div style=""font-size:60px;"">+</div>","null","","","","","","",""
"600.9950000152458","","image-keyboard-response","102","140939","0.0-4.0-0.21","","img/green.png","32","trial","null","false","0.2,0.8","2:nogo_b","",""
"null","","html-keyboard-response","103","141945","0.0-4.0-1.21","","<img src=""img/green-n.png"" border=""10"">","null","trial","null","","0.2,0.8","2:nogo_b","0",""
"null","","html-keyboard-response","104","142952","0.0-4.0-2.21","","<div style=""font-size:60px;"">+</div>","null","","","","","","",""
"390.5099999974482","","image-keyboard-response","105","143343","0.0-4.0-0.22","","img/yellow.png","32","trial","32","true","0.8,0.2","1:go_a","",""
"null","","html-keyboard-response","106","144354","0.0-4.0-1.22","","<img src=""img/yellow-n.png"" border=""10"">","null","trial","32","","0.8,0.2","1:go_a","0",""
"null","","html-keyboard-response","107","145361","0.0-4.0-2.22","","<div style=""font-size:60px;"">+</div>","null","","","","","","",""
"null","","image-keyboard-response","108","146862","0.0-4.0-0.23","","img/green.png","null","trial","null","true","0.2,0.8","2:nogo_b","",""
"null","","html-keyboard-response","109","147869","0.0-4.0-1.23","","<img src=""img/green-r.png"">","null","trial","null","","0.2,0.8","2:nogo_b","1",""
"null","","html-keyboard-response","110","148873","0.0-4.0-2.23","","<div style=""font-size:60px;"">+</div>","null","","","","","","",""
"458.35500000976026","","image-keyboard-response","111","149332","0.0-4.0-0.24","","img/yellow.png","32","trial","32","true","0.8,0.2","1:go_a","",""
"null","","html-keyboard-response","112","150345","0.0-4.0-1.24","","<img src=""img/yellow-r.png"" border=""10"">","null","trial","32","","0.8,0.2","1:go_a","1",""
"null","","html-keyboard-response","113","151350","0.0-4.0-2.24","","<div style=""font-size:60px;"">+</div>","null","","","","","","",""
"null","","image-keyboard-response","114","152865","0.0-4.0-0.25","","img/green.png","null","trial","null","true","0.2,0.8","2:nogo_b","",""
"null","","html-keyboard-response","115","153872","0.0-4.0-1.25","","<img src=""img/green-r.png"">","null","trial","null","","0.2,0.8","2:nogo_b","1",""
"null","","html-keyboard-response","116","154879","0.0-4.0-2.25","","<div style=""font-size:60px;"">+</div>","null","","","","","","",""
"398.9550000114832","","image-keyboard-response","117","155278","0.0-4.0-0.26","","img/yellow.png","32","trial","32","true","0.8,0.2","1:go_a","",""
"null","","html-keyboard-response","118","156286","0.0-4.0-1.26","","<img src=""img/yellow-r.png"" border=""10"">","null","trial","32","","0.8,0.2","1:go_a","1",""
"null","","html-keyboard-response","119","157293","0.0-4.0-2.26","","<div style=""font-size:60px;"">+</div>","null","","","","","","",""
"327.95499998610467","","image-keyboard-response","120","157621","0.0-4.0-0.27","","img/green.png","32","trial","null","false","0.2,0.8","2:nogo_b","",""
"null","","html-keyboard-response","121","158632","0.0-4.0-1.27","","<img src=""img/green-n.png"" border=""10"">","null","trial","null","","0.2,0.8","2:nogo_b","0",""
"null","","html-keyboard-response","122","159639","0.0-4.0-2.27","","<div style=""font-size:60px;"">+</div>","null","","","","","","",""
"null","","image-keyboard-response","123","161153","0.0-4.0-0.28","","img/green.png","null","trial","null","true","0.2,0.8","2:nogo_b","",""
"null","","html-keyboard-response","124","162153","0.0-4.0-1.28","","<img src=""img/green-r.png"">","null","trial","null","","0.2,0.8","2:nogo_b","1",""
"null","","html-keyboard-response","125","163154","0.0-4.0-2.28","","<div style=""font-size:60px;"">+</div>","null","","","","","","",""
"464.4900000130292","","image-keyboard-response","126","163619","0.0-4.0-0.29","","img/yellow.png","32","trial","32","true","0.8,0.2","1:go_a","",""
"null","","html-keyboard-response","127","164628","0.0-4.0-1.29","","<img src=""img/yellow-r.png"" border=""10"">","null","trial","32","","0.8,0.2","1:go_a","1",""
"null","","html-keyboard-response","128","165639","0.0-4.0-2.29","","<div style=""font-size:60px;"">+</div>","null","","","","","","",""
"477.1300000138581","","image-keyboard-response","129","166117","0.0-4.0-0.30","","img/yellow.png","32","trial","32","true","0.8,0.2","1:go_a","",""
"null","","html-keyboard-response","130","167121","0.0-4.0-1.30","","<img src=""img/yellow-r.png"" border=""10"">","null","trial","32","","0.8,0.2","1:go_a","1",""
"null","","html-keyboard-response","131","168129","0.0-4.0-2.30","","<div style=""font-size:60px;"">+</div>","null","","","","","","",""
"null","","image-keyboard-response","132","169645","0.0-4.0-0.31","","img/green.png","null","trial","null","true","0.2,0.8","2:nogo_b","",""
"null","","html-keyboard-response","133","170646","0.0-4.0-1.31","","<img src=""img/green-r.png"">","null","trial","null","","0.2,0.8","2:nogo_b","1",""
"null","","html-keyboard-response","134","171659","0.0-4.0-2.31","","<div style=""font-size:60px;"">+</div>","null","","","","","","",""
"447.5549999915529","","image-keyboard-response","135","172107","0.0-4.0-0.32","","img/yellow.png","32","trial","32","true","0.8,0.2","1:go_a","",""
"null","","html-keyboard-response","136","173115","0.0-4.0-1.32","","<img src=""img/yellow-r.png"" border=""10"">","null","trial","32","","0.8,0.2","1:go_a","1",""
"null","","html-keyboard-response","137","174118","0.0-4.0-2.32","","<div style=""font-size:60px;"">+</div>","null","","","","","","",""
"458.77999998629093","","image-keyboard-response","138","174577","0.0-4.0-0.33","","img/green.png","32","trial","null","false","0.2,0.8","2:nogo_b","",""
"null","","html-keyboard-response","139","175586","0.0-4.0-1.33","","<img src=""img/green-n.png"" border=""10"">","null","trial","null","","0.2,0.8","2:nogo_b","0",""
"null","","html-keyboard-response","140","176594","0.0-4.0-2.33","","<div style=""font-size:60px;"">+</div>","null","","","","","","",""
"248.17500001518056","","image-keyboard-response","141","176843","0.0-4.0-0.34","","img/green.png","32","trial","null","false","0.2,0.8","2:nogo_b","",""
"null","","html-keyboard-response","142","177858","0.0-4.0-1.34","","<img src=""img/green-n.png"" border=""10"">","null","trial","null","","0.2,0.8","2:nogo_b","0",""
"null","","html-keyboard-response","143","178864","0.0-4.0-2.34","","<div style=""font-size:60px;"">+</div>","null","","","","","","",""
"311.0349999915343","","image-keyboard-response","144","179176","0.0-4.0-0.35","","img/yellow.png","32","trial","32","true","0.8,0.2","1:go_a","",""
"null","","html-keyboard-response","145","180190","0.0-4.0-1.35","","<img src=""img/yellow-r.png"" border=""10"">","null","trial","32","","0.8,0.2","1:go_a","1",""
"null","","html-keyboard-response","146","181194","0.0-4.0-2.35","","<div style=""font-size:60px;"">+</div>","null","","","","","","",""
"248.93000000156462","","image-keyboard-response","147","181444","0.0-4.0-0.36","","img/green.png","32","trial","null","false","0.2,0.8","2:nogo_b","",""
"null","","html-keyboard-response","148","182457","0.0-4.0-1.36","","<img src=""img/green-n.png"" border=""10"">","null","trial","null","","0.2,0.8","2:nogo_b","0",""
"null","","html-keyboard-response","149","183464","0.0-4.0-2.36","","<div style=""font-size:60px;"">+</div>","null","","","","","","",""
"384.85999999102205","","image-keyboard-response","150","183850","0.0-4.0-0.37","","img/yellow.png","32","trial","32","true","0.8,0.2","1:go_a","",""
"null","","html-keyboard-response","151","184853","0.0-4.0-1.37","","<img src=""img/yellow-r.png"" border=""10"">","null","trial","32","","0.8,0.2","1:go_a","1",""
"null","","html-keyboard-response","152","185859","0.0-4.0-2.37","","<div style=""font-size:60px;"">+</div>","null","","","","","","",""
"835.6499999936204","","image-keyboard-response","153","186696","0.0-4.0-0.38","","img/yellow.png","32","trial","32","true","0.8,0.2","1:go_a","",""
"null","","html-keyboard-response","154","187698","0.0-4.0-1.38","","<img src=""img/yellow-r.png"" border=""10"">","null","trial","32","","0.8,0.2","1:go_a","1",""
"null","","html-keyboard-response","155","188705","0.0-4.0-2.38","","<div style=""font-size:60px;"">+</div>","null","","","","","","",""
"null","","image-keyboard-response","156","190206","0.0-4.0-0.39","","img/green.png","null","trial","null","true","0.2,0.8","2:nogo_b","",""
"null","","html-keyboard-response","157","191213","0.0-4.0-1.39","","<img src=""img/green-r.png"">","null","trial","null","","0.2,0.8","2:nogo_b","1",""
"null","","html-keyboard-response","158","192220","0.0-4.0-2.39","","<div style=""font-size:60px;"">+</div>","null","","","","","","",""
"null","","image-keyboard-response","159","193733","0.0-4.0-0.40","","img/green.png","null","trial","null","true","0.2,0.8","2:nogo_b","",""
"null","","html-keyboard-response","160","194741","0.0-4.0-1.40","","<img src=""img/green-n.png"">","null","trial","null","","0.2,0.8","2:nogo_b","0",""
"null","","html-keyboard-response","161","195746","0.0-4.0-2.40","","<div style=""font-size:60px;"">+</div>","null","","","","","","",""
"466.50499998941086","","image-keyboard-response","162","196213","0.0-4.0-0.41","","img/yellow.png","32","trial","32","true","0.8,0.2","1:go_a","",""
"null","","html-keyboard-response","163","197222","0.0-4.0-1.41","","<img src=""img/yellow-n.png"" border=""10"">","null","trial","32","","0.8,0.2","1:go_a","0",""
"null","","html-keyboard-response","164","198224","0.0-4.0-2.41","","<div style=""font-size:60px;"">+</div>","null","","","","","","",""
"null","","image-keyboard-response","165","199725","0.0-4.0-0.42","","img/green.png","null","trial","null","true","0.2,0.8","2:nogo_b","",""
"null","","html-keyboard-response","166","200732","0.0-4.0-1.42","","<img src=""img/green-r.png"">","null","trial","null","","0.2,0.8","2:nogo_b","1",""
"null","","html-keyboard-response","167","201741","0.0-4.0-2.42","","<div style=""font-size:60px;"">+</div>","null","","","","","","",""
"394.1049999848474","","image-keyboard-response","168","202135","0.0-4.0-0.43","","img/yellow.png","32","trial","32","true","0.8,0.2","1:go_a","",""
"null","","html-keyboard-response","169","203147","0.0-4.0-1.43","","<img src=""img/yellow-r.png"" border=""10"">","null","trial","32","","0.8,0.2","1:go_a","1",""
"null","","html-keyboard-response","170","204150","0.0-4.0-2.43","","<div style=""font-size:60px;"">+</div>","null","","","","","","",""
"1155.319999990752","","image-keyboard-response","171","205306","0.0-4.0-0.44","","img/green.png","32","trial","null","false","0.2,0.8","2:nogo_b","",""
"null","","html-keyboard-response","172","206321","0.0-4.0-1.44","","<img src=""img/green-n.png"" border=""10"">","null","trial","null","","0.2,0.8","2:nogo_b","0",""
"null","","html-keyboard-response","173","207326","0.0-4.0-2.44","","<div style=""font-size:60px;"">+</div>","null","","","","","","",""
"415.1500000152737","","image-keyboard-response","174","207742","0.0-4.0-0.45","","img/yellow.png","32","trial","32","true","0.8,0.2","1:go_a","",""
"null","","html-keyboard-response","175","208747","0.0-4.0-1.45","","<img src=""img/yellow-r.png"" border=""10"">","null","trial","32","","0.8,0.2","1:go_a","1",""
"null","","html-keyboard-response","176","209749","0.0-4.0-2.45","","<div style=""font-size:60px;"">+</div>","null","","","","","","",""
"587.2549999912735","","image-keyboard-response","177","210337","0.0-4.0-0.46","","img/yellow.png","32","trial","32","true","0.8,0.2","1:go_a","",""
"null","","html-keyboard-response","178","211351","0.0-4.0-1.46","","<img src=""img/yellow-r.png"" border=""10"">","null","trial","32","","0.8,0.2","1:go_a","1",""
"null","","html-keyboard-response","179","212359","0.0-4.0-2.46","","<div style=""font-size:60px;"">+</div>","null","","","","","","",""
"null","","image-keyboard-response","180","213863","0.0-4.0-0.47","","img/green.png","null","trial","null","true","0.2,0.8","2:nogo_b","",""
"null","","html-keyboard-response","181","214870","0.0-4.0-1.47","","<img src=""img/green-r.png"">","null","trial","null","","0.2,0.8","2:nogo_b","1",""
"null","","html-keyboard-response","182","215871","0.0-4.0-2.47","","<div style=""font-size:60px;"">+</div>","null","","","","","","",""
"409.3799999973271","","image-keyboard-response","183","216281","0.0-4.0-0.48","","img/green.png","32","trial","null","false","0.2,0.8","2:nogo_b","",""
"null","","html-keyboard-response","184","217283","0.0-4.0-1.48","","<img src=""img/green-n.png"" border=""10"">","null","trial","null","","0.2,0.8","2:nogo_b","0",""
"null","","html-keyboard-response","185","218287","0.0-4.0-2.48","","<div style=""font-size:60px;"">+</div>","null","","","","","","",""
"336.0650000104215","","image-keyboard-response","186","218623","0.0-4.0-0.49","","img/yellow.png","32","trial","32","true","0.8,0.2","1:go_a","",""
"null","","html-keyboard-response","187","219626","0.0-4.0-1.49","","<img src=""img/yellow-r.png"" border=""10"">","null","trial","32","","0.8,0.2","1:go_a","1",""
"null","","html-keyboard-response","188","220632","0.0-4.0-2.49","","<div style=""font-size:60px;"">+</div>","null","","","","","","",""
"null","","image-keyboard-response","189","222136","0.0-4.0-0.50","","img/green.png","null","trial","null","true","0.2,0.8","2:nogo_b","",""
"null","","html-keyboard-response","190","223142","0.0-4.0-1.50","","<img src=""img/green-n.png"">","null","trial","null","","0.2,0.8","2:nogo_b","0",""
"null","","html-keyboard-response","191","224143","0.0-4.0-2.50","","<div style=""font-size:60px;"">+</div>","null","","","","","","",""
"436.51499997940846","","image-keyboard-response","192","224580","0.0-4.0-0.51","","img/yellow.png","32","trial","32","true","0.8,0.2","1:go_a","",""
"null","","html-keyboard-response","193","225586","0.0-4.0-1.51","","<img src=""img/yellow-n.png"" border=""10"">","null","trial","32","","0.8,0.2","1:go_a","0",""
"null","","html-keyboard-response","194","226590","0.0-4.0-2.51","","<div style=""font-size:60px;"">+</div>","null","","","","","","",""
"null","","image-keyboard-response","195","228094","0.0-4.0-0.52","","img/green.png","null","trial","null","true","0.2,0.8","2:nogo_b","",""
"null","","html-keyboard-response","196","229110","0.0-4.0-1.52","","<img src=""img/green-r.png"">","null","trial","null","","0.2,0.8","2:nogo_b","1",""
"null","","html-keyboard-response","197","230118","0.0-4.0-2.52","","<div style=""font-size:60px;"">+</div>","null","","","","","","",""
"470.0899999879766","","image-keyboard-response","198","230588","0.0-4.0-0.53","","img/yellow.png","32","trial","32","true","0.8,0.2","1:go_a","",""
"null","","html-keyboard-response","199","231605","0.0-4.0-1.53","","<img src=""img/yellow-r.png"" border=""10"">","null","trial","32","","0.8,0.2","1:go_a","1",""
"null","","html-keyboard-response","200","232613","0.0-4.0-2.53","","<div style=""font-size:60px;"">+</div>","null","","","","","","",""
"null","","image-keyboard-response","201","234115","0.0-4.0-0.54","","img/green.png","null","trial","null","true","0.2,0.8","2:nogo_b","",""
"null","","html-keyboard-response","202","235123","0.0-4.0-1.54","","<img src=""img/green-n.png"">","null","trial","null","","0.2,0.8","2:nogo_b","0",""
"null","","html-keyboard-response","203","236130","0.0-4.0-2.54","","<div style=""font-size:60px;"">+</div>","null","","","","","","",""
"527.6449999946635","","image-keyboard-response","204","236658","0.0-4.0-0.55","","img/yellow.png","32","trial","32","true","0.8,0.2","1:go_a","",""
"null","","html-keyboard-response","205","237665","0.0-4.0-1.55","","<img src=""img/yellow-r.png"" border=""10"">","null","trial","32","","0.8,0.2","1:go_a","1",""
"null","","html-keyboard-response","206","238671","0.0-4.0-2.55","","<div style=""font-size:60px;"">+</div>","null","","","","","","",""
"549.8899999947753","","image-keyboard-response","207","239222","0.0-4.0-0.56","","img/yellow.png","32","trial","32","true","0.8,0.2","1:go_a","",""
"null","","html-keyboard-response","208","240235","0.0-4.0-1.56","","<img src=""img/yellow-r.png"" border=""10"">","null","trial","32","","0.8,0.2","1:go_a","1",""
"null","","html-keyboard-response","209","241239","0.0-4.0-2.56","","<div style=""font-size:60px;"">+</div>","null","","","","","","",""
"null","","image-keyboard-response","210","242740","0.0-4.0-0.57","","img/green.png","null","trial","null","true","0.2,0.8","2:nogo_b","",""
"null","","html-keyboard-response","211","243745","0.0-4.0-1.57","","<img src=""img/green-r.png"">","null","trial","null","","0.2,0.8","2:nogo_b","1",""
"null","","html-keyboard-response","212","244746","0.0-4.0-2.57","","<div style=""font-size:60px;"">+</div>","null","","","","","","",""
"367.1350000076927","","image-keyboard-response","213","245114","0.0-4.0-0.58","","img/yellow.png","32","trial","32","true","0.8,0.2","1:go_a","",""
"null","","html-keyboard-response","214","246125","0.0-4.0-1.58","","<img src=""img/yellow-r.png"" border=""10"">","null","trial","32","","0.8,0.2","1:go_a","1",""
"null","","html-keyboard-response","215","247133","0.0-4.0-2.58","","<div style=""font-size:60px;"">+</div>","null","","","","","","",""
"null","","image-keyboard-response","216","248636","0.0-4.0-0.59","","img/green.png","null","trial","null","true","0.2,0.8","2:nogo_b","",""
"null","","html-keyboard-response","217","249643","0.0-4.0-1.59","","<img src=""img/green-r.png"">","null","trial","null","","0.2,0.8","2:nogo_b","1",""
"null","","html-keyboard-response","218","250648","0.0-4.0-2.59","","<div style=""font-size:60px;"">+</div>","null","","","","","","",""
"26474.259999988135","","instructions","219","277122","0.0-5.0","[{""page_index"":0,""viewing_time"":26474.125000007916}]","","","","","","","","",""
"872.4599999841303","","image-keyboard-response","220","277996","0.0-6.0-0.0","","img/blue.png","32","trial","32","true","0.8,0.2","3:go_c","",""
"null","","html-keyboard-response","221","279010","0.0-6.0-1.0","","<img src=""img/blue-r.png"" border=""10"">","null","trial","32","","0.8,0.2","3:go_c","1",""
"null","","html-keyboard-response","222","280016","0.0-6.0-2.0","","<div style=""font-size:60px;"">+</div>","null","","","","","","",""
"435.45499999891035","","image-keyboard-response","223","280452","0.0-6.0-0.1","","img/green.png","32","trial","null","false","0.2,0.8","4:nogo_d","",""
"null","","html-keyboard-response","224","281456","0.0-6.0-1.1","","<img src=""img/green-n.png"" border=""10"">","null","trial","null","","0.2,0.8","4:nogo_d","0",""
"null","","html-keyboard-response","225","282462","0.0-6.0-2.1","","<div style=""font-size:60px;"">+</div>","null","","","","","","",""
"563.0999999993946","","image-keyboard-response","226","283025","0.0-6.0-0.2","","img/red.png","32","trial","null","false","0.2,0.8","2:nogo_b","",""
"null","","html-keyboard-response","227","284040","0.0-6.0-1.2","","<img src=""img/red-n.png"" border=""10"">","null","trial","null","","0.2,0.8","2:nogo_b","0",""
"null","","html-keyboard-response","228","285045","0.0-6.0-2.2","","<div style=""font-size:60px;"">+</div>","null","","","","","","",""
"678.6700000229757","","image-keyboard-response","229","285724","0.0-6.0-0.3","","img/grey.png","32","trial","32","true","0.8,0.2","1:go_a","",""
"null","","html-keyboard-response","230","286737","0.0-6.0-1.3","","<img src=""img/grey-r.png"" border=""10"">","null","trial","32","","0.8,0.2","1:go_a","1",""
"null","","html-keyboard-response","231","287742","0.0-6.0-2.3","","<div style=""font-size:60px;"">+</div>","null","","","","","","",""
"574.9950000026729","","image-keyboard-response","232","288317","0.0-6.0-0.4","","img/grey.png","32","trial","32","true","0.8,0.2","1:go_a","",""
"null","","html-keyboard-response","233","289332","0.0-6.0-1.4","","<img src=""img/grey-r.png"" border=""10"">","null","trial","32","","0.8,0.2","1:go_a","1",""
"null","","html-keyboard-response","234","290339","0.0-6.0-2.4","","<div style=""font-size:60px;"">+</div>","null","","","","","","",""
"null","","image-keyboard-response","235","291842","0.0-6.0-0.5","","img/green.png","null","trial","null","true","0.2,0.8","4:nogo_d","",""
"null","","html-keyboard-response","236","292843","0.0-6.0-1.5","","<img src=""img/green-r.png"">","null","trial","null","","0.2,0.8","4:nogo_d","1",""
"null","","html-keyboard-response","237","293853","0.0-6.0-2.5","","<div style=""font-size:60px;"">+</div>","null","","","","","","",""
"null","","image-keyboard-response","238","295368","0.0-6.0-0.6","","img/red.png","null","trial","null","true","0.2,0.8","2:nogo_b","",""
"null","","html-keyboard-response","239","296374","0.0-6.0-1.6","","<img src=""img/red-r.png"">","null","trial","null","","0.2,0.8","2:nogo_b","1",""
"null","","html-keyboard-response","240","297379","0.0-6.0-2.6","","<div style=""font-size:60px;"">+</div>","null","","","","","","",""
"349.4150000042282","","image-keyboard-response","241","297729","0.0-6.0-0.7","","img/blue.png","32","trial","32","true","0.8,0.2","3:go_c","",""
"null","","html-keyboard-response","242","298738","0.0-6.0-1.7","","<img src=""img/blue-n.png"" border=""10"">","null","trial","32","","0.8,0.2","3:go_c","0",""
"null","","html-keyboard-response","243","299742","0.0-6.0-2.7","","<div style=""font-size:60px;"">+</div>","null","","","","","","",""
"506.69499998912215","","image-keyboard-response","244","300250","0.0-6.0-0.8","","img/blue.png","32","trial","32","true","0.8,0.2","3:go_c","",""
"null","","html-keyboard-response","245","301260","0.0-6.0-1.8","","<img src=""img/blue-r.png"" border=""10"">","null","trial","32","","0.8,0.2","3:go_c","1",""
"null","","html-keyboard-response","246","302265","0.0-6.0-2.8","","<div style=""font-size:60px;"">+</div>","null","","","","","","",""
"684.0199999860488","","image-keyboard-response","247","302950","0.0-6.0-0.9","","img/green.png","32","trial","null","false","0.2,0.8","4:nogo_d","",""
"null","","html-keyboard-response","248","303958","0.0-6.0-1.9","","<img src=""img/green-n.png"" border=""10"">","null","trial","null","","0.2,0.8","4:nogo_d","0",""
"null","","html-keyboard-response","249","304966","0.0-6.0-2.9","","<div style=""font-size:60px;"">+</div>","null","","","","","","",""
"576.0550000122748","","image-keyboard-response","250","305543","0.0-6.0-0.10","","img/grey.png","32","trial","32","true","0.8,0.2","1:go_a","",""
"null","","html-keyboard-response","251","306543","0.0-6.0-1.10","","<img src=""img/grey-r.png"" border=""10"">","null","trial","32","","0.8,0.2","1:go_a","1",""
"null","","html-keyboard-response","252","307552","0.0-6.0-2.10","","<div style=""font-size:60px;"">+</div>","null","","","","","","",""
"552.7550000115298","","image-keyboard-response","253","308106","0.0-6.0-0.11","","img/red.png","32","trial","null","false","0.2,0.8","2:nogo_b","",""
"null","","html-keyboard-response","254","309116","0.0-6.0-1.11","","<img src=""img/red-n.png"" border=""10"">","null","trial","null","","0.2,0.8","2:nogo_b","0",""
"null","","html-keyboard-response","255","310124","0.0-6.0-2.11","","<div style=""font-size:60px;"">+</div>","null","","","","","","",""
"480.36499999579974","","image-keyboard-response","256","310604","0.0-6.0-0.12","","img/green.png","32","trial","null","false","0.2,0.8","4:nogo_d","",""
"null","","html-keyboard-response","257","311610","0.0-6.0-1.12","","<img src=""img/green-n.png"" border=""10"">","null","trial","null","","0.2,0.8","4:nogo_d","0",""
"null","","html-keyboard-response","258","312618","0.0-6.0-2.12","","<div style=""font-size:60px;"">+</div>","null","","","","","","",""
"611.1700000183191","","image-keyboard-response","259","313229","0.0-6.0-0.13","","img/red.png","32","trial","null","false","0.2,0.8","2:nogo_b","",""
"null","","html-keyboard-response","260","314244","0.0-6.0-1.13","","<img src=""img/red-n.png"" border=""10"">","null","trial","null","","0.2,0.8","2:nogo_b","0",""
"null","","html-keyboard-response","261","315251","0.0-6.0-2.13","","<div style=""font-size:60px;"">+</div>","null","","","","","","",""
"424.91999999037944","","image-keyboard-response","262","315676","0.0-6.0-0.14","","img/blue.png","32","trial","32","true","0.8,0.2","3:go_c","",""
"null","","html-keyboard-response","263","316684","0.0-6.0-1.14","","<img src=""img/blue-r.png"" border=""10"">","null","trial","32","","0.8,0.2","3:go_c","1",""
"null","","html-keyboard-response","264","317688","0.0-6.0-2.14","","<div style=""font-size:60px;"">+</div>","null","","","","","","",""
"485.42499999166466","","image-keyboard-response","265","318174","0.0-6.0-0.15","","img/grey.png","32","trial","32","true","0.8,0.2","1:go_a","",""
"null","","html-keyboard-response","266","319187","0.0-6.0-1.15","","<img src=""img/grey-r.png"" border=""10"">","null","trial","32","","0.8,0.2","1:go_a","1",""
"null","","html-keyboard-response","267","320194","0.0-6.0-2.15","","<div style=""font-size:60px;"">+</div>","null","","","","","","",""
"null","","image-keyboard-response","268","321696","0.0-6.0-0.16","","img/red.png","null","trial","null","true","0.2,0.8","2:nogo_b","",""
"null","","html-keyboard-response","269","322702","0.0-6.0-1.16","","<img src=""img/red-r.png"">","null","trial","null","","0.2,0.8","2:nogo_b","1",""
"null","","html-keyboard-response","270","323711","0.0-6.0-2.16","","<div style=""font-size:60px;"">+</div>","null","","","","","","",""
"636.9299999787472","","image-keyboard-response","271","324348","0.0-6.0-0.17","","img/grey.png","32","trial","32","true","0.8,0.2","1:go_a","",""
"null","","html-keyboard-response","272","325354","0.0-6.0-1.17","","<img src=""img/grey-n.png"" border=""10"">","null","trial","32","","0.8,0.2","1:go_a","0",""
"null","","html-keyboard-response","273","326361","0.0-6.0-2.17","","<div style=""font-size:60px;"">+</div>","null","","","","","","",""
"null","","image-keyboard-response","274","327874","0.0-6.0-0.18","","img/green.png","null","trial","null","true","0.2,0.8","4:nogo_d","",""
"null","","html-keyboard-response","275","328881","0.0-6.0-1.18","","<img src=""img/green-r.png"">","null","trial","null","","0.2,0.8","4:nogo_d","1",""
"null","","html-keyboard-response","276","329886","0.0-6.0-2.18","","<div style=""font-size:60px;"">+</div>","null","","","","","","",""
"480.7349999900907","","image-keyboard-response","277","330367","0.0-6.0-0.19","","img/blue.png","32","trial","32","true","0.8,0.2","3:go_c","",""
"null","","html-keyboard-response","278","331368","0.0-6.0-1.19","","<img src=""img/blue-r.png"" border=""10"">","null","trial","32","","0.8,0.2","3:go_c","1",""
"null","","html-keyboard-response","279","332375","0.0-6.0-2.19","","<div style=""font-size:60px;"">+</div>","null","","","","","","",""
"741.9850000005681","","image-keyboard-response","280","333118","0.0-6.0-0.20","","img/grey.png","32","trial","32","true","0.8,0.2","1:go_a","",""
"null","","html-keyboard-response","281","334127","0.0-6.0-1.20","","<img src=""img/grey-n.png"" border=""10"">","null","trial","32","","0.8,0.2","1:go_a","0",""
"null","","html-keyboard-response","282","335132","0.0-6.0-2.20","","<div style=""font-size:60px;"">+</div>","null","","","","","","",""
"422.66000001109205","","image-keyboard-response","283","335556","0.0-6.0-0.21","","img/blue.png","32","trial","32","true","0.8,0.2","3:go_c","",""
"null","","html-keyboard-response","284","336570","0.0-6.0-1.21","","<img src=""img/blue-r.png"" border=""10"">","null","trial","32","","0.8,0.2","3:go_c","1",""
"null","","html-keyboard-response","285","337586","0.0-6.0-2.21","","<div style=""font-size:60px;"">+</div>","null","","","","","","",""
"null","","image-keyboard-response","286","339097","0.0-6.0-0.22","","img/green.png","null","trial","null","true","0.2,0.8","4:nogo_d","",""
"null","","html-keyboard-response","287","340104","0.0-6.0-1.22","","<img src=""img/green-r.png"">","null","trial","null","","0.2,0.8","4:nogo_d","1",""
"null","","html-keyboard-response","288","341105","0.0-6.0-2.22","","<div style=""font-size:60px;"">+</div>","null","","","","","","",""
"519.7249999910127","","image-keyboard-response","289","341626","0.0-6.0-0.23","","img/red.png","32","trial","null","false","0.2,0.8","2:nogo_b","",""
"null","","html-keyboard-response","290","342636","0.0-6.0-1.23","","<img src=""img/red-n.png"" border=""10"">","null","trial","null","","0.2,0.8","2:nogo_b","0",""
"null","","html-keyboard-response","291","343642","0.0-6.0-2.23","","<div style=""font-size:60px;"">+</div>","null","","","","","","",""
"482.93500000727363","","image-keyboard-response","292","344125","0.0-6.0-0.24","","img/blue.png","32","trial","32","true","0.8,0.2","3:go_c","",""
"null","","html-keyboard-response","293","345139","0.0-6.0-1.24","","<img src=""img/blue-n.png"" border=""10"">","null","trial","32","","0.8,0.2","3:go_c","0",""
"null","","html-keyboard-response","294","346144","0.0-6.0-2.24","","<div style=""font-size:60px;"">+</div>","null","","","","","","",""
"732.7300000179093","","image-keyboard-response","295","346877","0.0-6.0-0.25","","img/red.png","32","trial","null","false","0.2,0.8","2:nogo_b","",""
"null","","html-keyboard-response","296","347887","0.0-6.0-1.25","","<img src=""img/red-r.png"" border=""10"">","null","trial","null","","0.2,0.8","2:nogo_b","1",""
"null","","html-keyboard-response","297","348893","0.0-6.0-2.25","","<div style=""font-size:60px;"">+</div>","null","","","","","","",""
"545.5000000074506","","image-keyboard-response","298","349439","0.0-6.0-0.26","","img/grey.png","32","trial","32","true","0.8,0.2","1:go_a","",""
"null","","html-keyboard-response","299","350440","0.0-6.0-1.26","","<img src=""img/grey-r.png"" border=""10"">","null","trial","32","","0.8,0.2","1:go_a","1",""
"null","","html-keyboard-response","300","351445","0.0-6.0-2.26","","<div style=""font-size:60px;"">+</div>","null","","","","","","",""
"null","","image-keyboard-response","301","352950","0.0-6.0-0.27","","img/green.png","null","trial","null","true","0.2,0.8","4:nogo_d","",""
"null","","html-keyboard-response","302","353955","0.0-6.0-1.27","","<img src=""img/green-r.png"">","null","trial","null","","0.2,0.8","4:nogo_d","1",""
"null","","html-keyboard-response","303","354963","0.0-6.0-2.27","","<div style=""font-size:60px;"">+</div>","null","","","","","","",""
"597.2900000051595","","image-keyboard-response","304","355561","0.0-6.0-0.28","","img/red.png","32","trial","null","false","0.2,0.8","2:nogo_b","",""
"null","","html-keyboard-response","305","356564","0.0-6.0-1.28","","<img src=""img/red-r.png"" border=""10"">","null","trial","null","","0.2,0.8","2:nogo_b","1",""
"null","","html-keyboard-response","306","357573","0.0-6.0-2.28","","<div style=""font-size:60px;"">+</div>","null","","","","","","",""
"561.8299999914598","","image-keyboard-response","307","358135","0.0-6.0-0.29","","img/blue.png","32","trial","32","true","0.8,0.2","3:go_c","",""
"null","","html-keyboard-response","308","359149","0.0-6.0-1.29","","<img src=""img/blue-r.png"" border=""10"">","null","trial","32","","0.8,0.2","3:go_c","1",""
"null","","html-keyboard-response","309","360154","0.0-6.0-2.29","","<div style=""font-size:60px;"">+</div>","null","","","","","","",""
"573.5149999964051","","image-keyboard-response","310","360728","0.0-6.0-0.30","","img/grey.png","32","trial","32","true","0.8,0.2","1:go_a","",""
"null","","html-keyboard-response","311","361735","0.0-6.0-1.30","","<img src=""img/grey-r.png"" border=""10"">","null","trial","32","","0.8,0.2","1:go_a","1",""
"null","","html-keyboard-response","312","362744","0.0-6.0-2.30","","<div style=""font-size:60px;"">+</div>","null","","","","","","",""
"null","","image-keyboard-response","313","364245","0.0-6.0-0.31","","img/green.png","null","trial","null","true","0.2,0.8","4:nogo_d","",""
"null","","html-keyboard-response","314","365246","0.0-6.0-1.31","","<img src=""img/green-r.png"">","null","trial","null","","0.2,0.8","4:nogo_d","1",""
"null","","html-keyboard-response","315","366261","0.0-6.0-2.31","","<div style=""font-size:60px;"">+</div>","null","","","","","","",""
"null","","image-keyboard-response","316","367765","0.0-6.0-0.32","","img/green.png","null","trial","null","true","0.2,0.8","4:nogo_d","",""
"null","","html-keyboard-response","317","368771","0.0-6.0-1.32","","<img src=""img/green-r.png"">","null","trial","null","","0.2,0.8","4:nogo_d","1",""
"null","","html-keyboard-response","318","369779","0.0-6.0-2.32","","<div style=""font-size:60px;"">+</div>","null","","","","","","",""
"526.0650000127498","","image-keyboard-response","319","370306","0.0-6.0-0.33","","img/grey.png","32","trial","32","true","0.8,0.2","1:go_a","",""
"null","","html-keyboard-response","320","371311","0.0-6.0-1.33","","<img src=""img/grey-r.png"" border=""10"">","null","trial","32","","0.8,0.2","1:go_a","1",""
"null","","html-keyboard-response","321","372316","0.0-6.0-2.33","","<div style=""font-size:60px;"">+</div>","null","","","","","","",""
"479.60000002058223","","image-keyboard-response","322","372796","0.0-6.0-0.34","","img/red.png","32","trial","null","false","0.2,0.8","2:nogo_b","",""
"null","","html-keyboard-response","323","373804","0.0-6.0-1.34","","<img src=""img/red-n.png"" border=""10"">","null","trial","null","","0.2,0.8","2:nogo_b","0",""
"null","","html-keyboard-response","324","374809","0.0-6.0-2.34","","<div style=""font-size:60px;"">+</div>","null","","","","","","",""
"558.984999981476","","image-keyboard-response","325","375368","0.0-6.0-0.35","","img/blue.png","32","trial","32","true","0.8,0.2","3:go_c","",""
"null","","html-keyboard-response","326","376372","0.0-6.0-1.35","","<img src=""img/blue-r.png"" border=""10"">","null","trial","32","","0.8,0.2","3:go_c","1",""
"null","","html-keyboard-response","327","377379","0.0-6.0-2.35","","<div style=""font-size:60px;"">+</div>","null","","","","","","",""
"530.9199999901466","","image-keyboard-response","328","377910","0.0-6.0-0.36","","img/blue.png","32","trial","32","true","0.8,0.2","3:go_c","",""
"null","","html-keyboard-response","329","378926","0.0-6.0-1.36","","<img src=""img/blue-r.png"" border=""10"">","null","trial","32","","0.8,0.2","3:go_c","1",""
"null","","html-keyboard-response","330","379934","0.0-6.0-2.36","","<div style=""font-size:60px;"">+</div>","null","","","","","","",""
"854.0949999878649","","image-keyboard-response","331","380788","0.0-6.0-0.37","","img/red.png","32","trial","null","false","0.2,0.8","2:nogo_b","",""
"null","","html-keyboard-response","332","381803","0.0-6.0-1.37","","<img src=""img/red-n.png"" border=""10"">","null","trial","null","","0.2,0.8","2:nogo_b","0",""
"null","","html-keyboard-response","333","382807","0.0-6.0-2.37","","<div style=""font-size:60px;"">+</div>","null","","","","","","",""
"406.7549999745097","","image-keyboard-response","334","383214","0.0-6.0-0.38","","img/grey.png","32","trial","32","true","0.8,0.2","1:go_a","",""
"null","","html-keyboard-response","335","384229","0.0-6.0-1.38","","<img src=""img/grey-r.png"" border=""10"">","null","trial","32","","0.8,0.2","1:go_a","1",""
"null","","html-keyboard-response","336","385236","0.0-6.0-2.38","","<div style=""font-size:60px;"">+</div>","null","","","","","","",""
"null","","image-keyboard-response","337","386739","0.0-6.0-0.39","","img/green.png","null","trial","null","true","0.2,0.8","4:nogo_d","",""
"null","","html-keyboard-response","338","387741","0.0-6.0-1.39","","<img src=""img/green-n.png"">","null","trial","null","","0.2,0.8","4:nogo_d","0",""
"null","","html-keyboard-response","339","388747","0.0-6.0-2.39","","<div style=""font-size:60px;"">+</div>","null","","","","","","",""
"556.9099999847822","","image-keyboard-response","340","389305","0.0-6.0-0.40","","img/grey.png","32","trial","32","true","0.8,0.2","1:go_a","",""
"null","","html-keyboard-response","341","390311","0.0-6.0-1.40","","<img src=""img/grey-r.png"" border=""10"">","null","trial","32","","0.8,0.2","1:go_a","1",""
"null","","html-keyboard-response","342","391320","0.0-6.0-2.40","","<div style=""font-size:60px;"">+</div>","null","","","","","","",""
"null","","image-keyboard-response","343","392822","0.0-6.0-0.41","","img/green.png","null","trial","null","true","0.2,0.8","4:nogo_d","",""
"null","","html-keyboard-response","344","393823","0.0-6.0-1.41","","<img src=""img/green-r.png"">","null","trial","null","","0.2,0.8","4:nogo_d","1",""
"null","","html-keyboard-response","345","394833","0.0-6.0-2.41","","<div style=""font-size:60px;"">+</div>","null","","","","","","",""
"530.8649999788031","","image-keyboard-response","346","395365","0.0-6.0-0.42","","img/blue.png","32","trial","32","true","0.8,0.2","3:go_c","",""
"null","","html-keyboard-response","347","396367","0.0-6.0-1.42","","<img src=""img/blue-r.png"" border=""10"">","null","trial","32","","0.8,0.2","3:go_c","1",""
"null","","html-keyboard-response","348","397371","0.0-6.0-2.42","","<div style=""font-size:60px;"">+</div>","null","","","","","","",""
"587.1000000042841","","image-keyboard-response","349","397959","0.0-6.0-0.43","","img/red.png","32","trial","null","false","0.2,0.8","2:nogo_b","",""
"null","","html-keyboard-response","350","398971","0.0-6.0-1.43","","<img src=""img/red-n.png"" border=""10"">","null","trial","null","","0.2,0.8","2:nogo_b","0",""
"null","","html-keyboard-response","351","399978","0.0-6.0-2.43","","<div style=""font-size:60px;"">+</div>","null","","","","","","",""
"489.82500002603047","","image-keyboard-response","352","400469","0.0-6.0-0.44","","img/grey.png","32","trial","32","true","0.8,0.2","1:go_a","",""
"null","","html-keyboard-response","353","401474","0.0-6.0-1.44","","<img src=""img/grey-r.png"" border=""10"">","null","trial","32","","0.8,0.2","1:go_a","1",""
"null","","html-keyboard-response","354","402482","0.0-6.0-2.44","","<div style=""font-size:60px;"">+</div>","null","","","","","","",""
"570.575000019744","","image-keyboard-response","355","403053","0.0-6.0-0.45","","img/blue.png","32","trial","32","true","0.8,0.2","3:go_c","",""
"null","","html-keyboard-response","356","404063","0.0-6.0-1.45","","<img src=""img/blue-r.png"" border=""10"">","null","trial","32","","0.8,0.2","3:go_c","1",""
"null","","html-keyboard-response","357","405066","0.0-6.0-2.45","","<div style=""font-size:60px;"">+</div>","null","","","","","","",""
"null","","image-keyboard-response","358","406583","0.0-6.0-0.46","","img/red.png","null","trial","null","true","0.2,0.8","2:nogo_b","",""
"null","","html-keyboard-response","359","407590","0.0-6.0-1.46","","<img src=""img/red-r.png"">","null","trial","null","","0.2,0.8","2:nogo_b","1",""
"null","","html-keyboard-response","360","408598","0.0-6.0-2.46","","<div style=""font-size:60px;"">+</div>","null","","","","","","",""
"796.6400000150315","","image-keyboard-response","361","409395","0.0-6.0-0.47","","img/green.png","32","trial","null","false","0.2,0.8","4:nogo_d","",""
"null","","html-keyboard-response","362","410400","0.0-6.0-1.47","","<img src=""img/green-r.png"" border=""10"">","null","trial","null","","0.2,0.8","4:nogo_d","1",""
"null","","html-keyboard-response","363","411405","0.0-6.0-2.47","","<div style=""font-size:60px;"">+</div>","null","","","","","","",""
"1183.2949999952689","","image-keyboard-response","364","412589","0.0-6.0-0.48","","img/green.png","32","trial","null","false","0.2,0.8","4:nogo_d","",""
"null","","html-keyboard-response","365","413595","0.0-6.0-1.48","","<img src=""img/green-n.png"" border=""10"">","null","trial","null","","0.2,0.8","4:nogo_d","0",""
"null","","html-keyboard-response","366","414598","0.0-6.0-2.48","","<div style=""font-size:60px;"">+</div>","null","","","","","","",""
"null","","image-keyboard-response","367","416101","0.0-6.0-0.49","","img/red.png","null","trial","null","true","0.2,0.8","2:nogo_b","",""
"null","","html-keyboard-response","368","417109","0.0-6.0-1.49","","<img src=""img/red-n.png"">","null","trial","null","","0.2,0.8","2:nogo_b","0",""
"null","","html-keyboard-response","369","418116","0.0-6.0-2.49","","<div style=""font-size:60px;"">+</div>","null","","","","","","",""
"565.504999976838","","image-keyboard-response","370","418682","0.0-6.0-0.50","","img/grey.png","32","trial","32","true","0.8,0.2","1:go_a","",""
"null","","html-keyboard-response","371","419694","0.0-6.0-1.50","","<img src=""img/grey-r.png"" border=""10"">","null","trial","32","","0.8,0.2","1:go_a","1",""
"null","","html-keyboard-response","372","420702","0.0-6.0-2.50","","<div style=""font-size:60px;"">+</div>","null","","","","","","",""
"676.1450000049081","","image-keyboard-response","373","421379","0.0-6.0-0.51","","img/blue.png","32","trial","32","true","0.8,0.2","3:go_c","",""
"null","","html-keyboard-response","374","422395","0.0-6.0-1.51","","<img src=""img/blue-r.png"" border=""10"">","null","trial","32","","0.8,0.2","3:go_c","1",""
"null","","html-keyboard-response","375","423402","0.0-6.0-2.51","","<div style=""font-size:60px;"">+</div>","null","","","","","","",""
"551.5949999971781","","image-keyboard-response","376","423954","0.0-6.0-0.52","","img/red.png","32","trial","null","false","0.2,0.8","2:nogo_b","",""
"null","","html-keyboard-response","377","424959","0.0-6.0-1.52","","<img src=""img/red-n.png"" border=""10"">","null","trial","null","","0.2,0.8","2:nogo_b","0",""
"null","","html-keyboard-response","378","425965","0.0-6.0-2.52","","<div style=""font-size:60px;"">+</div>","null","","","","","","",""
"580.6650000158697","","image-keyboard-response","379","426547","0.0-6.0-0.53","","img/blue.png","32","trial","32","true","0.8,0.2","3:go_c","",""
"null","","html-keyboard-response","380","427561","0.0-6.0-1.53","","<img src=""img/blue-r.png"" border=""10"">","null","trial","32","","0.8,0.2","3:go_c","1",""
"null","","html-keyboard-response","381","428570","0.0-6.0-2.53","","<div style=""font-size:60px;"">+</div>","null","","","","","","",""
"547.7200000023004","","image-keyboard-response","382","429119","0.0-6.0-0.54","","img/grey.png","32","trial","32","true","0.8,0.2","1:go_a","",""
"null","","html-keyboard-response","383","430135","0.0-6.0-1.54","","<img src=""img/grey-r.png"" border=""10"">","null","trial","32","","0.8,0.2","1:go_a","1",""
"null","","html-keyboard-response","384","431143","0.0-6.0-2.54","","<div style=""font-size:60px;"">+</div>","null","","","","","","",""
"613.5550000180956","","image-keyboard-response","385","431757","0.0-6.0-0.55","","img/green.png","32","trial","null","false","0.2,0.8","4:nogo_d","",""
"null","","html-keyboard-response","386","432771","0.0-6.0-1.55","","<img src=""img/green-n.png"" border=""10"">","null","trial","null","","0.2,0.8","4:nogo_d","0",""
"null","","html-keyboard-response","387","433777","0.0-6.0-2.55","","<div style=""font-size:60px;"">+</div>","null","","","","","","",""
"583.5400000214577","","image-keyboard-response","388","434361","0.0-6.0-0.56","","img/blue.png","32","trial","32","true","0.8,0.2","3:go_c","",""
"null","","html-keyboard-response","389","435365","0.0-6.0-1.56","","<img src=""img/blue-r.png"" border=""10"">","null","trial","32","","0.8,0.2","3:go_c","1",""
"null","","html-keyboard-response","390","436373","0.0-6.0-2.56","","<div style=""font-size:60px;"">+</div>","null","","","","","","",""
"551.9099999801256","","image-keyboard-response","391","436925","0.0-6.0-0.57","","img/green.png","32","trial","null","false","0.2,0.8","4:nogo_d","",""
"null","","html-keyboard-response","392","437939","0.0-6.0-1.57","","<img src=""img/green-n.png"" border=""10"">","null","trial","null","","0.2,0.8","4:nogo_d","0",""
"null","","html-keyboard-response","393","438946","0.0-6.0-2.57","","<div style=""font-size:60px;"">+</div>","null","","","","","","",""
"728.2800000102725","","image-keyboard-response","394","439675","0.0-6.0-0.58","","img/grey.png","32","trial","32","true","0.8,0.2","1:go_a","",""
"null","","html-keyboard-response","395","440688","0.0-6.0-1.58","","<img src=""img/grey-r.png"" border=""10"">","null","trial","32","","0.8,0.2","1:go_a","1",""
"null","","html-keyboard-response","396","441691","0.0-6.0-2.58","","<div style=""font-size:60px;"">+</div>","null","","","","","","",""
"null","","image-keyboard-response","397","443193","0.0-6.0-0.59","","img/red.png","null","trial","null","true","0.2,0.8","2:nogo_b","",""
"null","","html-keyboard-response","398","444194","0.0-6.0-1.59","","<img src=""img/red-r.png"">","null","trial","null","","0.2,0.8","2:nogo_b","1",""
"null","","html-keyboard-response","399","445202","0.0-6.0-2.59","","<div style=""font-size:60px;"">+</div>","null","","","","","","",""
"null","","image-keyboard-response","400","446703","0.0-6.0-0.60","","img/green.png","null","trial","null","true","0.2,0.8","4:nogo_d","",""
"null","","html-keyboard-response","401","447705","0.0-6.0-1.60","","<img src=""img/green-r.png"">","null","trial","null","","0.2,0.8","4:nogo_d","1",""
"null","","html-keyboard-response","402","448715","0.0-6.0-2.60","","<div style=""font-size:60px;"">+</div>","null","","","","","","",""
"434.80499999714084","","image-keyboard-response","403","449150","0.0-6.0-0.61","","img/red.png","32","trial","null","false","0.2,0.8","2:nogo_b","",""
"null","","html-keyboard-response","404","450165","0.0-6.0-1.61","","<img src=""img/red-n.png"" border=""10"">","null","trial","null","","0.2,0.8","2:nogo_b","0",""
"null","","html-keyboard-response","405","451169","0.0-6.0-2.61","","<div style=""font-size:60px;"">+</div>","null","","","","","","",""
"522.0900000131223","","image-keyboard-response","406","451692","0.0-6.0-0.62","","img/grey.png","32","trial","32","true","0.8,0.2","1:go_a","",""
"null","","html-keyboard-response","407","452704","0.0-6.0-1.62","","<img src=""img/grey-n.png"" border=""10"">","null","trial","32","","0.8,0.2","1:go_a","0",""
"null","","html-keyboard-response","408","453705","0.0-6.0-2.62","","<div style=""font-size:60px;"">+</div>","null","","","","","","",""
"613.9050000056159","","image-keyboard-response","409","454320","0.0-6.0-0.63","","img/blue.png","32","trial","32","true","0.8,0.2","3:go_c","",""
"null","","html-keyboard-response","410","455325","0.0-6.0-1.63","","<img src=""img/blue-n.png"" border=""10"">","null","trial","32","","0.8,0.2","3:go_c","0",""
"null","","html-keyboard-response","411","456331","0.0-6.0-2.63","","<div style=""font-size:60px;"">+</div>","null","","","","","","",""
"null","","image-keyboard-response","412","457844","0.0-6.0-0.64","","img/red.png","null","trial","null","true","0.2,0.8","2:nogo_b","",""
"null","","html-keyboard-response","413","458850","0.0-6.0-1.64","","<img src=""img/red-r.png"">","null","trial","null","","0.2,0.8","2:nogo_b","1",""
"null","","html-keyboard-response","414","459855","0.0-6.0-2.64","","<div style=""font-size:60px;"">+</div>","null","","","","","","",""
"700.4749999905471","","image-keyboard-response","415","460556","0.0-6.0-0.65","","img/grey.png","32","trial","32","true","0.8,0.2","1:go_a","",""
"null","","html-keyboard-response","416","461566","0.0-6.0-1.65","","<img src=""img/grey-r.png"" border=""10"">","null","trial","32","","0.8,0.2","1:go_a","1",""
"null","","html-keyboard-response","417","462572","0.0-6.0-2.65","","<div style=""font-size:60px;"">+</div>","null","","","","","","",""
"532.4350000009872","","image-keyboard-response","418","463105","0.0-6.0-0.66","","img/blue.png","32","trial","32","true","0.8,0.2","3:go_c","",""
"null","","html-keyboard-response","419","464106","0.0-6.0-1.66","","<img src=""img/blue-r.png"" border=""10"">","null","trial","32","","0.8,0.2","3:go_c","1",""
"null","","html-keyboard-response","420","465108","0.0-6.0-2.66","","<div style=""font-size:60px;"">+</div>","null","","","","","","",""
"null","","image-keyboard-response","421","466611","0.0-6.0-0.67","","img/green.png","null","trial","null","true","0.2,0.8","4:nogo_d","",""
"null","","html-keyboard-response","422","467616","0.0-6.0-1.67","","<img src=""img/green-r.png"">","null","trial","null","","0.2,0.8","4:nogo_d","1",""
"null","","html-keyboard-response","423","468622","0.0-6.0-2.67","","<div style=""font-size:60px;"">+</div>","null","","","","","","",""
"null","","image-keyboard-response","424","470138","0.0-6.0-0.68","","img/red.png","null","trial","null","true","0.2,0.8","2:nogo_b","",""
"null","","html-keyboard-response","425","471145","0.0-6.0-1.68","","<img src=""img/red-r.png"">","null","trial","null","","0.2,0.8","2:nogo_b","1",""
"null","","html-keyboard-response","426","472153","0.0-6.0-2.68","","<div style=""font-size:60px;"">+</div>","null","","","","","","",""
"null","","image-keyboard-response","427","473669","0.0-6.0-0.69","","img/green.png","null","trial","null","true","0.2,0.8","4:nogo_d","",""
"null","","html-keyboard-response","428","474673","0.0-6.0-1.69","","<img src=""img/green-r.png"">","null","trial","null","","0.2,0.8","4:nogo_d","1",""
"null","","html-keyboard-response","429","475681","0.0-6.0-2.69","","<div style=""font-size:60px;"">+</div>","null","","","","","","",""
"877.8199999942444","","image-keyboard-response","430","476559","0.0-6.0-0.70","","img/blue.png","32","trial","32","true","0.8,0.2","3:go_c","",""
"null","","html-keyboard-response","431","477564","0.0-6.0-1.70","","<img src=""img/blue-n.png"" border=""10"">","null","trial","32","","0.8,0.2","3:go_c","0",""
"null","","html-keyboard-response","432","478571","0.0-6.0-2.70","","<div style=""font-size:60px;"">+</div>","null","","","","","","",""
"487.410000001546","","image-keyboard-response","433","479059","0.0-6.0-0.71","","img/grey.png","32","trial","32","true","0.8,0.2","1:go_a","",""
"null","","html-keyboard-response","434","480072","0.0-6.0-1.71","","<img src=""img/grey-r.png"" border=""10"">","null","trial","32","","0.8,0.2","1:go_a","1",""
"null","","html-keyboard-response","435","481079","0.0-6.0-2.71","","<div style=""font-size:60px;"">+</div>","null","","","","","","",""
"982.5200000195764","","image-keyboard-response","436","482062","0.0-6.0-0.72","","img/blue.png","32","trial","32","true","0.8,0.2","3:go_c","",""
"null","","html-keyboard-response","437","483075","0.0-6.0-1.72","","<img src=""img/blue-r.png"" border=""10"">","null","trial","32","","0.8,0.2","3:go_c","1",""
"null","","html-keyboard-response","438","484080","0.0-6.0-2.72","","<div style=""font-size:60px;"">+</div>","null","","","","","","",""
"null","","image-keyboard-response","439","485594","0.0-6.0-0.73","","img/green.png","null","trial","null","true","0.2,0.8","4:nogo_d","",""
"null","","html-keyboard-response","440","486603","0.0-6.0-1.73","","<img src=""img/green-r.png"">","null","trial","null","","0.2,0.8","4:nogo_d","1",""
"null","","html-keyboard-response","441","487604","0.0-6.0-2.73","","<div style=""font-size:60px;"">+</div>","null","","","","","","",""
"621.4800000016112","","image-keyboard-response","442","488226","0.0-6.0-0.74","","img/grey.png","32","trial","32","true","0.8,0.2","1:go_a","",""
"null","","html-keyboard-response","443","489241","0.0-6.0-1.74","","<img src=""img/grey-r.png"" border=""10"">","null","trial","32","","0.8,0.2","1:go_a","1",""
"null","","html-keyboard-response","444","490248","0.0-6.0-2.74","","<div style=""font-size:60px;"">+</div>","null","","","","","","",""
"null","","image-keyboard-response","445","491750","0.0-6.0-0.75","","img/red.png","null","trial","null","true","0.2,0.8","2:nogo_b","",""
"null","","html-keyboard-response","446","492755","0.0-6.0-1.75","","<img src=""img/red-r.png"">","null","trial","null","","0.2,0.8","2:nogo_b","1",""
"null","","html-keyboard-response","447","493756","0.0-6.0-2.75","","<div style=""font-size:60px;"">+</div>","null","","","","","","",""
"571.9300000055227","","image-keyboard-response","448","494328","0.0-6.0-0.76","","img/grey.png","32","trial","32","true","0.8,0.2","1:go_a","",""
"null","","html-keyboard-response","449","495341","0.0-6.0-1.76","","<img src=""img/grey-r.png"" border=""10"">","null","trial","32","","0.8,0.2","1:go_a","1",""
"null","","html-keyboard-response","450","496346","0.0-6.0-2.76","","<div style=""font-size:60px;"">+</div>","null","","","","","","",""
"null","","image-keyboard-response","451","497850","0.0-6.0-0.77","","img/red.png","null","trial","null","true","0.2,0.8","2:nogo_b","",""
"null","","html-keyboard-response","452","498856","0.0-6.0-1.77","","<img src=""img/red-r.png"">","null","trial","null","","0.2,0.8","2:nogo_b","1",""
"null","","html-keyboard-response","453","499862","0.0-6.0-2.77","","<div style=""font-size:60px;"">+</div>","null","","","","","","",""
"null","","image-keyboard-response","454","501365","0.0-6.0-0.78","","img/green.png","null","trial","null","true","0.2,0.8","4:nogo_d","",""
"null","","html-keyboard-response","455","502369","0.0-6.0-1.78","","<img src=""img/green-r.png"">","null","trial","null","","0.2,0.8","4:nogo_d","1",""
"null","","html-keyboard-response","456","503377","0.0-6.0-2.78","","<div style=""font-size:60px;"">+</div>","null","","","","","","",""
"521.1149999813642","","image-keyboard-response","457","503898","0.0-6.0-0.79","","img/blue.png","32","trial","32","true","0.8,0.2","3:go_c","",""
"null","","html-keyboard-response","458","504907","0.0-6.0-1.79","","<img src=""img/blue-n.png"" border=""10"">","null","trial","32","","0.8,0.2","3:go_c","0",""
"null","","html-keyboard-response","459","505913","0.0-6.0-2.79","","<div style=""font-size:60px;"">+</div>","null","","","","","","",""
"526.7450000101235","","image-keyboard-response","460","506440","0.0-6.0-0.80","","img/grey.png","32","trial","32","true","0.8,0.2","1:go_a","",""
"null","","html-keyboard-response","461","507448","0.0-6.0-1.80","","<img src=""img/grey-r.png"" border=""10"">","null","trial","32","","0.8,0.2","1:go_a","1",""
"null","","html-keyboard-response","462","508454","0.0-6.0-2.80","","<div style=""font-size:60px;"">+</div>","null","","","","","","",""
"568.2700000179466","","image-keyboard-response","463","509023","0.0-6.0-0.81","","img/green.png","32","trial","null","false","0.2,0.8","4:nogo_d","",""
"null","","html-keyboard-response","464","510036","0.0-6.0-1.81","","<img src=""img/green-n.png"" border=""10"">","null","trial","null","","0.2,0.8","4:nogo_d","0",""
"null","","html-keyboard-response","465","511045","0.0-6.0-2.81","","<div style=""font-size:60px;"">+</div>","null","","","","","","",""
"623.6649999918882","","image-keyboard-response","466","511669","0.0-6.0-0.82","","img/blue.png","32","trial","32","true","0.8,0.2","3:go_c","",""
"null","","html-keyboard-response","467","512675","0.0-6.0-1.82","","<img src=""img/blue-r.png"" border=""10"">","null","trial","32","","0.8,0.2","3:go_c","1",""
"null","","html-keyboard-response","468","513683","0.0-6.0-2.82","","<div style=""font-size:60px;"">+</div>","null","","","","","","",""
"391.2799999816343","","image-keyboard-response","469","514075","0.0-6.0-0.83","","img/red.png","32","trial","null","false","0.2,0.8","2:nogo_b","",""
"null","","html-keyboard-response","470","515085","0.0-6.0-1.83","","<img src=""img/red-n.png"" border=""10"">","null","trial","null","","0.2,0.8","2:nogo_b","0",""
"null","","html-keyboard-response","471","516091","0.0-6.0-2.83","","<div style=""font-size:60px;"">+</div>","null","","","","","","",""
"525.5649999890011","","image-keyboard-response","472","516617","0.0-6.0-0.84","","img/grey.png","32","trial","32","true","0.8,0.2","1:go_a","",""
"null","","html-keyboard-response","473","517624","0.0-6.0-1.84","","<img src=""img/grey-r.png"" border=""10"">","null","trial","32","","0.8,0.2","1:go_a","1",""
"null","","html-keyboard-response","474","518632","0.0-6.0-2.84","","<div style=""font-size:60px;"">+</div>","null","","","","","","",""
"null","","image-keyboard-response","475","520133","0.0-6.0-0.85","","img/green.png","null","trial","null","true","0.2,0.8","4:nogo_d","",""
"null","","html-keyboard-response","476","521141","0.0-6.0-1.85","","<img src=""img/green-r.png"">","null","trial","null","","0.2,0.8","4:nogo_d","1",""
"null","","html-keyboard-response","477","522142","0.0-6.0-2.85","","<div style=""font-size:60px;"">+</div>","null","","","","","","",""
"null","","image-keyboard-response","478","523648","0.0-6.0-0.86","","img/red.png","null","trial","null","true","0.2,0.8","2:nogo_b","",""
"null","","html-keyboard-response","479","524653","0.0-6.0-1.86","","<img src=""img/red-r.png"">","null","trial","null","","0.2,0.8","2:nogo_b","1",""
"null","","html-keyboard-response","480","525658","0.0-6.0-2.86","","<div style=""font-size:60px;"">+</div>","null","","","","","","",""
"597.7600000042003","","image-keyboard-response","481","526257","0.0-6.0-0.87","","img/blue.png","32","trial","32","true","0.8,0.2","3:go_c","",""
"null","","html-keyboard-response","482","527273","0.0-6.0-1.87","","<img src=""img/blue-n.png"" border=""10"">","null","trial","32","","0.8,0.2","3:go_c","0",""
"null","","html-keyboard-response","483","528278","0.0-6.0-2.87","","<div style=""font-size:60px;"">+</div>","null","","","","","","",""
"709.2600000032689","","image-keyboard-response","484","528988","0.0-6.0-0.88","","img/red.png","32","trial","null","false","0.2,0.8","2:nogo_b","",""
"null","","html-keyboard-response","485","529989","0.0-6.0-1.88","","<img src=""img/red-r.png"" border=""10"">","null","trial","null","","0.2,0.8","2:nogo_b","1",""
"null","","html-keyboard-response","486","530994","0.0-6.0-2.88","","<div style=""font-size:60px;"">+</div>","null","","","","","","",""
"null","","image-keyboard-response","487","532498","0.0-6.0-0.89","","img/green.png","null","trial","null","true","0.2,0.8","4:nogo_d","",""
"null","","html-keyboard-response","488","533504","0.0-6.0-1.89","","<img src=""img/green-r.png"">","null","trial","null","","0.2,0.8","4:nogo_d","1",""
"null","","html-keyboard-response","489","534510","0.0-6.0-2.89","","<div style=""font-size:60px;"">+</div>","null","","","","","","",""
"null","","image-keyboard-response","490","536015","0.0-6.0-0.90","","img/blue.png","null","trial","32","false","0.8,0.2","3:go_c","",""
"null","","html-keyboard-response","491","537021","0.0-6.0-1.90","","<img src=""img/blue-n.png"">","null","trial","32","","0.8,0.2","3:go_c","0",""
"null","","html-keyboard-response","492","538026","0.0-6.0-2.90","","<div style=""font-size:60px;"">+</div>","null","","","","","","",""
"613.2099999813363","","image-keyboard-response","493","538640","0.0-6.0-0.91","","img/grey.png","32","trial","32","true","0.8,0.2","1:go_a","",""
"null","","html-keyboard-response","494","539653","0.0-6.0-1.91","","<img src=""img/grey-r.png"" border=""10"">","null","trial","32","","0.8,0.2","1:go_a","1",""
"null","","html-keyboard-response","495","540660","0.0-6.0-2.91","","<div style=""font-size:60px;"">+</div>","null","","","","","","",""
"null","","image-keyboard-response","496","542176","0.0-6.0-0.92","","img/green.png","null","trial","null","true","0.2,0.8","4:nogo_d","",""
"null","","html-keyboard-response","497","543183","0.0-6.0-1.92","","<img src=""img/green-r.png"">","null","trial","null","","0.2,0.8","4:nogo_d","1",""
"null","","html-keyboard-response","498","544191","0.0-6.0-2.92","","<div style=""font-size:60px;"">+</div>","null","","","","","","",""
"369.7749999992084","","image-keyboard-response","499","544561","0.0-6.0-0.93","","img/red.png","32","trial","null","false","0.2,0.8","2:nogo_b","",""
"null","","html-keyboard-response","500","545564","0.0-6.0-1.93","","<img src=""img/red-n.png"" border=""10"">","null","trial","null","","0.2,0.8","2:nogo_b","0",""
"null","","html-keyboard-response","501","546570","0.0-6.0-2.93","","<div style=""font-size:60px;"">+</div>","null","","","","","","",""
"554.5050000073388","","image-keyboard-response","502","547125","0.0-6.0-0.94","","img/grey.png","32","trial","32","true","0.8,0.2","1:go_a","",""
"null","","html-keyboard-response","503","548132","0.0-6.0-1.94","","<img src=""img/grey-r.png"" border=""10"">","null","trial","32","","0.8,0.2","1:go_a","1",""
"null","","html-keyboard-response","504","549138","0.0-6.0-2.94","","<div style=""font-size:60px;"">+</div>","null","","","","","","",""
"null","","image-keyboard-response","505","550653","0.0-6.0-0.95","","img/blue.png","null","trial","32","false","0.8,0.2","3:go_c","",""
"null","","html-keyboard-response","506","551661","0.0-6.0-1.95","","<img src=""img/blue-n.png"">","null","trial","32","","0.8,0.2","3:go_c","0",""
"null","","html-keyboard-response","507","552669","0.0-6.0-2.95","","<div style=""font-size:60px;"">+</div>","null","","","","","","",""
"630.0200000114273","","image-keyboard-response","508","553300","0.0-6.0-0.96","","img/red.png","32","trial","null","false","0.2,0.8","2:nogo_b","",""
"null","","html-keyboard-response","509","554313","0.0-6.0-1.96","","<img src=""img/red-n.png"" border=""10"">","null","trial","null","","0.2,0.8","2:nogo_b","0",""
"null","","html-keyboard-response","510","555319","0.0-6.0-2.96","","<div style=""font-size:60px;"">+</div>","null","","","","","","",""
"null","","image-keyboard-response","511","556823","0.0-6.0-0.97","","img/blue.png","null","trial","32","false","0.8,0.2","3:go_c","",""
"null","","html-keyboard-response","512","557831","0.0-6.0-1.97","","<img src=""img/blue-n.png"">","null","trial","32","","0.8,0.2","3:go_c","0",""
"null","","html-keyboard-response","513","558837","0.0-6.0-2.97","","<div style=""font-size:60px;"">+</div>","null","","","","","","",""
"522.0499999995809","","image-keyboard-response","514","559359","0.0-6.0-0.98","","img/grey.png","32","trial","32","true","0.8,0.2","1:go_a","",""
"null","","html-keyboard-response","515","560370","0.0-6.0-1.98","","<img src=""img/grey-n.png"" border=""10"">","null","trial","32","","0.8,0.2","1:go_a","0",""
"null","","html-keyboard-response","516","561376","0.0-6.0-2.98","","<div style=""font-size:60px;"">+</div>","null","","","","","","",""
"null","","image-keyboard-response","517","562879","0.0-6.0-0.99","","img/green.png","null","trial","null","true","0.2,0.8","4:nogo_d","",""
"null","","html-keyboard-response","518","563887","0.0-6.0-1.99","","<img src=""img/green-r.png"">","null","trial","null","","0.2,0.8","4:nogo_d","1",""
"null","","html-keyboard-response","519","564893","0.0-6.0-2.99","","<div style=""font-size:60px;"">+</div>","null","","","","","","",""
"null","","image-keyboard-response","520","566397","0.0-6.0-0.100","","img/green.png","null","trial","null","true","0.2,0.8","4:nogo_d","",""
"null","","html-keyboard-response","521","567404","0.0-6.0-1.100","","<img src=""img/green-n.png"">","null","trial","null","","0.2,0.8","4:nogo_d","0",""
"null","","html-keyboard-response","522","568411","0.0-6.0-2.100","","<div style=""font-size:60px;"">+</div>","null","","","","","","",""
"null","","image-keyboard-response","523","569925","0.0-6.0-0.101","","img/blue.png","null","trial","32","false","0.8,0.2","3:go_c","",""
"null","","html-keyboard-response","524","570933","0.0-6.0-1.101","","<img src=""img/blue-n.png"">","null","trial","32","","0.8,0.2","3:go_c","0",""
"null","","html-keyboard-response","525","571934","0.0-6.0-2.101","","<div style=""font-size:60px;"">+</div>","null","","","","","","",""
"null","","image-keyboard-response","526","573441","0.0-6.0-0.102","","img/red.png","null","trial","null","true","0.2,0.8","2:nogo_b","",""
"null","","html-keyboard-response","527","574450","0.0-6.0-1.102","","<img src=""img/red-r.png"">","null","trial","null","","0.2,0.8","2:nogo_b","1",""
"null","","html-keyboard-response","528","575456","0.0-6.0-2.102","","<div style=""font-size:60px;"">+</div>","null","","","","","","",""
"442.0500000123866","","image-keyboard-response","529","575899","0.0-6.0-0.103","","img/grey.png","32","trial","32","true","0.8,0.2","1:go_a","",""
"null","","html-keyboard-response","530","576906","0.0-6.0-1.103","","<img src=""img/grey-r.png"" border=""10"">","null","trial","32","","0.8,0.2","1:go_a","1",""
"null","","html-keyboard-response","531","577915","0.0-6.0-2.103","","<div style=""font-size:60px;"">+</div>","null","","","","","","",""
"651.2649999931455","","image-keyboard-response","532","578567","0.0-6.0-0.104","","img/red.png","32","trial","null","false","0.2,0.8","2:nogo_b","",""
"null","","html-keyboard-response","533","579574","0.0-6.0-1.104","","<img src=""img/red-n.png"" border=""10"">","null","trial","null","","0.2,0.8","2:nogo_b","0",""
"null","","html-keyboard-response","534","580578","0.0-6.0-2.104","","<div style=""font-size:60px;"">+</div>","null","","","","","","",""
"null","","image-keyboard-response","535","582094","0.0-6.0-0.105","","img/green.png","null","trial","null","true","0.2,0.8","4:nogo_d","",""
"null","","html-keyboard-response","536","583101","0.0-6.0-1.105","","<img src=""img/green-r.png"">","null","trial","null","","0.2,0.8","4:nogo_d","1",""
"null","","html-keyboard-response","537","584102","0.0-6.0-2.105","","<div style=""font-size:60px;"">+</div>","null","","","","","","",""
"null","","image-keyboard-response","538","585609","0.0-6.0-0.106","","img/blue.png","null","trial","32","false","0.8,0.2","3:go_c","",""
"null","","html-keyboard-response","539","586613","0.0-6.0-1.106","","<img src=""img/blue-n.png"">","null","trial","32","","0.8,0.2","3:go_c","0",""
"null","","html-keyboard-response","540","587619","0.0-6.0-2.106","","<div style=""font-size:60px;"">+</div>","null","","","","","","",""
"567.0049999898765","","image-keyboard-response","541","588186","0.0-6.0-0.107","","img/grey.png","32","trial","32","true","0.8,0.2","1:go_a","",""
"null","","html-keyboard-response","542","589202","0.0-6.0-1.107","","<img src=""img/grey-r.png"" border=""10"">","null","trial","32","","0.8,0.2","1:go_a","1",""
"null","","html-keyboard-response","543","590209","0.0-6.0-2.107","","<div style=""font-size:60px;"">+</div>","null","","","","","","",""
"424.9249999993481","","image-keyboard-response","544","590634","0.0-6.0-0.108","","img/red.png","32","trial","null","false","0.2,0.8","2:nogo_b","",""
"null","","html-keyboard-response","545","591643","0.0-6.0-1.108","","<img src=""img/red-n.png"" border=""10"">","null","trial","null","","0.2,0.8","2:nogo_b","0",""
"null","","html-keyboard-response","546","592650","0.0-6.0-2.108","","<div style=""font-size:60px;"">+</div>","null","","","","","","",""
"579.8249999934342","","image-keyboard-response","547","593230","0.0-6.0-0.109","","img/grey.png","32","trial","32","true","0.8,0.2","1:go_a","",""
"null","","html-keyboard-response","548","594233","0.0-6.0-1.109","","<img src=""img/grey-r.png"" border=""10"">","null","trial","32","","0.8,0.2","1:go_a","1",""
"null","","html-keyboard-response","549","595237","0.0-6.0-2.109","","<div style=""font-size:60px;"">+</div>","null","","","","","","",""
"null","","image-keyboard-response","550","596740","0.0-6.0-0.110","","img/green.png","null","trial","null","true","0.2,0.8","4:nogo_d","",""
"null","","html-keyboard-response","551","597747","0.0-6.0-1.110","","<img src=""img/green-r.png"">","null","trial","null","","0.2,0.8","4:nogo_d","1",""
"null","","html-keyboard-response","552","598753","0.0-6.0-2.110","","<div style=""font-size:60px;"">+</div>","null","","","","","","",""
"null","","image-keyboard-response","553","600255","0.0-6.0-0.111","","img/blue.png","null","trial","32","false","0.8,0.2","3:go_c","",""
"null","","html-keyboard-response","554","601262","0.0-6.0-1.111","","<img src=""img/blue-r.png"">","null","trial","32","","0.8,0.2","3:go_c","1",""
"null","","html-keyboard-response","555","602270","0.0-6.0-2.111","","<div style=""font-size:60px;"">+</div>","null","","","","","","",""
"null","","image-keyboard-response","556","603783","0.0-6.0-0.112","","img/blue.png","null","trial","32","false","0.8,0.2","3:go_c","",""
"null","","html-keyboard-response","557","604786","0.0-6.0-1.112","","<img src=""img/blue-n.png"">","null","trial","32","","0.8,0.2","3:go_c","0",""
"null","","html-keyboard-response","558","605795","0.0-6.0-2.112","","<div style=""font-size:60px;"">+</div>","null","","","","","","",""
"564.2200000002049","","image-keyboard-response","559","606360","0.0-6.0-0.113","","img/grey.png","32","trial","32","true","0.8,0.2","1:go_a","",""
"null","","html-keyboard-response","560","607362","0.0-6.0-1.113","","<img src=""img/grey-r.png"" border=""10"">","null","trial","32","","0.8,0.2","1:go_a","1",""
"null","","html-keyboard-response","561","608368","0.0-6.0-2.113","","<div style=""font-size:60px;"">+</div>","null","","","","","","",""
"720.5549999780487","","image-keyboard-response","562","609089","0.0-6.0-0.114","","img/red.png","32","trial","null","false","0.2,0.8","2:nogo_b","",""
"null","","html-keyboard-response","563","610092","0.0-6.0-1.114","","<img src=""img/red-n.png"" border=""10"">","null","trial","null","","0.2,0.8","2:nogo_b","0",""
"null","","html-keyboard-response","564","611098","0.0-6.0-2.114","","<div style=""font-size:60px;"">+</div>","null","","","","","","",""
"1079.4049999967683","","image-keyboard-response","565","612178","0.0-6.0-0.115","","img/green.png","32","trial","null","false","0.2,0.8","4:nogo_d","",""
"null","","html-keyboard-response","566","613192","0.0-6.0-1.115","","<img src=""img/green-r.png"" border=""10"">","null","trial","null","","0.2,0.8","4:nogo_d","1",""
"null","","html-keyboard-response","567","614198","0.0-6.0-2.115","","<div style=""font-size:60px;"">+</div>","null","","","","","","",""
"null","","image-keyboard-response","568","615699","0.0-6.0-0.116","","img/blue.png","null","trial","32","false","0.8,0.2","3:go_c","",""
"null","","html-keyboard-response","569","616703","0.0-6.0-1.116","","<img src=""img/blue-n.png"">","null","trial","32","","0.8,0.2","3:go_c","0",""
"null","","html-keyboard-response","570","617710","0.0-6.0-2.116","","<div style=""font-size:60px;"">+</div>","null","","","","","","",""
"673.8900000054855","","image-keyboard-response","571","618385","0.0-6.0-0.117","","img/red.png","32","trial","null","false","0.2,0.8","2:nogo_b","",""
"null","","html-keyboard-response","572","619390","0.0-6.0-1.117","","<img src=""img/red-n.png"" border=""10"">","null","trial","null","","0.2,0.8","2:nogo_b","0",""
"null","","html-keyboard-response","573","620396","0.0-6.0-2.117","","<div style=""font-size:60px;"">+</div>","null","","","","","","",""
"455.5499999842141","","image-keyboard-response","574","620852","0.0-6.0-0.118","","img/grey.png","32","trial","32","true","0.8,0.2","1:go_a","",""
"null","","html-keyboard-response","575","621866","0.0-6.0-1.118","","<img src=""img/grey-r.png"" border=""10"">","null","trial","32","","0.8,0.2","1:go_a","1",""
"null","","html-keyboard-response","576","622871","0.0-6.0-2.118","","<div style=""font-size:60px;"">+</div>","null","","","","","","",""
"868.8400000100955","","image-keyboard-response","577","623740","0.0-6.0-0.119","","img/green.png","32","trial","null","false","0.2,0.8","4:nogo_d","",""
"null","","html-keyboard-response","578","624753","0.0-6.0-1.119","","<img src=""img/green-n.png"" border=""10"">","null","trial","null","","0.2,0.8","4:nogo_d","0",""
"null","","html-keyboard-response","579","625761","0.0-6.0-2.119","","<div style=""font-size:60px;"">+</div>","null","","","","","","",""
"2974.4100000243634","","instructions","580","628736","0.0-7.0","[{""page_index"":0,""viewing_time"":2974.2850000038743}]","","","","","","","","",""
"790.2699999976903","","image-keyboard-response","581","629527","0.0-8.0-0.0","","img/blue.png","32","trial","32","true","0.6,0.4","3:go_c","",""
"null","","html-keyboard-response","582","630538","0.0-8.0-1.0","","<img src=""img/blue-n.png"" border=""10"">","null","trial","32","","0.6,0.4","3:go_c","0",""
"null","","html-keyboard-response","583","631540","0.0-8.0-2.0","","<div style=""font-size:60px;"">+</div>","null","","","","","","",""
"476.10500000882894","","image-keyboard-response","584","632017","0.0-8.0-0.1","","img/green.png","32","trial","null","false","0.4,0.6","4:nogo_d","",""
"null","","html-keyboard-response","585","633028","0.0-8.0-1.1","","<img src=""img/green-r.png"" border=""10"">","null","trial","null","","0.4,0.6","4:nogo_d","1",""
"null","","html-keyboard-response","586","634034","0.0-8.0-2.1","","<div style=""font-size:60px;"">+</div>","null","","","","","","",""
"567.3050000041258","","image-keyboard-response","587","634602","0.0-8.0-0.2","","img/orange.png","32","trial","32","true","0.6,0.4","1:go_a","",""
"null","","html-keyboard-response","588","635616","0.0-8.0-1.2","","<img src=""img/orange-n.png"" border=""10"">","null","trial","32","","0.6,0.4","1:go_a","0",""
"null","","html-keyboard-response","589","636620","0.0-8.0-2.2","","<div style=""font-size:60px;"">+</div>","null","","","","","","",""
"619.1049999906681","","image-keyboard-response","590","637240","0.0-8.0-0.3","","img/pink.png","32","trial","null","false","0.4,0.6","2:nogo_b","",""
"null","","html-keyboard-response","591","638246","0.0-8.0-1.3","","<img src=""img/pink-n.png"" border=""10"">","null","trial","null","","0.4,0.6","2:nogo_b","0",""
"null","","html-keyboard-response","592","639253","0.0-8.0-2.3","","<div style=""font-size:60px;"">+</div>","null","","","","","","",""
"611.0650000046007","","image-keyboard-response","593","639865","0.0-8.0-0.4","","img/green.png","32","trial","null","false","0.4,0.6","4:nogo_d","",""
"null","","html-keyboard-response","594","640882","0.0-8.0-1.4","","<img src=""img/green-n.png"" border=""10"">","null","trial","null","","0.4,0.6","4:nogo_d","0",""
"null","","html-keyboard-response","595","641889","0.0-8.0-2.4","","<div style=""font-size:60px;"">+</div>","null","","","","","","",""
"640.7900000049267","","image-keyboard-response","596","642531","0.0-8.0-0.5","","img/blue.png","32","trial","32","true","0.6,0.4","3:go_c","",""
"null","","html-keyboard-response","597","643536","0.0-8.0-1.5","","<img src=""img/blue-r.png"" border=""10"">","null","trial","32","","0.6,0.4","3:go_c","1",""
"null","","html-keyboard-response","598","644536","0.0-8.0-2.5","","<div style=""font-size:60px;"">+</div>","null","","","","","","",""
"682.5599999865517","","image-keyboard-response","599","645219","0.0-8.0-0.6","","img/pink.png","32","trial","null","false","0.4,0.6","2:nogo_b","",""
"null","","html-keyboard-response","600","646222","0.0-8.0-1.6","","<img src=""img/pink-n.png"" border=""10"">","null","trial","null","","0.4,0.6","2:nogo_b","0",""
"null","","html-keyboard-response","601","647228","0.0-8.0-2.6","","<div style=""font-size:60px;"">+</div>","null","","","","","","",""
"344.1049999964889","","image-keyboard-response","602","647572","0.0-8.0-0.7","","img/orange.png","32","trial","32","true","0.6,0.4","1:go_a","",""
"null","","html-keyboard-response","603","648586","0.0-8.0-1.7","","<img src=""img/orange-r.png"" border=""10"">","null","trial","32","","0.6,0.4","1:go_a","1",""
"null","","html-keyboard-response","604","649590","0.0-8.0-2.7","","<div style=""font-size:60px;"">+</div>","null","","","","","","",""
"492.19499999890104","","image-keyboard-response","605","650082","0.0-8.0-0.8","","img/blue.png","32","trial","32","true","0.6,0.4","3:go_c","",""
"null","","html-keyboard-response","606","651089","0.0-8.0-1.8","","<img src=""img/blue-r.png"" border=""10"">","null","trial","32","","0.6,0.4","3:go_c","1",""
"null","","html-keyboard-response","607","652095","0.0-8.0-2.8","","<div style=""font-size:60px;"">+</div>","null","","","","","","",""
"465.9899999969639","","image-keyboard-response","608","652562","0.0-8.0-0.9","","img/orange.png","32","trial","32","true","0.6,0.4","1:go_a","",""
"null","","html-keyboard-response","609","653567","0.0-8.0-1.9","","<img src=""img/orange-n.png"" border=""10"">","null","trial","32","","0.6,0.4","1:go_a","0",""
"null","","html-keyboard-response","610","654569","0.0-8.0-2.9","","<div style=""font-size:60px;"">+</div>","null","","","","","","",""
"437.75499999173917","","image-keyboard-response","611","655007","0.0-8.0-0.10","","img/pink.png","32","trial","null","false","0.4,0.6","2:nogo_b","",""
"null","","html-keyboard-response","612","656010","0.0-8.0-1.10","","<img src=""img/pink-r.png"" border=""10"">","null","trial","null","","0.4,0.6","2:nogo_b","1",""
"null","","html-keyboard-response","613","657019","0.0-8.0-2.10","","<div style=""font-size:60px;"">+</div>","null","","","","","","",""
"583.279999991646","","image-keyboard-response","614","657603","0.0-8.0-0.11","","img/green.png","32","trial","null","false","0.4,0.6","4:nogo_d","",""
"null","","html-keyboard-response","615","658614","0.0-8.0-1.11","","<img src=""img/green-r.png"" border=""10"">","null","trial","null","","0.4,0.6","4:nogo_d","1",""
"null","","html-keyboard-response","616","659619","0.0-8.0-2.11","","<div style=""font-size:60px;"">+</div>","null","","","","","","",""
"691.4549999928568","","image-keyboard-response","617","660311","0.0-8.0-0.12","","img/blue.png","32","trial","32","true","0.6,0.4","3:go_c","",""
"null","","html-keyboard-response","618","661324","0.0-8.0-1.12","","<img src=""img/blue-r.png"" border=""10"">","null","trial","32","","0.6,0.4","3:go_c","1",""
"null","","html-keyboard-response","619","662333","0.0-8.0-2.12","","<div style=""font-size:60px;"">+</div>","null","","","","","","",""
"823.4550000051968","","image-keyboard-response","620","663157","0.0-8.0-0.13","","img/green.png","32","trial","null","false","0.4,0.6","4:nogo_d","",""
"null","","html-keyboard-response","621","664171","0.0-8.0-1.13","","<img src=""img/green-r.png"" border=""10"">","null","trial","null","","0.4,0.6","4:nogo_d","1",""
"null","","html-keyboard-response","622","665174","0.0-8.0-2.13","","<div style=""font-size:60px;"">+</div>","null","","","","","","",""
"609.5649999915622","","image-keyboard-response","623","665785","0.0-8.0-0.14","","img/pink.png","32","trial","null","false","0.4,0.6","2:nogo_b","",""
"null","","html-keyboard-response","624","666789","0.0-8.0-1.14","","<img src=""img/pink-n.png"" border=""10"">","null","trial","null","","0.4,0.6","2:nogo_b","0",""
"null","","html-keyboard-response","625","667797","0.0-8.0-2.14","","<div style=""font-size:60px;"">+</div>","null","","","","","","",""
"780.5149999912828","","image-keyboard-response","626","668578","0.0-8.0-0.15","","img/orange.png","32","trial","32","true","0.6,0.4","1:go_a","",""
"null","","html-keyboard-response","627","669581","0.0-8.0-1.15","","<img src=""img/orange-r.png"" border=""10"">","null","trial","32","","0.6,0.4","1:go_a","1",""
"null","","html-keyboard-response","628","670597","0.0-8.0-2.15","","<div style=""font-size:60px;"">+</div>","null","","","","","","",""
"752.0799999765586","","image-keyboard-response","629","671350","0.0-8.0-0.16","","img/blue.png","32","trial","32","true","0.6,0.4","3:go_c","",""
"null","","html-keyboard-response","630","672356","0.0-8.0-1.16","","<img src=""img/blue-r.png"" border=""10"">","null","trial","32","","0.6,0.4","3:go_c","1",""
"null","","html-keyboard-response","631","673363","0.0-8.0-2.16","","<div style=""font-size:60px;"">+</div>","null","","","","","","",""
"528.2000000006519","","image-keyboard-response","632","673892","0.0-8.0-0.17","","img/green.png","32","trial","null","false","0.4,0.6","4:nogo_d","",""
"null","","html-keyboard-response","633","674895","0.0-8.0-1.17","","<img src=""img/green-n.png"" border=""10"">","null","trial","null","","0.4,0.6","4:nogo_d","0",""
"null","","html-keyboard-response","634","675902","0.0-8.0-2.17","","<div style=""font-size:60px;"">+</div>","null","","","","","","",""
"581.979999988107","","image-keyboard-response","635","676484","0.0-8.0-0.18","","img/pink.png","32","trial","null","false","0.4,0.6","2:nogo_b","",""
"null","","html-keyboard-response","636","677499","0.0-8.0-1.18","","<img src=""img/pink-n.png"" border=""10"">","null","trial","null","","0.4,0.6","2:nogo_b","0",""
"null","","html-keyboard-response","637","678505","0.0-8.0-2.18","","<div style=""font-size:60px;"">+</div>","null","","","","","","",""
"478.7899999937508","","image-keyboard-response","638","678984","0.0-8.0-0.19","","img/orange.png","32","trial","32","true","0.6,0.4","1:go_a","",""
"null","","html-keyboard-response","639","679989","0.0-8.0-1.19","","<img src=""img/orange-r.png"" border=""10"">","null","trial","32","","0.6,0.4","1:go_a","1",""
"null","","html-keyboard-response","640","680995","0.0-8.0-2.19","","<div style=""font-size:60px;"">+</div>","null","","","","","","",""
"479.38999999314547","","image-keyboard-response","641","681474","0.0-8.0-0.20","","img/blue.png","32","trial","32","true","0.6,0.4","3:go_c","",""
"null","","html-keyboard-response","642","682483","0.0-8.0-1.20","","<img src=""img/blue-r.png"" border=""10"">","null","trial","32","","0.6,0.4","3:go_c","1",""
"null","","html-keyboard-response","643","683488","0.0-8.0-2.20","","<div style=""font-size:60px;"">+</div>","null","","","","","","",""
"null","","image-keyboard-response","644","685003","0.0-8.0-0.21","","img/green.png","null","trial","null","true","0.4,0.6","4:nogo_d","",""
"null","","html-keyboard-response","645","686011","0.0-8.0-1.21","","<img src=""img/green-n.png"">","null","trial","null","","0.4,0.6","4:nogo_d","0",""
"null","","html-keyboard-response","646","687011","0.0-8.0-2.21","","<div style=""font-size:60px;"">+</div>","null","","","","","","",""
"1058.404999988852","","image-keyboard-response","647","688070","0.0-8.0-0.22","","img/pink.png","32","trial","null","false","0.4,0.6","2:nogo_b","",""
"null","","html-keyboard-response","648","689075","0.0-8.0-1.22","","<img src=""img/pink-n.png"" border=""10"">","null","trial","null","","0.4,0.6","2:nogo_b","0",""
"null","","html-keyboard-response","649","690079","0.0-8.0-2.22","","<div style=""font-size:60px;"">+</div>","null","","","","","","",""
"470.10500001488253","","image-keyboard-response","650","690550","0.0-8.0-0.23","","img/orange.png","32","trial","32","true","0.6,0.4","1:go_a","",""
"null","","html-keyboard-response","651","691565","0.0-8.0-1.23","","<img src=""img/orange-r.png"" border=""10"">","null","trial","32","","0.6,0.4","1:go_a","1",""
"null","","html-keyboard-response","652","692571","0.0-8.0-2.23","","<div style=""font-size:60px;"">+</div>","null","","","","","","",""
"550.4950000031386","","image-keyboard-response","653","693122","0.0-8.0-0.24","","img/orange.png","32","trial","32","true","0.6,0.4","1:go_a","",""
"null","","html-keyboard-response","654","694137","0.0-8.0-1.24","","<img src=""img/orange-r.png"" border=""10"">","null","trial","32","","0.6,0.4","1:go_a","1",""
"null","","html-keyboard-response","655","695142","0.0-8.0-2.24","","<div style=""font-size:60px;"">+</div>","null","","","","","","",""
"407.01999998418614","","image-keyboard-response","656","695550","0.0-8.0-0.25","","img/blue.png","32","trial","32","true","0.6,0.4","3:go_c","",""
"null","","html-keyboard-response","657","696563","0.0-8.0-1.25","","<img src=""img/blue-r.png"" border=""10"">","null","trial","32","","0.6,0.4","3:go_c","1",""
"null","","html-keyboard-response","658","697570","0.0-8.0-2.25","","<div style=""font-size:60px;"">+</div>","null","","","","","","",""
"763.9600000111386","","image-keyboard-response","659","698335","0.0-8.0-0.26","","img/pink.png","32","trial","null","false","0.4,0.6","2:nogo_b","",""
"null","","html-keyboard-response","660","699344","0.0-8.0-1.26","","<img src=""img/pink-n.png"" border=""10"">","null","trial","null","","0.4,0.6","2:nogo_b","0",""
"null","","html-keyboard-response","661","700349","0.0-8.0-2.26","","<div style=""font-size:60px;"">+</div>","null","","","","","","",""
"null","","image-keyboard-response","662","701864","0.0-8.0-0.27","","img/green.png","null","trial","null","true","0.4,0.6","4:nogo_d","",""
"null","","html-keyboard-response","663","702871","0.0-8.0-1.27","","<img src=""img/green-n.png"">","null","trial","null","","0.4,0.6","4:nogo_d","0",""
"null","","html-keyboard-response","664","703875","0.0-8.0-2.27","","<div style=""font-size:60px;"">+</div>","null","","","","","","",""
"633.67000001017","","image-keyboard-response","665","704510","0.0-8.0-0.28","","img/orange.png","32","trial","32","true","0.6,0.4","1:go_a","",""
"null","","html-keyboard-response","666","705521","0.0-8.0-1.28","","<img src=""img/orange-n.png"" border=""10"">","null","trial","32","","0.6,0.4","1:go_a","0",""
"null","","html-keyboard-response","667","706527","0.0-8.0-2.28","","<div style=""font-size:60px;"">+</div>","null","","","","","","",""
"null","","image-keyboard-response","668","708029","0.0-8.0-0.29","","img/pink.png","null","trial","null","true","0.4,0.6","2:nogo_b","",""
"null","","html-keyboard-response","669","709037","0.0-8.0-1.29","","<img src=""img/pink-n.png"">","null","trial","null","","0.4,0.6","2:nogo_b","0",""
"null","","html-keyboard-response","670","710044","0.0-8.0-2.29","","<div style=""font-size:60px;"">+</div>","null","","","","","","",""
"556.3400000100955","","image-keyboard-response","671","710600","0.0-8.0-0.30","","img/blue.png","32","trial","32","true","0.6,0.4","3:go_c","",""
"null","","html-keyboard-response","672","711610","0.0-8.0-1.30","","<img src=""img/blue-n.png"" border=""10"">","null","trial","32","","0.6,0.4","3:go_c","0",""
"null","","html-keyboard-response","673","712616","0.0-8.0-2.30","","<div style=""font-size:60px;"">+</div>","null","","","","","","",""
"null","","image-keyboard-response","674","714118","0.0-8.0-0.31","","img/green.png","null","trial","null","true","0.4,0.6","4:nogo_d","",""
