"rt","url","trial_type","trial_index","time_elapsed","internal_node_id","view_history","stimulus","key_press","test_part","correct_response","correct","use_rew","which_stim","reward","responses"
"47883.20999999996","consent.html","external-html","0","48108","0.0-0.0","","","","","","","","","",""
"284741.70500000037","","instructions","1","332850","0.0-1.0","[{""page_index"":0,""viewing_time"":20244.480000001204},{""page_index"":1,""viewing_time"":56035.81000000122},{""page_index"":2,""viewing_time"":23111.884999998438},{""page_index"":3,""viewing_time"":77056.97499999951},{""page_index"":4,""viewing_time"":67374.83000000066},{""page_index"":5,""viewing_time"":19890.050000001793},{""page_index"":6,""viewing_time"":21026.975000000675}]","","","","","","","","",""
"499.7799999982817","","image-keyboard-response","2","333352","0.0-2.0-0.0","","img/test1.PNG","32","practice","32","true","","","",""
"null","","html-keyboard-response","3","334366","0.0-2.0-1.0","","<img src=""img/test1-reward.PNG"" border=""10px; grey"">","null","","","","","","",""
"null","","html-keyboard-response","4","335367","0.0-2.0-2.0","","<div style=""font-size:60px;"">+</div>","null","","","","","","",""
"null","","image-keyboard-response","5","336881","0.0-2.0-0.1","","img/test2.PNG","null","practice","null","true","","","",""
"null","","html-keyboard-response","6","337895","0.0-2.0-1.1","","<img src=""img/test2-reward.PNG"">","null","","","","","","",""
"null","","html-keyboard-response","7","338900","0.0-2.0-2.1","","<div style=""font-size:60px;"">+</div>","null","","","","","","",""
"null","","image-keyboard-response","8","340417","0.0-2.0-0.2","","img/test3.PNG","null","practice","null","true","","","",""
"null","","html-keyboard-response","9","341433","0.0-2.0-1.2","","<img src=""img/test3-reward.PNG"">","null","","","","","","",""
"null","","html-keyboard-response","10","342446","0.0-2.0-2.2","","<div style=""font-size:60px;"">+</div>","null","","","","","","",""
"null","","image-keyboard-response","11","343949","0.0-2.0-0.3","","img/test3.PNG","null","practice","null","true","","","",""
"null","","html-keyboard-response","12","344957","0.0-2.0-1.3","","<img src=""img/test3-reward.PNG"">","null","","","","","","",""
"null","","html-keyboard-response","13","345973","0.0-2.0-2.3","","<div style=""font-size:60px;"">+</div>","null","","","","","","",""
"null","","image-keyboard-response","14","347483","0.0-2.0-0.4","","img/test2.PNG","null","practice","null","true","","","",""
"null","","html-keyboard-response","15","348496","0.0-2.0-1.4","","<img src=""img/test2-reward.PNG"">","null","","","","","","",""
"null","","html-keyboard-response","16","349499","0.0-2.0-2.4","","<div style=""font-size:60px;"">+</div>","null","","","","","","",""
"400.41500000370434","","image-keyboard-response","17","349902","0.0-2.0-0.5","","img/test1.PNG","32","practice","32","true","","","",""
"null","","html-keyboard-response","18","350914","0.0-2.0-1.5","","<img src=""img/test1-reward.PNG"" border=""10px; grey"">","null","","","","","","",""
"null","","html-keyboard-response","19","351916","0.0-2.0-2.5","","<div style=""font-size:60px;"">+</div>","null","","","","","","",""
"560.910000000149","","image-keyboard-response","20","352479","0.0-2.0-0.6","","img/test1.PNG","32","practice","32","true","","","",""
"null","","html-keyboard-response","21","353480","0.0-2.0-1.6","","<img src=""img/test1-reward.PNG"" border=""10px; grey"">","null","","","","","","",""
"null","","html-keyboard-response","22","354481","0.0-2.0-2.6","","<div style=""font-size:60px;"">+</div>","null","","","","","","",""
"null","","image-keyboard-response","23","355993","0.0-2.0-0.7","","img/test3.PNG","null","practice","null","true","","","",""
"null","","html-keyboard-response","24","356998","0.0-2.0-1.7","","<img src=""img/test3-reward.PNG"">","null","","","","","","",""
"null","","html-keyboard-response","25","358011","0.0-2.0-2.7","","<div style=""font-size:60px;"">+</div>","null","","","","","","",""
"null","","image-keyboard-response","26","359519","0.0-2.0-0.8","","img/test2.PNG","null","practice","null","true","","","",""
"null","","html-keyboard-response","27","360530","0.0-2.0-1.8","","<img src=""img/test2-reward.PNG"">","null","","","","","","",""
"null","","html-keyboard-response","28","361540","0.0-2.0-2.8","","<div style=""font-size:60px;"">+</div>","null","","","","","","",""
"400.5399999950896","","image-keyboard-response","29","361943","0.0-2.0-0.9","","img/test1.PNG","32","practice","32","true","","","",""
"null","","html-keyboard-response","30","362945","0.0-2.0-1.9","","<img src=""img/test1-reward.PNG"" border=""10px; grey"">","null","","","","","","",""
"null","","html-keyboard-response","31","363953","0.0-2.0-2.9","","<div style=""font-size:60px;"">+</div>","null","","","","","","",""
"null","","image-keyboard-response","32","365458","0.0-2.0-0.10","","img/test3.PNG","null","practice","null","true","","","",""
"null","","html-keyboard-response","33","366460","0.0-2.0-1.10","","<img src=""img/test3-reward.PNG"">","null","","","","","","",""
"null","","html-keyboard-response","34","367475","0.0-2.0-2.10","","<div style=""font-size:60px;"">+</div>","null","","","","","","",""
"null","","image-keyboard-response","35","368984","0.0-2.0-0.11","","img/test2.PNG","null","practice","null","true","","","",""
"null","","html-keyboard-response","36","369999","0.0-2.0-1.11","","<img src=""img/test2-reward.PNG"">","null","","","","","","",""
"null","","html-keyboard-response","37","371003","0.0-2.0-2.11","","<div style=""font-size:60px;"">+</div>","null","","","","","","",""
"22966.175000001385","","instructions","38","393971","0.0-3.0","[{""page_index"":0,""viewing_time"":22966.00999999646}]","","","","","","","","",""
"459.1199999995297","","image-keyboard-response","39","394431","0.0-4.0-0.0","","img/green.png","32","trial","32","true","0.8,0.2","1:go_a","",""
"null","","html-keyboard-response","40","395437","0.0-4.0-1.0","","<img src=""img/green-r.png"" border=""10"">","null","trial","32","","0.8,0.2","1:go_a","1",""
"null","","html-keyboard-response","41","396448","0.0-4.0-2.0","","<div style=""font-size:60px;"">+</div>","null","","","","","","",""
"null","","image-keyboard-response","42","397955","0.0-4.0-0.1","","img/orange.png","null","trial","null","true","0.2,0.8","2:nogo_b","",""
"null","","html-keyboard-response","43","398967","0.0-4.0-1.1","","<img src=""img/orange-r.png"">","null","trial","null","","0.2,0.8","2:nogo_b","1",""
"null","","html-keyboard-response","44","399980","0.0-4.0-2.1","","<div style=""font-size:60px;"">+</div>","null","","","","","","",""
"null","","image-keyboard-response","45","401490","0.0-4.0-0.2","","img/orange.png","null","trial","null","true","0.2,0.8","2:nogo_b","",""
"null","","html-keyboard-response","46","402504","0.0-4.0-1.2","","<img src=""img/orange-r.png"">","null","trial","null","","0.2,0.8","2:nogo_b","1",""
"null","","html-keyboard-response","47","403516","0.0-4.0-2.2","","<div style=""font-size:60px;"">+</div>","null","","","","","","",""
"393.68500000273343","","image-keyboard-response","48","403911","0.0-4.0-0.3","","img/green.png","32","trial","32","true","0.8,0.2","1:go_a","",""
"null","","html-keyboard-response","49","404920","0.0-4.0-1.3","","<img src=""img/green-r.png"" border=""10"">","null","trial","32","","0.8,0.2","1:go_a","1",""
"null","","html-keyboard-response","50","405931","0.0-4.0-2.3","","<div style=""font-size:60px;"">+</div>","null","","","","","","",""
"489.7750000018277","","image-keyboard-response","51","406423","0.0-4.0-0.4","","img/green.png","32","trial","32","true","0.8,0.2","1:go_a","",""
"null","","html-keyboard-response","52","407439","0.0-4.0-1.4","","<img src=""img/green-r.png"" border=""10"">","null","trial","32","","0.8,0.2","1:go_a","1",""
"null","","html-keyboard-response","53","408441","0.0-4.0-2.4","","<div style=""font-size:60px;"">+</div>","null","","","","","","",""
"null","","image-keyboard-response","54","409945","0.0-4.0-0.5","","img/orange.png","null","trial","null","true","0.2,0.8","2:nogo_b","",""
"null","","html-keyboard-response","55","410960","0.0-4.0-1.5","","<img src=""img/orange-r.png"">","null","trial","null","","0.2,0.8","2:nogo_b","1",""
"null","","html-keyboard-response","56","411975","0.0-4.0-2.5","","<div style=""font-size:60px;"">+</div>","null","","","","","","",""
"365.51999999937834","","image-keyboard-response","57","412342","0.0-4.0-0.6","","img/green.png","32","trial","32","true","0.8,0.2","1:go_a","",""
"null","","html-keyboard-response","58","413361","0.0-4.0-1.6","","<img src=""img/green-r.png"" border=""10"">","null","trial","32","","0.8,0.2","1:go_a","1",""
"null","","html-keyboard-response","59","414374","0.0-4.0-2.6","","<div style=""font-size:60px;"">+</div>","null","","","","","","",""
"null","","image-keyboard-response","60","415877","0.0-4.0-0.7","","img/orange.png","null","trial","null","true","0.2,0.8","2:nogo_b","",""
"null","","html-keyboard-response","61","416893","0.0-4.0-1.7","","<img src=""img/orange-r.png"">","null","trial","null","","0.2,0.8","2:nogo_b","1",""
"null","","html-keyboard-response","62","417906","0.0-4.0-2.7","","<div style=""font-size:60px;"">+</div>","null","","","","","","",""
"379.37500000407454","","image-keyboard-response","63","418287","0.0-4.0-0.8","","img/green.png","32","trial","32","true","0.8,0.2","1:go_a","",""
"null","","html-keyboard-response","64","419301","0.0-4.0-1.8","","<img src=""img/green-r.png"" border=""10"">","null","trial","32","","0.8,0.2","1:go_a","1",""
"null","","html-keyboard-response","65","420316","0.0-4.0-2.8","","<div style=""font-size:60px;"">+</div>","null","","","","","","",""
"null","","image-keyboard-response","66","421829","0.0-4.0-0.9","","img/orange.png","null","trial","null","true","0.2,0.8","2:nogo_b","",""
"null","","html-keyboard-response","67","422833","0.0-4.0-1.9","","<img src=""img/orange-r.png"">","null","trial","null","","0.2,0.8","2:nogo_b","1",""
"null","","html-keyboard-response","68","423849","0.0-4.0-2.9","","<div style=""font-size:60px;"">+</div>","null","","","","","","",""
"null","","image-keyboard-response","69","425365","0.0-4.0-0.10","","img/orange.png","null","trial","null","true","0.2,0.8","2:nogo_b","",""
"null","","html-keyboard-response","70","426379","0.0-4.0-1.10","","<img src=""img/orange-r.png"">","null","trial","null","","0.2,0.8","2:nogo_b","1",""
"null","","html-keyboard-response","71","427386","0.0-4.0-2.10","","<div style=""font-size:60px;"">+</div>","null","","","","","","",""
"490.4050000041025","","image-keyboard-response","72","427878","0.0-4.0-0.11","","img/green.png","32","trial","32","true","0.8,0.2","1:go_a","",""
"null","","html-keyboard-response","73","428890","0.0-4.0-1.11","","<img src=""img/green-r.png"" border=""10"">","null","trial","32","","0.8,0.2","1:go_a","1",""
"null","","html-keyboard-response","74","429893","0.0-4.0-2.11","","<div style=""font-size:60px;"">+</div>","null","","","","","","",""
"583.5549999974319","","image-keyboard-response","75","430479","0.0-4.0-0.12","","img/green.png","32","trial","32","true","0.8,0.2","1:go_a","",""
"null","","html-keyboard-response","76","431495","0.0-4.0-1.12","","<img src=""img/green-r.png"" border=""10"">","null","trial","32","","0.8,0.2","1:go_a","1",""
"null","","html-keyboard-response","77","432502","0.0-4.0-2.12","","<div style=""font-size:60px;"">+</div>","null","","","","","","",""
"null","","image-keyboard-response","78","434010","0.0-4.0-0.13","","img/orange.png","null","trial","null","true","0.2,0.8","2:nogo_b","",""
"null","","html-keyboard-response","79","435023","0.0-4.0-1.13","","<img src=""img/orange-r.png"">","null","trial","null","","0.2,0.8","2:nogo_b","1",""
"null","","html-keyboard-response","80","436034","0.0-4.0-2.13","","<div style=""font-size:60px;"">+</div>","null","","","","","","",""
"410.23499999573687","","image-keyboard-response","81","436446","0.0-4.0-0.14","","img/green.png","32","trial","32","true","0.8,0.2","1:go_a","",""
"null","","html-keyboard-response","82","437464","0.0-4.0-1.14","","<img src=""img/green-r.png"" border=""10"">","null","trial","32","","0.8,0.2","1:go_a","1",""
"null","","html-keyboard-response","83","438480","0.0-4.0-2.14","","<div style=""font-size:60px;"">+</div>","null","","","","","","",""
"null","","image-keyboard-response","84","439989","0.0-4.0-0.15","","img/orange.png","null","trial","null","true","0.2,0.8","2:nogo_b","",""
"null","","html-keyboard-response","85","441004","0.0-4.0-1.15","","<img src=""img/orange-r.png"">","null","trial","null","","0.2,0.8","2:nogo_b","1",""
"null","","html-keyboard-response","86","442018","0.0-4.0-2.15","","<div style=""font-size:60px;"">+</div>","null","","","","","","",""
"418.6249999984284","","image-keyboard-response","87","442439","0.0-4.0-0.16","","img/green.png","32","trial","32","true","0.8,0.2","1:go_a","",""
"null","","html-keyboard-response","88","443454","0.0-4.0-1.16","","<img src=""img/green-r.png"" border=""10"">","null","trial","32","","0.8,0.2","1:go_a","1",""
"null","","html-keyboard-response","89","444465","0.0-4.0-2.16","","<div style=""font-size:60px;"">+</div>","null","","","","","","",""
"null","","image-keyboard-response","90","445976","0.0-4.0-0.17","","img/orange.png","null","trial","null","true","0.2,0.8","2:nogo_b","",""
"null","","html-keyboard-response","91","446990","0.0-4.0-1.17","","<img src=""img/orange-r.png"">","null","trial","null","","0.2,0.8","2:nogo_b","1",""
"null","","html-keyboard-response","92","448007","0.0-4.0-2.17","","<div style=""font-size:60px;"">+</div>","null","","","","","","",""
"null","","image-keyboard-response","93","449516","0.0-4.0-0.18","","img/orange.png","null","trial","null","true","0.2,0.8","2:nogo_b","",""
"null","","html-keyboard-response","94","450528","0.0-4.0-1.18","","<img src=""img/orange-r.png"">","null","trial","null","","0.2,0.8","2:nogo_b","1",""
"null","","html-keyboard-response","95","451537","0.0-4.0-2.18","","<div style=""font-size:60px;"">+</div>","null","","","","","","",""
"403.3500000005006","","image-keyboard-response","96","451942","0.0-4.0-0.19","","img/green.png","32","trial","32","true","0.8,0.2","1:go_a","",""
"null","","html-keyboard-response","97","452953","0.0-4.0-1.19","","<img src=""img/green-r.png"" border=""10"">","null","trial","32","","0.8,0.2","1:go_a","1",""
"null","","html-keyboard-response","98","453964","0.0-4.0-2.19","","<div style=""font-size:60px;"">+</div>","null","","","","","","",""
"481.44499999762047","","image-keyboard-response","99","454447","0.0-4.0-0.20","","img/green.png","32","trial","32","true","0.8,0.2","1:go_a","",""
"null","","html-keyboard-response","100","455455","0.0-4.0-1.20","","<img src=""img/green-r.png"" border=""10"">","null","trial","32","","0.8,0.2","1:go_a","1",""
"null","","html-keyboard-response","101","456464","0.0-4.0-2.20","","<div style=""font-size:60px;"">+</div>","null","","","","","","",""
"null","","image-keyboard-response","102","457977","0.0-4.0-0.21","","img/orange.png","null","trial","null","true","0.2,0.8","2:nogo_b","",""
"null","","html-keyboard-response","103","458991","0.0-4.0-1.21","","<img src=""img/orange-r.png"">","null","trial","null","","0.2,0.8","2:nogo_b","1",""
"null","","html-keyboard-response","104","459995","0.0-4.0-2.21","","<div style=""font-size:60px;"">+</div>","null","","","","","","",""
"561.2850000034086","","image-keyboard-response","105","460558","0.0-4.0-0.22","","img/green.png","32","trial","32","true","0.8,0.2","1:go_a","",""
"null","","html-keyboard-response","106","461570","0.0-4.0-1.22","","<img src=""img/green-r.png"" border=""10"">","null","trial","32","","0.8,0.2","1:go_a","1",""
"null","","html-keyboard-response","107","462578","0.0-4.0-2.22","","<div style=""font-size:60px;"">+</div>","null","","","","","","",""
"null","","image-keyboard-response","108","464091","0.0-4.0-0.23","","img/orange.png","null","trial","null","true","0.2,0.8","2:nogo_b","",""
"null","","html-keyboard-response","109","465105","0.0-4.0-1.23","","<img src=""img/orange-r.png"">","null","trial","null","","0.2,0.8","2:nogo_b","1",""
"null","","html-keyboard-response","110","466116","0.0-4.0-2.23","","<div style=""font-size:60px;"">+</div>","null","","","","","","",""
"425.28000000311295","","image-keyboard-response","111","466543","0.0-4.0-0.24","","img/green.png","32","trial","32","true","0.8,0.2","1:go_a","",""
"null","","html-keyboard-response","112","467554","0.0-4.0-1.24","","<img src=""img/green-r.png"" border=""10"">","null","trial","32","","0.8,0.2","1:go_a","1",""
"null","","html-keyboard-response","113","468565","0.0-4.0-2.24","","<div style=""font-size:60px;"">+</div>","null","","","","","","",""
"null","","image-keyboard-response","114","470068","0.0-4.0-0.25","","img/orange.png","null","trial","null","true","0.2,0.8","2:nogo_b","",""
"null","","html-keyboard-response","115","471075","0.0-4.0-1.25","","<img src=""img/orange-r.png"">","null","trial","null","","0.2,0.8","2:nogo_b","1",""
"null","","html-keyboard-response","116","472090","0.0-4.0-2.25","","<div style=""font-size:60px;"">+</div>","null","","","","","","",""
"418.534999997064","","image-keyboard-response","117","472510","0.0-4.0-0.26","","img/green.png","32","trial","32","true","0.8,0.2","1:go_a","",""
"null","","html-keyboard-response","118","473527","0.0-4.0-1.26","","<img src=""img/green-r.png"" border=""10"">","null","trial","32","","0.8,0.2","1:go_a","1",""
"null","","html-keyboard-response","119","474540","0.0-4.0-2.26","","<div style=""font-size:60px;"">+</div>","null","","","","","","",""
"null","","image-keyboard-response","120","476044","0.0-4.0-0.27","","img/orange.png","null","trial","null","true","0.2,0.8","2:nogo_b","",""
"null","","html-keyboard-response","121","477058","0.0-4.0-1.27","","<img src=""img/orange-r.png"">","null","trial","null","","0.2,0.8","2:nogo_b","1",""
"null","","html-keyboard-response","122","478074","0.0-4.0-2.27","","<div style=""font-size:60px;"">+</div>","null","","","","","","",""
"null","","image-keyboard-response","123","479580","0.0-4.0-0.28","","img/orange.png","null","trial","null","true","0.2,0.8","2:nogo_b","",""
"null","","html-keyboard-response","124","480594","0.0-4.0-1.28","","<img src=""img/orange-r.png"">","null","trial","null","","0.2,0.8","2:nogo_b","1",""
"null","","html-keyboard-response","125","481610","0.0-4.0-2.28","","<div style=""font-size:60px;"">+</div>","null","","","","","","",""
"315.454999996291","","image-keyboard-response","126","481927","0.0-4.0-0.29","","img/green.png","32","trial","32","true","0.8,0.2","1:go_a","",""
"null","","html-keyboard-response","127","482931","0.0-4.0-1.29","","<img src=""img/green-r.png"" border=""10"">","null","trial","32","","0.8,0.2","1:go_a","1",""
"null","","html-keyboard-response","128","483933","0.0-4.0-2.29","","<div style=""font-size:60px;"">+</div>","null","","","","","","",""
"504.0850000004866","","image-keyboard-response","129","484438","0.0-4.0-0.30","","img/green.png","32","trial","32","true","0.8,0.2","1:go_a","",""
"null","","html-keyboard-response","130","485452","0.0-4.0-1.30","","<img src=""img/green-r.png"" border=""10"">","null","trial","32","","0.8,0.2","1:go_a","1",""
"null","","html-keyboard-response","131","486468","0.0-4.0-2.30","","<div style=""font-size:60px;"">+</div>","null","","","","","","",""
"null","","image-keyboard-response","132","487974","0.0-4.0-0.31","","img/orange.png","null","trial","null","true","0.2,0.8","2:nogo_b","",""
"null","","html-keyboard-response","133","488991","0.0-4.0-1.31","","<img src=""img/orange-r.png"">","null","trial","null","","0.2,0.8","2:nogo_b","1",""
"null","","html-keyboard-response","134","489996","0.0-4.0-2.31","","<div style=""font-size:60px;"">+</div>","null","","","","","","",""
"568.3149999968009","","image-keyboard-response","135","490566","0.0-4.0-0.32","","img/green.png","32","trial","32","true","0.8,0.2","1:go_a","",""
"null","","html-keyboard-response","136","491582","0.0-4.0-1.32","","<img src=""img/green-r.png"" border=""10"">","null","trial","32","","0.8,0.2","1:go_a","1",""
"null","","html-keyboard-response","137","492597","0.0-4.0-2.32","","<div style=""font-size:60px;"">+</div>","null","","","","","","",""
"null","","image-keyboard-response","138","494106","0.0-4.0-0.33","","img/orange.png","null","trial","null","true","0.2,0.8","2:nogo_b","",""
"null","","html-keyboard-response","139","495113","0.0-4.0-1.33","","<img src=""img/orange-r.png"">","null","trial","null","","0.2,0.8","2:nogo_b","1",""
"null","","html-keyboard-response","140","496119","0.0-4.0-2.33","","<div style=""font-size:60px;"">+</div>","null","","","","","","",""
"398.38500000041677","","image-keyboard-response","141","496519","0.0-4.0-0.34","","img/green.png","32","trial","32","true","0.8,0.2","1:go_a","",""
"null","","html-keyboard-response","142","497533","0.0-4.0-1.34","","<img src=""img/green-n.png"" border=""10"">","null","trial","32","","0.8,0.2","1:go_a","0",""
"null","","html-keyboard-response","143","498546","0.0-4.0-2.34","","<div style=""font-size:60px;"">+</div>","null","","","","","","",""
"null","","image-keyboard-response","144","500056","0.0-4.0-0.35","","img/orange.png","null","trial","null","true","0.2,0.8","2:nogo_b","",""
"null","","html-keyboard-response","145","501059","0.0-4.0-1.35","","<img src=""img/orange-r.png"">","null","trial","null","","0.2,0.8","2:nogo_b","1",""
"null","","html-keyboard-response","146","502075","0.0-4.0-2.35","","<div style=""font-size:60px;"">+</div>","null","","","","","","",""
"null","","image-keyboard-response","147","503580","0.0-4.0-0.36","","img/orange.png","null","trial","null","true","0.2,0.8","2:nogo_b","",""
"null","","html-keyboard-response","148","504596","0.0-4.0-1.36","","<img src=""img/orange-r.png"">","null","trial","null","","0.2,0.8","2:nogo_b","1",""
"null","","html-keyboard-response","149","505599","0.0-4.0-2.36","","<div style=""font-size:60px;"">+</div>","null","","","","","","",""
"357.8699999998207","","image-keyboard-response","150","505958","0.0-4.0-0.37","","img/green.png","32","trial","32","true","0.8,0.2","1:go_a","",""
"null","","html-keyboard-response","151","506964","0.0-4.0-1.37","","<img src=""img/green-r.png"" border=""10"">","null","trial","32","","0.8,0.2","1:go_a","1",""
"null","","html-keyboard-response","152","507968","0.0-4.0-2.37","","<div style=""font-size:60px;"">+</div>","null","","","","","","",""
"null","","image-keyboard-response","153","509477","0.0-4.0-0.38","","img/orange.png","null","trial","null","true","0.2,0.8","2:nogo_b","",""
"null","","html-keyboard-response","154","510480","0.0-4.0-1.38","","<img src=""img/orange-r.png"">","null","trial","null","","0.2,0.8","2:nogo_b","1",""
"null","","html-keyboard-response","155","511493","0.0-4.0-2.38","","<div style=""font-size:60px;"">+</div>","null","","","","","","",""
"384.4849999950384","","image-keyboard-response","156","511879","0.0-4.0-0.39","","img/green.png","32","trial","32","true","0.8,0.2","1:go_a","",""
"null","","html-keyboard-response","157","512890","0.0-4.0-1.39","","<img src=""img/green-r.png"" border=""10"">","null","trial","32","","0.8,0.2","1:go_a","1",""
"null","","html-keyboard-response","158","513903","0.0-4.0-2.39","","<div style=""font-size:60px;"">+</div>","null","","","","","","",""
"null","","image-keyboard-response","159","515413","0.0-4.0-0.40","","img/orange.png","null","trial","null","true","0.2,0.8","2:nogo_b","",""
"null","","html-keyboard-response","160","516426","0.0-4.0-1.40","","<img src=""img/orange-n.png"">","null","trial","null","","0.2,0.8","2:nogo_b","0",""
"null","","html-keyboard-response","161","517428","0.0-4.0-2.40","","<div style=""font-size:60px;"">+</div>","null","","","","","","",""
"481.09500000282424","","image-keyboard-response","162","517910","0.0-4.0-0.41","","img/green.png","32","trial","32","true","0.8,0.2","1:go_a","",""
"null","","html-keyboard-response","163","518918","0.0-4.0-1.41","","<img src=""img/green-r.png"" border=""10"">","null","trial","32","","0.8,0.2","1:go_a","1",""
"null","","html-keyboard-response","164","519932","0.0-4.0-2.41","","<div style=""font-size:60px;"">+</div>","null","","","","","","",""
"480.1950000037323","","image-keyboard-response","165","520414","0.0-4.0-0.42","","img/green.png","32","trial","32","true","0.8,0.2","1:go_a","",""
"null","","html-keyboard-response","166","521423","0.0-4.0-1.42","","<img src=""img/green-r.png"" border=""10"">","null","trial","32","","0.8,0.2","1:go_a","1",""
"null","","html-keyboard-response","167","522430","0.0-4.0-2.42","","<div style=""font-size:60px;"">+</div>","null","","","","","","",""
"null","","image-keyboard-response","168","523938","0.0-4.0-0.43","","img/orange.png","null","trial","null","true","0.2,0.8","2:nogo_b","",""
"null","","html-keyboard-response","169","524954","0.0-4.0-1.43","","<img src=""img/orange-r.png"">","null","trial","null","","0.2,0.8","2:nogo_b","1",""
"null","","html-keyboard-response","170","525968","0.0-4.0-2.43","","<div style=""font-size:60px;"">+</div>","null","","","","","","",""
"null","","image-keyboard-response","171","527478","0.0-4.0-0.44","","img/orange.png","null","trial","null","true","0.2,0.8","2:nogo_b","",""
"null","","html-keyboard-response","172","528495","0.0-4.0-1.44","","<img src=""img/orange-r.png"">","null","trial","null","","0.2,0.8","2:nogo_b","1",""
"null","","html-keyboard-response","173","529508","0.0-4.0-2.44","","<div style=""font-size:60px;"">+</div>","null","","","","","","",""
"352.7350000003353","","image-keyboard-response","174","529863","0.0-4.0-0.45","","img/green.png","32","trial","32","true","0.8,0.2","1:go_a","",""
"null","","html-keyboard-response","175","530879","0.0-4.0-1.45","","<img src=""img/green-r.png"" border=""10"">","null","trial","32","","0.8,0.2","1:go_a","1",""
"null","","html-keyboard-response","176","531894","0.0-4.0-2.45","","<div style=""font-size:60px;"">+</div>","null","","","","","","",""
"325.7249999952037","","image-keyboard-response","177","532221","0.0-4.0-0.46","","img/green.png","32","trial","32","true","0.8,0.2","1:go_a","",""
"null","","html-keyboard-response","178","533231","0.0-4.0-1.46","","<img src=""img/green-r.png"" border=""10"">","null","trial","32","","0.8,0.2","1:go_a","1",""
"null","","html-keyboard-response","179","534243","0.0-4.0-2.46","","<div style=""font-size:60px;"">+</div>","null","","","","","","",""
"null","","image-keyboard-response","180","535750","0.0-4.0-0.47","","img/orange.png","null","trial","null","true","0.2,0.8","2:nogo_b","",""
"null","","html-keyboard-response","181","536761","0.0-4.0-1.47","","<img src=""img/orange-r.png"">","null","trial","null","","0.2,0.8","2:nogo_b","1",""
"null","","html-keyboard-response","182","537763","0.0-4.0-2.47","","<div style=""font-size:60px;"">+</div>","null","","","","","","",""
"442.1299999956973","","image-keyboard-response","183","538206","0.0-4.0-0.48","","img/green.png","32","trial","32","true","0.8,0.2","1:go_a","",""
"null","","html-keyboard-response","184","539212","0.0-4.0-1.48","","<img src=""img/green-n.png"" border=""10"">","null","trial","32","","0.8,0.2","1:go_a","0",""
"null","","html-keyboard-response","185","540226","0.0-4.0-2.48","","<div style=""font-size:60px;"">+</div>","null","","","","","","",""
"null","","image-keyboard-response","186","541743","0.0-4.0-0.49","","img/orange.png","null","trial","null","true","0.2,0.8","2:nogo_b","",""
"null","","html-keyboard-response","187","542757","0.0-4.0-1.49","","<img src=""img/orange-n.png"">","null","trial","null","","0.2,0.8","2:nogo_b","0",""
"null","","html-keyboard-response","188","543771","0.0-4.0-2.49","","<div style=""font-size:60px;"">+</div>","null","","","","","","",""
"458.1949999992503","","image-keyboard-response","189","544231","0.0-4.0-0.50","","img/green.png","32","trial","32","true","0.8,0.2","1:go_a","",""
"null","","html-keyboard-response","190","545233","0.0-4.0-1.50","","<img src=""img/green-r.png"" border=""10"">","null","trial","32","","0.8,0.2","1:go_a","1",""
"null","","html-keyboard-response","191","546236","0.0-4.0-2.50","","<div style=""font-size:60px;"">+</div>","null","","","","","","",""
"null","","image-keyboard-response","192","547743","0.0-4.0-0.51","","img/orange.png","null","trial","null","true","0.2,0.8","2:nogo_b","",""
"null","","html-keyboard-response","193","548756","0.0-4.0-1.51","","<img src=""img/orange-n.png"">","null","trial","null","","0.2,0.8","2:nogo_b","0",""
"null","","html-keyboard-response","194","549758","0.0-4.0-2.51","","<div style=""font-size:60px;"">+</div>","null","","","","","","",""
"383.20999999996275","","image-keyboard-response","195","550142","0.0-4.0-0.52","","img/green.png","32","trial","32","true","0.8,0.2","1:go_a","",""
"null","","html-keyboard-response","196","551155","0.0-4.0-1.52","","<img src=""img/green-r.png"" border=""10"">","null","trial","32","","0.8,0.2","1:go_a","1",""
"null","","html-keyboard-response","197","552170","0.0-4.0-2.52","","<div style=""font-size:60px;"">+</div>","null","","","","","","",""
"null","","image-keyboard-response","198","553679","0.0-4.0-0.53","","img/orange.png","null","trial","null","true","0.2,0.8","2:nogo_b","",""
"null","","html-keyboard-response","199","554692","0.0-4.0-1.53","","<img src=""img/orange-r.png"">","null","trial","null","","0.2,0.8","2:nogo_b","1",""
"null","","html-keyboard-response","200","555705","0.0-4.0-2.53","","<div style=""font-size:60px;"">+</div>","null","","","","","","",""
"420.48500000243075","","image-keyboard-response","201","556127","0.0-4.0-0.54","","img/green.png","32","trial","32","true","0.8,0.2","1:go_a","",""
"null","","html-keyboard-response","202","557137","0.0-4.0-1.54","","<img src=""img/green-r.png"" border=""10"">","null","trial","32","","0.8,0.2","1:go_a","1",""
"null","","html-keyboard-response","203","558149","0.0-4.0-2.54","","<div style=""font-size:60px;"">+</div>","null","","","","","","",""
"null","","image-keyboard-response","204","559654","0.0-4.0-0.55","","img/orange.png","null","trial","null","true","0.2,0.8","2:nogo_b","",""
"null","","html-keyboard-response","205","560670","0.0-4.0-1.55","","<img src=""img/orange-r.png"">","null","trial","null","","0.2,0.8","2:nogo_b","1",""
"null","","html-keyboard-response","206","561677","0.0-4.0-2.55","","<div style=""font-size:60px;"">+</div>","null","","","","","","",""
"null","","image-keyboard-response","207","563186","0.0-4.0-0.56","","img/orange.png","null","trial","null","true","0.2,0.8","2:nogo_b","",""
"null","","html-keyboard-response","208","564191","0.0-4.0-1.56","","<img src=""img/orange-r.png"">","null","trial","null","","0.2,0.8","2:nogo_b","1",""
"null","","html-keyboard-response","209","565202","0.0-4.0-2.56","","<div style=""font-size:60px;"">+</div>","null","","","","","","",""
"363.1549999990966","","image-keyboard-response","210","565566","0.0-4.0-0.57","","img/green.png","32","trial","32","true","0.8,0.2","1:go_a","",""
"null","","html-keyboard-response","211","566572","0.0-4.0-1.57","","<img src=""img/green-r.png"" border=""10"">","null","trial","32","","0.8,0.2","1:go_a","1",""
"null","","html-keyboard-response","212","567575","0.0-4.0-2.57","","<div style=""font-size:60px;"">+</div>","null","","","","","","",""
"526.4200000019046","","image-keyboard-response","213","568103","0.0-4.0-0.58","","img/green.png","32","trial","32","true","0.8,0.2","1:go_a","",""
"null","","html-keyboard-response","214","569114","0.0-4.0-1.58","","<img src=""img/green-r.png"" border=""10"">","null","trial","32","","0.8,0.2","1:go_a","1",""
"null","","html-keyboard-response","215","570129","0.0-4.0-2.58","","<div style=""font-size:60px;"">+</div>","null","","","","","","",""
"null","","image-keyboard-response","216","571631","0.0-4.0-0.59","","img/orange.png","null","trial","null","true","0.2,0.8","2:nogo_b","",""
"null","","html-keyboard-response","217","572635","0.0-4.0-1.59","","<img src=""img/orange-r.png"">","null","trial","null","","0.2,0.8","2:nogo_b","1",""
"null","","html-keyboard-response","218","573637","0.0-4.0-2.59","","<div style=""font-size:60px;"">+</div>","null","","","","","","",""
"21889.1350000049","","instructions","219","595528","0.0-5.0","[{""page_index"":0,""viewing_time"":21888.945000006002}]","","","","","","","","",""
"645.8999999959487","","image-keyboard-response","220","596175","0.0-6.0-0.0","","img/green.png","32","trial","null","false","0.2,0.8","2:nogo_b","",""
"null","","html-keyboard-response","221","597192","0.0-6.0-1.0","","<img src=""img/green-n.png"" border=""10"">","null","trial","null","","0.2,0.8","2:nogo_b","0",""
"null","","html-keyboard-response","222","598204","0.0-6.0-2.0","","<div style=""font-size:60px;"">+</div>","null","","","","","","",""
"null","","image-keyboard-response","223","599714","0.0-6.0-0.1","","img/yellow.png","null","trial","32","false","0.8,0.2","1:go_a","",""
"null","","html-keyboard-response","224","600717","0.0-6.0-1.1","","<img src=""img/yellow-r.png"">","null","trial","32","","0.8,0.2","1:go_a","1",""
"null","","html-keyboard-response","225","601724","0.0-6.0-2.1","","<div style=""font-size:60px;"">+</div>","null","","","","","","",""
"null","","image-keyboard-response","226","603227","0.0-6.0-0.2","","img/blue.png","null","trial","32","false","1,0","3:go_c","",""
"null","","html-keyboard-response","227","604234","0.0-6.0-1.2","","<img src=""img/blue-n.png"">","null","trial","32","","1,0","3:go_c","0",""
"null","","html-keyboard-response","228","605244","0.0-6.0-2.2","","<div style=""font-size:60px;"">+</div>","null","","","","","","",""
"null","","image-keyboard-response","229","606749","0.0-6.0-0.3","","img/grey.png","null","trial","null","true","0,1","4:nogo_d","",""
"null","","html-keyboard-response","230","607767","0.0-6.0-1.3","","<img src=""img/grey-r.png"">","null","trial","null","","0,1","4:nogo_d","1",""
"null","","html-keyboard-response","231","608773","0.0-6.0-2.3","","<div style=""font-size:60px;"">+</div>","null","","","","","","",""
"375.8349999990314","","image-keyboard-response","232","609151","0.0-6.0-0.4","","img/green.png","32","trial","null","false","0.2,0.8","2:nogo_b","",""
"null","","html-keyboard-response","233","610162","0.0-6.0-1.4","","<img src=""img/green-r.png"" border=""10"">","null","trial","null","","0.2,0.8","2:nogo_b","1",""
"null","","html-keyboard-response","234","611164","0.0-6.0-2.4","","<div style=""font-size:60px;"">+</div>","null","","","","","","",""
"null","","image-keyboard-response","235","612668","0.0-6.0-0.5","","img/blue.png","null","trial","32","false","1,0","3:go_c","",""
"null","","html-keyboard-response","236","613672","0.0-6.0-1.5","","<img src=""img/blue-n.png"">","null","trial","32","","1,0","3:go_c","0",""
"null","","html-keyboard-response","237","614675","0.0-6.0-2.5","","<div style=""font-size:60px;"">+</div>","null","","","","","","",""
"null","","image-keyboard-response","238","616178","0.0-6.0-0.6","","img/yellow.png","null","trial","32","false","0.8,0.2","1:go_a","",""
"null","","html-keyboard-response","239","617181","0.0-6.0-1.6","","<img src=""img/yellow-n.png"">","null","trial","32","","0.8,0.2","1:go_a","0",""
"null","","html-keyboard-response","240","618184","0.0-6.0-2.6","","<div style=""font-size:60px;"">+</div>","null","","","","","","",""
"null","","image-keyboard-response","241","619695","0.0-6.0-0.7","","img/grey.png","null","trial","null","true","0,1","4:nogo_d","",""
"null","","html-keyboard-response","242","620705","0.0-6.0-1.7","","<img src=""img/grey-r.png"">","null","trial","null","","0,1","4:nogo_d","1",""
"null","","html-keyboard-response","243","621707","0.0-6.0-2.7","","<div style=""font-size:60px;"">+</div>","null","","","","","","",""
"426.20999999786727","","image-keyboard-response","244","622135","0.0-6.0-0.8","","img/green.png","32","trial","null","false","0.2,0.8","2:nogo_b","",""
"null","","html-keyboard-response","245","623141","0.0-6.0-1.8","","<img src=""img/green-n.png"" border=""10"">","null","trial","null","","0.2,0.8","2:nogo_b","0",""
"null","","html-keyboard-response","246","624143","0.0-6.0-2.8","","<div style=""font-size:60px;"">+</div>","null","","","","","","",""
"null","","image-keyboard-response","247","625647","0.0-6.0-0.9","","img/yellow.png","null","trial","32","false","0.8,0.2","1:go_a","",""
"null","","html-keyboard-response","248","626649","0.0-6.0-1.9","","<img src=""img/yellow-n.png"">","null","trial","32","","0.8,0.2","1:go_a","0",""
"null","","html-keyboard-response","249","627651","0.0-6.0-2.9","","<div style=""font-size:60px;"">+</div>","null","","","","","","",""
"null","","image-keyboard-response","250","629155","0.0-6.0-0.10","","img/grey.png","null","trial","null","true","0,1","4:nogo_d","",""
"null","","html-keyboard-response","251","630158","0.0-6.0-1.10","","<img src=""img/grey-r.png"">","null","trial","null","","0,1","4:nogo_d","1",""
"null","","html-keyboard-response","252","631161","0.0-6.0-2.10","","<div style=""font-size:60px;"">+</div>","null","","","","","","",""
"null","","image-keyboard-response","253","632664","0.0-6.0-0.11","","img/blue.png","null","trial","32","false","1,0","3:go_c","",""
"null","","html-keyboard-response","254","633667","0.0-6.0-1.11","","<img src=""img/blue-n.png"">","null","trial","32","","1,0","3:go_c","0",""
"null","","html-keyboard-response","255","634670","0.0-6.0-2.11","","<div style=""font-size:60px;"">+</div>","null","","","","","","",""
"null","","image-keyboard-response","256","636174","0.0-6.0-0.12","","img/grey.png","null","trial","null","true","0,1","4:nogo_d","",""
"null","","html-keyboard-response","257","637177","0.0-6.0-1.12","","<img src=""img/grey-r.png"">","null","trial","null","","0,1","4:nogo_d","1",""
"null","","html-keyboard-response","258","638179","0.0-6.0-2.12","","<div style=""font-size:60px;"">+</div>","null","","","","","","",""
"305.52999999793246","","image-keyboard-response","259","638487","0.0-6.0-0.13","","img/yellow.png","32","trial","32","true","0.8,0.2","1:go_a","",""
"null","","html-keyboard-response","260","639498","0.0-6.0-1.13","","<img src=""img/yellow-r.png"" border=""10"">","null","trial","32","","0.8,0.2","1:go_a","1",""
"null","","html-keyboard-response","261","640501","0.0-6.0-2.13","","<div style=""font-size:60px;"">+</div>","null","","","","","","",""
"487.95999999856576","","image-keyboard-response","262","640990","0.0-6.0-0.14","","img/green.png","32","trial","null","false","0.2,0.8","2:nogo_b","",""
"null","","html-keyboard-response","263","642004","0.0-6.0-1.14","","<img src=""img/green-r.png"" border=""10"">","null","trial","null","","0.2,0.8","2:nogo_b","1",""
"null","","html-keyboard-response","264","643006","0.0-6.0-2.14","","<div style=""font-size:60px;"">+</div>","null","","","","","","",""
"null","","image-keyboard-response","265","644511","0.0-6.0-0.15","","img/blue.png","null","trial","32","false","1,0","3:go_c","",""
"null","","html-keyboard-response","266","645514","0.0-6.0-1.15","","<img src=""img/blue-n.png"">","null","trial","32","","1,0","3:go_c","0",""
"null","","html-keyboard-response","267","646517","0.0-6.0-2.15","","<div style=""font-size:60px;"">+</div>","null","","","","","","",""
"null","","image-keyboard-response","268","648021","0.0-6.0-0.16","","img/yellow.png","null","trial","32","false","0.8,0.2","1:go_a","",""
"null","","html-keyboard-response","269","649046","0.0-6.0-1.16","","<img src=""img/yellow-r.png"">","null","trial","32","","0.8,0.2","1:go_a","1",""
"null","","html-keyboard-response","270","650048","0.0-6.0-2.16","","<div style=""font-size:60px;"">+</div>","null","","","","","","",""
"436.6999999983236","","image-keyboard-response","271","650486","0.0-6.0-0.17","","img/green.png","32","trial","null","false","0.2,0.8","2:nogo_b","",""
"null","","html-keyboard-response","272","651497","0.0-6.0-1.17","","<img src=""img/green-r.png"" border=""10"">","null","trial","null","","0.2,0.8","2:nogo_b","1",""
"null","","html-keyboard-response","273","652500","0.0-6.0-2.17","","<div style=""font-size:60px;"">+</div>","null","","","","","","",""
"null","","image-keyboard-response","274","654003","0.0-6.0-0.18","","img/blue.png","null","trial","32","false","1,0","3:go_c","",""
"null","","html-keyboard-response","275","655006","0.0-6.0-1.18","","<img src=""img/blue-n.png"">","null","trial","32","","1,0","3:go_c","0",""
"null","","html-keyboard-response","276","656023","0.0-6.0-2.18","","<div style=""font-size:60px;"">+</div>","null","","","","","","",""
"null","","image-keyboard-response","277","657526","0.0-6.0-0.19","","img/grey.png","null","trial","null","true","0,1","4:nogo_d","",""
"null","","html-keyboard-response","278","658530","0.0-6.0-1.19","","<img src=""img/grey-r.png"">","null","trial","null","","0,1","4:nogo_d","1",""
"null","","html-keyboard-response","279","659547","0.0-6.0-2.19","","<div style=""font-size:60px;"">+</div>","null","","","","","","",""
"null","","image-keyboard-response","280","661051","0.0-6.0-0.20","","img/yellow.png","null","trial","32","false","0.8,0.2","1:go_a","",""
"null","","html-keyboard-response","281","662076","0.0-6.0-1.20","","<img src=""img/yellow-n.png"">","null","trial","32","","0.8,0.2","1:go_a","0",""
"null","","html-keyboard-response","282","663078","0.0-6.0-2.20","","<div style=""font-size:60px;"">+</div>","null","","","","","","",""
"null","","image-keyboard-response","283","664582","0.0-6.0-0.21","","img/grey.png","null","trial","null","true","0,1","4:nogo_d","",""
"null","","html-keyboard-response","284","665585","0.0-6.0-1.21","","<img src=""img/grey-r.png"">","null","trial","null","","0,1","4:nogo_d","1",""
"null","","html-keyboard-response","285","666588","0.0-6.0-2.21","","<div style=""font-size:60px;"">+</div>","null","","","","","","",""
"432.874999998603","","image-keyboard-response","286","667022","0.0-6.0-0.22","","img/green.png","32","trial","null","false","0.2,0.8","2:nogo_b","",""
"null","","html-keyboard-response","287","668038","0.0-6.0-1.22","","<img src=""img/green-n.png"" border=""10"">","null","trial","null","","0.2,0.8","2:nogo_b","0",""
"null","","html-keyboard-response","288","669040","0.0-6.0-2.22","","<div style=""font-size:60px;"">+</div>","null","","","","","","",""
"null","","image-keyboard-response","289","670544","0.0-6.0-0.23","","img/blue.png","null","trial","32","false","1,0","3:go_c","",""
"null","","html-keyboard-response","290","671547","0.0-6.0-1.23","","<img src=""img/blue-n.png"">","null","trial","32","","1,0","3:go_c","0",""
"null","","html-keyboard-response","291","672549","0.0-6.0-2.23","","<div style=""font-size:60px;"">+</div>","null","","","","","","",""
"null","","image-keyboard-response","292","674052","0.0-6.0-0.24","","img/yellow.png","null","trial","32","false","0.8,0.2","1:go_a","",""
"null","","html-keyboard-response","293","675070","0.0-6.0-1.24","","<img src=""img/yellow-n.png"">","null","trial","32","","0.8,0.2","1:go_a","0",""
"null","","html-keyboard-response","294","676072","0.0-6.0-2.24","","<div style=""font-size:60px;"">+</div>","null","","","","","","",""
"null","","image-keyboard-response","295","677576","0.0-6.0-0.25","","img/blue.png","null","trial","32","false","1,0","3:go_c","",""
"null","","html-keyboard-response","296","678594","0.0-6.0-1.25","","<img src=""img/blue-n.png"">","null","trial","32","","1,0","3:go_c","0",""
"null","","html-keyboard-response","297","679596","0.0-6.0-2.25","","<div style=""font-size:60px;"">+</div>","null","","","","","","",""
"456.38500000489876","","image-keyboard-response","298","680054","0.0-6.0-0.26","","img/green.png","32","trial","null","false","0.2,0.8","2:nogo_b","",""
"null","","html-keyboard-response","299","681069","0.0-6.0-1.26","","<img src=""img/green-n.png"" border=""10"">","null","trial","null","","0.2,0.8","2:nogo_b","0",""
"null","","html-keyboard-response","300","682072","0.0-6.0-2.26","","<div style=""font-size:60px;"">+</div>","null","","","","","","",""
"null","","image-keyboard-response","301","683576","0.0-6.0-0.27","","img/grey.png","null","trial","null","true","0,1","4:nogo_d","",""
"null","","html-keyboard-response","302","684594","0.0-6.0-1.27","","<img src=""img/grey-r.png"">","null","trial","null","","0,1","4:nogo_d","1",""
"null","","html-keyboard-response","303","685596","0.0-6.0-2.27","","<div style=""font-size:60px;"">+</div>","null","","","","","","",""
"null","","image-keyboard-response","304","687100","0.0-6.0-0.28","","img/blue.png","null","trial","32","false","1,0","3:go_c","",""
"null","","html-keyboard-response","305","688103","0.0-6.0-1.28","","<img src=""img/blue-n.png"">","null","trial","32","","1,0","3:go_c","0",""
"null","","html-keyboard-response","306","689105","0.0-6.0-2.28","","<div style=""font-size:60px;"">+</div>","null","","","","","","",""
"491.48499999858905","","image-keyboard-response","307","689598","0.0-6.0-0.29","","img/green.png","32","trial","null","false","0.2,0.8","2:nogo_b","",""
"null","","html-keyboard-response","308","690608","0.0-6.0-1.29","","<img src=""img/green-n.png"" border=""10"">","null","trial","null","","0.2,0.8","2:nogo_b","0",""
"null","","html-keyboard-response","309","691610","0.0-6.0-2.29","","<div style=""font-size:60px;"">+</div>","null","","","","","","",""
"null","","image-keyboard-response","310","693114","0.0-6.0-0.30","","img/grey.png","null","trial","null","true","0,1","4:nogo_d","",""
"null","","html-keyboard-response","311","694133","0.0-6.0-1.30","","<img src=""img/grey-r.png"">","null","trial","null","","0,1","4:nogo_d","1",""
"null","","html-keyboard-response","312","695135","0.0-6.0-2.30","","<div style=""font-size:60px;"">+</div>","null","","","","","","",""
"null","","image-keyboard-response","313","696640","0.0-6.0-0.31","","img/yellow.png","null","trial","32","false","0.8,0.2","1:go_a","",""
"null","","html-keyboard-response","314","697643","0.0-6.0-1.31","","<img src=""img/yellow-n.png"">","null","trial","32","","0.8,0.2","1:go_a","0",""
"null","","html-keyboard-response","315","698646","0.0-6.0-2.31","","<div style=""font-size:60px;"">+</div>","null","","","","","","",""
"null","","image-keyboard-response","316","700150","0.0-6.0-0.32","","img/blue.png","null","trial","32","false","1,0","3:go_c","",""
"null","","html-keyboard-response","317","701152","0.0-6.0-1.32","","<img src=""img/blue-n.png"">","null","trial","32","","1,0","3:go_c","0",""
"null","","html-keyboard-response","318","702155","0.0-6.0-2.32","","<div style=""font-size:60px;"">+</div>","null","","","","","","",""
"null","","image-keyboard-response","319","703659","0.0-6.0-0.33","","img/grey.png","null","trial","null","true","0,1","4:nogo_d","",""
"null","","html-keyboard-response","320","704662","0.0-6.0-1.33","","<img src=""img/grey-r.png"">","null","trial","null","","0,1","4:nogo_d","1",""
"null","","html-keyboard-response","321","705665","0.0-6.0-2.33","","<div style=""font-size:60px;"">+</div>","null","","","","","","",""
"427.8499999999767","","image-keyboard-response","322","706094","0.0-6.0-0.34","","img/green.png","32","trial","null","false","0.2,0.8","2:nogo_b","",""
"null","","html-keyboard-response","323","707106","0.0-6.0-1.34","","<img src=""img/green-n.png"" border=""10"">","null","trial","null","","0.2,0.8","2:nogo_b","0",""
"null","","html-keyboard-response","324","708109","0.0-6.0-2.34","","<div style=""font-size:60px;"">+</div>","null","","","","","","",""
"null","","image-keyboard-response","325","709613","0.0-6.0-0.35","","img/yellow.png","null","trial","32","false","0.8,0.2","1:go_a","",""
"null","","html-keyboard-response","326","710631","0.0-6.0-1.35","","<img src=""img/yellow-r.png"">","null","trial","32","","0.8,0.2","1:go_a","1",""
"null","","html-keyboard-response","327","711633","0.0-6.0-2.35","","<div style=""font-size:60px;"">+</div>","null","","","","","","",""
"515.0050000011688","","image-keyboard-response","328","712150","0.0-6.0-0.36","","img/green.png","32","trial","null","false","0.2,0.8","2:nogo_b","",""
"null","","html-keyboard-response","329","713168","0.0-6.0-1.36","","<img src=""img/green-n.png"" border=""10"">","null","trial","null","","0.2,0.8","2:nogo_b","0",""
"null","","html-keyboard-response","330","714171","0.0-6.0-2.36","","<div style=""font-size:60px;"">+</div>","null","","","","","","",""
"null","","image-keyboard-response","331","715674","0.0-6.0-0.37","","img/grey.png","null","trial","null","true","0,1","4:nogo_d","",""
"null","","html-keyboard-response","332","716693","0.0-6.0-1.37","","<img src=""img/grey-r.png"">","null","trial","null","","0,1","4:nogo_d","1",""
"null","","html-keyboard-response","333","717695","0.0-6.0-2.37","","<div style=""font-size:60px;"">+</div>","null","","","","","","",""
"null","","image-keyboard-response","334","719200","0.0-6.0-0.38","","img/yellow.png","null","trial","32","false","0.8,0.2","1:go_a","",""
"null","","html-keyboard-response","335","720203","0.0-6.0-1.38","","<img src=""img/yellow-n.png"">","null","trial","32","","0.8,0.2","1:go_a","0",""
"null","","html-keyboard-response","336","721205","0.0-6.0-2.38","","<div style=""font-size:60px;"">+</div>","null","","","","","","",""
"null","","image-keyboard-response","337","722710","0.0-6.0-0.39","","img/blue.png","null","trial","32","false","1,0","3:go_c","",""
"null","","html-keyboard-response","338","723712","0.0-6.0-1.39","","<img src=""img/blue-n.png"">","null","trial","32","","1,0","3:go_c","0",""
"null","","html-keyboard-response","339","724715","0.0-6.0-2.39","","<div style=""font-size:60px;"">+</div>","null","","","","","","",""
"705.385000001057","","image-keyboard-response","340","725422","0.0-6.0-0.40","","img/green.png","32","trial","null","false","0.2,0.8","2:nogo_b","",""
"null","","html-keyboard-response","341","726441","0.0-6.0-1.40","","<img src=""img/green-n.png"" border=""10"">","null","trial","null","","0.2,0.8","2:nogo_b","0",""
"null","","html-keyboard-response","342","727444","0.0-6.0-2.40","","<div style=""font-size:60px;"">+</div>","null","","","","","","",""
"null","","image-keyboard-response","343","728948","0.0-6.0-0.41","","img/yellow.png","null","trial","32","false","0.8,0.2","1:go_a","",""
"null","","html-keyboard-response","344","729951","0.0-6.0-1.41","","<img src=""img/yellow-r.png"">","null","trial","32","","0.8,0.2","1:go_a","1",""
"null","","html-keyboard-response","345","730954","0.0-6.0-2.41","","<div style=""font-size:60px;"">+</div>","null","","","","","","",""
"null","","image-keyboard-response","346","732458","0.0-6.0-0.42","","img/grey.png","null","trial","null","true","0,1","4:nogo_d","",""
"null","","html-keyboard-response","347","733461","0.0-6.0-1.42","","<img src=""img/grey-r.png"">","null","trial","null","","0,1","4:nogo_d","1",""
"null","","html-keyboard-response","348","734463","0.0-6.0-2.42","","<div style=""font-size:60px;"">+</div>","null","","","","","","",""
"null","","image-keyboard-response","349","735967","0.0-6.0-0.43","","img/blue.png","null","trial","32","false","1,0","3:go_c","",""
"null","","html-keyboard-response","350","736970","0.0-6.0-1.43","","<img src=""img/blue-n.png"">","null","trial","32","","1,0","3:go_c","0",""
"null","","html-keyboard-response","351","737973","0.0-6.0-2.43","","<div style=""font-size:60px;"">+</div>","null","","","","","","",""
"null","","image-keyboard-response","352","739477","0.0-6.0-0.44","","img/grey.png","null","trial","null","true","0,1","4:nogo_d","",""
"null","","html-keyboard-response","353","740479","0.0-6.0-1.44","","<img src=""img/grey-r.png"">","null","trial","null","","0,1","4:nogo_d","1",""
"null","","html-keyboard-response","354","741482","0.0-6.0-2.44","","<div style=""font-size:60px;"">+</div>","null","","","","","","",""
"897.6799999945797","","image-keyboard-response","355","742381","0.0-6.0-0.45","","img/yellow.png","32","trial","32","true","0.8,0.2","1:go_a","",""
"null","","html-keyboard-response","356","743387","0.0-6.0-1.45","","<img src=""img/yellow-r.png"" border=""10"">","null","trial","32","","0.8,0.2","1:go_a","1",""
"null","","html-keyboard-response","357","744389","0.0-6.0-2.45","","<div style=""font-size:60px;"">+</div>","null","","","","","","",""
"671.1300000024494","","image-keyboard-response","358","745062","0.0-6.0-0.46","","img/green.png","32","trial","null","false","0.2,0.8","2:nogo_b","",""
"null","","html-keyboard-response","359","746071","0.0-6.0-1.46","","<img src=""img/green-n.png"" border=""10"">","null","trial","null","","0.2,0.8","2:nogo_b","0",""
"null","","html-keyboard-response","360","747074","0.0-6.0-2.46","","<div style=""font-size:60px;"">+</div>","null","","","","","","",""
"null","","image-keyboard-response","361","748578","0.0-6.0-0.47","","img/blue.png","null","trial","32","false","1,0","3:go_c","",""
"null","","html-keyboard-response","362","749581","0.0-6.0-1.47","","<img src=""img/blue-n.png"">","null","trial","32","","1,0","3:go_c","0",""
"null","","html-keyboard-response","363","750584","0.0-6.0-2.47","","<div style=""font-size:60px;"">+</div>","null","","","","","","",""
"788.6650000000373","","image-keyboard-response","364","751374","0.0-6.0-0.48","","img/yellow.png","32","trial","32","true","0.8,0.2","1:go_a","",""
"null","","html-keyboard-response","365","752388","0.0-6.0-1.48","","<img src=""img/yellow-n.png"" border=""10"">","null","trial","32","","0.8,0.2","1:go_a","0",""
"null","","html-keyboard-response","366","753390","0.0-6.0-2.48","","<div style=""font-size:60px;"">+</div>","null","","","","","","",""
"630.1650000022491","","image-keyboard-response","367","754022","0.0-6.0-0.49","","img/green.png","32","trial","null","false","0.2,0.8","2:nogo_b","",""
"null","","html-keyboard-response","368","755032","0.0-6.0-1.49","","<img src=""img/green-n.png"" border=""10"">","null","trial","null","","0.2,0.8","2:nogo_b","0",""
"null","","html-keyboard-response","369","756035","0.0-6.0-2.49","","<div style=""font-size:60px;"">+</div>","null","","","","","","",""
"null","","image-keyboard-response","370","757540","0.0-6.0-0.50","","img/grey.png","null","trial","null","true","0,1","4:nogo_d","",""
"null","","html-keyboard-response","371","758543","0.0-6.0-1.50","","<img src=""img/grey-r.png"">","null","trial","null","","0,1","4:nogo_d","1",""
"null","","html-keyboard-response","372","759545","0.0-6.0-2.50","","<div style=""font-size:60px;"">+</div>","null","","","","","","",""
"null","","image-keyboard-response","373","761049","0.0-6.0-0.51","","img/blue.png","null","trial","32","false","1,0","3:go_c","",""
"null","","html-keyboard-response","374","762052","0.0-6.0-1.51","","<img src=""img/blue-n.png"">","null","trial","32","","1,0","3:go_c","0",""
"null","","html-keyboard-response","375","763055","0.0-6.0-2.51","","<div style=""font-size:60px;"">+</div>","null","","","","","","",""
"637.1700000017881","","image-keyboard-response","376","763694","0.0-6.0-0.52","","img/green.png","32","trial","null","false","0.2,0.8","2:nogo_b","",""
"null","","html-keyboard-response","377","764705","0.0-6.0-1.52","","<img src=""img/green-n.png"" border=""10"">","null","trial","null","","0.2,0.8","2:nogo_b","0",""
"null","","html-keyboard-response","378","765708","0.0-6.0-2.52","","<div style=""font-size:60px;"">+</div>","null","","","","","","",""
"776.6450000053737","","image-keyboard-response","379","766486","0.0-6.0-0.53","","img/yellow.png","32","trial","32","true","0.8,0.2","1:go_a","",""
"null","","html-keyboard-response","380","767496","0.0-6.0-1.53","","<img src=""img/yellow-r.png"" border=""10"">","null","trial","32","","0.8,0.2","1:go_a","1",""
"null","","html-keyboard-response","381","768498","0.0-6.0-2.53","","<div style=""font-size:60px;"">+</div>","null","","","","","","",""
"null","","image-keyboard-response","382","770001","0.0-6.0-0.54","","img/blue.png","null","trial","32","false","1,0","3:go_c","",""
"null","","html-keyboard-response","383","771020","0.0-6.0-1.54","","<img src=""img/blue-n.png"">","null","trial","32","","1,0","3:go_c","0",""
"null","","html-keyboard-response","384","772037","0.0-6.0-2.54","","<div style=""font-size:60px;"">+</div>","null","","","","","","",""
"582.0750000057742","","image-keyboard-response","385","772622","0.0-6.0-0.55","","img/grey.png","32","trial","null","false","0,1","4:nogo_d","",""
"null","","html-keyboard-response","386","773626","0.0-6.0-1.55","","<img src=""img/grey-n.png"" border=""10"">","null","trial","null","","0,1","4:nogo_d","0",""
"null","","html-keyboard-response","387","774628","0.0-6.0-2.55","","<div style=""font-size:60px;"">+</div>","null","","","","","","",""
"null","","image-keyboard-response","388","776132","0.0-6.0-0.56","","img/blue.png","null","trial","32","false","1,0","3:go_c","",""
"null","","html-keyboard-response","389","777135","0.0-6.0-1.56","","<img src=""img/blue-n.png"">","null","trial","32","","1,0","3:go_c","0",""
"null","","html-keyboard-response","390","778137","0.0-6.0-2.56","","<div style=""font-size:60px;"">+</div>","null","","","","","","",""
"null","","image-keyboard-response","391","779657","0.0-6.0-0.57","","img/green.png","null","trial","null","true","0.2,0.8","2:nogo_b","",""
"null","","html-keyboard-response","392","780661","0.0-6.0-1.57","","<img src=""img/green-r.png"">","null","trial","null","","0.2,0.8","2:nogo_b","1",""
"null","","html-keyboard-response","393","781685","0.0-6.0-2.57","","<div style=""font-size:60px;"">+</div>","null","","","","","","",""
"null","","image-keyboard-response","394","783188","0.0-6.0-0.58","","img/grey.png","null","trial","null","true","0,1","4:nogo_d","",""
"null","","html-keyboard-response","395","784191","0.0-6.0-1.58","","<img src=""img/grey-r.png"">","null","trial","null","","0,1","4:nogo_d","1",""
"null","","html-keyboard-response","396","785193","0.0-6.0-2.58","","<div style=""font-size:60px;"">+</div>","null","","","","","","",""
"698.9899999970803","","image-keyboard-response","397","785894","0.0-6.0-0.59","","img/yellow.png","32","trial","32","true","0.8,0.2","1:go_a","",""
"null","","html-keyboard-response","398","786898","0.0-6.0-1.59","","<img src=""img/yellow-r.png"" border=""10"">","null","trial","32","","0.8,0.2","1:go_a","1",""
"null","","html-keyboard-response","399","787900","0.0-6.0-2.59","","<div style=""font-size:60px;"">+</div>","null","","","","","","",""
"735.5699999971548","","image-keyboard-response","400","788638","0.0-6.0-0.60","","img/green.png","32","trial","null","false","0.2,0.8","2:nogo_b","",""
"null","","html-keyboard-response","401","789651","0.0-6.0-1.60","","<img src=""img/green-r.png"" border=""10"">","null","trial","null","","0.2,0.8","2:nogo_b","1",""
"null","","html-keyboard-response","402","790655","0.0-6.0-2.60","","<div style=""font-size:60px;"">+</div>","null","","","","","","",""
"null","","image-keyboard-response","403","792158","0.0-6.0-0.61","","img/blue.png","null","trial","32","false","1,0","3:go_c","",""
"null","","html-keyboard-response","404","793160","0.0-6.0-1.61","","<img src=""img/blue-n.png"">","null","trial","32","","1,0","3:go_c","0",""
"null","","html-keyboard-response","405","794163","0.0-6.0-2.61","","<div style=""font-size:60px;"">+</div>","null","","","","","","",""
"null","","image-keyboard-response","406","795666","0.0-6.0-0.62","","img/grey.png","null","trial","null","true","0,1","4:nogo_d","",""
"null","","html-keyboard-response","407","796670","0.0-6.0-1.62","","<img src=""img/grey-r.png"">","null","trial","null","","0,1","4:nogo_d","1",""
"null","","html-keyboard-response","408","797672","0.0-6.0-2.62","","<div style=""font-size:60px;"">+</div>","null","","","","","","",""
"756.3650000010384","","image-keyboard-response","409","798430","0.0-6.0-0.63","","img/yellow.png","32","trial","32","true","0.8,0.2","1:go_a","",""
"null","","html-keyboard-response","410","799445","0.0-6.0-1.63","","<img src=""img/yellow-r.png"" border=""10"">","null","trial","32","","0.8,0.2","1:go_a","1",""
"null","","html-keyboard-response","411","800448","0.0-6.0-2.63","","<div style=""font-size:60px;"">+</div>","null","","","","","","",""
"null","","image-keyboard-response","412","801951","0.0-6.0-0.64","","img/blue.png","null","trial","32","false","1,0","3:go_c","",""
"null","","html-keyboard-response","413","802954","0.0-6.0-1.64","","<img src=""img/blue-n.png"">","null","trial","32","","1,0","3:go_c","0",""
"null","","html-keyboard-response","414","803957","0.0-6.0-2.64","","<div style=""font-size:60px;"">+</div>","null","","","","","","",""
"503.17500000516884","","image-keyboard-response","415","804462","0.0-6.0-0.65","","img/green.png","32","trial","null","false","0.2,0.8","2:nogo_b","",""
"null","","html-keyboard-response","416","805476","0.0-6.0-1.65","","<img src=""img/green-n.png"" border=""10"">","null","trial","null","","0.2,0.8","2:nogo_b","0",""
"null","","html-keyboard-response","417","806479","0.0-6.0-2.65","","<div style=""font-size:60px;"">+</div>","null","","","","","","",""
"717.239999998128","","image-keyboard-response","418","807198","0.0-6.0-0.66","","img/yellow.png","32","trial","32","true","0.8,0.2","1:go_a","",""
"null","","html-keyboard-response","419","808214","0.0-6.0-1.66","","<img src=""img/yellow-r.png"" border=""10"">","null","trial","32","","0.8,0.2","1:go_a","1",""
"null","","html-keyboard-response","420","809217","0.0-6.0-2.66","","<div style=""font-size:60px;"">+</div>","null","","","","","","",""
"731.6250000003492","","image-keyboard-response","421","809950","0.0-6.0-0.67","","img/grey.png","32","trial","null","false","0,1","4:nogo_d","",""
"null","","html-keyboard-response","422","810958","0.0-6.0-1.67","","<img src=""img/grey-n.png"" border=""10"">","null","trial","null","","0,1","4:nogo_d","0",""
"null","","html-keyboard-response","423","811961","0.0-6.0-2.67","","<div style=""font-size:60px;"">+</div>","null","","","","","","",""
"834.8149999947054","","image-keyboard-response","424","812798","0.0-6.0-0.68","","img/yellow.png","32","trial","32","true","0.8,0.2","1:go_a","",""
"null","","html-keyboard-response","425","813813","0.0-6.0-1.68","","<img src=""img/yellow-r.png"" border=""10"">","null","trial","32","","0.8,0.2","1:go_a","1",""
"null","","html-keyboard-response","426","814815","0.0-6.0-2.68","","<div style=""font-size:60px;"">+</div>","null","","","","","","",""
"null","","image-keyboard-response","427","816320","0.0-6.0-0.69","","img/blue.png","null","trial","32","false","1,0","3:go_c","",""
"null","","html-keyboard-response","428","817323","0.0-6.0-1.69","","<img src=""img/blue-n.png"">","null","trial","32","","1,0","3:go_c","0",""
"null","","html-keyboard-response","429","818325","0.0-6.0-2.69","","<div style=""font-size:60px;"">+</div>","null","","","","","","",""
"null","","image-keyboard-response","430","819829","0.0-6.0-0.70","","img/green.png","null","trial","null","true","0.2,0.8","2:nogo_b","",""
"null","","html-keyboard-response","431","820847","0.0-6.0-1.70","","<img src=""img/green-n.png"">","null","trial","null","","0.2,0.8","2:nogo_b","0",""
"null","","html-keyboard-response","432","821849","0.0-6.0-2.70","","<div style=""font-size:60px;"">+</div>","null","","","","","","",""
"859.5500000009779","","image-keyboard-response","433","822710","0.0-6.0-0.71","","img/grey.png","32","trial","null","false","0,1","4:nogo_d","",""
"null","","html-keyboard-response","434","823723","0.0-6.0-1.71","","<img src=""img/grey-n.png"" border=""10"">","null","trial","null","","0,1","4:nogo_d","0",""
"null","","html-keyboard-response","435","824725","0.0-6.0-2.71","","<div style=""font-size:60px;"">+</div>","null","","","","","","",""
"null","","image-keyboard-response","436","826229","0.0-6.0-0.72","","img/green.png","null","trial","null","true","0.2,0.8","2:nogo_b","",""
"null","","html-keyboard-response","437","827232","0.0-6.0-1.72","","<img src=""img/green-n.png"">","null","trial","null","","0.2,0.8","2:nogo_b","0",""
"null","","html-keyboard-response","438","828235","0.0-6.0-2.72","","<div style=""font-size:60px;"">+</div>","null","","","","","","",""
"825.5950000020675","","image-keyboard-response","439","829062","0.0-6.0-0.73","","img/grey.png","32","trial","null","false","0,1","4:nogo_d","",""
"null","","html-keyboard-response","440","830070","0.0-6.0-1.73","","<img src=""img/grey-n.png"" border=""10"">","null","trial","null","","0,1","4:nogo_d","0",""
"null","","html-keyboard-response","441","831072","0.0-6.0-2.73","","<div style=""font-size:60px;"">+</div>","null","","","","","","",""
"659.8499999963678","","image-keyboard-response","442","831734","0.0-6.0-0.74","","img/yellow.png","32","trial","32","true","0.8,0.2","1:go_a","",""
"null","","html-keyboard-response","443","832745","0.0-6.0-1.74","","<img src=""img/yellow-r.png"" border=""10"">","null","trial","32","","0.8,0.2","1:go_a","1",""
"null","","html-keyboard-response","444","833748","0.0-6.0-2.74","","<div style=""font-size:60px;"">+</div>","null","","","","","","",""
"null","","image-keyboard-response","445","835252","0.0-6.0-0.75","","img/blue.png","null","trial","32","false","1,0","3:go_c","",""
"null","","html-keyboard-response","446","836254","0.0-6.0-1.75","","<img src=""img/blue-n.png"">","null","trial","32","","1,0","3:go_c","0",""
"null","","html-keyboard-response","447","837257","0.0-6.0-2.75","","<div style=""font-size:60px;"">+</div>","null","","","","","","",""
"483.06500000029337","","image-keyboard-response","448","837742","0.0-6.0-0.76","","img/yellow.png","32","trial","32","true","0.8,0.2","1:go_a","",""
"null","","html-keyboard-response","449","838745","0.0-6.0-1.76","","<img src=""img/yellow-r.png"" border=""10"">","null","trial","32","","0.8,0.2","1:go_a","1",""
"null","","html-keyboard-response","450","839748","0.0-6.0-2.76","","<div style=""font-size:60px;"">+</div>","null","","","","","","",""
"null","","image-keyboard-response","451","841252","0.0-6.0-0.77","","img/grey.png","null","trial","null","true","0,1","4:nogo_d","",""
"null","","html-keyboard-response","452","842255","0.0-6.0-1.77","","<img src=""img/grey-r.png"">","null","trial","null","","0,1","4:nogo_d","1",""
"null","","html-keyboard-response","453","843257","0.0-6.0-2.77","","<div style=""font-size:60px;"">+</div>","null","","","","","","",""
"null","","image-keyboard-response","454","844761","0.0-6.0-0.78","","img/blue.png","null","trial","32","false","1,0","3:go_c","",""
"null","","html-keyboard-response","455","845764","0.0-6.0-1.78","","<img src=""img/blue-n.png"">","null","trial","32","","1,0","3:go_c","0",""
"null","","html-keyboard-response","456","846766","0.0-6.0-2.78","","<div style=""font-size:60px;"">+</div>","null","","","","","","",""
"null","","image-keyboard-response","457","848270","0.0-6.0-0.79","","img/green.png","null","trial","null","true","0.2,0.8","2:nogo_b","",""
"null","","html-keyboard-response","458","849273","0.0-6.0-1.79","","<img src=""img/green-r.png"">","null","trial","null","","0.2,0.8","2:nogo_b","1",""
"null","","html-keyboard-response","459","850275","0.0-6.0-2.79","","<div style=""font-size:60px;"">+</div>","null","","","","","","",""
"null","","image-keyboard-response","460","851779","0.0-6.0-0.80","","img/grey.png","null","trial","null","true","0,1","4:nogo_d","",""
"null","","html-keyboard-response","461","852782","0.0-6.0-1.80","","<img src=""img/grey-r.png"">","null","trial","null","","0,1","4:nogo_d","1",""
"null","","html-keyboard-response","462","853785","0.0-6.0-2.80","","<div style=""font-size:60px;"">+</div>","null","","","","","","",""
"1331.2500000029104","","image-keyboard-response","463","855118","0.0-6.0-0.81","","img/green.png","32","trial","null","false","0.2,0.8","2:nogo_b","",""
"null","","html-keyboard-response","464","856121","0.0-6.0-1.81","","<img src=""img/green-n.png"" border=""10"">","null","trial","null","","0.2,0.8","2:nogo_b","0",""
"null","","html-keyboard-response","465","857123","0.0-6.0-2.81","","<div style=""font-size:60px;"">+</div>","null","","","","","","",""
"663.89000000339","","image-keyboard-response","466","857789","0.0-6.0-0.82","","img/yellow.png","32","trial","32","true","0.8,0.2","1:go_a","",""
"null","","html-keyboard-response","467","858796","0.0-6.0-1.82","","<img src=""img/yellow-r.png"" border=""10"">","null","trial","32","","0.8,0.2","1:go_a","1",""
"null","","html-keyboard-response","468","859799","0.0-6.0-2.82","","<div style=""font-size:60px;"">+</div>","null","","","","","","",""
"null","","image-keyboard-response","469","861303","0.0-6.0-0.83","","img/blue.png","null","trial","32","false","1,0","3:go_c","",""
"null","","html-keyboard-response","470","862321","0.0-6.0-1.83","","<img src=""img/blue-n.png"">","null","trial","32","","1,0","3:go_c","0",""
"null","","html-keyboard-response","471","863324","0.0-6.0-2.83","","<div style=""font-size:60px;"">+</div>","null","","","","","","",""
"1064.3300000011222","","image-keyboard-response","472","864390","0.0-6.0-0.84","","img/green.png","32","trial","null","false","0.2,0.8","2:nogo_b","",""
"null","","html-keyboard-response","473","865398","0.0-6.0-1.84","","<img src=""img/green-r.png"" border=""10"">","null","trial","null","","0.2,0.8","2:nogo_b","1",""
"null","","html-keyboard-response","474","866401","0.0-6.0-2.84","","<div style=""font-size:60px;"">+</div>","null","","","","","","",""
"786.9849999989383","","image-keyboard-response","475","867190","0.0-6.0-0.85","","img/yellow.png","32","trial","32","true","0.8,0.2","1:go_a","",""
"null","","html-keyboard-response","476","868206","0.0-6.0-1.85","","<img src=""img/yellow-r.png"" border=""10"">","null","trial","32","","0.8,0.2","1:go_a","1",""
"null","","html-keyboard-response","477","869208","0.0-6.0-2.85","","<div style=""font-size:60px;"">+</div>","null","","","","","","",""
"null","","image-keyboard-response","478","870712","0.0-6.0-0.86","","img/blue.png","null","trial","32","false","1,0","3:go_c","",""
"null","","html-keyboard-response","479","871715","0.0-6.0-1.86","","<img src=""img/blue-n.png"">","null","trial","32","","1,0","3:go_c","0",""
"null","","html-keyboard-response","480","872718","0.0-6.0-2.86","","<div style=""font-size:60px;"">+</div>","null","","","","","","",""
"781.7500000019791","","image-keyboard-response","481","873502","0.0-6.0-0.87","","img/grey.png","32","trial","null","false","0,1","4:nogo_d","",""
"null","","html-keyboard-response","482","874523","0.0-6.0-1.87","","<img src=""img/grey-n.png"" border=""10"">","null","trial","null","","0,1","4:nogo_d","0",""
"null","","html-keyboard-response","483","875526","0.0-6.0-2.87","","<div style=""font-size:60px;"">+</div>","null","","","","","","",""
"790.2849999954924","","image-keyboard-response","484","876318","0.0-6.0-0.88","","img/grey.png","32","trial","null","false","0,1","4:nogo_d","",""
"null","","html-keyboard-response","485","877331","0.0-6.0-1.88","","<img src=""img/grey-n.png"" border=""10"">","null","trial","null","","0,1","4:nogo_d","0",""
"null","","html-keyboard-response","486","878334","0.0-6.0-2.88","","<div style=""font-size:60px;"">+</div>","null","","","","","","",""
"null","","image-keyboard-response","487","879838","0.0-6.0-0.89","","img/blue.png","null","trial","32","false","1,0","3:go_c","",""
"null","","html-keyboard-response","488","880841","0.0-6.0-1.89","","<img src=""img/blue-n.png"">","null","trial","32","","1,0","3:go_c","0",""
"null","","html-keyboard-response","489","881844","0.0-6.0-2.89","","<div style=""font-size:60px;"">+</div>","null","","","","","","",""
"1024.2750000033993","","image-keyboard-response","490","882870","0.0-6.0-0.90","","img/green.png","32","trial","null","false","0.2,0.8","2:nogo_b","",""
"null","","html-keyboard-response","491","883880","0.0-6.0-1.90","","<img src=""img/green-r.png"" border=""10"">","null","trial","null","","0.2,0.8","2:nogo_b","1",""
"null","","html-keyboard-response","492","884883","0.0-6.0-2.90","","<div style=""font-size:60px;"">+</div>","null","","","","","","",""
"657.3649999991758","","image-keyboard-response","493","885542","0.0-6.0-0.91","","img/yellow.png","32","trial","32","true","0.8,0.2","1:go_a","",""
"null","","html-keyboard-response","494","886556","0.0-6.0-1.91","","<img src=""img/yellow-r.png"" border=""10"">","null","trial","32","","0.8,0.2","1:go_a","1",""
"null","","html-keyboard-response","495","887558","0.0-6.0-2.91","","<div style=""font-size:60px;"">+</div>","null","","","","","","",""
"797.8500000026543","","image-keyboard-response","496","888358","0.0-6.0-0.92","","img/green.png","32","trial","null","false","0.2,0.8","2:nogo_b","",""
"null","","html-keyboard-response","497","889363","0.0-6.0-1.92","","<img src=""img/green-n.png"" border=""10"">","null","trial","null","","0.2,0.8","2:nogo_b","0",""
"null","","html-keyboard-response","498","890366","0.0-6.0-2.92","","<div style=""font-size:60px;"">+</div>","null","","","","","","",""
"838.2649999985006","","image-keyboard-response","499","891206","0.0-6.0-0.93","","img/grey.png","32","trial","null","false","0,1","4:nogo_d","",""
"null","","html-keyboard-response","500","892217","0.0-6.0-1.93","","<img src=""img/grey-n.png"" border=""10"">","null","trial","null","","0,1","4:nogo_d","0",""
"null","","html-keyboard-response","501","893219","0.0-6.0-2.93","","<div style=""font-size:60px;"">+</div>","null","","","","","","",""
"null","","image-keyboard-response","502","894723","0.0-6.0-0.94","","img/blue.png","null","trial","32","false","1,0","3:go_c","",""
"null","","html-keyboard-response","503","895741","0.0-6.0-1.94","","<img src=""img/blue-n.png"">","null","trial","32","","1,0","3:go_c","0",""
"null","","html-keyboard-response","504","896743","0.0-6.0-2.94","","<div style=""font-size:60px;"">+</div>","null","","","","","","",""
"493.0099999983795","","image-keyboard-response","505","897238","0.0-6.0-0.95","","img/yellow.png","32","trial","32","true","0.8,0.2","1:go_a","",""
"null","","html-keyboard-response","506","898246","0.0-6.0-1.95","","<img src=""img/yellow-r.png"" border=""10"">","null","trial","32","","0.8,0.2","1:go_a","1",""
"null","","html-keyboard-response","507","899248","0.0-6.0-2.95","","<div style=""font-size:60px;"">+</div>","null","","","","","","",""
"null","","image-keyboard-response","508","900752","0.0-6.0-0.96","","img/yellow.png","null","trial","32","false","0.8,0.2","1:go_a","",""
"null","","html-keyboard-response","509","901770","0.0-6.0-1.96","","<img src=""img/yellow-n.png"">","null","trial","32","","0.8,0.2","1:go_a","0",""
"null","","html-keyboard-response","510","902773","0.0-6.0-2.96","","<div style=""font-size:60px;"">+</div>","null","","","","","","",""
"null","","image-keyboard-response","511","904277","0.0-6.0-0.97","","img/blue.png","null","trial","32","false","1,0","3:go_c","",""
"null","","html-keyboard-response","512","905280","0.0-6.0-1.97","","<img src=""img/blue-n.png"">","null","trial","32","","1,0","3:go_c","0",""
"null","","html-keyboard-response","513","906282","0.0-6.0-2.97","","<div style=""font-size:60px;"">+</div>","null","","","","","","",""
"697.7850000039907","","image-keyboard-response","514","906982","0.0-6.0-0.98","","img/grey.png","32","trial","null","false","0,1","4:nogo_d","",""
"null","","html-keyboard-response","515","907987","0.0-6.0-1.98","","<img src=""img/grey-n.png"" border=""10"">","null","trial","null","","0,1","4:nogo_d","0",""
"null","","html-keyboard-response","516","908990","0.0-6.0-2.98","","<div style=""font-size:60px;"">+</div>","null","","","","","","",""
"645.8100000016857","","image-keyboard-response","517","909638","0.0-6.0-0.99","","img/green.png","32","trial","null","false","0.2,0.8","2:nogo_b","",""
"null","","html-keyboard-response","518","910647","0.0-6.0-1.99","","<img src=""img/green-r.png"" border=""10"">","null","trial","null","","0.2,0.8","2:nogo_b","1",""
"null","","html-keyboard-response","519","911650","0.0-6.0-2.99","","<div style=""font-size:60px;"">+</div>","null","","","","","","",""
"null","","image-keyboard-response","520","913153","0.0-6.0-0.100","","img/blue.png","null","trial","32","false","1,0","3:go_c","",""
"null","","html-keyboard-response","521","914172","0.0-6.0-1.100","","<img src=""img/blue-n.png"">","null","trial","32","","1,0","3:go_c","0",""
"null","","html-keyboard-response","522","915174","0.0-6.0-2.100","","<div style=""font-size:60px;"">+</div>","null","","","","","","",""
"null","","image-keyboard-response","523","916678","0.0-6.0-0.101","","img/green.png","null","trial","null","true","0.2,0.8","2:nogo_b","",""
"null","","html-keyboard-response","524","917680","0.0-6.0-1.101","","<img src=""img/green-r.png"">","null","trial","null","","0.2,0.8","2:nogo_b","1",""
"null","","html-keyboard-response","525","918683","0.0-6.0-2.101","","<div style=""font-size:60px;"">+</div>","null","","","","","","",""
"633.5950000066077","","image-keyboard-response","526","919318","0.0-6.0-0.102","","img/yellow.png","32","trial","32","true","0.8,0.2","1:go_a","",""
"null","","html-keyboard-response","527","920340","0.0-6.0-1.102","","<img src=""img/yellow-n.png"" border=""10"">","null","trial","32","","0.8,0.2","1:go_a","0",""
"null","","html-keyboard-response","528","921343","0.0-6.0-2.102","","<div style=""font-size:60px;"">+</div>","null","","","","","","",""
"1021.229999998468","","image-keyboard-response","529","922365","0.0-6.0-0.103","","img/grey.png","32","trial","null","false","0,1","4:nogo_d","",""
"null","","html-keyboard-response","530","923379","0.0-6.0-1.103","","<img src=""img/grey-n.png"" border=""10"">","null","trial","null","","0,1","4:nogo_d","0",""
"null","","html-keyboard-response","531","924382","0.0-6.0-2.103","","<div style=""font-size:60px;"">+</div>","null","","","","","","",""
"null","","image-keyboard-response","532","925886","0.0-6.0-0.104","","img/blue.png","null","trial","32","false","1,0","3:go_c","",""
"null","","html-keyboard-response","533","926889","0.0-6.0-1.104","","<img src=""img/blue-n.png"">","null","trial","32","","1,0","3:go_c","0",""
"null","","html-keyboard-response","534","927892","0.0-6.0-2.104","","<div style=""font-size:60px;"">+</div>","null","","","","","","",""
"null","","image-keyboard-response","535","929396","0.0-6.0-0.105","","img/grey.png","null","trial","null","true","0,1","4:nogo_d","",""
"null","","html-keyboard-response","536","930398","0.0-6.0-1.105","","<img src=""img/grey-r.png"">","null","trial","null","","0,1","4:nogo_d","1",""
"null","","html-keyboard-response","537","931401","0.0-6.0-2.105","","<div style=""font-size:60px;"">+</div>","null","","","","","","",""
"642.4750000005588","","image-keyboard-response","538","932045","0.0-6.0-0.106","","img/yellow.png","32","trial","32","true","0.8,0.2","1:go_a","",""
"null","","html-keyboard-response","539","933052","0.0-6.0-1.106","","<img src=""img/yellow-r.png"" border=""10"">","null","trial","32","","0.8,0.2","1:go_a","1",""
"null","","html-keyboard-response","540","934054","0.0-6.0-2.106","","<div style=""font-size:60px;"">+</div>","null","","","","","","",""
"445.6999999965774","","image-keyboard-response","541","934502","0.0-6.0-0.107","","img/green.png","32","trial","null","false","0.2,0.8","2:nogo_b","",""
"null","","html-keyboard-response","542","935511","0.0-6.0-1.107","","<img src=""img/green-n.png"" border=""10"">","null","trial","null","","0.2,0.8","2:nogo_b","0",""
"null","","html-keyboard-response","543","936514","0.0-6.0-2.107","","<div style=""font-size:60px;"">+</div>","null","","","","","","",""
"633.8850000028033","","image-keyboard-response","544","937149","0.0-6.0-0.108","","img/yellow.png","32","trial","32","true","0.8,0.2","1:go_a","",""
"null","","html-keyboard-response","545","938165","0.0-6.0-1.108","","<img src=""img/yellow-r.png"" border=""10"">","null","trial","32","","0.8,0.2","1:go_a","1",""
"null","","html-keyboard-response","546","939168","0.0-6.0-2.108","","<div style=""font-size:60px;"">+</div>","null","","","","","","",""
"null","","image-keyboard-response","547","940672","0.0-6.0-0.109","","img/blue.png","null","trial","32","false","1,0","3:go_c","",""
"null","","html-keyboard-response","548","941675","0.0-6.0-1.109","","<img src=""img/blue-n.png"">","null","trial","32","","1,0","3:go_c","0",""
"null","","html-keyboard-response","549","942677","0.0-6.0-2.109","","<div style=""font-size:60px;"">+</div>","null","","","","","","",""
"647.789999995497","","image-keyboard-response","550","943326","0.0-6.0-0.110","","img/grey.png","32","trial","null","false","0,1","4:nogo_d","",""
"null","","html-keyboard-response","551","944339","0.0-6.0-1.110","","<img src=""img/grey-n.png"" border=""10"">","null","trial","null","","0,1","4:nogo_d","0",""
"null","","html-keyboard-response","552","945342","0.0-6.0-2.110","","<div style=""font-size:60px;"">+</div>","null","","","","","","",""
"661.6250000006985","","image-keyboard-response","553","946006","0.0-6.0-0.111","","img/green.png","32","trial","null","false","0.2,0.8","2:nogo_b","",""
"null","","html-keyboard-response","554","947009","0.0-6.0-1.111","","<img src=""img/green-n.png"" border=""10"">","null","trial","null","","0.2,0.8","2:nogo_b","0",""
"null","","html-keyboard-response","555","948013","0.0-6.0-2.111","","<div style=""font-size:60px;"">+</div>","null","","","","","","",""
"null","","image-keyboard-response","556","949516","0.0-6.0-0.112","","img/blue.png","null","trial","32","false","1,0","3:go_c","",""
"null","","html-keyboard-response","557","950519","0.0-6.0-1.112","","<img src=""img/blue-n.png"">","null","trial","32","","1,0","3:go_c","0",""
"null","","html-keyboard-response","558","951522","0.0-6.0-2.112","","<div style=""font-size:60px;"">+</div>","null","","","","","","",""
"null","","image-keyboard-response","559","953026","0.0-6.0-0.113","","img/green.png","null","trial","null","true","0.2,0.8","2:nogo_b","",""
"null","","html-keyboard-response","560","954050","0.0-6.0-1.113","","<img src=""img/green-r.png"">","null","trial","null","","0.2,0.8","2:nogo_b","1",""
"null","","html-keyboard-response","561","955053","0.0-6.0-2.113","","<div style=""font-size:60px;"">+</div>","null","","","","","","",""
"719.2599999981467","","image-keyboard-response","562","955770","0.0-6.0-0.114","","img/yellow.png","32","trial","32","true","0.8,0.2","1:go_a","",""
"null","","html-keyboard-response","563","956784","0.0-6.0-1.114","","<img src=""img/yellow-r.png"" border=""10"">","null","trial","32","","0.8,0.2","1:go_a","1",""
"null","","html-keyboard-response","564","957787","0.0-6.0-2.114","","<div style=""font-size:60px;"">+</div>","null","","","","","","",""
"null","","image-keyboard-response","565","959290","0.0-6.0-0.115","","img/grey.png","null","trial","null","true","0,1","4:nogo_d","",""
"null","","html-keyboard-response","566","960293","0.0-6.0-1.115","","<img src=""img/grey-r.png"">","null","trial","null","","0,1","4:nogo_d","1",""
"null","","html-keyboard-response","567","961296","0.0-6.0-2.115","","<div style=""font-size:60px;"">+</div>","null","","","","","","",""
"null","","image-keyboard-response","568","962799","0.0-6.0-0.116","","img/blue.png","null","trial","32","false","1,0","3:go_c","",""
"null","","html-keyboard-response","569","963817","0.0-6.0-1.116","","<img src=""img/blue-n.png"">","null","trial","32","","1,0","3:go_c","0",""
"null","","html-keyboard-response","570","964819","0.0-6.0-2.116","","<div style=""font-size:60px;"">+</div>","null","","","","","","",""
"860.6749999962049","","image-keyboard-response","571","965682","0.0-6.0-0.117","","img/yellow.png","32","trial","32","true","0.8,0.2","1:go_a","",""
"null","","html-keyboard-response","572","966693","0.0-6.0-1.117","","<img src=""img/yellow-r.png"" border=""10"">","null","trial","32","","0.8,0.2","1:go_a","1",""
"null","","html-keyboard-response","573","967696","0.0-6.0-2.117","","<div style=""font-size:60px;"">+</div>","null","","","","","","",""
"null","","image-keyboard-response","574","969200","0.0-6.0-0.118","","img/green.png","null","trial","null","true","0.2,0.8","2:nogo_b","",""
"null","","html-keyboard-response","575","970218","0.0-6.0-1.118","","<img src=""img/green-r.png"">","null","trial","null","","0.2,0.8","2:nogo_b","1",""
"null","","html-keyboard-response","576","971220","0.0-6.0-2.118","","<div style=""font-size:60px;"">+</div>","null","","","","","","",""
"619.7900000042282","","image-keyboard-response","577","971842","0.0-6.0-0.119","","img/grey.png","32","trial","null","false","0,1","4:nogo_d","",""
"null","","html-keyboard-response","578","972856","0.0-6.0-1.119","","<img src=""img/grey-n.png"" border=""10"">","null","trial","null","","0,1","4:nogo_d","0",""
"null","","html-keyboard-response","579","973858","0.0-6.0-2.119","","<div style=""font-size:60px;"">+</div>","null","","","","","","",""
"7139.995000005001","","instructions","580","980999","0.0-7.0","[{""page_index"":0,""viewing_time"":7139.825000005658}]","","","","","","","","",""
"null","","image-keyboard-response","581","982514","0.0-8.0-0.0","","img/grey.png","null","trial","null","true","0.4,0.6","4:nogo_d","",""
"null","","html-keyboard-response","582","983516","0.0-8.0-1.0","","<img src=""img/grey-n.png"">","null","trial","null","","0.4,0.6","4:nogo_d","0",""
"null","","html-keyboard-response","583","984519","0.0-8.0-2.0","","<div style=""font-size:60px;"">+</div>","null","","","","","","",""
"1137.399999999674","","image-keyboard-response","584","985658","0.0-8.0-0.1","","img/pink.png","32","trial","32","true","0.6,0.4","3:go_c","",""
"null","","html-keyboard-response","585","986671","0.0-8.0-1.1","","<img src=""img/pink-n.png"" border=""10"">","null","trial","32","","0.6,0.4","3:go_c","0",""
"null","","html-keyboard-response","586","987673","0.0-8.0-2.1","","<div style=""font-size:60px;"">+</div>","null","","","","","","",""
"639.0549999995856","","image-keyboard-response","587","988314","0.0-8.0-0.2","","img/orange.png","32","trial","32","true","0.6,0.4","1:go_a","",""
"null","","html-keyboard-response","588","989330","0.0-8.0-1.2","","<img src=""img/orange-r.png"" border=""10"">","null","trial","32","","0.6,0.4","1:go_a","1",""
"null","","html-keyboard-response","589","990333","0.0-8.0-2.2","","<div style=""font-size:60px;"">+</div>","null","","","","","","",""
"null","","image-keyboard-response","590","991837","0.0-8.0-0.3","","img/blue.png","null","trial","null","true","0.4,0.6","2:nogo_b","",""
"null","","html-keyboard-response","591","992840","0.0-8.0-1.3","","<img src=""img/blue-n.png"">","null","trial","null","","0.4,0.6","2:nogo_b","0",""
"null","","html-keyboard-response","592","993842","0.0-8.0-2.3","","<div style=""font-size:60px;"">+</div>","null","","","","","","",""
"null","","image-keyboard-response","593","995346","0.0-8.0-0.4","","img/blue.png","null","trial","null","true","0.4,0.6","2:nogo_b","",""
"null","","html-keyboard-response","594","996349","0.0-8.0-1.4","","<img src=""img/blue-r.png"">","null","trial","null","","0.4,0.6","2:nogo_b","1",""
"null","","html-keyboard-response","595","997352","0.0-8.0-2.4","","<div style=""font-size:60px;"">+</div>","null","","","","","","",""
"712.2450000024401","","image-keyboard-response","596","998066","0.0-8.0-0.5","","img/pink.png","32","trial","32","true","0.6,0.4","3:go_c","",""
"null","","html-keyboard-response","597","999072","0.0-8.0-1.5","","<img src=""img/pink-r.png"" border=""10"">","null","trial","32","","0.6,0.4","3:go_c","1",""
"null","","html-keyboard-response","598","1000075","0.0-8.0-2.5","","<div style=""font-size:60px;"">+</div>","null","","","","","","",""
"null","","image-keyboard-response","599","1001591","0.0-8.0-0.6","","img/grey.png","null","trial","null","true","0.4,0.6","4:nogo_d","",""
"null","","html-keyboard-response","600","1002609","0.0-8.0-1.6","","<img src=""img/grey-n.png"">","null","trial","null","","0.4,0.6","4:nogo_d","0",""
"null","","html-keyboard-response","601","1003612","0.0-8.0-2.6","","<div style=""font-size:60px;"">+</div>","null","","","","","","",""
"660.1500000032829","","image-keyboard-response","602","1004274","0.0-8.0-0.7","","img/orange.png","32","trial","32","true","0.6,0.4","1:go_a","",""
"null","","html-keyboard-response","603","1005285","0.0-8.0-1.7","","<img src=""img/orange-r.png"" border=""10"">","null","trial","32","","0.6,0.4","1:go_a","1",""
"null","","html-keyboard-response","604","1006288","0.0-8.0-2.7","","<div style=""font-size:60px;"">+</div>","null","","","","","","",""
"720.7500000004657","","image-keyboard-response","605","1007010","0.0-8.0-0.8","","img/orange.png","32","trial","32","true","0.6,0.4","1:go_a","",""
"null","","html-keyboard-response","606","1008023","0.0-8.0-1.8","","<img src=""img/orange-r.png"" border=""10"">","null","trial","32","","0.6,0.4","1:go_a","1",""
"null","","html-keyboard-response","607","1009025","0.0-8.0-2.8","","<div style=""font-size:60px;"">+</div>","null","","","","","","",""
"null","","image-keyboard-response","608","1010529","0.0-8.0-0.9","","img/blue.png","null","trial","null","true","0.4,0.6","2:nogo_b","",""
"null","","html-keyboard-response","609","1011532","0.0-8.0-1.9","","<img src=""img/blue-r.png"">","null","trial","null","","0.4,0.6","2:nogo_b","1",""
"null","","html-keyboard-response","610","1012534","0.0-8.0-2.9","","<div style=""font-size:60px;"">+</div>","null","","","","","","",""
"968.9349999971455","","image-keyboard-response","611","1013505","0.0-8.0-0.10","","img/pink.png","32","trial","32","true","0.6,0.4","3:go_c","",""
"null","","html-keyboard-response","612","1014508","0.0-8.0-1.10","","<img src=""img/pink-r.png"" border=""10"">","null","trial","32","","0.6,0.4","3:go_c","1",""
"null","","html-keyboard-response","613","1015511","0.0-8.0-2.10","","<div style=""font-size:60px;"">+</div>","null","","","","","","",""
"null","","image-keyboard-response","614","1017034","0.0-8.0-0.11","","img/grey.png","null","trial","null","true","0.4,0.6","4:nogo_d","",""
"null","","html-keyboard-response","615","1018052","0.0-8.0-1.11","","<img src=""img/grey-n.png"">","null","trial","null","","0.4,0.6","4:nogo_d","0",""
"null","","html-keyboard-response","616","1019054","0.0-8.0-2.11","","<div style=""font-size:60px;"">+</div>","null","","","","","","",""
"null","","image-keyboard-response","617","1020558","0.0-8.0-0.12","","img/grey.png","null","trial","null","true","0.4,0.6","4:nogo_d","",""
"null","","html-keyboard-response","618","1021583","0.0-8.0-1.12","","<img src=""img/grey-n.png"">","null","trial","null","","0.4,0.6","4:nogo_d","0",""
"null","","html-keyboard-response","619","1022586","0.0-8.0-2.12","","<div style=""font-size:60px;"">+</div>","null","","","","","","",""
"490.1749999988824","","image-keyboard-response","620","1023078","0.0-8.0-0.13","","img/orange.png","32","trial","32","true","0.6,0.4","1:go_a","",""
"null","","html-keyboard-response","621","1024089","0.0-8.0-1.13","","<img src=""img/orange-n.png"" border=""10"">","null","trial","32","","0.6,0.4","1:go_a","0",""
"null","","html-keyboard-response","622","1025092","0.0-8.0-2.13","","<div style=""font-size:60px;"">+</div>","null","","","","","","",""
"null","","image-keyboard-response","623","1026596","0.0-8.0-0.14","","img/blue.png","null","trial","null","true","0.4,0.6","2:nogo_b","",""
"null","","html-keyboard-response","624","1027600","0.0-8.0-1.14","","<img src=""img/blue-n.png"">","null","trial","null","","0.4,0.6","2:nogo_b","0",""
"null","","html-keyboard-response","625","1028602","0.0-8.0-2.14","","<div style=""font-size:60px;"">+</div>","null","","","","","","",""
"497.77500000351574","","image-keyboard-response","626","1029101","0.0-8.0-0.15","","img/pink.png","32","trial","32","true","0.6,0.4","3:go_c","",""
"null","","html-keyboard-response","627","1030105","0.0-8.0-1.15","","<img src=""img/pink-r.png"" border=""10"">","null","trial","32","","0.6,0.4","3:go_c","1",""
"null","","html-keyboard-response","628","1031108","0.0-8.0-2.15","","<div style=""font-size:60px;"">+</div>","null","","","","","","",""
"null","","image-keyboard-response","629","1032612","0.0-8.0-0.16","","img/grey.png","null","trial","null","true","0.4,0.6","4:nogo_d","",""
"null","","html-keyboard-response","630","1033615","0.0-8.0-1.16","","<img src=""img/grey-r.png"">","null","trial","null","","0.4,0.6","4:nogo_d","1",""
"null","","html-keyboard-response","631","1034618","0.0-8.0-2.16","","<div style=""font-size:60px;"">+</div>","null","","","","","","",""
"null","","image-keyboard-response","632","1036122","0.0-8.0-0.17","","img/blue.png","null","trial","null","true","0.4,0.6","2:nogo_b","",""
"null","","html-keyboard-response","633","1037140","0.0-8.0-1.17","","<img src=""img/blue-n.png"">","null","trial","null","","0.4,0.6","2:nogo_b","0",""
"null","","html-keyboard-response","634","1038143","0.0-8.0-2.17","","<div style=""font-size:60px;"">+</div>","null","","","","","","",""
"621.0250000003725","","image-keyboard-response","635","1038765","0.0-8.0-0.18","","img/pink.png","32","trial","32","true","0.6,0.4","3:go_c","",""
"null","","html-keyboard-response","636","1039778","0.0-8.0-1.18","","<img src=""img/pink-r.png"" border=""10"">","null","trial","32","","0.6,0.4","3:go_c","1",""
"null","","html-keyboard-response","637","1040780","0.0-8.0-2.18","","<div style=""font-size:60px;"">+</div>","null","","","","","","",""
"687.1099999989383","","image-keyboard-response","638","1041469","0.0-8.0-0.19","","img/orange.png","32","trial","32","true","0.6,0.4","1:go_a","",""
"null","","html-keyboard-response","639","1042484","0.0-8.0-1.19","","<img src=""img/orange-n.png"" border=""10"">","null","trial","32","","0.6,0.4","1:go_a","0",""
"null","","html-keyboard-response","640","1043487","0.0-8.0-2.19","","<div style=""font-size:60px;"">+</div>","null","","","","","","",""
"804.9500000050757","","image-keyboard-response","641","1044293","0.0-8.0-0.20","","img/grey.png","32","trial","null","false","0.4,0.6","4:nogo_d","",""
"null","","html-keyboard-response","642","1045307","0.0-8.0-1.20","","<img src=""img/grey-r.png"" border=""10"">","null","trial","null","","0.4,0.6","4:nogo_d","1",""
"null","","html-keyboard-response","643","1046309","0.0-8.0-2.20","","<div style=""font-size:60px;"">+</div>","null","","","","","","",""
"670.265000000596","","image-keyboard-response","644","1046981","0.0-8.0-0.21","","img/pink.png","32","trial","32","true","0.6,0.4","3:go_c","",""
"null","","html-keyboard-response","645","1047998","0.0-8.0-1.21","","<img src=""img/pink-n.png"" border=""10"">","null","trial","32","","0.6,0.4","3:go_c","0",""
"null","","html-keyboard-response","646","1049000","0.0-8.0-2.21","","<div style=""font-size:60px;"">+</div>","null","","","","","","",""
"null","","image-keyboard-response","647","1050504","0.0-8.0-0.22","","img/blue.png","null","trial","null","true","0.4,0.6","2:nogo_b","",""
"null","","html-keyboard-response","648","1051506","0.0-8.0-1.22","","<img src=""img/blue-r.png"">","null","trial","null","","0.4,0.6","2:nogo_b","1",""
"null","","html-keyboard-response","649","1052508","0.0-8.0-2.22","","<div style=""font-size:60px;"">+</div>","null","","","","","","",""
"639.7149999975227","","image-keyboard-response","650","1053149","0.0-8.0-0.23","","img/orange.png","32","trial","32","true","0.6,0.4","1:go_a","",""
"null","","html-keyboard-response","651","1054165","0.0-8.0-1.23","","<img src=""img/orange-r.png"" border=""10"">","null","trial","32","","0.6,0.4","1:go_a","1",""
"null","","html-keyboard-response","652","1055168","0.0-8.0-2.23","","<div style=""font-size:60px;"">+</div>","null","","","","","","",""
"null","","image-keyboard-response","653","1056672","0.0-8.0-0.24","","img/blue.png","null","trial","null","true","0.4,0.6","2:nogo_b","",""
"null","","html-keyboard-response","654","1057690","0.0-8.0-1.24","","<img src=""img/blue-r.png"">","null","trial","null","","0.4,0.6","2:nogo_b","1",""
"null","","html-keyboard-response","655","1058692","0.0-8.0-2.24","","<div style=""font-size:60px;"">+</div>","null","","","","","","",""
"null","","image-keyboard-response","656","1060197","0.0-8.0-0.25","","img/grey.png","null","trial","null","true","0.4,0.6","4:nogo_d","",""
"null","","html-keyboard-response","657","1061200","0.0-8.0-1.25","","<img src=""img/grey-r.png"">","null","trial","null","","0.4,0.6","4:nogo_d","1",""
"null","","html-keyboard-response","658","1062202","0.0-8.0-2.25","","<div style=""font-size:60px;"">+</div>","null","","","","","","",""
"640.9700000004377","","image-keyboard-response","659","1062845","0.0-8.0-0.26","","img/pink.png","32","trial","32","true","0.6,0.4","3:go_c","",""
"null","","html-keyboard-response","660","1063853","0.0-8.0-1.26","","<img src=""img/pink-n.png"" border=""10"">","null","trial","32","","0.6,0.4","3:go_c","0",""
"null","","html-keyboard-response","661","1064855","0.0-8.0-2.26","","<div style=""font-size:60px;"">+</div>","null","","","","","","",""
"500.56999999657273","","image-keyboard-response","662","1065357","0.0-8.0-0.27","","img/orange.png","32","trial","32","true","0.6,0.4","1:go_a","",""
"null","","html-keyboard-response","663","1066374","0.0-8.0-1.27","","<img src=""img/orange-r.png"" border=""10"">","null","trial","32","","0.6,0.4","1:go_a","1",""
"null","","html-keyboard-response","664","1067377","0.0-8.0-2.27","","<div style=""font-size:60px;"">+</div>","null","","","","","","",""
"562.5350000045728","","image-keyboard-response","665","1067941","0.0-8.0-0.28","","img/pink.png","32","trial","32","true","0.6,0.4","3:go_c","",""
"null","","html-keyboard-response","666","1068949","0.0-8.0-1.28","","<img src=""img/pink-r.png"" border=""10"">","null","trial","32","","0.6,0.4","3:go_c","1",""
"null","","html-keyboard-response","667","1069952","0.0-8.0-2.28","","<div style=""font-size:60px;"">+</div>","null","","","","","","",""
"611.8950000018813","","image-keyboard-response","668","1070565","0.0-8.0-0.29","","img/orange.png","32","trial","32","true","0.6,0.4","1:go_a","",""
"null","","html-keyboard-response","669","1071571","0.0-8.0-1.29","","<img src=""img/orange-r.png"" border=""10"">","null","trial","32","","0.6,0.4","1:go_a","1",""
"null","","html-keyboard-response","670","1072573","0.0-8.0-2.29","","<div style=""font-size:60px;"">+</div>","null","","","","","","",""
"null","","image-keyboard-response","671","1074077","0.0-8.0-0.30","","img/blue.png","null","trial","null","true","0.4,0.6","2:nogo_b","",""
"null","","html-keyboard-response","672","1075094","0.0-8.0-1.30","","<img src=""img/blue-r.png"">","null","trial","null","","0.4,0.6","2:nogo_b","1",""
"null","","html-keyboard-response","673","1076097","0.0-8.0-2.30","","<div style=""font-size:60px;"">+</div>","null","","","","","","",""
"594.4999999993015","","image-keyboard-response","674","1076693","0.0-8.0-0.31","","img/grey.png","32","trial","null","false","0.4,0.6","4:nogo_d","",""
"null","","html-keyboard-response","675","1077702","0.0-8.0-1.31","","<img src=""img/grey-n.png"" border=""10"">","null","trial","null","","0.4,0.6","4:nogo_d","0",""
"null","","html-keyboard-response","676","1078704","0.0-8.0-2.31","","<div style=""font-size:60px;"">+</div>","null","","","","","","",""
"619.2399999999907","","image-keyboard-response","677","1079325","0.0-8.0-0.32","","img/orange.png","32","trial","32","true","0.6,0.4","1:go_a","",""
"null","","html-keyboard-response","678","1080331","0.0-8.0-1.32","","<img src=""img/orange-r.png"" border=""10"">","null","trial","32","","0.6,0.4","1:go_a","1",""
"null","","html-keyboard-response","679","1081333","0.0-8.0-2.32","","<div style=""font-size:60px;"">+</div>","null","","","","","","",""
"null","","image-keyboard-response","680","1082837","0.0-8.0-0.33","","img/blue.png","null","trial","null","true","0.4,0.6","2:nogo_b","",""
"null","","html-keyboard-response","681","1083840","0.0-8.0-1.33","","<img src=""img/blue-r.png"">","null","trial","null","","0.4,0.6","2:nogo_b","1",""
"null","","html-keyboard-response","682","1084843","0.0-8.0-2.33","","<div style=""font-size:60px;"">+</div>","null","","","","","","",""
"null","","image-keyboard-response","683","1086347","0.0-8.0-0.34","","img/grey.png","null","trial","null","true","0.4,0.6","4:nogo_d","",""
"null","","html-keyboard-response","684","1087350","0.0-8.0-1.34","","<img src=""img/grey-n.png"">","null","trial","null","","0.4,0.6","4:nogo_d","0",""
"null","","html-keyboard-response","685","1088352","0.0-8.0-2.34","","<div style=""font-size:60px;"">+</div>","null","","","","","","",""
