"rt","url","trial_type","trial_index","time_elapsed","internal_node_id","view_history","stimulus","key_press","test_part","correct_response","correct","use_rew","which_stim","reward","responses"
"15220.2750002034","consent.html","external-html","0","15385","0.0-0.0","","","","","","","","","",""
"91228.4950001631","","instructions","1","106615","0.0-1.0","[{""page_index"":0,""viewing_time"":4219.1100001800805},{""page_index"":1,""viewing_time"":16528.49499997683},{""page_index"":2,""viewing_time"":5885.5449999682605},{""page_index"":3,""viewing_time"":26340.21500009112},{""page_index"":4,""viewing_time"":11881.3300000038},{""page_index"":5,""viewing_time"":11387.159999925643},{""page_index"":6,""viewing_time"":14985.3900000453}]","","","","","","","","",""
"629.4750000815839","","image-keyboard-response","2","107246","0.0-2.0-0.0","","img/test1.PNG","32","practice","32","true","","","",""
"null","","html-keyboard-response","3","108249","0.0-2.0-1.0","","<img src=""img/test1-reward.PNG"" border=""10px; grey"">","null","","","","","","",""
"null","","html-keyboard-response","4","109251","0.0-2.0-2.0","","<div style=""font-size:60px;"">+</div>","null","","","","","","",""
"null","","image-keyboard-response","5","110753","0.0-2.0-0.1","","img/test3.PNG","null","practice","null","true","","","",""
"null","","html-keyboard-response","6","111755","0.0-2.0-1.1","","<img src=""img/test3-reward.PNG"">","null","","","","","","",""
"null","","html-keyboard-response","7","112757","0.0-2.0-2.1","","<div style=""font-size:60px;"">+</div>","null","","","","","","",""
"null","","image-keyboard-response","8","114258","0.0-2.0-0.2","","img/test2.PNG","null","practice","null","true","","","",""
"null","","html-keyboard-response","9","115261","0.0-2.0-1.2","","<img src=""img/test2-reward.PNG"">","null","","","","","","",""
"null","","html-keyboard-response","10","116263","0.0-2.0-2.2","","<div style=""font-size:60px;"">+</div>","null","","","","","","",""
"551.3999999966472","","image-keyboard-response","11","116815","0.0-2.0-0.3","","img/test1.PNG","32","practice","32","true","","","",""
"null","","html-keyboard-response","12","117818","0.0-2.0-1.3","","<img src=""img/test1-reward.PNG"" border=""10px; grey"">","null","","","","","","",""
"null","","html-keyboard-response","13","118820","0.0-2.0-2.3","","<div style=""font-size:60px;"">+</div>","null","","","","","","",""
"null","","image-keyboard-response","14","120322","0.0-2.0-0.4","","img/test2.PNG","null","practice","null","true","","","",""
"null","","html-keyboard-response","15","121324","0.0-2.0-1.4","","<img src=""img/test2-reward.PNG"">","null","","","","","","",""
"null","","html-keyboard-response","16","122325","0.0-2.0-2.4","","<div style=""font-size:60px;"">+</div>","null","","","","","","",""
"null","","image-keyboard-response","17","123829","0.0-2.0-0.5","","img/test3.PNG","null","practice","null","true","","","",""
"null","","html-keyboard-response","18","124831","0.0-2.0-1.5","","<img src=""img/test3-reward.PNG"">","null","","","","","","",""
"null","","html-keyboard-response","19","125833","0.0-2.0-2.5","","<div style=""font-size:60px;"">+</div>","null","","","","","","",""
"null","","image-keyboard-response","20","127336","0.0-2.0-0.6","","img/test3.PNG","null","practice","null","true","","","",""
"null","","html-keyboard-response","21","128337","0.0-2.0-1.6","","<img src=""img/test3-reward.PNG"">","null","","","","","","",""
"null","","html-keyboard-response","22","129374","0.0-2.0-2.6","","<div style=""font-size:60px;"">+</div>","null","","","","","","",""
"null","","image-keyboard-response","23","130877","0.0-2.0-0.7","","img/test2.PNG","null","practice","null","true","","","",""
"null","","html-keyboard-response","24","131878","0.0-2.0-1.7","","<img src=""img/test2-reward.PNG"">","null","","","","","","",""
"null","","html-keyboard-response","25","132880","0.0-2.0-2.7","","<div style=""font-size:60px;"">+</div>","null","","","","","","",""
"542.7149999886751","","image-keyboard-response","26","133424","0.0-2.0-0.8","","img/test1.PNG","32","practice","32","true","","","",""
"null","","html-keyboard-response","27","134426","0.0-2.0-1.8","","<img src=""img/test1-reward.PNG"" border=""10px; grey"">","null","","","","","","",""
"null","","html-keyboard-response","28","135428","0.0-2.0-2.8","","<div style=""font-size:60px;"">+</div>","null","","","","","","",""
"null","","image-keyboard-response","29","136930","0.0-2.0-0.9","","img/test3.PNG","null","practice","null","true","","","",""
"null","","html-keyboard-response","30","137932","0.0-2.0-1.9","","<img src=""img/test3-reward.PNG"">","null","","","","","","",""
"null","","html-keyboard-response","31","138935","0.0-2.0-2.9","","<div style=""font-size:60px;"">+</div>","null","","","","","","",""
"541.6699999477714","","image-keyboard-response","32","139478","0.0-2.0-0.10","","img/test1.PNG","32","practice","32","true","","","",""
"null","","html-keyboard-response","33","140480","0.0-2.0-1.10","","<img src=""img/test1-reward.PNG"" border=""10px; grey"">","null","","","","","","",""
"null","","html-keyboard-response","34","141481","0.0-2.0-2.10","","<div style=""font-size:60px;"">+</div>","null","","","","","","",""
"null","","image-keyboard-response","35","142983","0.0-2.0-0.11","","img/test2.PNG","null","practice","null","true","","","",""
"null","","html-keyboard-response","36","143986","0.0-2.0-1.11","","<img src=""img/test2-reward.PNG"">","null","","","","","","",""
"null","","html-keyboard-response","37","144988","0.0-2.0-2.11","","<div style=""font-size:60px;"">+</div>","null","","","","","","",""
"3804.8349998425692","","instructions","38","148793","0.0-3.0","[{""page_index"":0,""viewing_time"":3804.5249998103827}]","","","","","","","","",""
"null","","image-keyboard-response","39","150296","0.0-4.0-0.0","","img/pink.png","null","trial","32","false","0.8,0.2","1:go_a","",""
"null","","html-keyboard-response","40","151300","0.0-4.0-1.0","","<img src=""img/pink-n.png"">","null","trial","32","","0.8,0.2","1:go_a","0",""
"null","","html-keyboard-response","41","152302","0.0-4.0-2.0","","<div style=""font-size:60px;"">+</div>","null","","","","","","",""
"549.9100000597537","","image-keyboard-response","42","152853","0.0-4.0-0.1","","img/orange.png","32","trial","null","false","0.2,0.8","2:nogo_b","",""
"null","","html-keyboard-response","43","153856","0.0-4.0-1.1","","<img src=""img/orange-n.png"" border=""10"">","null","trial","null","","0.2,0.8","2:nogo_b","0",""
"null","","html-keyboard-response","44","154858","0.0-4.0-2.1","","<div style=""font-size:60px;"">+</div>","null","","","","","","",""
"483.1799999810755","","image-keyboard-response","45","155342","0.0-4.0-0.2","","img/pink.png","32","trial","32","true","0.8,0.2","1:go_a","",""
"null","","html-keyboard-response","46","156345","0.0-4.0-1.2","","<img src=""img/pink-n.png"" border=""10"">","null","trial","32","","0.8,0.2","1:go_a","0",""
"null","","html-keyboard-response","47","157382","0.0-4.0-2.2","","<div style=""font-size:60px;"">+</div>","null","","","","","","",""
"null","","image-keyboard-response","48","158884","0.0-4.0-0.3","","img/orange.png","null","trial","null","true","0.2,0.8","2:nogo_b","",""
"null","","html-keyboard-response","49","159886","0.0-4.0-1.3","","<img src=""img/orange-r.png"">","null","trial","null","","0.2,0.8","2:nogo_b","1",""
"null","","html-keyboard-response","50","160888","0.0-4.0-2.3","","<div style=""font-size:60px;"">+</div>","null","","","","","","",""
"648.8200000021607","","image-keyboard-response","51","161538","0.0-4.0-0.4","","img/orange.png","32","trial","null","false","0.2,0.8","2:nogo_b","",""
"null","","html-keyboard-response","52","162540","0.0-4.0-1.4","","<img src=""img/orange-n.png"" border=""10"">","null","trial","null","","0.2,0.8","2:nogo_b","0",""
"null","","html-keyboard-response","53","163542","0.0-4.0-2.4","","<div style=""font-size:60px;"">+</div>","null","","","","","","",""
"615.0200001429766","","image-keyboard-response","54","164158","0.0-4.0-0.5","","img/pink.png","32","trial","32","true","0.8,0.2","1:go_a","",""
"null","","html-keyboard-response","55","165161","0.0-4.0-1.5","","<img src=""img/pink-r.png"" border=""10"">","null","trial","32","","0.8,0.2","1:go_a","1",""
"null","","html-keyboard-response","56","166162","0.0-4.0-2.5","","<div style=""font-size:60px;"">+</div>","null","","","","","","",""
"593.3399999048561","","image-keyboard-response","57","166756","0.0-4.0-0.6","","img/pink.png","32","trial","32","true","0.8,0.2","1:go_a","",""
"null","","html-keyboard-response","58","167759","0.0-4.0-1.6","","<img src=""img/pink-r.png"" border=""10"">","null","trial","32","","0.8,0.2","1:go_a","1",""
"null","","html-keyboard-response","59","168762","0.0-4.0-2.6","","<div style=""font-size:60px;"">+</div>","null","","","","","","",""
"1008.6600000504404","","image-keyboard-response","60","169771","0.0-4.0-0.7","","img/orange.png","32","trial","null","false","0.2,0.8","2:nogo_b","",""
"null","","html-keyboard-response","61","170774","0.0-4.0-1.7","","<img src=""img/orange-r.png"" border=""10"">","null","trial","null","","0.2,0.8","2:nogo_b","1",""
"null","","html-keyboard-response","62","171776","0.0-4.0-2.7","","<div style=""font-size:60px;"">+</div>","null","","","","","","",""
"686.1199999693781","","image-keyboard-response","63","172463","0.0-4.0-0.8","","img/pink.png","32","trial","32","true","0.8,0.2","1:go_a","",""
"null","","html-keyboard-response","64","173478","0.0-4.0-1.8","","<img src=""img/pink-r.png"" border=""10"">","null","trial","32","","0.8,0.2","1:go_a","1",""
"null","","html-keyboard-response","65","174480","0.0-4.0-2.8","","<div style=""font-size:60px;"">+</div>","null","","","","","","",""
"696.0249999538064","","image-keyboard-response","66","175177","0.0-4.0-0.9","","img/orange.png","32","trial","null","false","0.2,0.8","2:nogo_b","",""
"null","","html-keyboard-response","67","176179","0.0-4.0-1.9","","<img src=""img/orange-n.png"" border=""10"">","null","trial","null","","0.2,0.8","2:nogo_b","0",""
"null","","html-keyboard-response","68","177181","0.0-4.0-2.9","","<div style=""font-size:60px;"">+</div>","null","","","","","","",""
"899.280000012368","","image-keyboard-response","69","178082","0.0-4.0-0.10","","img/orange.png","32","trial","null","false","0.2,0.8","2:nogo_b","",""
"null","","html-keyboard-response","70","179087","0.0-4.0-1.10","","<img src=""img/orange-n.png"" border=""10"">","null","trial","null","","0.2,0.8","2:nogo_b","0",""
"null","","html-keyboard-response","71","180088","0.0-4.0-2.10","","<div style=""font-size:60px;"">+</div>","null","","","","","","",""
"534.4350000377744","","image-keyboard-response","72","180624","0.0-4.0-0.11","","img/pink.png","32","trial","32","true","0.8,0.2","1:go_a","",""
"null","","html-keyboard-response","73","181627","0.0-4.0-1.11","","<img src=""img/pink-r.png"" border=""10"">","null","trial","32","","0.8,0.2","1:go_a","1",""
"null","","html-keyboard-response","74","182629","0.0-4.0-2.11","","<div style=""font-size:60px;"">+</div>","null","","","","","","",""
"1440.7049999572337","","image-keyboard-response","75","184070","0.0-4.0-0.12","","img/pink.png","32","trial","32","true","0.8,0.2","1:go_a","",""
"null","","html-keyboard-response","76","185074","0.0-4.0-1.12","","<img src=""img/pink-r.png"" border=""10"">","null","trial","32","","0.8,0.2","1:go_a","1",""
"null","","html-keyboard-response","77","186076","0.0-4.0-2.12","","<div style=""font-size:60px;"">+</div>","null","","","","","","",""
"null","","image-keyboard-response","78","187577","0.0-4.0-0.13","","img/orange.png","null","trial","null","true","0.2,0.8","2:nogo_b","",""
"null","","html-keyboard-response","79","188579","0.0-4.0-1.13","","<img src=""img/orange-r.png"">","null","trial","null","","0.2,0.8","2:nogo_b","1",""
"null","","html-keyboard-response","80","189589","0.0-4.0-2.13","","<div style=""font-size:60px;"">+</div>","null","","","","","","",""
"561.4750001113862","","image-keyboard-response","81","190151","0.0-4.0-0.14","","img/pink.png","32","trial","32","true","0.8,0.2","1:go_a","",""
"null","","html-keyboard-response","82","191153","0.0-4.0-1.14","","<img src=""img/pink-r.png"" border=""10"">","null","trial","32","","0.8,0.2","1:go_a","1",""
"null","","html-keyboard-response","83","192155","0.0-4.0-2.14","","<div style=""font-size:60px;"">+</div>","null","","","","","","",""
"502.77499994263053","","image-keyboard-response","84","192659","0.0-4.0-0.15","","img/orange.png","32","trial","null","false","0.2,0.8","2:nogo_b","",""
"null","","html-keyboard-response","85","193661","0.0-4.0-1.15","","<img src=""img/orange-n.png"" border=""10"">","null","trial","null","","0.2,0.8","2:nogo_b","0",""
"null","","html-keyboard-response","86","194664","0.0-4.0-2.15","","<div style=""font-size:60px;"">+</div>","null","","","","","","",""
"null","","image-keyboard-response","87","196166","0.0-4.0-0.16","","img/orange.png","null","trial","null","true","0.2,0.8","2:nogo_b","",""
"null","","html-keyboard-response","88","197168","0.0-4.0-1.16","","<img src=""img/orange-r.png"">","null","trial","null","","0.2,0.8","2:nogo_b","1",""
"null","","html-keyboard-response","89","198170","0.0-4.0-2.16","","<div style=""font-size:60px;"">+</div>","null","","","","","","",""
"498.79999994300306","","image-keyboard-response","90","198670","0.0-4.0-0.17","","img/pink.png","32","trial","32","true","0.8,0.2","1:go_a","",""
"null","","html-keyboard-response","91","199672","0.0-4.0-1.17","","<img src=""img/pink-r.png"" border=""10"">","null","trial","32","","0.8,0.2","1:go_a","1",""
"null","","html-keyboard-response","92","200674","0.0-4.0-2.17","","<div style=""font-size:60px;"">+</div>","null","","","","","","",""
"626.0550001170486","","image-keyboard-response","93","201301","0.0-4.0-0.18","","img/pink.png","32","trial","32","true","0.8,0.2","1:go_a","",""
"null","","html-keyboard-response","94","202304","0.0-4.0-1.18","","<img src=""img/pink-r.png"" border=""10"">","null","trial","32","","0.8,0.2","1:go_a","1",""
"null","","html-keyboard-response","95","203306","0.0-4.0-2.18","","<div style=""font-size:60px;"">+</div>","null","","","","","","",""
"null","","image-keyboard-response","96","204808","0.0-4.0-0.19","","img/orange.png","null","trial","null","true","0.2,0.8","2:nogo_b","",""
"null","","html-keyboard-response","97","205812","0.0-4.0-1.19","","<img src=""img/orange-n.png"">","null","trial","null","","0.2,0.8","2:nogo_b","0",""
"null","","html-keyboard-response","98","206813","0.0-4.0-2.19","","<div style=""font-size:60px;"">+</div>","null","","","","","","",""
"null","","image-keyboard-response","99","208356","0.0-4.0-0.20","","img/orange.png","null","trial","null","true","0.2,0.8","2:nogo_b","",""
"null","","html-keyboard-response","100","209359","0.0-4.0-1.20","","<img src=""img/orange-r.png"">","null","trial","null","","0.2,0.8","2:nogo_b","1",""
"null","","html-keyboard-response","101","210361","0.0-4.0-2.20","","<div style=""font-size:60px;"">+</div>","null","","","","","","",""
"567.490000044927","","image-keyboard-response","102","210930","0.0-4.0-0.21","","img/pink.png","32","trial","32","true","0.8,0.2","1:go_a","",""
"null","","html-keyboard-response","103","211932","0.0-4.0-1.21","","<img src=""img/pink-r.png"" border=""10"">","null","trial","32","","0.8,0.2","1:go_a","1",""
"null","","html-keyboard-response","104","212969","0.0-4.0-2.21","","<div style=""font-size:60px;"">+</div>","null","","","","","","",""
"561.0400000587106","","image-keyboard-response","105","213532","0.0-4.0-0.22","","img/pink.png","32","trial","32","true","0.8,0.2","1:go_a","",""
"null","","html-keyboard-response","106","214534","0.0-4.0-1.22","","<img src=""img/pink-r.png"" border=""10"">","null","trial","32","","0.8,0.2","1:go_a","1",""
"null","","html-keyboard-response","107","215536","0.0-4.0-2.22","","<div style=""font-size:60px;"">+</div>","null","","","","","","",""
"666.9750001747161","","image-keyboard-response","108","216204","0.0-4.0-0.23","","img/orange.png","32","trial","null","false","0.2,0.8","2:nogo_b","",""
"null","","html-keyboard-response","109","217206","0.0-4.0-1.23","","<img src=""img/orange-n.png"" border=""10"">","null","trial","null","","0.2,0.8","2:nogo_b","0",""
"null","","html-keyboard-response","110","218208","0.0-4.0-2.23","","<div style=""font-size:60px;"">+</div>","null","","","","","","",""
"null","","image-keyboard-response","111","219710","0.0-4.0-0.24","","img/orange.png","null","trial","null","true","0.2,0.8","2:nogo_b","",""
"null","","html-keyboard-response","112","220713","0.0-4.0-1.24","","<img src=""img/orange-r.png"">","null","trial","null","","0.2,0.8","2:nogo_b","1",""
"null","","html-keyboard-response","113","221715","0.0-4.0-2.24","","<div style=""font-size:60px;"">+</div>","null","","","","","","",""
"379.64499997906387","","image-keyboard-response","114","222095","0.0-4.0-0.25","","img/pink.png","32","trial","32","true","0.8,0.2","1:go_a","",""
"null","","html-keyboard-response","115","223098","0.0-4.0-1.25","","<img src=""img/pink-r.png"" border=""10"">","null","trial","32","","0.8,0.2","1:go_a","1",""
"null","","html-keyboard-response","116","224099","0.0-4.0-2.25","","<div style=""font-size:60px;"">+</div>","null","","","","","","",""
"608.839999884367","","image-keyboard-response","117","224709","0.0-4.0-0.26","","img/pink.png","32","trial","32","true","0.8,0.2","1:go_a","",""
"null","","html-keyboard-response","118","225712","0.0-4.0-1.26","","<img src=""img/pink-r.png"" border=""10"">","null","trial","32","","0.8,0.2","1:go_a","1",""
"null","","html-keyboard-response","119","226714","0.0-4.0-2.26","","<div style=""font-size:60px;"">+</div>","null","","","","","","",""
"null","","image-keyboard-response","120","228216","0.0-4.0-0.27","","img/orange.png","null","trial","null","true","0.2,0.8","2:nogo_b","",""
"null","","html-keyboard-response","121","229220","0.0-4.0-1.27","","<img src=""img/orange-r.png"">","null","trial","null","","0.2,0.8","2:nogo_b","1",""
"null","","html-keyboard-response","122","230222","0.0-4.0-2.27","","<div style=""font-size:60px;"">+</div>","null","","","","","","",""
"444.8599999304861","","image-keyboard-response","123","230668","0.0-4.0-0.28","","img/pink.png","32","trial","32","true","0.8,0.2","1:go_a","",""
"null","","html-keyboard-response","124","231670","0.0-4.0-1.28","","<img src=""img/pink-r.png"" border=""10"">","null","trial","32","","0.8,0.2","1:go_a","1",""
"null","","html-keyboard-response","125","232672","0.0-4.0-2.28","","<div style=""font-size:60px;"">+</div>","null","","","","","","",""
"null","","image-keyboard-response","126","234173","0.0-4.0-0.29","","img/orange.png","null","trial","null","true","0.2,0.8","2:nogo_b","",""
"null","","html-keyboard-response","127","235176","0.0-4.0-1.29","","<img src=""img/orange-r.png"">","null","trial","null","","0.2,0.8","2:nogo_b","1",""
"null","","html-keyboard-response","128","236177","0.0-4.0-2.29","","<div style=""font-size:60px;"">+</div>","null","","","","","","",""
"null","","image-keyboard-response","129","237680","0.0-4.0-0.30","","img/orange.png","null","trial","null","true","0.2,0.8","2:nogo_b","",""
"null","","html-keyboard-response","130","238682","0.0-4.0-1.30","","<img src=""img/orange-r.png"">","null","trial","null","","0.2,0.8","2:nogo_b","1",""
"null","","html-keyboard-response","131","239683","0.0-4.0-2.30","","<div style=""font-size:60px;"">+</div>","null","","","","","","",""
"404.3999998830259","","image-keyboard-response","132","240089","0.0-4.0-0.31","","img/pink.png","32","trial","32","true","0.8,0.2","1:go_a","",""
"null","","html-keyboard-response","133","241091","0.0-4.0-1.31","","<img src=""img/pink-r.png"" border=""10"">","null","trial","32","","0.8,0.2","1:go_a","1",""
"null","","html-keyboard-response","134","242092","0.0-4.0-2.31","","<div style=""font-size:60px;"">+</div>","null","","","","","","",""
"669.5150001905859","","image-keyboard-response","135","242763","0.0-4.0-0.32","","img/pink.png","32","trial","32","true","0.8,0.2","1:go_a","",""
"null","","html-keyboard-response","136","243766","0.0-4.0-1.32","","<img src=""img/pink-r.png"" border=""10"">","null","trial","32","","0.8,0.2","1:go_a","1",""
"null","","html-keyboard-response","137","244768","0.0-4.0-2.32","","<div style=""font-size:60px;"">+</div>","null","","","","","","",""
"null","","image-keyboard-response","138","246270","0.0-4.0-0.33","","img/orange.png","null","trial","null","true","0.2,0.8","2:nogo_b","",""
"null","","html-keyboard-response","139","247273","0.0-4.0-1.33","","<img src=""img/orange-r.png"">","null","trial","null","","0.2,0.8","2:nogo_b","1",""
"null","","html-keyboard-response","140","248276","0.0-4.0-2.33","","<div style=""font-size:60px;"">+</div>","null","","","","","","",""
"371.00000004284084","","image-keyboard-response","141","248648","0.0-4.0-0.34","","img/pink.png","32","trial","32","true","0.8,0.2","1:go_a","",""
"null","","html-keyboard-response","142","249650","0.0-4.0-1.34","","<img src=""img/pink-r.png"" border=""10"">","null","trial","32","","0.8,0.2","1:go_a","1",""
"null","","html-keyboard-response","143","250652","0.0-4.0-2.34","","<div style=""font-size:60px;"">+</div>","null","","","","","","",""
"602.7800000738353","","image-keyboard-response","144","251256","0.0-4.0-0.35","","img/orange.png","32","trial","null","false","0.2,0.8","2:nogo_b","",""
"null","","html-keyboard-response","145","252258","0.0-4.0-1.35","","<img src=""img/orange-n.png"" border=""10"">","null","trial","null","","0.2,0.8","2:nogo_b","0",""
"null","","html-keyboard-response","146","253260","0.0-4.0-2.35","","<div style=""font-size:60px;"">+</div>","null","","","","","","",""
"null","","image-keyboard-response","147","254761","0.0-4.0-0.36","","img/orange.png","null","trial","null","true","0.2,0.8","2:nogo_b","",""
"null","","html-keyboard-response","148","255764","0.0-4.0-1.36","","<img src=""img/orange-r.png"">","null","trial","null","","0.2,0.8","2:nogo_b","1",""
"null","","html-keyboard-response","149","256765","0.0-4.0-2.36","","<div style=""font-size:60px;"">+</div>","null","","","","","","",""
"361.04500014334917","","image-keyboard-response","150","257127","0.0-4.0-0.37","","img/pink.png","32","trial","32","true","0.8,0.2","1:go_a","",""
"null","","html-keyboard-response","151","258129","0.0-4.0-1.37","","<img src=""img/pink-r.png"" border=""10"">","null","trial","32","","0.8,0.2","1:go_a","1",""
"null","","html-keyboard-response","152","259131","0.0-4.0-2.37","","<div style=""font-size:60px;"">+</div>","null","","","","","","",""
"null","","image-keyboard-response","153","260632","0.0-4.0-0.38","","img/orange.png","null","trial","null","true","0.2,0.8","2:nogo_b","",""
"null","","html-keyboard-response","154","261635","0.0-4.0-1.38","","<img src=""img/orange-n.png"">","null","trial","null","","0.2,0.8","2:nogo_b","0",""
"null","","html-keyboard-response","155","262637","0.0-4.0-2.38","","<div style=""font-size:60px;"">+</div>","null","","","","","","",""
"372.3699999973178","","image-keyboard-response","156","263010","0.0-4.0-0.39","","img/pink.png","32","trial","32","true","0.8,0.2","1:go_a","",""
"null","","html-keyboard-response","157","264013","0.0-4.0-1.39","","<img src=""img/pink-r.png"" border=""10"">","null","trial","32","","0.8,0.2","1:go_a","1",""
"null","","html-keyboard-response","158","265015","0.0-4.0-2.39","","<div style=""font-size:60px;"">+</div>","null","","","","","","",""
"561.0950000118464","","image-keyboard-response","159","265577","0.0-4.0-0.40","","img/pink.png","32","trial","32","true","0.8,0.2","1:go_a","",""
"null","","html-keyboard-response","160","266580","0.0-4.0-1.40","","<img src=""img/pink-r.png"" border=""10"">","null","trial","32","","0.8,0.2","1:go_a","1",""
"null","","html-keyboard-response","161","267582","0.0-4.0-2.40","","<div style=""font-size:60px;"">+</div>","null","","","","","","",""
"null","","image-keyboard-response","162","269083","0.0-4.0-0.41","","img/orange.png","null","trial","null","true","0.2,0.8","2:nogo_b","",""
"null","","html-keyboard-response","163","270086","0.0-4.0-1.41","","<img src=""img/orange-r.png"">","null","trial","null","","0.2,0.8","2:nogo_b","1",""
"null","","html-keyboard-response","164","271088","0.0-4.0-2.41","","<div style=""font-size:60px;"">+</div>","null","","","","","","",""
"null","","image-keyboard-response","165","272589","0.0-4.0-0.42","","img/orange.png","null","trial","null","true","0.2,0.8","2:nogo_b","",""
"null","","html-keyboard-response","166","273592","0.0-4.0-1.42","","<img src=""img/orange-r.png"">","null","trial","null","","0.2,0.8","2:nogo_b","1",""
"null","","html-keyboard-response","167","274594","0.0-4.0-2.42","","<div style=""font-size:60px;"">+</div>","null","","","","","","",""
"426.5349998604506","","image-keyboard-response","168","275021","0.0-4.0-0.43","","img/pink.png","32","trial","32","true","0.8,0.2","1:go_a","",""
"null","","html-keyboard-response","169","276023","0.0-4.0-1.43","","<img src=""img/pink-r.png"" border=""10"">","null","trial","32","","0.8,0.2","1:go_a","1",""
"null","","html-keyboard-response","170","277025","0.0-4.0-2.43","","<div style=""font-size:60px;"">+</div>","null","","","","","","",""
"null","","image-keyboard-response","171","278526","0.0-4.0-0.44","","img/orange.png","null","trial","null","true","0.2,0.8","2:nogo_b","",""
"null","","html-keyboard-response","172","279529","0.0-4.0-1.44","","<img src=""img/orange-n.png"">","null","trial","null","","0.2,0.8","2:nogo_b","0",""
"null","","html-keyboard-response","173","280530","0.0-4.0-2.44","","<div style=""font-size:60px;"">+</div>","null","","","","","","",""
"459.55000002868474","","image-keyboard-response","174","280990","0.0-4.0-0.45","","img/pink.png","32","trial","32","true","0.8,0.2","1:go_a","",""
"null","","html-keyboard-response","175","281995","0.0-4.0-1.45","","<img src=""img/pink-r.png"" border=""10"">","null","trial","32","","0.8,0.2","1:go_a","1",""
"null","","html-keyboard-response","176","282997","0.0-4.0-2.45","","<div style=""font-size:60px;"">+</div>","null","","","","","","",""
"566.1250001285225","","image-keyboard-response","177","283564","0.0-4.0-0.46","","img/orange.png","32","trial","null","false","0.2,0.8","2:nogo_b","",""
"null","","html-keyboard-response","178","284567","0.0-4.0-1.46","","<img src=""img/orange-n.png"" border=""10"">","null","trial","null","","0.2,0.8","2:nogo_b","0",""
"null","","html-keyboard-response","179","285569","0.0-4.0-2.46","","<div style=""font-size:60px;"">+</div>","null","","","","","","",""
"535.3900000918657","","image-keyboard-response","180","286105","0.0-4.0-0.47","","img/pink.png","32","trial","32","true","0.8,0.2","1:go_a","",""
"null","","html-keyboard-response","181","287108","0.0-4.0-1.47","","<img src=""img/pink-r.png"" border=""10"">","null","trial","32","","0.8,0.2","1:go_a","1",""
"null","","html-keyboard-response","182","288110","0.0-4.0-2.47","","<div style=""font-size:60px;"">+</div>","null","","","","","","",""
"null","","image-keyboard-response","183","289611","0.0-4.0-0.48","","img/orange.png","null","trial","null","true","0.2,0.8","2:nogo_b","",""
"null","","html-keyboard-response","184","290617","0.0-4.0-1.48","","<img src=""img/orange-r.png"">","null","trial","null","","0.2,0.8","2:nogo_b","1",""
"null","","html-keyboard-response","185","291619","0.0-4.0-2.48","","<div style=""font-size:60px;"">+</div>","null","","","","","","",""
"577.6750000659376","","image-keyboard-response","186","292198","0.0-4.0-0.49","","img/pink.png","32","trial","32","true","0.8,0.2","1:go_a","",""
"null","","html-keyboard-response","187","293201","0.0-4.0-1.49","","<img src=""img/pink-n.png"" border=""10"">","null","trial","32","","0.8,0.2","1:go_a","0",""
"null","","html-keyboard-response","188","294203","0.0-4.0-2.49","","<div style=""font-size:60px;"">+</div>","null","","","","","","",""
"711.1949999816716","","image-keyboard-response","189","294915","0.0-4.0-0.50","","img/pink.png","32","trial","32","true","0.8,0.2","1:go_a","",""
"null","","html-keyboard-response","190","295918","0.0-4.0-1.50","","<img src=""img/pink-r.png"" border=""10"">","null","trial","32","","0.8,0.2","1:go_a","1",""
"null","","html-keyboard-response","191","296919","0.0-4.0-2.50","","<div style=""font-size:60px;"">+</div>","null","","","","","","",""
"550.7699998561293","","image-keyboard-response","192","297471","0.0-4.0-0.51","","img/orange.png","32","trial","null","false","0.2,0.8","2:nogo_b","",""
"null","","html-keyboard-response","193","298473","0.0-4.0-1.51","","<img src=""img/orange-n.png"" border=""10"">","null","trial","null","","0.2,0.8","2:nogo_b","0",""
"null","","html-keyboard-response","194","299474","0.0-4.0-2.51","","<div style=""font-size:60px;"">+</div>","null","","","","","","",""
"544.4199999328703","","image-keyboard-response","195","300020","0.0-4.0-0.52","","img/orange.png","32","trial","null","false","0.2,0.8","2:nogo_b","",""
"null","","html-keyboard-response","196","301023","0.0-4.0-1.52","","<img src=""img/orange-n.png"" border=""10"">","null","trial","null","","0.2,0.8","2:nogo_b","0",""
"null","","html-keyboard-response","197","302025","0.0-4.0-2.52","","<div style=""font-size:60px;"">+</div>","null","","","","","","",""
"432.0099998731166","","image-keyboard-response","198","302459","0.0-4.0-0.53","","img/pink.png","32","trial","32","true","0.8,0.2","1:go_a","",""
"null","","html-keyboard-response","199","303461","0.0-4.0-1.53","","<img src=""img/pink-r.png"" border=""10"">","null","trial","32","","0.8,0.2","1:go_a","1",""
"null","","html-keyboard-response","200","304462","0.0-4.0-2.53","","<div style=""font-size:60px;"">+</div>","null","","","","","","",""
"449.93999996222556","","image-keyboard-response","201","304913","0.0-4.0-0.54","","img/pink.png","32","trial","32","true","0.8,0.2","1:go_a","",""
"null","","html-keyboard-response","202","305916","0.0-4.0-1.54","","<img src=""img/pink-r.png"" border=""10"">","null","trial","32","","0.8,0.2","1:go_a","1",""
"null","","html-keyboard-response","203","306917","0.0-4.0-2.54","","<div style=""font-size:60px;"">+</div>","null","","","","","","",""
"null","","image-keyboard-response","204","308420","0.0-4.0-0.55","","img/orange.png","null","trial","null","true","0.2,0.8","2:nogo_b","",""
"null","","html-keyboard-response","205","309423","0.0-4.0-1.55","","<img src=""img/orange-r.png"">","null","trial","null","","0.2,0.8","2:nogo_b","1",""
"null","","html-keyboard-response","206","310438","0.0-4.0-2.55","","<div style=""font-size:60px;"">+</div>","null","","","","","","",""
"null","","image-keyboard-response","207","311940","0.0-4.0-0.56","","img/orange.png","null","trial","null","true","0.2,0.8","2:nogo_b","",""
"null","","html-keyboard-response","208","312942","0.0-4.0-1.56","","<img src=""img/orange-r.png"">","null","trial","null","","0.2,0.8","2:nogo_b","1",""
"null","","html-keyboard-response","209","313944","0.0-4.0-2.56","","<div style=""font-size:60px;"">+</div>","null","","","","","","",""
"535.6349998619407","","image-keyboard-response","210","314481","0.0-4.0-0.57","","img/pink.png","32","trial","32","true","0.8,0.2","1:go_a","",""
"null","","html-keyboard-response","211","315484","0.0-4.0-1.57","","<img src=""img/pink-n.png"" border=""10"">","null","trial","32","","0.8,0.2","1:go_a","0",""
"null","","html-keyboard-response","212","316487","0.0-4.0-2.57","","<div style=""font-size:60px;"">+</div>","null","","","","","","",""
"640.7900000922382","","image-keyboard-response","213","317128","0.0-4.0-0.58","","img/orange.png","32","trial","null","false","0.2,0.8","2:nogo_b","",""
"null","","html-keyboard-response","214","318131","0.0-4.0-1.58","","<img src=""img/orange-n.png"" border=""10"">","null","trial","null","","0.2,0.8","2:nogo_b","0",""
"null","","html-keyboard-response","215","319133","0.0-4.0-2.58","","<div style=""font-size:60px;"">+</div>","null","","","","","","",""
"825.3500000573695","","image-keyboard-response","216","319959","0.0-4.0-0.59","","img/pink.png","32","trial","32","true","0.8,0.2","1:go_a","",""
"null","","html-keyboard-response","217","320962","0.0-4.0-1.59","","<img src=""img/pink-n.png"" border=""10"">","null","trial","32","","0.8,0.2","1:go_a","0",""
"null","","html-keyboard-response","218","321964","0.0-4.0-2.59","","<div style=""font-size:60px;"">+</div>","null","","","","","","",""
"9881.37499988079","","instructions","219","331846","0.0-5.0","[{""page_index"":0,""viewing_time"":9880.999999819323}]","","","","","","","","",""
"888.3950000163168","","image-keyboard-response","220","332736","0.0-6.0-0.0","","img/yellow.png","32","trial","32","true","0.6,0.4","3:go_c","",""
"null","","html-keyboard-response","221","333738","0.0-6.0-1.0","","<img src=""img/yellow-r.png"" border=""10"">","null","trial","32","","0.6,0.4","3:go_c","1",""
"null","","html-keyboard-response","222","334750","0.0-6.0-2.0","","<div style=""font-size:60px;"">+</div>","null","","","","","","",""
"540.3849999420345","","image-keyboard-response","223","335338","0.0-6.0-0.1","","img/orange.png","32","trial","null","false","0.2,0.8","2:nogo_b","",""
"null","","html-keyboard-response","224","336340","0.0-6.0-1.1","","<img src=""img/orange-n.png"" border=""10"">","null","trial","null","","0.2,0.8","2:nogo_b","0",""
"null","","html-keyboard-response","225","337342","0.0-6.0-2.1","","<div style=""font-size:60px;"">+</div>","null","","","","","","",""
"678.234999999404","","image-keyboard-response","226","338022","0.0-6.0-0.2","","img/pink.png","32","trial","null","false","0.4,0.6","4:nogo_d","",""
"null","","html-keyboard-response","227","339024","0.0-6.0-1.2","","<img src=""img/pink-r.png"" border=""10"">","null","trial","null","","0.4,0.6","4:nogo_d","1",""
"null","","html-keyboard-response","228","340025","0.0-6.0-2.2","","<div style=""font-size:60px;"">+</div>","null","","","","","","",""
"634.4149999786168","","image-keyboard-response","229","340660","0.0-6.0-0.3","","img/blue.png","32","trial","32","true","0.8,0.2","1:go_a","",""
"null","","html-keyboard-response","230","341663","0.0-6.0-1.3","","<img src=""img/blue-r.png"" border=""10"">","null","trial","32","","0.8,0.2","1:go_a","1",""
"null","","html-keyboard-response","231","342664","0.0-6.0-2.3","","<div style=""font-size:60px;"">+</div>","null","","","","","","",""
"557.4799999594688","","image-keyboard-response","232","343225","0.0-6.0-0.4","","img/yellow.png","32","trial","32","true","0.6,0.4","3:go_c","",""
"null","","html-keyboard-response","233","344227","0.0-6.0-1.4","","<img src=""img/yellow-n.png"" border=""10"">","null","trial","32","","0.6,0.4","3:go_c","0",""
"null","","html-keyboard-response","234","345228","0.0-6.0-2.4","","<div style=""font-size:60px;"">+</div>","null","","","","","","",""
"545.2099998947233","","image-keyboard-response","235","345775","0.0-6.0-0.5","","img/pink.png","32","trial","null","false","0.4,0.6","4:nogo_d","",""
"null","","html-keyboard-response","236","346778","0.0-6.0-1.5","","<img src=""img/pink-n.png"" border=""10"">","null","trial","null","","0.4,0.6","4:nogo_d","0",""
"null","","html-keyboard-response","237","347779","0.0-6.0-2.5","","<div style=""font-size:60px;"">+</div>","null","","","","","","",""
"748.9700000733137","","image-keyboard-response","238","348529","0.0-6.0-0.6","","img/orange.png","32","trial","null","false","0.2,0.8","2:nogo_b","",""
"null","","html-keyboard-response","239","349532","0.0-6.0-1.6","","<img src=""img/orange-r.png"" border=""10"">","null","trial","null","","0.2,0.8","2:nogo_b","1",""
"null","","html-keyboard-response","240","350534","0.0-6.0-2.6","","<div style=""font-size:60px;"">+</div>","null","","","","","","",""
"473.5550000332296","","image-keyboard-response","241","351008","0.0-6.0-0.7","","img/blue.png","32","trial","32","true","0.8,0.2","1:go_a","",""
"null","","html-keyboard-response","242","352011","0.0-6.0-1.7","","<img src=""img/blue-r.png"" border=""10"">","null","trial","32","","0.8,0.2","1:go_a","1",""
"null","","html-keyboard-response","243","353013","0.0-6.0-2.7","","<div style=""font-size:60px;"">+</div>","null","","","","","","",""
"521.9049998559058","","image-keyboard-response","244","353536","0.0-6.0-0.8","","img/blue.png","32","trial","32","true","0.8,0.2","1:go_a","",""
"null","","html-keyboard-response","245","354539","0.0-6.0-1.8","","<img src=""img/blue-r.png"" border=""10"">","null","trial","32","","0.8,0.2","1:go_a","1",""
"null","","html-keyboard-response","246","355540","0.0-6.0-2.8","","<div style=""font-size:60px;"">+</div>","null","","","","","","",""
"859.7800000570714","","image-keyboard-response","247","356402","0.0-6.0-0.9","","img/yellow.png","32","trial","32","true","0.6,0.4","3:go_c","",""
"null","","html-keyboard-response","248","357404","0.0-6.0-1.9","","<img src=""img/yellow-r.png"" border=""10"">","null","trial","32","","0.6,0.4","3:go_c","1",""
"null","","html-keyboard-response","249","358437","0.0-6.0-2.9","","<div style=""font-size:60px;"">+</div>","null","","","","","","",""
"994.874999858439","","image-keyboard-response","250","359433","0.0-6.0-0.10","","img/orange.png","32","trial","null","false","0.2,0.8","2:nogo_b","",""
"null","","html-keyboard-response","251","360435","0.0-6.0-1.10","","<img src=""img/orange-n.png"" border=""10"">","null","trial","null","","0.2,0.8","2:nogo_b","0",""
"null","","html-keyboard-response","252","361437","0.0-6.0-2.10","","<div style=""font-size:60px;"">+</div>","null","","","","","","",""
"null","","image-keyboard-response","253","362938","0.0-6.0-0.11","","img/pink.png","null","trial","null","true","0.4,0.6","4:nogo_d","",""
"null","","html-keyboard-response","254","363941","0.0-6.0-1.11","","<img src=""img/pink-n.png"">","null","trial","null","","0.4,0.6","4:nogo_d","0",""
"null","","html-keyboard-response","255","364942","0.0-6.0-2.11","","<div style=""font-size:60px;"">+</div>","null","","","","","","",""
"null","","image-keyboard-response","256","366454","0.0-6.0-0.12","","img/orange.png","null","trial","null","true","0.2,0.8","2:nogo_b","",""
"null","","html-keyboard-response","257","367457","0.0-6.0-1.12","","<img src=""img/orange-n.png"">","null","trial","null","","0.2,0.8","2:nogo_b","0",""
"null","","html-keyboard-response","258","368458","0.0-6.0-2.12","","<div style=""font-size:60px;"">+</div>","null","","","","","","",""
"540.1149999815971","","image-keyboard-response","259","368999","0.0-6.0-0.13","","img/yellow.png","32","trial","32","true","0.6,0.4","3:go_c","",""
"null","","html-keyboard-response","260","370002","0.0-6.0-1.13","","<img src=""img/yellow-r.png"" border=""10"">","null","trial","32","","0.6,0.4","3:go_c","1",""
"null","","html-keyboard-response","261","371003","0.0-6.0-2.13","","<div style=""font-size:60px;"">+</div>","null","","","","","","",""
"515.8349999692291","","image-keyboard-response","262","371520","0.0-6.0-0.14","","img/blue.png","32","trial","32","true","0.8,0.2","1:go_a","",""
"null","","html-keyboard-response","263","372524","0.0-6.0-1.14","","<img src=""img/blue-r.png"" border=""10"">","null","trial","32","","0.8,0.2","1:go_a","1",""
"null","","html-keyboard-response","264","373526","0.0-6.0-2.14","","<div style=""font-size:60px;"">+</div>","null","","","","","","",""
"917.1799998730421","","image-keyboard-response","265","374445","0.0-6.0-0.15","","img/pink.png","32","trial","null","false","0.4,0.6","4:nogo_d","",""
"null","","html-keyboard-response","266","375447","0.0-6.0-1.15","","<img src=""img/pink-r.png"" border=""10"">","null","trial","null","","0.4,0.6","4:nogo_d","1",""
"null","","html-keyboard-response","267","376449","0.0-6.0-2.15","","<div style=""font-size:60px;"">+</div>","null","","","","","","",""
"null","","image-keyboard-response","268","377951","0.0-6.0-0.16","","img/orange.png","null","trial","null","true","0.2,0.8","2:nogo_b","",""
"null","","html-keyboard-response","269","378954","0.0-6.0-1.16","","<img src=""img/orange-r.png"">","null","trial","null","","0.2,0.8","2:nogo_b","1",""
"null","","html-keyboard-response","270","379956","0.0-6.0-2.16","","<div style=""font-size:60px;"">+</div>","null","","","","","","",""
"530.534999910742","","image-keyboard-response","271","380487","0.0-6.0-0.17","","img/yellow.png","32","trial","32","true","0.6,0.4","3:go_c","",""
"null","","html-keyboard-response","272","381490","0.0-6.0-1.17","","<img src=""img/yellow-n.png"" border=""10"">","null","trial","32","","0.6,0.4","3:go_c","0",""
"null","","html-keyboard-response","273","382492","0.0-6.0-2.17","","<div style=""font-size:60px;"">+</div>","null","","","","","","",""
"749.3649998214096","","image-keyboard-response","274","383243","0.0-6.0-0.18","","img/pink.png","32","trial","null","false","0.4,0.6","4:nogo_d","",""
"null","","html-keyboard-response","275","384245","0.0-6.0-1.18","","<img src=""img/pink-n.png"" border=""10"">","null","trial","null","","0.4,0.6","4:nogo_d","0",""
"null","","html-keyboard-response","276","385247","0.0-6.0-2.18","","<div style=""font-size:60px;"">+</div>","null","","","","","","",""
"456.92499983124435","","image-keyboard-response","277","385705","0.0-6.0-0.19","","img/blue.png","32","trial","32","true","0.8,0.2","1:go_a","",""
"null","","html-keyboard-response","278","386707","0.0-6.0-1.19","","<img src=""img/blue-r.png"" border=""10"">","null","trial","32","","0.8,0.2","1:go_a","1",""
"null","","html-keyboard-response","279","387709","0.0-6.0-2.19","","<div style=""font-size:60px;"">+</div>","null","","","","","","",""
"null","","image-keyboard-response","280","389211","0.0-6.0-0.20","","img/orange.png","null","trial","null","true","0.2,0.8","2:nogo_b","",""
"null","","html-keyboard-response","281","390213","0.0-6.0-1.20","","<img src=""img/orange-n.png"">","null","trial","null","","0.2,0.8","2:nogo_b","0",""
"null","","html-keyboard-response","282","391214","0.0-6.0-2.20","","<div style=""font-size:60px;"">+</div>","null","","","","","","",""
"null","","image-keyboard-response","283","392716","0.0-6.0-0.21","","img/pink.png","null","trial","null","true","0.4,0.6","4:nogo_d","",""
"null","","html-keyboard-response","284","393718","0.0-6.0-1.21","","<img src=""img/pink-n.png"">","null","trial","null","","0.4,0.6","4:nogo_d","0",""
"null","","html-keyboard-response","285","394720","0.0-6.0-2.21","","<div style=""font-size:60px;"">+</div>","null","","","","","","",""
"543.1950001511723","","image-keyboard-response","286","395264","0.0-6.0-0.22","","img/blue.png","32","trial","32","true","0.8,0.2","1:go_a","",""
"null","","html-keyboard-response","287","396267","0.0-6.0-1.22","","<img src=""img/blue-r.png"" border=""10"">","null","trial","32","","0.8,0.2","1:go_a","1",""
"null","","html-keyboard-response","288","397269","0.0-6.0-2.22","","<div style=""font-size:60px;"">+</div>","null","","","","","","",""
"811.1149999313056","","image-keyboard-response","289","398081","0.0-6.0-0.23","","img/yellow.png","32","trial","32","true","0.6,0.4","3:go_c","",""
"null","","html-keyboard-response","290","399084","0.0-6.0-1.23","","<img src=""img/yellow-n.png"" border=""10"">","null","trial","32","","0.6,0.4","3:go_c","0",""
"null","","html-keyboard-response","291","400086","0.0-6.0-2.23","","<div style=""font-size:60px;"">+</div>","null","","","","","","",""
"517.5900000613183","","image-keyboard-response","292","400604","0.0-6.0-0.24","","img/blue.png","32","trial","32","true","0.8,0.2","1:go_a","",""
"null","","html-keyboard-response","293","401606","0.0-6.0-1.24","","<img src=""img/blue-r.png"" border=""10"">","null","trial","32","","0.8,0.2","1:go_a","1",""
"null","","html-keyboard-response","294","402608","0.0-6.0-2.24","","<div style=""font-size:60px;"">+</div>","null","","","","","","",""
"null","","image-keyboard-response","295","404110","0.0-6.0-0.25","","img/pink.png","null","trial","null","true","0.4,0.6","4:nogo_d","",""
"null","","html-keyboard-response","296","405112","0.0-6.0-1.25","","<img src=""img/pink-r.png"">","null","trial","null","","0.4,0.6","4:nogo_d","1",""
"null","","html-keyboard-response","297","406114","0.0-6.0-2.25","","<div style=""font-size:60px;"">+</div>","null","","","","","","",""
"null","","image-keyboard-response","298","407616","0.0-6.0-0.26","","img/orange.png","null","trial","null","true","0.2,0.8","2:nogo_b","",""
"null","","html-keyboard-response","299","408619","0.0-6.0-1.26","","<img src=""img/orange-n.png"">","null","trial","null","","0.2,0.8","2:nogo_b","0",""
"null","","html-keyboard-response","300","409620","0.0-6.0-2.26","","<div style=""font-size:60px;"">+</div>","null","","","","","","",""
"570.6549999304116","","image-keyboard-response","301","410192","0.0-6.0-0.27","","img/yellow.png","32","trial","32","true","0.6,0.4","3:go_c","",""
"null","","html-keyboard-response","302","411194","0.0-6.0-1.27","","<img src=""img/yellow-r.png"" border=""10"">","null","trial","32","","0.6,0.4","3:go_c","1",""
"null","","html-keyboard-response","303","412196","0.0-6.0-2.27","","<div style=""font-size:60px;"">+</div>","null","","","","","","",""
"561.4649998024106","","image-keyboard-response","304","412758","0.0-6.0-0.28","","img/yellow.png","32","trial","32","true","0.6,0.4","3:go_c","",""
"null","","html-keyboard-response","305","413761","0.0-6.0-1.28","","<img src=""img/yellow-n.png"" border=""10"">","null","trial","32","","0.6,0.4","3:go_c","0",""
"null","","html-keyboard-response","306","414763","0.0-6.0-2.28","","<div style=""font-size:60px;"">+</div>","null","","","","","","",""
"630.5299999658018","","image-keyboard-response","307","415395","0.0-6.0-0.29","","img/blue.png","32","trial","32","true","0.8,0.2","1:go_a","",""
"null","","html-keyboard-response","308","416398","0.0-6.0-1.29","","<img src=""img/blue-n.png"" border=""10"">","null","trial","32","","0.8,0.2","1:go_a","0",""
"null","","html-keyboard-response","309","417401","0.0-6.0-2.29","","<div style=""font-size:60px;"">+</div>","null","","","","","","",""
"null","","image-keyboard-response","310","418903","0.0-6.0-0.30","","img/orange.png","null","trial","null","true","0.2,0.8","2:nogo_b","",""
"null","","html-keyboard-response","311","419906","0.0-6.0-1.30","","<img src=""img/orange-r.png"">","null","trial","null","","0.2,0.8","2:nogo_b","1",""
"null","","html-keyboard-response","312","420909","0.0-6.0-2.30","","<div style=""font-size:60px;"">+</div>","null","","","","","","",""
"605.3900001570582","","image-keyboard-response","313","421515","0.0-6.0-0.31","","img/pink.png","32","trial","null","false","0.4,0.6","4:nogo_d","",""
"null","","html-keyboard-response","314","422518","0.0-6.0-1.31","","<img src=""img/pink-n.png"" border=""10"">","null","trial","null","","0.4,0.6","4:nogo_d","0",""
"null","","html-keyboard-response","315","423520","0.0-6.0-2.31","","<div style=""font-size:60px;"">+</div>","null","","","","","","",""
"617.7749999333173","","image-keyboard-response","316","424139","0.0-6.0-0.32","","img/pink.png","32","trial","null","false","0.4,0.6","4:nogo_d","",""
"null","","html-keyboard-response","317","425141","0.0-6.0-1.32","","<img src=""img/pink-n.png"" border=""10"">","null","trial","null","","0.4,0.6","4:nogo_d","0",""
"null","","html-keyboard-response","318","426143","0.0-6.0-2.32","","<div style=""font-size:60px;"">+</div>","null","","","","","","",""
"576.2600000016391","","image-keyboard-response","319","426720","0.0-6.0-0.33","","img/blue.png","32","trial","32","true","0.8,0.2","1:go_a","",""
"null","","html-keyboard-response","320","427723","0.0-6.0-1.33","","<img src=""img/blue-r.png"" border=""10"">","null","trial","32","","0.8,0.2","1:go_a","1",""
"null","","html-keyboard-response","321","428724","0.0-6.0-2.33","","<div style=""font-size:60px;"">+</div>","null","","","","","","",""
"699.3950000032783","","image-keyboard-response","322","429425","0.0-6.0-0.34","","img/yellow.png","32","trial","32","true","0.6,0.4","3:go_c","",""
"null","","html-keyboard-response","323","430426","0.0-6.0-1.34","","<img src=""img/yellow-n.png"" border=""10"">","null","trial","32","","0.6,0.4","3:go_c","0",""
"null","","html-keyboard-response","324","431428","0.0-6.0-2.34","","<div style=""font-size:60px;"">+</div>","null","","","","","","",""
"null","","image-keyboard-response","325","432930","0.0-6.0-0.35","","img/orange.png","null","trial","null","true","0.2,0.8","2:nogo_b","",""
"null","","html-keyboard-response","326","433932","0.0-6.0-1.35","","<img src=""img/orange-r.png"">","null","trial","null","","0.2,0.8","2:nogo_b","1",""
"null","","html-keyboard-response","327","434933","0.0-6.0-2.35","","<div style=""font-size:60px;"">+</div>","null","","","","","","",""
"656.429999973625","","image-keyboard-response","328","435591","0.0-6.0-0.36","","img/blue.png","32","trial","32","true","0.8,0.2","1:go_a","",""
"null","","html-keyboard-response","329","436593","0.0-6.0-1.36","","<img src=""img/blue-r.png"" border=""10"">","null","trial","32","","0.8,0.2","1:go_a","1",""
"null","","html-keyboard-response","330","437595","0.0-6.0-2.36","","<div style=""font-size:60px;"">+</div>","null","","","","","","",""
"null","","image-keyboard-response","331","439097","0.0-6.0-0.37","","img/orange.png","null","trial","null","true","0.2,0.8","2:nogo_b","",""
"null","","html-keyboard-response","332","440100","0.0-6.0-1.37","","<img src=""img/orange-r.png"">","null","trial","null","","0.2,0.8","2:nogo_b","1",""
"null","","html-keyboard-response","333","441101","0.0-6.0-2.37","","<div style=""font-size:60px;"">+</div>","null","","","","","","",""
"597.0800002105534","","image-keyboard-response","334","441699","0.0-6.0-0.38","","img/yellow.png","32","trial","32","true","0.6,0.4","3:go_c","",""
"null","","html-keyboard-response","335","442701","0.0-6.0-1.38","","<img src=""img/yellow-r.png"" border=""10"">","null","trial","32","","0.6,0.4","3:go_c","1",""
"null","","html-keyboard-response","336","443703","0.0-6.0-2.38","","<div style=""font-size:60px;"">+</div>","null","","","","","","",""
"783.4400001447648","","image-keyboard-response","337","444488","0.0-6.0-0.39","","img/pink.png","32","trial","null","false","0.4,0.6","4:nogo_d","",""
"null","","html-keyboard-response","338","445491","0.0-6.0-1.39","","<img src=""img/pink-r.png"" border=""10"">","null","trial","null","","0.4,0.6","4:nogo_d","1",""
"null","","html-keyboard-response","339","446492","0.0-6.0-2.39","","<div style=""font-size:60px;"">+</div>","null","","","","","","",""
"894.7150001768023","","image-keyboard-response","340","447388","0.0-6.0-0.40","","img/yellow.png","32","trial","32","true","0.6,0.4","3:go_c","",""
"null","","html-keyboard-response","341","448404","0.0-6.0-1.40","","<img src=""img/yellow-r.png"" border=""10"">","null","trial","32","","0.6,0.4","3:go_c","1",""
"null","","html-keyboard-response","342","449406","0.0-6.0-2.40","","<div style=""font-size:60px;"">+</div>","null","","","","","","",""
"null","","image-keyboard-response","343","450908","0.0-6.0-0.41","","img/orange.png","null","trial","null","true","0.2,0.8","2:nogo_b","",""
"null","","html-keyboard-response","344","451911","0.0-6.0-1.41","","<img src=""img/orange-r.png"">","null","trial","null","","0.2,0.8","2:nogo_b","1",""
"null","","html-keyboard-response","345","452912","0.0-6.0-2.41","","<div style=""font-size:60px;"">+</div>","null","","","","","","",""
"620.5700000282377","","image-keyboard-response","346","453534","0.0-6.0-0.42","","img/pink.png","32","trial","null","false","0.4,0.6","4:nogo_d","",""
"null","","html-keyboard-response","347","454536","0.0-6.0-1.42","","<img src=""img/pink-n.png"" border=""10"">","null","trial","null","","0.4,0.6","4:nogo_d","0",""
"null","","html-keyboard-response","348","455539","0.0-6.0-2.42","","<div style=""font-size:60px;"">+</div>","null","","","","","","",""
"663.0200000945479","","image-keyboard-response","349","456203","0.0-6.0-0.43","","img/blue.png","32","trial","32","true","0.8,0.2","1:go_a","",""
"null","","html-keyboard-response","350","457205","0.0-6.0-1.43","","<img src=""img/blue-r.png"" border=""10"">","null","trial","32","","0.8,0.2","1:go_a","1",""
"null","","html-keyboard-response","351","458208","0.0-6.0-2.43","","<div style=""font-size:60px;"">+</div>","null","","","","","","",""
"null","","image-keyboard-response","352","459710","0.0-6.0-0.44","","img/pink.png","null","trial","null","true","0.4,0.6","4:nogo_d","",""
"null","","html-keyboard-response","353","460713","0.0-6.0-1.44","","<img src=""img/pink-n.png"">","null","trial","null","","0.4,0.6","4:nogo_d","0",""
"null","","html-keyboard-response","354","461715","0.0-6.0-2.44","","<div style=""font-size:60px;"">+</div>","null","","","","","","",""
"622.1950000617653","","image-keyboard-response","355","462338","0.0-6.0-0.45","","img/blue.png","32","trial","32","true","0.8,0.2","1:go_a","",""
"null","","html-keyboard-response","356","463341","0.0-6.0-1.45","","<img src=""img/blue-n.png"" border=""10"">","null","trial","32","","0.8,0.2","1:go_a","0",""
"null","","html-keyboard-response","357","464342","0.0-6.0-2.45","","<div style=""font-size:60px;"">+</div>","null","","","","","","",""
"null","","image-keyboard-response","358","465844","0.0-6.0-0.46","","img/orange.png","null","trial","null","true","0.2,0.8","2:nogo_b","",""
"null","","html-keyboard-response","359","466846","0.0-6.0-1.46","","<img src=""img/orange-r.png"">","null","trial","null","","0.2,0.8","2:nogo_b","1",""
"null","","html-keyboard-response","360","467848","0.0-6.0-2.46","","<div style=""font-size:60px;"">+</div>","null","","","","","","",""
"560.8949998859316","","image-keyboard-response","361","468410","0.0-6.0-0.47","","img/yellow.png","32","trial","32","true","0.6,0.4","3:go_c","",""
"null","","html-keyboard-response","362","469413","0.0-6.0-1.47","","<img src=""img/yellow-r.png"" border=""10"">","null","trial","32","","0.6,0.4","3:go_c","1",""
"null","","html-keyboard-response","363","470415","0.0-6.0-2.47","","<div style=""font-size:60px;"">+</div>","null","","","","","","",""
"543.5549998655915","","image-keyboard-response","364","470960","0.0-6.0-0.48","","img/orange.png","32","trial","null","false","0.2,0.8","2:nogo_b","",""
"null","","html-keyboard-response","365","471962","0.0-6.0-1.48","","<img src=""img/orange-n.png"" border=""10"">","null","trial","null","","0.2,0.8","2:nogo_b","0",""
"null","","html-keyboard-response","366","472964","0.0-6.0-2.48","","<div style=""font-size:60px;"">+</div>","null","","","","","","",""
"785.4200000874698","","image-keyboard-response","367","473751","0.0-6.0-0.49","","img/pink.png","32","trial","null","false","0.4,0.6","4:nogo_d","",""
"null","","html-keyboard-response","368","474754","0.0-6.0-1.49","","<img src=""img/pink-r.png"" border=""10"">","null","trial","null","","0.4,0.6","4:nogo_d","1",""
"null","","html-keyboard-response","369","475756","0.0-6.0-2.49","","<div style=""font-size:60px;"">+</div>","null","","","","","","",""
"694.1750000696629","","image-keyboard-response","370","476452","0.0-6.0-0.50","","img/yellow.png","32","trial","32","true","0.6,0.4","3:go_c","",""
"null","","html-keyboard-response","371","477455","0.0-6.0-1.50","","<img src=""img/yellow-r.png"" border=""10"">","null","trial","32","","0.6,0.4","3:go_c","1",""
"null","","html-keyboard-response","372","478457","0.0-6.0-2.50","","<div style=""font-size:60px;"">+</div>","null","","","","","","",""
"806.9599999580532","","image-keyboard-response","373","479266","0.0-6.0-0.51","","img/blue.png","32","trial","32","true","0.8,0.2","1:go_a","",""
"null","","html-keyboard-response","374","480269","0.0-6.0-1.51","","<img src=""img/blue-n.png"" border=""10"">","null","trial","32","","0.8,0.2","1:go_a","0",""
"null","","html-keyboard-response","375","481271","0.0-6.0-2.51","","<div style=""font-size:60px;"">+</div>","null","","","","","","",""
"844.0499999560416","","image-keyboard-response","376","482116","0.0-6.0-0.52","","img/yellow.png","32","trial","32","true","0.6,0.4","3:go_c","",""
"null","","html-keyboard-response","377","483118","0.0-6.0-1.52","","<img src=""img/yellow-r.png"" border=""10"">","null","trial","32","","0.6,0.4","3:go_c","1",""
"null","","html-keyboard-response","378","484120","0.0-6.0-2.52","","<div style=""font-size:60px;"">+</div>","null","","","","","","",""
"684.1750000603497","","image-keyboard-response","379","484805","0.0-6.0-0.53","","img/pink.png","32","trial","null","false","0.4,0.6","4:nogo_d","",""
"null","","html-keyboard-response","380","485807","0.0-6.0-1.53","","<img src=""img/pink-r.png"" border=""10"">","null","trial","null","","0.4,0.6","4:nogo_d","1",""
"null","","html-keyboard-response","381","486809","0.0-6.0-2.53","","<div style=""font-size:60px;"">+</div>","null","","","","","","",""
"null","","image-keyboard-response","382","488310","0.0-6.0-0.54","","img/blue.png","null","trial","32","false","0.8,0.2","1:go_a","",""
"null","","html-keyboard-response","383","489313","0.0-6.0-1.54","","<img src=""img/blue-r.png"">","null","trial","32","","0.8,0.2","1:go_a","1",""
"null","","html-keyboard-response","384","490317","0.0-6.0-2.54","","<div style=""font-size:60px;"">+</div>","null","","","","","","",""
"null","","image-keyboard-response","385","491819","0.0-6.0-0.55","","img/orange.png","null","trial","null","true","0.2,0.8","2:nogo_b","",""
"null","","html-keyboard-response","386","492823","0.0-6.0-1.55","","<img src=""img/orange-r.png"">","null","trial","null","","0.2,0.8","2:nogo_b","1",""
"null","","html-keyboard-response","387","493824","0.0-6.0-2.55","","<div style=""font-size:60px;"">+</div>","null","","","","","","",""
"587.9049999639392","","image-keyboard-response","388","494413","0.0-6.0-0.56","","img/orange.png","32","trial","null","false","0.2,0.8","2:nogo_b","",""
"null","","html-keyboard-response","389","495418","0.0-6.0-1.56","","<img src=""img/orange-n.png"" border=""10"">","null","trial","null","","0.2,0.8","2:nogo_b","0",""
"null","","html-keyboard-response","390","496420","0.0-6.0-2.56","","<div style=""font-size:60px;"">+</div>","null","","","","","","",""
"475.1399999950081","","image-keyboard-response","391","496896","0.0-6.0-0.57","","img/yellow.png","32","trial","32","true","0.6,0.4","3:go_c","",""
"null","","html-keyboard-response","392","497904","0.0-6.0-1.57","","<img src=""img/yellow-r.png"" border=""10"">","null","trial","32","","0.6,0.4","3:go_c","1",""
"null","","html-keyboard-response","393","498906","0.0-6.0-2.57","","<div style=""font-size:60px;"">+</div>","null","","","","","","",""
"null","","image-keyboard-response","394","500408","0.0-6.0-0.58","","img/pink.png","null","trial","null","true","0.4,0.6","4:nogo_d","",""
"null","","html-keyboard-response","395","501411","0.0-6.0-1.58","","<img src=""img/pink-r.png"">","null","trial","null","","0.4,0.6","4:nogo_d","1",""
"null","","html-keyboard-response","396","502413","0.0-6.0-2.58","","<div style=""font-size:60px;"">+</div>","null","","","","","","",""
"498.8799998536706","","image-keyboard-response","397","502912","0.0-6.0-0.59","","img/blue.png","32","trial","32","true","0.8,0.2","1:go_a","",""
"null","","html-keyboard-response","398","503915","0.0-6.0-1.59","","<img src=""img/blue-r.png"" border=""10"">","null","trial","32","","0.8,0.2","1:go_a","1",""
"null","","html-keyboard-response","399","504917","0.0-6.0-2.59","","<div style=""font-size:60px;"">+</div>","null","","","","","","",""
"null","","image-keyboard-response","400","506419","0.0-6.0-0.60","","img/orange.png","null","trial","null","true","0.2,0.8","2:nogo_b","",""
"null","","html-keyboard-response","401","507421","0.0-6.0-1.60","","<img src=""img/orange-r.png"">","null","trial","null","","0.2,0.8","2:nogo_b","1",""
"null","","html-keyboard-response","402","508423","0.0-6.0-2.60","","<div style=""font-size:60px;"">+</div>","null","","","","","","",""
"507.13000004179776","","image-keyboard-response","403","508932","0.0-6.0-0.61","","img/blue.png","32","trial","32","true","0.8,0.2","1:go_a","",""
"null","","html-keyboard-response","404","509942","0.0-6.0-1.61","","<img src=""img/blue-r.png"" border=""10"">","null","trial","32","","0.8,0.2","1:go_a","1",""
"null","","html-keyboard-response","405","510945","0.0-6.0-2.61","","<div style=""font-size:60px;"">+</div>","null","","","","","","",""
"571.9849998131394","","image-keyboard-response","406","511518","0.0-6.0-0.62","","img/pink.png","32","trial","null","false","0.4,0.6","4:nogo_d","",""
"null","","html-keyboard-response","407","512521","0.0-6.0-1.62","","<img src=""img/pink-n.png"" border=""10"">","null","trial","null","","0.4,0.6","4:nogo_d","0",""
"null","","html-keyboard-response","408","513523","0.0-6.0-2.62","","<div style=""font-size:60px;"">+</div>","null","","","","","","",""
"550.6150000728667","","image-keyboard-response","409","514075","0.0-6.0-0.63","","img/yellow.png","32","trial","32","true","0.6,0.4","3:go_c","",""
"null","","html-keyboard-response","410","515078","0.0-6.0-1.63","","<img src=""img/yellow-r.png"" border=""10"">","null","trial","32","","0.6,0.4","3:go_c","1",""
"null","","html-keyboard-response","411","516099","0.0-6.0-2.63","","<div style=""font-size:60px;"">+</div>","null","","","","","","",""
"649.8199999332428","","image-keyboard-response","412","516751","0.0-6.0-0.64","","img/yellow.png","32","trial","32","true","0.6,0.4","3:go_c","",""
"null","","html-keyboard-response","413","517753","0.0-6.0-1.64","","<img src=""img/yellow-n.png"" border=""10"">","null","trial","32","","0.6,0.4","3:go_c","0",""
"null","","html-keyboard-response","414","518755","0.0-6.0-2.64","","<div style=""font-size:60px;"">+</div>","null","","","","","","",""
"514.6600001025945","","image-keyboard-response","415","519270","0.0-6.0-0.65","","img/blue.png","32","trial","32","true","0.8,0.2","1:go_a","",""
"null","","html-keyboard-response","416","520274","0.0-6.0-1.65","","<img src=""img/blue-n.png"" border=""10"">","null","trial","32","","0.8,0.2","1:go_a","0",""
"null","","html-keyboard-response","417","521276","0.0-6.0-2.65","","<div style=""font-size:60px;"">+</div>","null","","","","","","",""
"480.8099998626858","","image-keyboard-response","418","521758","0.0-6.0-0.66","","img/orange.png","32","trial","null","false","0.2,0.8","2:nogo_b","",""
"null","","html-keyboard-response","419","522760","0.0-6.0-1.66","","<img src=""img/orange-n.png"" border=""10"">","null","trial","null","","0.2,0.8","2:nogo_b","0",""
"null","","html-keyboard-response","420","523762","0.0-6.0-2.66","","<div style=""font-size:60px;"">+</div>","null","","","","","","",""
"722.3149999044836","","image-keyboard-response","421","524486","0.0-6.0-0.67","","img/pink.png","32","trial","null","false","0.4,0.6","4:nogo_d","",""
"null","","html-keyboard-response","422","525493","0.0-6.0-1.67","","<img src=""img/pink-n.png"" border=""10"">","null","trial","null","","0.4,0.6","4:nogo_d","0",""
"null","","html-keyboard-response","423","526495","0.0-6.0-2.67","","<div style=""font-size:60px;"">+</div>","null","","","","","","",""
"610.1499998476356","","image-keyboard-response","424","527106","0.0-6.0-0.68","","img/yellow.png","32","trial","32","true","0.6,0.4","3:go_c","",""
"null","","html-keyboard-response","425","528122","0.0-6.0-1.68","","<img src=""img/yellow-r.png"" border=""10"">","null","trial","32","","0.6,0.4","3:go_c","1",""
"null","","html-keyboard-response","426","529125","0.0-6.0-2.68","","<div style=""font-size:60px;"">+</div>","null","","","","","","",""
"558.164999820292","","image-keyboard-response","427","529685","0.0-6.0-0.69","","img/pink.png","32","trial","null","false","0.4,0.6","4:nogo_d","",""
"null","","html-keyboard-response","428","530694","0.0-6.0-1.69","","<img src=""img/pink-r.png"" border=""10"">","null","trial","null","","0.4,0.6","4:nogo_d","1",""
"null","","html-keyboard-response","429","531696","0.0-6.0-2.69","","<div style=""font-size:60px;"">+</div>","null","","","","","","",""
"650.4450000356883","","image-keyboard-response","430","532347","0.0-6.0-0.70","","img/orange.png","32","trial","null","false","0.2,0.8","2:nogo_b","",""
"null","","html-keyboard-response","431","533354","0.0-6.0-1.70","","<img src=""img/orange-n.png"" border=""10"">","null","trial","null","","0.2,0.8","2:nogo_b","0",""
"null","","html-keyboard-response","432","534356","0.0-6.0-2.70","","<div style=""font-size:60px;"">+</div>","null","","","","","","",""
"503.7950000260025","","image-keyboard-response","433","534861","0.0-6.0-0.71","","img/blue.png","32","trial","32","true","0.8,0.2","1:go_a","",""
"null","","html-keyboard-response","434","535864","0.0-6.0-1.71","","<img src=""img/blue-r.png"" border=""10"">","null","trial","32","","0.8,0.2","1:go_a","1",""
"null","","html-keyboard-response","435","536865","0.0-6.0-2.71","","<div style=""font-size:60px;"">+</div>","null","","","","","","",""
"561.5900000557303","","image-keyboard-response","436","537427","0.0-6.0-0.72","","img/blue.png","32","trial","32","true","0.8,0.2","1:go_a","",""
"null","","html-keyboard-response","437","538430","0.0-6.0-1.72","","<img src=""img/blue-r.png"" border=""10"">","null","trial","32","","0.8,0.2","1:go_a","1",""
"null","","html-keyboard-response","438","539433","0.0-6.0-2.72","","<div style=""font-size:60px;"">+</div>","null","","","","","","",""
"597.1700001973659","","image-keyboard-response","439","540031","0.0-6.0-0.73","","img/pink.png","32","trial","null","false","0.4,0.6","4:nogo_d","",""
"null","","html-keyboard-response","440","541034","0.0-6.0-1.73","","<img src=""img/pink-r.png"" border=""10"">","null","trial","null","","0.4,0.6","4:nogo_d","1",""
"null","","html-keyboard-response","441","542037","0.0-6.0-2.73","","<div style=""font-size:60px;"">+</div>","null","","","","","","",""
"null","","image-keyboard-response","442","543539","0.0-6.0-0.74","","img/orange.png","null","trial","null","true","0.2,0.8","2:nogo_b","",""
"null","","html-keyboard-response","443","544541","0.0-6.0-1.74","","<img src=""img/orange-r.png"">","null","trial","null","","0.2,0.8","2:nogo_b","1",""
"null","","html-keyboard-response","444","545543","0.0-6.0-2.74","","<div style=""font-size:60px;"">+</div>","null","","","","","","",""
"510.2999999653548","","image-keyboard-response","445","546055","0.0-6.0-0.75","","img/yellow.png","32","trial","32","true","0.6,0.4","3:go_c","",""
"null","","html-keyboard-response","446","547057","0.0-6.0-1.75","","<img src=""img/yellow-r.png"" border=""10"">","null","trial","32","","0.6,0.4","3:go_c","1",""
"null","","html-keyboard-response","447","548059","0.0-6.0-2.75","","<div style=""font-size:60px;"">+</div>","null","","","","","","",""
"543.705000076443","","image-keyboard-response","448","548604","0.0-6.0-0.76","","img/pink.png","32","trial","null","false","0.4,0.6","4:nogo_d","",""
"null","","html-keyboard-response","449","549607","0.0-6.0-1.76","","<img src=""img/pink-r.png"" border=""10"">","null","trial","null","","0.4,0.6","4:nogo_d","1",""
"null","","html-keyboard-response","450","550609","0.0-6.0-2.76","","<div style=""font-size:60px;"">+</div>","null","","","","","","",""
"775.0450000166893","","image-keyboard-response","451","551385","0.0-6.0-0.77","","img/orange.png","32","trial","null","false","0.2,0.8","2:nogo_b","",""
"null","","html-keyboard-response","452","552388","0.0-6.0-1.77","","<img src=""img/orange-n.png"" border=""10"">","null","trial","null","","0.2,0.8","2:nogo_b","0",""
"null","","html-keyboard-response","453","553391","0.0-6.0-2.77","","<div style=""font-size:60px;"">+</div>","null","","","","","","",""
"589.8299999535084","","image-keyboard-response","454","553982","0.0-6.0-0.78","","img/yellow.png","32","trial","32","true","0.6,0.4","3:go_c","",""
"null","","html-keyboard-response","455","554985","0.0-6.0-1.78","","<img src=""img/yellow-n.png"" border=""10"">","null","trial","32","","0.6,0.4","3:go_c","0",""
"null","","html-keyboard-response","456","555987","0.0-6.0-2.78","","<div style=""font-size:60px;"">+</div>","null","","","","","","",""
"null","","image-keyboard-response","457","557490","0.0-6.0-0.79","","img/blue.png","null","trial","32","false","0.8,0.2","1:go_a","",""
"null","","html-keyboard-response","458","558492","0.0-6.0-1.79","","<img src=""img/blue-n.png"">","null","trial","32","","0.8,0.2","1:go_a","0",""
"null","","html-keyboard-response","459","559494","0.0-6.0-2.79","","<div style=""font-size:60px;"">+</div>","null","","","","","","",""
"null","","image-keyboard-response","460","560996","0.0-6.0-0.80","","img/pink.png","null","trial","null","true","0.4,0.6","4:nogo_d","",""
"null","","html-keyboard-response","461","561999","0.0-6.0-1.80","","<img src=""img/pink-n.png"">","null","trial","null","","0.4,0.6","4:nogo_d","0",""
"null","","html-keyboard-response","462","563000","0.0-6.0-2.80","","<div style=""font-size:60px;"">+</div>","null","","","","","","",""
"null","","image-keyboard-response","463","564502","0.0-6.0-0.81","","img/yellow.png","null","trial","32","false","0.6,0.4","3:go_c","",""
"null","","html-keyboard-response","464","565504","0.0-6.0-1.81","","<img src=""img/yellow-n.png"">","null","trial","32","","0.6,0.4","3:go_c","0",""
"null","","html-keyboard-response","465","566505","0.0-6.0-2.81","","<div style=""font-size:60px;"">+</div>","null","","","","","","",""
"581.9549998268485","","image-keyboard-response","466","567089","0.0-6.0-0.82","","img/blue.png","32","trial","32","true","0.8,0.2","1:go_a","",""
"null","","html-keyboard-response","467","568092","0.0-6.0-1.82","","<img src=""img/blue-r.png"" border=""10"">","null","trial","32","","0.8,0.2","1:go_a","1",""
"null","","html-keyboard-response","468","569094","0.0-6.0-2.82","","<div style=""font-size:60px;"">+</div>","null","","","","","","",""
"662.6599999144673","","image-keyboard-response","469","569758","0.0-6.0-0.83","","img/orange.png","32","trial","null","false","0.2,0.8","2:nogo_b","",""
"null","","html-keyboard-response","470","570760","0.0-6.0-1.83","","<img src=""img/orange-n.png"" border=""10"">","null","trial","null","","0.2,0.8","2:nogo_b","0",""
"null","","html-keyboard-response","471","571761","0.0-6.0-2.83","","<div style=""font-size:60px;"">+</div>","null","","","","","","",""
"439.795000012964","","image-keyboard-response","472","572202","0.0-6.0-0.84","","img/blue.png","32","trial","32","true","0.8,0.2","1:go_a","",""
"null","","html-keyboard-response","473","573205","0.0-6.0-1.84","","<img src=""img/blue-r.png"" border=""10"">","null","trial","32","","0.8,0.2","1:go_a","1",""
"null","","html-keyboard-response","474","574209","0.0-6.0-2.84","","<div style=""font-size:60px;"">+</div>","null","","","","","","",""
"665.9350001718849","","image-keyboard-response","475","574876","0.0-6.0-0.85","","img/yellow.png","32","trial","32","true","0.6,0.4","3:go_c","",""
"null","","html-keyboard-response","476","575879","0.0-6.0-1.85","","<img src=""img/yellow-n.png"" border=""10"">","null","trial","32","","0.6,0.4","3:go_c","0",""
"null","","html-keyboard-response","477","576881","0.0-6.0-2.85","","<div style=""font-size:60px;"">+</div>","null","","","","","","",""
"null","","image-keyboard-response","478","578383","0.0-6.0-0.86","","img/orange.png","null","trial","null","true","0.2,0.8","2:nogo_b","",""
"null","","html-keyboard-response","479","579387","0.0-6.0-1.86","","<img src=""img/orange-n.png"">","null","trial","null","","0.2,0.8","2:nogo_b","0",""
"null","","html-keyboard-response","480","580415","0.0-6.0-2.86","","<div style=""font-size:60px;"">+</div>","null","","","","","","",""
"null","","image-keyboard-response","481","581917","0.0-6.0-0.87","","img/pink.png","null","trial","null","true","0.4,0.6","4:nogo_d","",""
"null","","html-keyboard-response","482","582920","0.0-6.0-1.87","","<img src=""img/pink-r.png"">","null","trial","null","","0.4,0.6","4:nogo_d","1",""
"null","","html-keyboard-response","483","583921","0.0-6.0-2.87","","<div style=""font-size:60px;"">+</div>","null","","","","","","",""
"652.7950000017881","","image-keyboard-response","484","584575","0.0-6.0-0.88","","img/pink.png","32","trial","null","false","0.4,0.6","4:nogo_d","",""
"null","","html-keyboard-response","485","585577","0.0-6.0-1.88","","<img src=""img/pink-r.png"" border=""10"">","null","trial","null","","0.4,0.6","4:nogo_d","1",""
"null","","html-keyboard-response","486","586579","0.0-6.0-2.88","","<div style=""font-size:60px;"">+</div>","null","","","","","","",""
"null","","image-keyboard-response","487","588080","0.0-6.0-0.89","","img/orange.png","null","trial","null","true","0.2,0.8","2:nogo_b","",""
"null","","html-keyboard-response","488","589086","0.0-6.0-1.89","","<img src=""img/orange-r.png"">","null","trial","null","","0.2,0.8","2:nogo_b","1",""
"null","","html-keyboard-response","489","590087","0.0-6.0-2.89","","<div style=""font-size:60px;"">+</div>","null","","","","","","",""
"656.1249999795109","","image-keyboard-response","490","590744","0.0-6.0-0.90","","img/yellow.png","32","trial","32","true","0.6,0.4","3:go_c","",""
"null","","html-keyboard-response","491","591746","0.0-6.0-1.90","","<img src=""img/yellow-r.png"" border=""10"">","null","trial","32","","0.6,0.4","3:go_c","1",""
"null","","html-keyboard-response","492","592749","0.0-6.0-2.90","","<div style=""font-size:60px;"">+</div>","null","","","","","","",""
"598.5400001518428","","image-keyboard-response","493","593348","0.0-6.0-0.91","","img/blue.png","32","trial","32","true","0.8,0.2","1:go_a","",""
"null","","html-keyboard-response","494","594355","0.0-6.0-1.91","","<img src=""img/blue-r.png"" border=""10"">","null","trial","32","","0.8,0.2","1:go_a","1",""
"null","","html-keyboard-response","495","595356","0.0-6.0-2.91","","<div style=""font-size:60px;"">+</div>","null","","","","","","",""
"null","","image-keyboard-response","496","596858","0.0-6.0-0.92","","img/orange.png","null","trial","null","true","0.2,0.8","2:nogo_b","",""
"null","","html-keyboard-response","497","597861","0.0-6.0-1.92","","<img src=""img/orange-r.png"">","null","trial","null","","0.2,0.8","2:nogo_b","1",""
"null","","html-keyboard-response","498","598864","0.0-6.0-2.92","","<div style=""font-size:60px;"">+</div>","null","","","","","","",""
"524.0650000050664","","image-keyboard-response","499","599389","0.0-6.0-0.93","","img/pink.png","32","trial","null","false","0.4,0.6","4:nogo_d","",""
"null","","html-keyboard-response","500","600393","0.0-6.0-1.93","","<img src=""img/pink-n.png"" border=""10"">","null","trial","null","","0.4,0.6","4:nogo_d","0",""
"null","","html-keyboard-response","501","601395","0.0-6.0-2.93","","<div style=""font-size:60px;"">+</div>","null","","","","","","",""
"null","","image-keyboard-response","502","602897","0.0-6.0-0.94","","img/blue.png","null","trial","32","false","0.8,0.2","1:go_a","",""
"null","","html-keyboard-response","503","603899","0.0-6.0-1.94","","<img src=""img/blue-n.png"">","null","trial","32","","0.8,0.2","1:go_a","0",""
"null","","html-keyboard-response","504","604902","0.0-6.0-2.94","","<div style=""font-size:60px;"">+</div>","null","","","","","","",""
"null","","image-keyboard-response","505","606434","0.0-6.0-0.95","","img/yellow.png","null","trial","32","false","0.6,0.4","3:go_c","",""
"null","","html-keyboard-response","506","607437","0.0-6.0-1.95","","<img src=""img/yellow-n.png"">","null","trial","32","","0.6,0.4","3:go_c","0",""
"null","","html-keyboard-response","507","608440","0.0-6.0-2.95","","<div style=""font-size:60px;"">+</div>","null","","","","","","",""
"767.2400001902133","","image-keyboard-response","508","609209","0.0-6.0-0.96","","img/yellow.png","32","trial","32","true","0.6,0.4","3:go_c","",""
"null","","html-keyboard-response","509","610211","0.0-6.0-1.96","","<img src=""img/yellow-r.png"" border=""10"">","null","trial","32","","0.6,0.4","3:go_c","1",""
"null","","html-keyboard-response","510","611213","0.0-6.0-2.96","","<div style=""font-size:60px;"">+</div>","null","","","","","","",""
"553.7950000725687","","image-keyboard-response","511","611768","0.0-6.0-0.97","","img/blue.png","32","trial","32","true","0.8,0.2","1:go_a","",""
"null","","html-keyboard-response","512","612771","0.0-6.0-1.97","","<img src=""img/blue-r.png"" border=""10"">","null","trial","32","","0.8,0.2","1:go_a","1",""
"null","","html-keyboard-response","513","613773","0.0-6.0-2.97","","<div style=""font-size:60px;"">+</div>","null","","","","","","",""
"642.0750000979751","","image-keyboard-response","514","614416","0.0-6.0-0.98","","img/pink.png","32","trial","null","false","0.4,0.6","4:nogo_d","",""
"null","","html-keyboard-response","515","615419","0.0-6.0-1.98","","<img src=""img/pink-r.png"" border=""10"">","null","trial","null","","0.4,0.6","4:nogo_d","1",""
"null","","html-keyboard-response","516","616473","0.0-6.0-2.98","","<div style=""font-size:60px;"">+</div>","null","","","","","","",""
"442.2299999278039","","image-keyboard-response","517","616916","0.0-6.0-0.99","","img/orange.png","32","trial","null","false","0.2,0.8","2:nogo_b","",""
"null","","html-keyboard-response","518","617919","0.0-6.0-1.99","","<img src=""img/orange-r.png"" border=""10"">","null","trial","null","","0.2,0.8","2:nogo_b","1",""
"null","","html-keyboard-response","519","618922","0.0-6.0-2.99","","<div style=""font-size:60px;"">+</div>","null","","","","","","",""
"null","","image-keyboard-response","520","620425","0.0-6.0-0.100","","img/yellow.png","null","trial","32","false","0.6,0.4","3:go_c","",""
"null","","html-keyboard-response","521","621429","0.0-6.0-1.100","","<img src=""img/yellow-r.png"">","null","trial","32","","0.6,0.4","3:go_c","1",""
"null","","html-keyboard-response","522","622433","0.0-6.0-2.100","","<div style=""font-size:60px;"">+</div>","null","","","","","","",""
"721.275000134483","","image-keyboard-response","523","623155","0.0-6.0-0.101","","img/blue.png","32","trial","32","true","0.8,0.2","1:go_a","",""
"null","","html-keyboard-response","524","624158","0.0-6.0-1.101","","<img src=""img/blue-r.png"" border=""10"">","null","trial","32","","0.8,0.2","1:go_a","1",""
"null","","html-keyboard-response","525","625160","0.0-6.0-2.101","","<div style=""font-size:60px;"">+</div>","null","","","","","","",""
"null","","image-keyboard-response","526","626662","0.0-6.0-0.102","","img/orange.png","null","trial","null","true","0.2,0.8","2:nogo_b","",""
"null","","html-keyboard-response","527","627663","0.0-6.0-1.102","","<img src=""img/orange-r.png"">","null","trial","null","","0.2,0.8","2:nogo_b","1",""
"null","","html-keyboard-response","528","628666","0.0-6.0-2.102","","<div style=""font-size:60px;"">+</div>","null","","","","","","",""
"419.3899999372661","","image-keyboard-response","529","629086","0.0-6.0-0.103","","img/pink.png","32","trial","null","false","0.4,0.6","4:nogo_d","",""
"null","","html-keyboard-response","530","630088","0.0-6.0-1.103","","<img src=""img/pink-n.png"" border=""10"">","null","trial","null","","0.4,0.6","4:nogo_d","0",""
"null","","html-keyboard-response","531","631091","0.0-6.0-2.103","","<div style=""font-size:60px;"">+</div>","null","","","","","","",""
"null","","image-keyboard-response","532","632593","0.0-6.0-0.104","","img/orange.png","null","trial","null","true","0.2,0.8","2:nogo_b","",""
"null","","html-keyboard-response","533","633611","0.0-6.0-1.104","","<img src=""img/orange-r.png"">","null","trial","null","","0.2,0.8","2:nogo_b","1",""
"null","","html-keyboard-response","534","634612","0.0-6.0-2.104","","<div style=""font-size:60px;"">+</div>","null","","","","","","",""
"445.5649999435991","","image-keyboard-response","535","635059","0.0-6.0-0.105","","img/blue.png","32","trial","32","true","0.8,0.2","1:go_a","",""
"null","","html-keyboard-response","536","636062","0.0-6.0-1.105","","<img src=""img/blue-r.png"" border=""10"">","null","trial","32","","0.8,0.2","1:go_a","1",""
"null","","html-keyboard-response","537","637064","0.0-6.0-2.105","","<div style=""font-size:60px;"">+</div>","null","","","","","","",""
"573.2150000985712","","image-keyboard-response","538","637638","0.0-6.0-0.106","","img/pink.png","32","trial","null","false","0.4,0.6","4:nogo_d","",""
"null","","html-keyboard-response","539","638641","0.0-6.0-1.106","","<img src=""img/pink-r.png"" border=""10"">","null","trial","null","","0.4,0.6","4:nogo_d","1",""
"null","","html-keyboard-response","540","639643","0.0-6.0-2.106","","<div style=""font-size:60px;"">+</div>","null","","","","","","",""
"519.8550000786781","","image-keyboard-response","541","640164","0.0-6.0-0.107","","img/yellow.png","32","trial","32","true","0.6,0.4","3:go_c","",""
"null","","html-keyboard-response","542","641167","0.0-6.0-1.107","","<img src=""img/yellow-r.png"" border=""10"">","null","trial","32","","0.6,0.4","3:go_c","1",""
"null","","html-keyboard-response","543","642169","0.0-6.0-2.107","","<div style=""font-size:60px;"">+</div>","null","","","","","","",""
"457.56999985314906","","image-keyboard-response","544","642628","0.0-6.0-0.108","","img/yellow.png","32","trial","32","true","0.6,0.4","3:go_c","",""
"null","","html-keyboard-response","545","643630","0.0-6.0-1.108","","<img src=""img/yellow-r.png"" border=""10"">","null","trial","32","","0.6,0.4","3:go_c","1",""
"null","","html-keyboard-response","546","644664","0.0-6.0-2.108","","<div style=""font-size:60px;"">+</div>","null","","","","","","",""
"502.3600000422448","","image-keyboard-response","547","645167","0.0-6.0-0.109","","img/pink.png","32","trial","null","false","0.4,0.6","4:nogo_d","",""
"null","","html-keyboard-response","548","646169","0.0-6.0-1.109","","<img src=""img/pink-r.png"" border=""10"">","null","trial","null","","0.4,0.6","4:nogo_d","1",""
"null","","html-keyboard-response","549","647171","0.0-6.0-2.109","","<div style=""font-size:60px;"">+</div>","null","","","","","","",""
"563.7100001331419","","image-keyboard-response","550","647736","0.0-6.0-0.110","","img/blue.png","32","trial","32","true","0.8,0.2","1:go_a","",""
"null","","html-keyboard-response","551","648738","0.0-6.0-1.110","","<img src=""img/blue-r.png"" border=""10"">","null","trial","32","","0.8,0.2","1:go_a","1",""
"null","","html-keyboard-response","552","649740","0.0-6.0-2.110","","<div style=""font-size:60px;"">+</div>","null","","","","","","",""
"614.2450000625104","","image-keyboard-response","553","650356","0.0-6.0-0.111","","img/orange.png","32","trial","null","false","0.2,0.8","2:nogo_b","",""
"null","","html-keyboard-response","554","651358","0.0-6.0-1.111","","<img src=""img/orange-r.png"" border=""10"">","null","trial","null","","0.2,0.8","2:nogo_b","1",""
"null","","html-keyboard-response","555","652360","0.0-6.0-2.111","","<div style=""font-size:60px;"">+</div>","null","","","","","","",""
"503.35499993525445","","image-keyboard-response","556","652865","0.0-6.0-0.112","","img/orange.png","32","trial","null","false","0.2,0.8","2:nogo_b","",""
"null","","html-keyboard-response","557","653868","0.0-6.0-1.112","","<img src=""img/orange-n.png"" border=""10"">","null","trial","null","","0.2,0.8","2:nogo_b","0",""
"null","","html-keyboard-response","558","654870","0.0-6.0-2.112","","<div style=""font-size:60px;"">+</div>","null","","","","","","",""
"null","","image-keyboard-response","559","656371","0.0-6.0-0.113","","img/pink.png","null","trial","null","true","0.4,0.6","4:nogo_d","",""
"null","","html-keyboard-response","560","657374","0.0-6.0-1.113","","<img src=""img/pink-r.png"">","null","trial","null","","0.4,0.6","4:nogo_d","1",""
"null","","html-keyboard-response","561","658378","0.0-6.0-2.113","","<div style=""font-size:60px;"">+</div>","null","","","","","","",""
"509.13999998010695","","image-keyboard-response","562","658889","0.0-6.0-0.114","","img/yellow.png","32","trial","32","true","0.6,0.4","3:go_c","",""
"null","","html-keyboard-response","563","659892","0.0-6.0-1.114","","<img src=""img/yellow-r.png"" border=""10"">","null","trial","32","","0.6,0.4","3:go_c","1",""
"null","","html-keyboard-response","564","660894","0.0-6.0-2.114","","<div style=""font-size:60px;"">+</div>","null","","","","","","",""
"454.280000180006","","image-keyboard-response","565","661349","0.0-6.0-0.115","","img/blue.png","32","trial","32","true","0.8,0.2","1:go_a","",""
"null","","html-keyboard-response","566","662368","0.0-6.0-1.115","","<img src=""img/blue-r.png"" border=""10"">","null","trial","32","","0.8,0.2","1:go_a","1",""
"null","","html-keyboard-response","567","663376","0.0-6.0-2.115","","<div style=""font-size:60px;"">+</div>","null","","","","","","",""
"489.33500004932284","","image-keyboard-response","568","663866","0.0-6.0-0.116","","img/pink.png","32","trial","null","false","0.4,0.6","4:nogo_d","",""
"null","","html-keyboard-response","569","664868","0.0-6.0-1.116","","<img src=""img/pink-n.png"" border=""10"">","null","trial","null","","0.4,0.6","4:nogo_d","0",""
"null","","html-keyboard-response","570","665870","0.0-6.0-2.116","","<div style=""font-size:60px;"">+</div>","null","","","","","","",""
"null","","image-keyboard-response","571","667372","0.0-6.0-0.117","","img/orange.png","null","trial","null","true","0.2,0.8","2:nogo_b","",""
"null","","html-keyboard-response","572","668374","0.0-6.0-1.117","","<img src=""img/orange-r.png"">","null","trial","null","","0.2,0.8","2:nogo_b","1",""
"null","","html-keyboard-response","573","669376","0.0-6.0-2.117","","<div style=""font-size:60px;"">+</div>","null","","","","","","",""
"568.7949999701232","","image-keyboard-response","574","669946","0.0-6.0-0.118","","img/blue.png","32","trial","32","true","0.8,0.2","1:go_a","",""
"null","","html-keyboard-response","575","670949","0.0-6.0-1.118","","<img src=""img/blue-r.png"" border=""10"">","null","trial","32","","0.8,0.2","1:go_a","1",""
"null","","html-keyboard-response","576","671950","0.0-6.0-2.118","","<div style=""font-size:60px;"">+</div>","null","","","","","","",""
"466.9000001158565","","image-keyboard-response","577","672418","0.0-6.0-0.119","","img/yellow.png","32","trial","32","true","0.6,0.4","3:go_c","",""
"null","","html-keyboard-response","578","673420","0.0-6.0-1.119","","<img src=""img/yellow-r.png"" border=""10"">","null","trial","32","","0.6,0.4","3:go_c","1",""
"null","","html-keyboard-response","579","674450","0.0-6.0-2.119","","<div style=""font-size:60px;"">+</div>","null","","","","","","",""
"16701.64499990642","","instructions","580","691152","0.0-7.0","[{""page_index"":0,""viewing_time"":16701.269999844953}]","","","","","","","","",""
"767.6949999295175","","image-keyboard-response","581","691922","0.0-8.0-0.0","","img/purple.png","32","trial","null","false","0.2,0.8","4:nogo_d","",""
"null","","html-keyboard-response","582","692926","0.0-8.0-1.0","","<img src=""img/purple-r.png"" border=""10"">","null","trial","null","","0.2,0.8","4:nogo_d","1",""
"null","","html-keyboard-response","583","693929","0.0-8.0-2.0","","<div style=""font-size:60px;"">+</div>","null","","","","","","",""
"578.3300001639873","","image-keyboard-response","584","694509","0.0-8.0-0.1","","img/red.png","32","trial","32","true","0.8,0.2","1:go_a","",""
"null","","html-keyboard-response","585","695512","0.0-8.0-1.1","","<img src=""img/red-r.png"" border=""10"">","null","trial","32","","0.8,0.2","1:go_a","1",""
"null","","html-keyboard-response","586","696514","0.0-8.0-2.1","","<div style=""font-size:60px;"">+</div>","null","","","","","","",""
"680.8199998922646","","image-keyboard-response","587","697196","0.0-8.0-0.2","","img/grey.png","32","trial","32","true","0.8,0.2","3:go_c","",""
"null","","html-keyboard-response","588","698200","0.0-8.0-1.2","","<img src=""img/grey-n.png"" border=""10"">","null","trial","32","","0.8,0.2","3:go_c","0",""
"null","","html-keyboard-response","589","699202","0.0-8.0-2.2","","<div style=""font-size:60px;"">+</div>","null","","","","","","",""
"624.5949999429286","","image-keyboard-response","590","699827","0.0-8.0-0.3","","img/green.png","32","trial","null","false","0.2,0.8","2:nogo_b","",""
"null","","html-keyboard-response","591","700834","0.0-8.0-1.3","","<img src=""img/green-n.png"" border=""10"">","null","trial","null","","0.2,0.8","2:nogo_b","0",""
"null","","html-keyboard-response","592","701836","0.0-8.0-2.3","","<div style=""font-size:60px;"">+</div>","null","","","","","","",""
"null","","image-keyboard-response","593","703338","0.0-8.0-0.4","","img/green.png","null","trial","null","true","0.2,0.8","2:nogo_b","",""
"null","","html-keyboard-response","594","704342","0.0-8.0-1.4","","<img src=""img/green-n.png"">","null","trial","null","","0.2,0.8","2:nogo_b","0",""
"null","","html-keyboard-response","595","705344","0.0-8.0-2.4","","<div style=""font-size:60px;"">+</div>","null","","","","","","",""
"571.7150000855327","","image-keyboard-response","596","705917","0.0-8.0-0.5","","img/red.png","32","trial","32","true","0.8,0.2","1:go_a","",""
"null","","html-keyboard-response","597","706920","0.0-8.0-1.5","","<img src=""img/red-n.png"" border=""10"">","null","trial","32","","0.8,0.2","1:go_a","0",""
"null","","html-keyboard-response","598","707922","0.0-8.0-2.5","","<div style=""font-size:60px;"">+</div>","null","","","","","","",""
"1153.5900000017136","","image-keyboard-response","599","709077","0.0-8.0-0.6","","img/grey.png","32","trial","32","true","0.8,0.2","3:go_c","",""
"null","","html-keyboard-response","600","710079","0.0-8.0-1.6","","<img src=""img/grey-r.png"" border=""10"">","null","trial","32","","0.8,0.2","3:go_c","1",""
"null","","html-keyboard-response","601","711082","0.0-8.0-2.6","","<div style=""font-size:60px;"">+</div>","null","","","","","","",""
"587.0599998161197","","image-keyboard-response","602","711670","0.0-8.0-0.7","","img/purple.png","32","trial","null","false","0.2,0.8","4:nogo_d","",""
"null","","html-keyboard-response","603","712672","0.0-8.0-1.7","","<img src=""img/purple-n.png"" border=""10"">","null","trial","null","","0.2,0.8","4:nogo_d","0",""
"null","","html-keyboard-response","604","713675","0.0-8.0-2.7","","<div style=""font-size:60px;"">+</div>","null","","","","","","",""
"null","","image-keyboard-response","605","715177","0.0-8.0-0.8","","img/green.png","null","trial","null","true","0.2,0.8","2:nogo_b","",""
"null","","html-keyboard-response","606","716178","0.0-8.0-1.8","","<img src=""img/green-r.png"">","null","trial","null","","0.2,0.8","2:nogo_b","1",""
"null","","html-keyboard-response","607","717220","0.0-8.0-2.8","","<div style=""font-size:60px;"">+</div>","null","","","","","","",""
"523.3000000007451","","image-keyboard-response","608","717746","0.0-8.0-0.9","","img/purple.png","32","trial","null","false","0.2,0.8","4:nogo_d","",""
"null","","html-keyboard-response","609","718748","0.0-8.0-1.9","","<img src=""img/purple-n.png"" border=""10"">","null","trial","null","","0.2,0.8","4:nogo_d","0",""
"null","","html-keyboard-response","610","719751","0.0-8.0-2.9","","<div style=""font-size:60px;"">+</div>","null","","","","","","",""
"585.1300000213087","","image-keyboard-response","611","720337","0.0-8.0-0.10","","img/grey.png","32","trial","32","true","0.8,0.2","3:go_c","",""
"null","","html-keyboard-response","612","721340","0.0-8.0-1.10","","<img src=""img/grey-r.png"" border=""10"">","null","trial","32","","0.8,0.2","3:go_c","1",""
"null","","html-keyboard-response","613","722342","0.0-8.0-2.10","","<div style=""font-size:60px;"">+</div>","null","","","","","","",""
"574.7299999929965","","image-keyboard-response","614","722917","0.0-8.0-0.11","","img/red.png","32","trial","32","true","0.8,0.2","1:go_a","",""
"null","","html-keyboard-response","615","723919","0.0-8.0-1.11","","<img src=""img/red-r.png"" border=""10"">","null","trial","32","","0.8,0.2","1:go_a","1",""
"null","","html-keyboard-response","616","724921","0.0-8.0-2.11","","<div style=""font-size:60px;"">+</div>","null","","","","","","",""
"null","","image-keyboard-response","617","726423","0.0-8.0-0.12","","img/grey.png","null","trial","32","false","0.8,0.2","3:go_c","",""
"null","","html-keyboard-response","618","727426","0.0-8.0-1.12","","<img src=""img/grey-n.png"">","null","trial","32","","0.8,0.2","3:go_c","0",""
"null","","html-keyboard-response","619","728427","0.0-8.0-2.12","","<div style=""font-size:60px;"">+</div>","null","","","","","","",""
"null","","image-keyboard-response","620","729929","0.0-8.0-0.13","","img/purple.png","null","trial","null","true","0.2,0.8","4:nogo_d","",""
"null","","html-keyboard-response","621","730931","0.0-8.0-1.13","","<img src=""img/purple-r.png"">","null","trial","null","","0.2,0.8","4:nogo_d","1",""
"null","","html-keyboard-response","622","731933","0.0-8.0-2.13","","<div style=""font-size:60px;"">+</div>","null","","","","","","",""
"573.0349998921156","","image-keyboard-response","623","732507","0.0-8.0-0.14","","img/green.png","32","trial","null","false","0.2,0.8","2:nogo_b","",""
"null","","html-keyboard-response","624","733521","0.0-8.0-1.14","","<img src=""img/green-n.png"" border=""10"">","null","trial","null","","0.2,0.8","2:nogo_b","0",""
"null","","html-keyboard-response","625","734523","0.0-8.0-2.14","","<div style=""font-size:60px;"">+</div>","null","","","","","","",""
"544.9149999767542","","image-keyboard-response","626","735069","0.0-8.0-0.15","","img/red.png","32","trial","32","true","0.8,0.2","1:go_a","",""
"null","","html-keyboard-response","627","736072","0.0-8.0-1.15","","<img src=""img/red-n.png"" border=""10"">","null","trial","32","","0.8,0.2","1:go_a","0",""
"null","","html-keyboard-response","628","737074","0.0-8.0-2.15","","<div style=""font-size:60px;"">+</div>","null","","","","","","",""
"645.5299998633564","","image-keyboard-response","629","737721","0.0-8.0-0.16","","img/purple.png","32","trial","null","false","0.2,0.8","4:nogo_d","",""
"null","","html-keyboard-response","630","738723","0.0-8.0-1.16","","<img src=""img/purple-r.png"" border=""10"">","null","trial","null","","0.2,0.8","4:nogo_d","1",""
"null","","html-keyboard-response","631","739725","0.0-8.0-2.16","","<div style=""font-size:60px;"">+</div>","null","","","","","","",""
"null","","image-keyboard-response","632","741226","0.0-8.0-0.17","","img/green.png","null","trial","null","true","0.2,0.8","2:nogo_b","",""
"null","","html-keyboard-response","633","742229","0.0-8.0-1.17","","<img src=""img/green-r.png"">","null","trial","null","","0.2,0.8","2:nogo_b","1",""
"null","","html-keyboard-response","634","743231","0.0-8.0-2.17","","<div style=""font-size:60px;"">+</div>","null","","","","","","",""
"null","","image-keyboard-response","635","744732","0.0-8.0-0.18","","img/red.png","null","trial","32","false","0.8,0.2","1:go_a","",""
"null","","html-keyboard-response","636","745734","0.0-8.0-1.18","","<img src=""img/red-r.png"">","null","trial","32","","0.8,0.2","1:go_a","1",""
"null","","html-keyboard-response","637","746736","0.0-8.0-2.18","","<div style=""font-size:60px;"">+</div>","null","","","","","","",""
"489.18500007130206","","image-keyboard-response","638","747226","0.0-8.0-0.19","","img/grey.png","32","trial","32","true","0.8,0.2","3:go_c","",""
"null","","html-keyboard-response","639","748229","0.0-8.0-1.19","","<img src=""img/grey-r.png"" border=""10"">","null","trial","32","","0.8,0.2","3:go_c","1",""
"null","","html-keyboard-response","640","749230","0.0-8.0-2.19","","<div style=""font-size:60px;"">+</div>","null","","","","","","",""
"500.0899999868125","","image-keyboard-response","641","749732","0.0-8.0-0.20","","img/purple.png","32","trial","null","false","0.2,0.8","4:nogo_d","",""
"null","","html-keyboard-response","642","750734","0.0-8.0-1.20","","<img src=""img/purple-n.png"" border=""10"">","null","trial","null","","0.2,0.8","4:nogo_d","0",""
"null","","html-keyboard-response","643","751736","0.0-8.0-2.20","","<div style=""font-size:60px;"">+</div>","null","","","","","","",""
"601.4900000300258","","image-keyboard-response","644","752339","0.0-8.0-0.21","","img/red.png","32","trial","32","true","0.8,0.2","1:go_a","",""
"null","","html-keyboard-response","645","753341","0.0-8.0-1.21","","<img src=""img/red-r.png"" border=""10"">","null","trial","32","","0.8,0.2","1:go_a","1",""
"null","","html-keyboard-response","646","754388","0.0-8.0-2.21","","<div style=""font-size:60px;"">+</div>","null","","","","","","",""
"542.5849999301136","","image-keyboard-response","647","754931","0.0-8.0-0.22","","img/green.png","32","trial","null","false","0.2,0.8","2:nogo_b","",""
"null","","html-keyboard-response","648","755934","0.0-8.0-1.22","","<img src=""img/green-n.png"" border=""10"">","null","trial","null","","0.2,0.8","2:nogo_b","0",""
"null","","html-keyboard-response","649","756935","0.0-8.0-2.22","","<div style=""font-size:60px;"">+</div>","null","","","","","","",""
"581.7199999000877","","image-keyboard-response","650","757518","0.0-8.0-0.23","","img/grey.png","32","trial","32","true","0.8,0.2","3:go_c","",""
"null","","html-keyboard-response","651","758521","0.0-8.0-1.23","","<img src=""img/grey-n.png"" border=""10"">","null","trial","32","","0.8,0.2","3:go_c","0",""
"null","","html-keyboard-response","652","759523","0.0-8.0-2.23","","<div style=""font-size:60px;"">+</div>","null","","","","","","",""
"null","","image-keyboard-response","653","761026","0.0-8.0-0.24","","img/grey.png","null","trial","32","false","0.8,0.2","3:go_c","",""
"null","","html-keyboard-response","654","762029","0.0-8.0-1.24","","<img src=""img/grey-r.png"">","null","trial","32","","0.8,0.2","3:go_c","1",""
"null","","html-keyboard-response","655","763031","0.0-8.0-2.24","","<div style=""font-size:60px;"">+</div>","null","","","","","","",""
"517.6399999763817","","image-keyboard-response","656","763550","0.0-8.0-0.25","","img/green.png","32","trial","null","false","0.2,0.8","2:nogo_b","",""
"null","","html-keyboard-response","657","764554","0.0-8.0-1.25","","<img src=""img/green-n.png"" border=""10"">","null","trial","null","","0.2,0.8","2:nogo_b","0",""
"null","","html-keyboard-response","658","765557","0.0-8.0-2.25","","<div style=""font-size:60px;"">+</div>","null","","","","","","",""
"622.6350001525134","","image-keyboard-response","659","766180","0.0-8.0-0.26","","img/red.png","32","trial","32","true","0.8,0.2","1:go_a","",""
"null","","html-keyboard-response","660","767184","0.0-8.0-1.26","","<img src=""img/red-r.png"" border=""10"">","null","trial","32","","0.8,0.2","1:go_a","1",""
"null","","html-keyboard-response","661","768187","0.0-8.0-2.26","","<div style=""font-size:60px;"">+</div>","null","","","","","","",""
"607.6650000177324","","image-keyboard-response","662","768796","0.0-8.0-0.27","","img/purple.png","32","trial","null","false","0.2,0.8","4:nogo_d","",""
"null","","html-keyboard-response","663","769798","0.0-8.0-1.27","","<img src=""img/purple-n.png"" border=""10"">","null","trial","null","","0.2,0.8","4:nogo_d","0",""
"null","","html-keyboard-response","664","770800","0.0-8.0-2.27","","<div style=""font-size:60px;"">+</div>","null","","","","","","",""
"798.9900000393391","","image-keyboard-response","665","771600","0.0-8.0-0.28","","img/red.png","32","trial","32","true","0.8,0.2","1:go_a","",""
"null","","html-keyboard-response","666","772603","0.0-8.0-1.28","","<img src=""img/red-r.png"" border=""10"">","null","trial","32","","0.8,0.2","1:go_a","1",""
"null","","html-keyboard-response","667","773606","0.0-8.0-2.28","","<div style=""font-size:60px;"">+</div>","null","","","","","","",""
"null","","image-keyboard-response","668","775108","0.0-8.0-0.29","","img/green.png","null","trial","null","true","0.2,0.8","2:nogo_b","",""
"null","","html-keyboard-response","669","776110","0.0-8.0-1.29","","<img src=""img/green-r.png"">","null","trial","null","","0.2,0.8","2:nogo_b","1",""
"null","","html-keyboard-response","670","777112","0.0-8.0-2.29","","<div style=""font-size:60px;"">+</div>","null","","","","","","",""
"555.6300000753254","","image-keyboard-response","671","777668","0.0-8.0-0.30","","img/purple.png","32","trial","null","false","0.2,0.8","4:nogo_d","",""
"null","","html-keyboard-response","672","778670","0.0-8.0-1.30","","<img src=""img/purple-n.png"" border=""10"">","null","trial","null","","0.2,0.8","4:nogo_d","0",""
"null","","html-keyboard-response","673","779672","0.0-8.0-2.30","","<div style=""font-size:60px;"">+</div>","null","","","","","","",""
