"rt","url","trial_type","trial_index","time_elapsed","internal_node_id","view_history","stimulus","key_press","test_part","correct_response","correct","use_rew","which_stim","reward","responses"
"87970.27999997954","consent.html","external-html","0","88019","0.0-0.0","","","","","","","","","",""
"252721.5600000054","","instructions","1","340744","0.0-1.0","[{""page_index"":0,""viewing_time"":2568.9349999884143},{""page_index"":1,""viewing_time"":79612.08500000066},{""page_index"":2,""viewing_time"":3838.4899999946356},{""page_index"":3,""viewing_time"":21786.17999999551},{""page_index"":4,""viewing_time"":11125.225000025239},{""page_index"":5,""viewing_time"":4294.33499998413},{""page_index"":6,""viewing_time"":129495.61000001268}]","","","","","","","","",""
"null","","image-keyboard-response","2","342246","0.0-2.0-0.0","","img/test2.PNG","null","practice","null","true","","","",""
"null","","html-keyboard-response","3","343259","0.0-2.0-1.0","","<img src=""img/test2-reward.PNG"">","null","","","","","","",""
"null","","html-keyboard-response","4","344274","0.0-2.0-2.0","","<div style=""font-size:60px;"">+</div>","null","","","","","","",""
"null","","image-keyboard-response","5","345777","0.0-2.0-0.1","","img/test3.PNG","null","practice","null","true","","","",""
"null","","html-keyboard-response","6","346791","0.0-2.0-1.1","","<img src=""img/test3-reward.PNG"">","null","","","","","","",""
"null","","html-keyboard-response","7","347806","0.0-2.0-2.1","","<div style=""font-size:60px;"">+</div>","null","","","","","","",""
"631.9150000053924","","image-keyboard-response","8","348438","0.0-2.0-0.2","","img/test1.PNG","32","practice","32","true","","","",""
"null","","html-keyboard-response","9","349445","0.0-2.0-1.2","","<img src=""img/test1-reward.PNG"" border=""10px; grey"">","null","","","","","","",""
"null","","html-keyboard-response","10","350446","0.0-2.0-2.2","","<div style=""font-size:60px;"">+</div>","null","","","","","","",""
"399.8499999870546","","image-keyboard-response","11","350847","0.0-2.0-0.3","","img/test1.PNG","32","practice","32","true","","","",""
"null","","html-keyboard-response","12","351851","0.0-2.0-1.3","","<img src=""img/test1-reward.PNG"" border=""10px; grey"">","null","","","","","","",""
"null","","html-keyboard-response","13","352864","0.0-2.0-2.3","","<div style=""font-size:60px;"">+</div>","null","","","","","","",""
"null","","image-keyboard-response","14","354368","0.0-2.0-0.4","","img/test2.PNG","null","practice","null","true","","","",""
"null","","html-keyboard-response","15","355381","0.0-2.0-1.4","","<img src=""img/test2-reward.PNG"">","null","","","","","","",""
"null","","html-keyboard-response","16","356383","0.0-2.0-2.4","","<div style=""font-size:60px;"">+</div>","null","","","","","","",""
"null","","image-keyboard-response","17","357897","0.0-2.0-0.5","","img/test3.PNG","null","practice","null","true","","","",""
"null","","html-keyboard-response","18","358899","0.0-2.0-1.5","","<img src=""img/test3-reward.PNG"">","null","","","","","","",""
"null","","html-keyboard-response","19","359913","0.0-2.0-2.5","","<div style=""font-size:60px;"">+</div>","null","","","","","","",""
"null","","image-keyboard-response","20","361418","0.0-2.0-0.6","","img/test3.PNG","null","practice","null","true","","","",""
"null","","html-keyboard-response","21","362419","0.0-2.0-1.6","","<img src=""img/test3-reward.PNG"">","null","","","","","","",""
"null","","html-keyboard-response","22","363421","0.0-2.0-2.6","","<div style=""font-size:60px;"">+</div>","null","","","","","","",""
"null","","image-keyboard-response","23","364934","0.0-2.0-0.7","","img/test2.PNG","null","practice","null","true","","","",""
"null","","html-keyboard-response","24","365939","0.0-2.0-1.7","","<img src=""img/test2-reward.PNG"">","null","","","","","","",""
"null","","html-keyboard-response","25","366951","0.0-2.0-2.7","","<div style=""font-size:60px;"">+</div>","null","","","","","","",""
"408.23999998974614","","image-keyboard-response","26","367360","0.0-2.0-0.8","","img/test1.PNG","32","practice","32","true","","","",""
"null","","html-keyboard-response","27","368365","0.0-2.0-1.8","","<img src=""img/test1-reward.PNG"" border=""10px; grey"">","null","","","","","","",""
"null","","html-keyboard-response","28","369368","0.0-2.0-2.8","","<div style=""font-size:60px;"">+</div>","null","","","","","","",""
"519.9000000138767","","image-keyboard-response","29","369889","0.0-2.0-0.9","","img/test1.PNG","32","practice","32","true","","","",""
"null","","html-keyboard-response","30","370902","0.0-2.0-1.9","","<img src=""img/test1-reward.PNG"" border=""10px; grey"">","null","","","","","","",""
"null","","html-keyboard-response","31","371918","0.0-2.0-2.9","","<div style=""font-size:60px;"">+</div>","null","","","","","","",""
"null","","image-keyboard-response","32","373435","0.0-2.0-0.10","","img/test2.PNG","null","practice","null","true","","","",""
"null","","html-keyboard-response","33","374436","0.0-2.0-1.10","","<img src=""img/test2-reward.PNG"">","null","","","","","","",""
"null","","html-keyboard-response","34","375451","0.0-2.0-2.10","","<div style=""font-size:60px;"">+</div>","null","","","","","","",""
"null","","image-keyboard-response","35","376964","0.0-2.0-0.11","","img/test3.PNG","null","practice","null","true","","","",""
"null","","html-keyboard-response","36","377978","0.0-2.0-1.11","","<img src=""img/test3-reward.PNG"">","null","","","","","","",""
"null","","html-keyboard-response","37","378991","0.0-2.0-2.11","","<div style=""font-size:60px;"">+</div>","null","","","","","","",""
"2785.969999997178","","instructions","38","381778","0.0-3.0","[{""page_index"":0,""viewing_time"":2785.8499999856576}]","","","","","","","","",""
"1335.2450000238605","","image-keyboard-response","39","383114","0.0-4.0-0.0","","img/blue.png","32","trial","null","false","0.2,0.8","2:nogo_b","",""
"null","","html-keyboard-response","40","384117","0.0-4.0-1.0","","<img src=""img/blue-n.png"" border=""10"">","null","trial","null","","0.2,0.8","2:nogo_b","0",""
"null","","html-keyboard-response","41","385132","0.0-4.0-2.0","","<div style=""font-size:60px;"">+</div>","null","","","","","","",""
"813.2749999931548","","image-keyboard-response","42","385946","0.0-4.0-0.1","","img/orange.png","32","trial","32","true","0.8,0.2","1:go_a","",""
"null","","html-keyboard-response","43","386959","0.0-4.0-1.1","","<img src=""img/orange-r.png"" border=""10"">","null","trial","32","","0.8,0.2","1:go_a","1",""
"null","","html-keyboard-response","44","387973","0.0-4.0-2.1","","<div style=""font-size:60px;"">+</div>","null","","","","","","",""
"684.6300000033807","","image-keyboard-response","45","388658","0.0-4.0-0.2","","img/blue.png","32","trial","null","false","0.2,0.8","2:nogo_b","",""
"null","","html-keyboard-response","46","389669","0.0-4.0-1.2","","<img src=""img/blue-n.png"" border=""10"">","null","trial","null","","0.2,0.8","2:nogo_b","0",""
"null","","html-keyboard-response","47","390671","0.0-4.0-2.2","","<div style=""font-size:60px;"">+</div>","null","","","","","","",""
"690.9050000249408","","image-keyboard-response","48","391363","0.0-4.0-0.3","","img/orange.png","32","trial","32","true","0.8,0.2","1:go_a","",""
"null","","html-keyboard-response","49","392374","0.0-4.0-1.3","","<img src=""img/orange-r.png"" border=""10"">","null","trial","32","","0.8,0.2","1:go_a","1",""
"null","","html-keyboard-response","50","393390","0.0-4.0-2.3","","<div style=""font-size:60px;"">+</div>","null","","","","","","",""
"636.8800000054762","","image-keyboard-response","51","394028","0.0-4.0-0.4","","img/orange.png","32","trial","32","true","0.8,0.2","1:go_a","",""
"null","","html-keyboard-response","52","395040","0.0-4.0-1.4","","<img src=""img/orange-r.png"" border=""10"">","null","trial","32","","0.8,0.2","1:go_a","1",""
"null","","html-keyboard-response","53","396047","0.0-4.0-2.4","","<div style=""font-size:60px;"">+</div>","null","","","","","","",""
"null","","image-keyboard-response","54","397549","0.0-4.0-0.5","","img/blue.png","null","trial","null","true","0.2,0.8","2:nogo_b","",""
"null","","html-keyboard-response","55","398560","0.0-4.0-1.5","","<img src=""img/blue-r.png"">","null","trial","null","","0.2,0.8","2:nogo_b","1",""
"null","","html-keyboard-response","56","399571","0.0-4.0-2.5","","<div style=""font-size:60px;"">+</div>","null","","","","","","",""
"null","","image-keyboard-response","57","401074","0.0-4.0-0.6","","img/blue.png","null","trial","null","true","0.2,0.8","2:nogo_b","",""
"null","","html-keyboard-response","58","402086","0.0-4.0-1.6","","<img src=""img/blue-n.png"">","null","trial","null","","0.2,0.8","2:nogo_b","0",""
"null","","html-keyboard-response","59","403087","0.0-4.0-2.6","","<div style=""font-size:60px;"">+</div>","null","","","","","","",""
"420.2149999910034","","image-keyboard-response","60","403508","0.0-4.0-0.7","","img/orange.png","32","trial","32","true","0.8,0.2","1:go_a","",""
"null","","html-keyboard-response","61","404523","0.0-4.0-1.7","","<img src=""img/orange-r.png"" border=""10"">","null","trial","32","","0.8,0.2","1:go_a","1",""
"null","","html-keyboard-response","62","405531","0.0-4.0-2.7","","<div style=""font-size:60px;"">+</div>","null","","","","","","",""
"null","","image-keyboard-response","63","407044","0.0-4.0-0.8","","img/blue.png","null","trial","null","true","0.2,0.8","2:nogo_b","",""
"null","","html-keyboard-response","64","408059","0.0-4.0-1.8","","<img src=""img/blue-r.png"">","null","trial","null","","0.2,0.8","2:nogo_b","1",""
"null","","html-keyboard-response","65","409074","0.0-4.0-2.8","","<div style=""font-size:60px;"">+</div>","null","","","","","","",""
"595.0050000101328","","image-keyboard-response","66","409670","0.0-4.0-0.9","","img/orange.png","32","trial","32","true","0.8,0.2","1:go_a","",""
"null","","html-keyboard-response","67","410683","0.0-4.0-1.9","","<img src=""img/orange-n.png"" border=""10"">","null","trial","32","","0.8,0.2","1:go_a","0",""
"null","","html-keyboard-response","68","411695","0.0-4.0-2.9","","<div style=""font-size:60px;"">+</div>","null","","","","","","",""
"null","","image-keyboard-response","69","413209","0.0-4.0-0.10","","img/blue.png","null","trial","null","true","0.2,0.8","2:nogo_b","",""
"null","","html-keyboard-response","70","414212","0.0-4.0-1.10","","<img src=""img/blue-r.png"">","null","trial","null","","0.2,0.8","2:nogo_b","1",""
"null","","html-keyboard-response","71","415225","0.0-4.0-2.10","","<div style=""font-size:60px;"">+</div>","null","","","","","","",""
"451.5499999979511","","image-keyboard-response","72","415677","0.0-4.0-0.11","","img/orange.png","32","trial","32","true","0.8,0.2","1:go_a","",""
"null","","html-keyboard-response","73","416692","0.0-4.0-1.11","","<img src=""img/orange-r.png"" border=""10"">","null","trial","32","","0.8,0.2","1:go_a","1",""
"null","","html-keyboard-response","74","417693","0.0-4.0-2.11","","<div style=""font-size:60px;"">+</div>","null","","","","","","",""
"null","","image-keyboard-response","75","419207","0.0-4.0-0.12","","img/blue.png","null","trial","null","true","0.2,0.8","2:nogo_b","",""
"null","","html-keyboard-response","76","420221","0.0-4.0-1.12","","<img src=""img/blue-r.png"">","null","trial","null","","0.2,0.8","2:nogo_b","1",""
"null","","html-keyboard-response","77","421234","0.0-4.0-2.12","","<div style=""font-size:60px;"">+</div>","null","","","","","","",""
"387.9949999973178","","image-keyboard-response","78","421622","0.0-4.0-0.13","","img/orange.png","32","trial","32","true","0.8,0.2","1:go_a","",""
"null","","html-keyboard-response","79","422632","0.0-4.0-1.13","","<img src=""img/orange-r.png"" border=""10"">","null","trial","32","","0.8,0.2","1:go_a","1",""
"null","","html-keyboard-response","80","423647","0.0-4.0-2.13","","<div style=""font-size:60px;"">+</div>","null","","","","","","",""
"null","","image-keyboard-response","81","425164","0.0-4.0-0.14","","img/blue.png","null","trial","null","true","0.2,0.8","2:nogo_b","",""
"null","","html-keyboard-response","82","426179","0.0-4.0-1.14","","<img src=""img/blue-r.png"">","null","trial","null","","0.2,0.8","2:nogo_b","1",""
"null","","html-keyboard-response","83","427181","0.0-4.0-2.14","","<div style=""font-size:60px;"">+</div>","null","","","","","","",""
"472.76000000420026","","image-keyboard-response","84","427654","0.0-4.0-0.15","","img/orange.png","32","trial","32","true","0.8,0.2","1:go_a","",""
"null","","html-keyboard-response","85","428670","0.0-4.0-1.15","","<img src=""img/orange-r.png"" border=""10"">","null","trial","32","","0.8,0.2","1:go_a","1",""
"null","","html-keyboard-response","86","429685","0.0-4.0-2.15","","<div style=""font-size:60px;"">+</div>","null","","","","","","",""
"512.7950000169221","","image-keyboard-response","87","430199","0.0-4.0-0.16","","img/orange.png","32","trial","32","true","0.8,0.2","1:go_a","",""
"null","","html-keyboard-response","88","431203","0.0-4.0-1.16","","<img src=""img/orange-r.png"" border=""10"">","null","trial","32","","0.8,0.2","1:go_a","1",""
"null","","html-keyboard-response","89","432208","0.0-4.0-2.16","","<div style=""font-size:60px;"">+</div>","null","","","","","","",""
"null","","image-keyboard-response","90","433710","0.0-4.0-0.17","","img/blue.png","null","trial","null","true","0.2,0.8","2:nogo_b","",""
"null","","html-keyboard-response","91","434711","0.0-4.0-1.17","","<img src=""img/blue-n.png"">","null","trial","null","","0.2,0.8","2:nogo_b","0",""
"null","","html-keyboard-response","92","435727","0.0-4.0-2.17","","<div style=""font-size:60px;"">+</div>","null","","","","","","",""
"721.2149999977555","","image-keyboard-response","93","436448","0.0-4.0-0.18","","img/orange.png","32","trial","32","true","0.8,0.2","1:go_a","",""
"null","","html-keyboard-response","94","437459","0.0-4.0-1.18","","<img src=""img/orange-n.png"" border=""10"">","null","trial","32","","0.8,0.2","1:go_a","0",""
"null","","html-keyboard-response","95","438474","0.0-4.0-2.18","","<div style=""font-size:60px;"">+</div>","null","","","","","","",""
"861.0500000067987","","image-keyboard-response","96","439336","0.0-4.0-0.19","","img/blue.png","32","trial","null","false","0.2,0.8","2:nogo_b","",""
"null","","html-keyboard-response","97","440343","0.0-4.0-1.19","","<img src=""img/blue-n.png"" border=""10"">","null","trial","null","","0.2,0.8","2:nogo_b","0",""
"null","","html-keyboard-response","98","441344","0.0-4.0-2.19","","<div style=""font-size:60px;"">+</div>","null","","","","","","",""
"null","","image-keyboard-response","99","442858","0.0-4.0-0.20","","img/blue.png","null","trial","null","true","0.2,0.8","2:nogo_b","",""
"null","","html-keyboard-response","100","443861","0.0-4.0-1.20","","<img src=""img/blue-r.png"">","null","trial","null","","0.2,0.8","2:nogo_b","1",""
"null","","html-keyboard-response","101","444866","0.0-4.0-2.20","","<div style=""font-size:60px;"">+</div>","null","","","","","","",""
"453.61999998567626","","image-keyboard-response","102","445320","0.0-4.0-0.21","","img/orange.png","32","trial","32","true","0.8,0.2","1:go_a","",""
"null","","html-keyboard-response","103","446333","0.0-4.0-1.21","","<img src=""img/orange-r.png"" border=""10"">","null","trial","32","","0.8,0.2","1:go_a","1",""
"null","","html-keyboard-response","104","447343","0.0-4.0-2.21","","<div style=""font-size:60px;"">+</div>","null","","","","","","",""
"null","","image-keyboard-response","105","448849","0.0-4.0-0.22","","img/blue.png","null","trial","null","true","0.2,0.8","2:nogo_b","",""
"null","","html-keyboard-response","106","449855","0.0-4.0-1.22","","<img src=""img/blue-r.png"">","null","trial","null","","0.2,0.8","2:nogo_b","1",""
"null","","html-keyboard-response","107","450861","0.0-4.0-2.22","","<div style=""font-size:60px;"">+</div>","null","","","","","","",""
"547.6049999997485","","image-keyboard-response","108","451409","0.0-4.0-0.23","","img/orange.png","32","trial","32","true","0.8,0.2","1:go_a","",""
"null","","html-keyboard-response","109","452425","0.0-4.0-1.23","","<img src=""img/orange-r.png"" border=""10"">","null","trial","32","","0.8,0.2","1:go_a","1",""
"null","","html-keyboard-response","110","453427","0.0-4.0-2.23","","<div style=""font-size:60px;"">+</div>","null","","","","","","",""
"null","","image-keyboard-response","111","454939","0.0-4.0-0.24","","img/blue.png","null","trial","null","true","0.2,0.8","2:nogo_b","",""
"null","","html-keyboard-response","112","455944","0.0-4.0-1.24","","<img src=""img/blue-r.png"">","null","trial","null","","0.2,0.8","2:nogo_b","1",""
"null","","html-keyboard-response","113","456945","0.0-4.0-2.24","","<div style=""font-size:60px;"">+</div>","null","","","","","","",""
"520.6900000048336","","image-keyboard-response","114","457466","0.0-4.0-0.25","","img/orange.png","32","trial","32","true","0.8,0.2","1:go_a","",""
"null","","html-keyboard-response","115","458474","0.0-4.0-1.25","","<img src=""img/orange-n.png"" border=""10"">","null","trial","32","","0.8,0.2","1:go_a","0",""
"null","","html-keyboard-response","116","459479","0.0-4.0-2.25","","<div style=""font-size:60px;"">+</div>","null","","","","","","",""
"482.86499999812804","","image-keyboard-response","117","459962","0.0-4.0-0.26","","img/orange.png","32","trial","32","true","0.8,0.2","1:go_a","",""
"null","","html-keyboard-response","118","460967","0.0-4.0-1.26","","<img src=""img/orange-r.png"" border=""10"">","null","trial","32","","0.8,0.2","1:go_a","1",""
"null","","html-keyboard-response","119","461981","0.0-4.0-2.26","","<div style=""font-size:60px;"">+</div>","null","","","","","","",""
"null","","image-keyboard-response","120","463493","0.0-4.0-0.27","","img/blue.png","null","trial","null","true","0.2,0.8","2:nogo_b","",""
"null","","html-keyboard-response","121","464494","0.0-4.0-1.27","","<img src=""img/blue-r.png"">","null","trial","null","","0.2,0.8","2:nogo_b","1",""
"null","","html-keyboard-response","122","465496","0.0-4.0-2.27","","<div style=""font-size:60px;"">+</div>","null","","","","","","",""
"null","","image-keyboard-response","123","467008","0.0-4.0-0.28","","img/blue.png","null","trial","null","true","0.2,0.8","2:nogo_b","",""
"null","","html-keyboard-response","124","468022","0.0-4.0-1.28","","<img src=""img/blue-r.png"">","null","trial","null","","0.2,0.8","2:nogo_b","1",""
"null","","html-keyboard-response","125","469025","0.0-4.0-2.28","","<div style=""font-size:60px;"">+</div>","null","","","","","","",""
"521.5200000093319","","image-keyboard-response","126","469547","0.0-4.0-0.29","","img/orange.png","32","trial","32","true","0.8,0.2","1:go_a","",""
"null","","html-keyboard-response","127","470557","0.0-4.0-1.29","","<img src=""img/orange-r.png"" border=""10"">","null","trial","32","","0.8,0.2","1:go_a","1",""
"null","","html-keyboard-response","128","471571","0.0-4.0-2.29","","<div style=""font-size:60px;"">+</div>","null","","","","","","",""
"null","","image-keyboard-response","129","473074","0.0-4.0-0.30","","img/blue.png","null","trial","null","true","0.2,0.8","2:nogo_b","",""
"null","","html-keyboard-response","130","474078","0.0-4.0-1.30","","<img src=""img/blue-r.png"">","null","trial","null","","0.2,0.8","2:nogo_b","1",""
"null","","html-keyboard-response","131","475083","0.0-4.0-2.30","","<div style=""font-size:60px;"">+</div>","null","","","","","","",""
"567.864999989979","","image-keyboard-response","132","475652","0.0-4.0-0.31","","img/orange.png","32","trial","32","true","0.8,0.2","1:go_a","",""
"null","","html-keyboard-response","133","476660","0.0-4.0-1.31","","<img src=""img/orange-n.png"" border=""10"">","null","trial","32","","0.8,0.2","1:go_a","0",""
"null","","html-keyboard-response","134","477661","0.0-4.0-2.31","","<div style=""font-size:60px;"">+</div>","null","","","","","","",""
"525.7200000050943","","image-keyboard-response","135","478188","0.0-4.0-0.32","","img/orange.png","32","trial","32","true","0.8,0.2","1:go_a","",""
"null","","html-keyboard-response","136","479203","0.0-4.0-1.32","","<img src=""img/orange-r.png"" border=""10"">","null","trial","32","","0.8,0.2","1:go_a","1",""
"null","","html-keyboard-response","137","480219","0.0-4.0-2.32","","<div style=""font-size:60px;"">+</div>","null","","","","","","",""
"null","","image-keyboard-response","138","481733","0.0-4.0-0.33","","img/blue.png","null","trial","null","true","0.2,0.8","2:nogo_b","",""
"null","","html-keyboard-response","139","482745","0.0-4.0-1.33","","<img src=""img/blue-r.png"">","null","trial","null","","0.2,0.8","2:nogo_b","1",""
"null","","html-keyboard-response","140","483758","0.0-4.0-2.33","","<div style=""font-size:60px;"">+</div>","null","","","","","","",""
"null","","image-keyboard-response","141","485273","0.0-4.0-0.34","","img/blue.png","null","trial","null","true","0.2,0.8","2:nogo_b","",""
"null","","html-keyboard-response","142","486290","0.0-4.0-1.34","","<img src=""img/blue-r.png"">","null","trial","null","","0.2,0.8","2:nogo_b","1",""
"null","","html-keyboard-response","143","487293","0.0-4.0-2.34","","<div style=""font-size:60px;"">+</div>","null","","","","","","",""
"511.4750000066124","","image-keyboard-response","144","487805","0.0-4.0-0.35","","img/orange.png","32","trial","32","true","0.8,0.2","1:go_a","",""
"null","","html-keyboard-response","145","488821","0.0-4.0-1.35","","<img src=""img/orange-r.png"" border=""10"">","null","trial","32","","0.8,0.2","1:go_a","1",""
"null","","html-keyboard-response","146","489835","0.0-4.0-2.35","","<div style=""font-size:60px;"">+</div>","null","","","","","","",""
"null","","image-keyboard-response","147","491347","0.0-4.0-0.36","","img/blue.png","null","trial","null","true","0.2,0.8","2:nogo_b","",""
"null","","html-keyboard-response","148","492348","0.0-4.0-1.36","","<img src=""img/blue-r.png"">","null","trial","null","","0.2,0.8","2:nogo_b","1",""
"null","","html-keyboard-response","149","493359","0.0-4.0-2.36","","<div style=""font-size:60px;"">+</div>","null","","","","","","",""
"454.28000000538304","","image-keyboard-response","150","493813","0.0-4.0-0.37","","img/orange.png","32","trial","32","true","0.8,0.2","1:go_a","",""
"null","","html-keyboard-response","151","494825","0.0-4.0-1.37","","<img src=""img/orange-r.png"" border=""10"">","null","trial","32","","0.8,0.2","1:go_a","1",""
"null","","html-keyboard-response","152","495831","0.0-4.0-2.37","","<div style=""font-size:60px;"">+</div>","null","","","","","","",""
"null","","image-keyboard-response","153","497334","0.0-4.0-0.38","","img/blue.png","null","trial","null","true","0.2,0.8","2:nogo_b","",""
"null","","html-keyboard-response","154","498347","0.0-4.0-1.38","","<img src=""img/blue-n.png"">","null","trial","null","","0.2,0.8","2:nogo_b","0",""
"null","","html-keyboard-response","155","499350","0.0-4.0-2.38","","<div style=""font-size:60px;"">+</div>","null","","","","","","",""
"632.2000000218395","","image-keyboard-response","156","499982","0.0-4.0-0.39","","img/orange.png","32","trial","32","true","0.8,0.2","1:go_a","",""
"null","","html-keyboard-response","157","500990","0.0-4.0-1.39","","<img src=""img/orange-r.png"" border=""10"">","null","trial","32","","0.8,0.2","1:go_a","1",""
"null","","html-keyboard-response","158","502005","0.0-4.0-2.39","","<div style=""font-size:60px;"">+</div>","null","","","","","","",""
"null","","image-keyboard-response","159","503508","0.0-4.0-0.40","","img/blue.png","null","trial","null","true","0.2,0.8","2:nogo_b","",""
"null","","html-keyboard-response","160","504510","0.0-4.0-1.40","","<img src=""img/blue-r.png"">","null","trial","null","","0.2,0.8","2:nogo_b","1",""
"null","","html-keyboard-response","161","505522","0.0-4.0-2.40","","<div style=""font-size:60px;"">+</div>","null","","","","","","",""
"604.1400000103749","","image-keyboard-response","162","506127","0.0-4.0-0.41","","img/orange.png","32","trial","32","true","0.8,0.2","1:go_a","",""
"null","","html-keyboard-response","163","507139","0.0-4.0-1.41","","<img src=""img/orange-r.png"" border=""10"">","null","trial","32","","0.8,0.2","1:go_a","1",""
"null","","html-keyboard-response","164","508151","0.0-4.0-2.41","","<div style=""font-size:60px;"">+</div>","null","","","","","","",""
"null","","image-keyboard-response","165","509664","0.0-4.0-0.42","","img/blue.png","null","trial","null","true","0.2,0.8","2:nogo_b","",""
"null","","html-keyboard-response","166","510678","0.0-4.0-1.42","","<img src=""img/blue-r.png"">","null","trial","null","","0.2,0.8","2:nogo_b","1",""
"null","","html-keyboard-response","167","511692","0.0-4.0-2.42","","<div style=""font-size:60px;"">+</div>","null","","","","","","",""
"362.3949999746401","","image-keyboard-response","168","512055","0.0-4.0-0.43","","img/orange.png","32","trial","32","true","0.8,0.2","1:go_a","",""
"null","","html-keyboard-response","169","513069","0.0-4.0-1.43","","<img src=""img/orange-r.png"" border=""10"">","null","trial","32","","0.8,0.2","1:go_a","1",""
"null","","html-keyboard-response","170","514081","0.0-4.0-2.43","","<div style=""font-size:60px;"">+</div>","null","","","","","","",""
"613.8300000166055","","image-keyboard-response","171","514696","0.0-4.0-0.44","","img/orange.png","32","trial","32","true","0.8,0.2","1:go_a","",""
"null","","html-keyboard-response","172","515705","0.0-4.0-1.44","","<img src=""img/orange-r.png"" border=""10"">","null","trial","32","","0.8,0.2","1:go_a","1",""
"null","","html-keyboard-response","173","516719","0.0-4.0-2.44","","<div style=""font-size:60px;"">+</div>","null","","","","","","",""
"null","","image-keyboard-response","174","518230","0.0-4.0-0.45","","img/blue.png","null","trial","null","true","0.2,0.8","2:nogo_b","",""
"null","","html-keyboard-response","175","519244","0.0-4.0-1.45","","<img src=""img/blue-r.png"">","null","trial","null","","0.2,0.8","2:nogo_b","1",""
"null","","html-keyboard-response","176","520258","0.0-4.0-2.45","","<div style=""font-size:60px;"">+</div>","null","","","","","","",""
"485.7800000172574","","image-keyboard-response","177","520744","0.0-4.0-0.46","","img/orange.png","32","trial","32","true","0.8,0.2","1:go_a","",""
"null","","html-keyboard-response","178","521755","0.0-4.0-1.46","","<img src=""img/orange-r.png"" border=""10"">","null","trial","32","","0.8,0.2","1:go_a","1",""
"null","","html-keyboard-response","179","522770","0.0-4.0-2.46","","<div style=""font-size:60px;"">+</div>","null","","","","","","",""
"null","","image-keyboard-response","180","524279","0.0-4.0-0.47","","img/blue.png","null","trial","null","true","0.2,0.8","2:nogo_b","",""
"null","","html-keyboard-response","181","525295","0.0-4.0-1.47","","<img src=""img/blue-r.png"">","null","trial","null","","0.2,0.8","2:nogo_b","1",""
"null","","html-keyboard-response","182","526298","0.0-4.0-2.47","","<div style=""font-size:60px;"">+</div>","null","","","","","","",""
"null","","image-keyboard-response","183","527810","0.0-4.0-0.48","","img/blue.png","null","trial","null","true","0.2,0.8","2:nogo_b","",""
"null","","html-keyboard-response","184","528811","0.0-4.0-1.48","","<img src=""img/blue-r.png"">","null","trial","null","","0.2,0.8","2:nogo_b","1",""
"null","","html-keyboard-response","185","529823","0.0-4.0-2.48","","<div style=""font-size:60px;"">+</div>","null","","","","","","",""
"705.4749999952037","","image-keyboard-response","186","530529","0.0-4.0-0.49","","img/orange.png","32","trial","32","true","0.8,0.2","1:go_a","",""
"null","","html-keyboard-response","187","531539","0.0-4.0-1.49","","<img src=""img/orange-r.png"" border=""10"">","null","trial","32","","0.8,0.2","1:go_a","1",""
"null","","html-keyboard-response","188","532552","0.0-4.0-2.49","","<div style=""font-size:60px;"">+</div>","null","","","","","","",""
"null","","image-keyboard-response","189","534055","0.0-4.0-0.50","","img/blue.png","null","trial","null","true","0.2,0.8","2:nogo_b","",""
"null","","html-keyboard-response","190","535069","0.0-4.0-1.50","","<img src=""img/blue-n.png"">","null","trial","null","","0.2,0.8","2:nogo_b","0",""
"null","","html-keyboard-response","191","536071","0.0-4.0-2.50","","<div style=""font-size:60px;"">+</div>","null","","","","","","",""
"618.4749999956694","","image-keyboard-response","192","536690","0.0-4.0-0.51","","img/orange.png","32","trial","32","true","0.8,0.2","1:go_a","",""
"null","","html-keyboard-response","193","537706","0.0-4.0-1.51","","<img src=""img/orange-n.png"" border=""10"">","null","trial","32","","0.8,0.2","1:go_a","0",""
"null","","html-keyboard-response","194","538718","0.0-4.0-2.51","","<div style=""font-size:60px;"">+</div>","null","","","","","","",""
"null","","image-keyboard-response","195","540226","0.0-4.0-0.52","","img/blue.png","null","trial","null","true","0.2,0.8","2:nogo_b","",""
"null","","html-keyboard-response","196","541227","0.0-4.0-1.52","","<img src=""img/blue-r.png"">","null","trial","null","","0.2,0.8","2:nogo_b","1",""
"null","","html-keyboard-response","197","542234","0.0-4.0-2.52","","<div style=""font-size:60px;"">+</div>","null","","","","","","",""
"504.2799999937415","","image-keyboard-response","198","542739","0.0-4.0-0.53","","img/orange.png","32","trial","32","true","0.8,0.2","1:go_a","",""
"null","","html-keyboard-response","199","543756","0.0-4.0-1.53","","<img src=""img/orange-r.png"" border=""10"">","null","trial","32","","0.8,0.2","1:go_a","1",""
"null","","html-keyboard-response","200","544771","0.0-4.0-2.53","","<div style=""font-size:60px;"">+</div>","null","","","","","","",""
"null","","image-keyboard-response","201","546274","0.0-4.0-0.54","","img/blue.png","null","trial","null","true","0.2,0.8","2:nogo_b","",""
"null","","html-keyboard-response","202","547276","0.0-4.0-1.54","","<img src=""img/blue-r.png"">","null","trial","null","","0.2,0.8","2:nogo_b","1",""
"null","","html-keyboard-response","203","548288","0.0-4.0-2.54","","<div style=""font-size:60px;"">+</div>","null","","","","","","",""
"474.81499999412335","","image-keyboard-response","204","548763","0.0-4.0-0.55","","img/orange.png","32","trial","32","true","0.8,0.2","1:go_a","",""
"null","","html-keyboard-response","205","549773","0.0-4.0-1.55","","<img src=""img/orange-r.png"" border=""10"">","null","trial","32","","0.8,0.2","1:go_a","1",""
"null","","html-keyboard-response","206","550789","0.0-4.0-2.55","","<div style=""font-size:60px;"">+</div>","null","","","","","","",""
"589.9349999963306","","image-keyboard-response","207","551380","0.0-4.0-0.56","","img/orange.png","32","trial","32","true","0.8,0.2","1:go_a","",""
"null","","html-keyboard-response","208","552381","0.0-4.0-1.56","","<img src=""img/orange-r.png"" border=""10"">","null","trial","32","","0.8,0.2","1:go_a","1",""
"null","","html-keyboard-response","209","553383","0.0-4.0-2.56","","<div style=""font-size:60px;"">+</div>","null","","","","","","",""
"null","","image-keyboard-response","210","554891","0.0-4.0-0.57","","img/blue.png","null","trial","null","true","0.2,0.8","2:nogo_b","",""
"null","","html-keyboard-response","211","555897","0.0-4.0-1.57","","<img src=""img/blue-n.png"">","null","trial","null","","0.2,0.8","2:nogo_b","0",""
"null","","html-keyboard-response","212","556900","0.0-4.0-2.57","","<div style=""font-size:60px;"">+</div>","null","","","","","","",""
"311.80500000482425","","image-keyboard-response","213","557212","0.0-4.0-0.58","","img/orange.png","32","trial","32","true","0.8,0.2","1:go_a","",""
"null","","html-keyboard-response","214","558226","0.0-4.0-1.58","","<img src=""img/orange-n.png"" border=""10"">","null","trial","32","","0.8,0.2","1:go_a","0",""
"null","","html-keyboard-response","215","559240","0.0-4.0-2.58","","<div style=""font-size:60px;"">+</div>","null","","","","","","",""
"null","","image-keyboard-response","216","560749","0.0-4.0-0.59","","img/blue.png","null","trial","null","true","0.2,0.8","2:nogo_b","",""
"null","","html-keyboard-response","217","561756","0.0-4.0-1.59","","<img src=""img/blue-r.png"">","null","trial","null","","0.2,0.8","2:nogo_b","1",""
"null","","html-keyboard-response","218","562757","0.0-4.0-2.59","","<div style=""font-size:60px;"">+</div>","null","","","","","","",""
"3173.6800000071526","","instructions","219","565931","0.0-5.0","[{""page_index"":0,""viewing_time"":3173.5549999866635}]","","","","","","","","",""
"1145.2799999970011","","image-keyboard-response","220","567077","0.0-6.0-0.0","","img/blue.png","32","trial","null","false","0.2,0.8","2:nogo_b","",""
"null","","html-keyboard-response","221","568085","0.0-6.0-1.0","","<img src=""img/blue-r.png"" border=""10"">","null","trial","null","","0.2,0.8","2:nogo_b","1",""
"null","","html-keyboard-response","222","569087","0.0-6.0-2.0","","<div style=""font-size:60px;"">+</div>","null","","","","","","",""
"765.5349999840837","","image-keyboard-response","223","569853","0.0-6.0-0.1","","img/orange.png","32","trial","null","false","0,1","4:nogo_d","",""
"null","","html-keyboard-response","224","570865","0.0-6.0-1.1","","<img src=""img/orange-n.png"" border=""10"">","null","trial","null","","0,1","4:nogo_d","0",""
"null","","html-keyboard-response","225","571882","0.0-6.0-2.1","","<div style=""font-size:60px;"">+</div>","null","","","","","","",""
"898.654999997234","","image-keyboard-response","226","572781","0.0-6.0-0.2","","img/yellow.png","32","trial","32","true","0.8,0.2","1:go_a","",""
"null","","html-keyboard-response","227","573783","0.0-6.0-1.2","","<img src=""img/yellow-r.png"" border=""10"">","null","trial","32","","0.8,0.2","1:go_a","1",""
"null","","html-keyboard-response","228","574796","0.0-6.0-2.2","","<div style=""font-size:60px;"">+</div>","null","","","","","","",""
"809.5800000010058","","image-keyboard-response","229","575606","0.0-6.0-0.3","","img/green.png","32","trial","32","true","1,0","3:go_c","",""
"null","","html-keyboard-response","230","576610","0.0-6.0-1.3","","<img src=""img/green-r.png"" border=""10"">","null","trial","32","","1,0","3:go_c","1",""
"null","","html-keyboard-response","231","577623","0.0-6.0-2.3","","<div style=""font-size:60px;"">+</div>","null","","","","","","",""
"null","","image-keyboard-response","232","579136","0.0-6.0-0.4","","img/orange.png","null","trial","null","true","0,1","4:nogo_d","",""
"null","","html-keyboard-response","233","580152","0.0-6.0-1.4","","<img src=""img/orange-r.png"">","null","trial","null","","0,1","4:nogo_d","1",""
"null","","html-keyboard-response","234","581163","0.0-6.0-2.4","","<div style=""font-size:60px;"">+</div>","null","","","","","","",""
"899.3099999788683","","image-keyboard-response","235","582063","0.0-6.0-0.5","","img/green.png","32","trial","32","true","1,0","3:go_c","",""
"null","","html-keyboard-response","236","583078","0.0-6.0-1.5","","<img src=""img/green-r.png"" border=""10"">","null","trial","32","","1,0","3:go_c","1",""
"null","","html-keyboard-response","237","584079","0.0-6.0-2.5","","<div style=""font-size:60px;"">+</div>","null","","","","","","",""
"479.64500001398847","","image-keyboard-response","238","584559","0.0-6.0-0.6","","img/yellow.png","32","trial","32","true","0.8,0.2","1:go_a","",""
"null","","html-keyboard-response","239","585561","0.0-6.0-1.6","","<img src=""img/yellow-r.png"" border=""10"">","null","trial","32","","0.8,0.2","1:go_a","1",""
"null","","html-keyboard-response","240","586575","0.0-6.0-2.6","","<div style=""font-size:60px;"">+</div>","null","","","","","","",""
"535.6400000164285","","image-keyboard-response","241","587111","0.0-6.0-0.7","","img/blue.png","32","trial","null","false","0.2,0.8","2:nogo_b","",""
"null","","html-keyboard-response","242","588119","0.0-6.0-1.7","","<img src=""img/blue-n.png"" border=""10"">","null","trial","null","","0.2,0.8","2:nogo_b","0",""
"null","","html-keyboard-response","243","589123","0.0-6.0-2.7","","<div style=""font-size:60px;"">+</div>","null","","","","","","",""
"null","","image-keyboard-response","244","590637","0.0-6.0-0.8","","img/orange.png","null","trial","null","true","0,1","4:nogo_d","",""
"null","","html-keyboard-response","245","591641","0.0-6.0-1.8","","<img src=""img/orange-r.png"">","null","trial","null","","0,1","4:nogo_d","1",""
"null","","html-keyboard-response","246","592648","0.0-6.0-2.8","","<div style=""font-size:60px;"">+</div>","null","","","","","","",""
"623.3599999977741","","image-keyboard-response","247","593272","0.0-6.0-0.9","","img/yellow.png","32","trial","32","true","0.8,0.2","1:go_a","",""
"null","","html-keyboard-response","248","594275","0.0-6.0-1.9","","<img src=""img/yellow-n.png"" border=""10"">","null","trial","32","","0.8,0.2","1:go_a","0",""
"null","","html-keyboard-response","249","595290","0.0-6.0-2.9","","<div style=""font-size:60px;"">+</div>","null","","","","","","",""
"493.5950000071898","","image-keyboard-response","250","595784","0.0-6.0-0.10","","img/green.png","32","trial","32","true","1,0","3:go_c","",""
"null","","html-keyboard-response","251","596794","0.0-6.0-1.10","","<img src=""img/green-r.png"" border=""10"">","null","trial","32","","1,0","3:go_c","1",""
"null","","html-keyboard-response","252","597807","0.0-6.0-2.10","","<div style=""font-size:60px;"">+</div>","null","","","","","","",""
"577.3699999845121","","image-keyboard-response","253","598384","0.0-6.0-0.11","","img/blue.png","32","trial","null","false","0.2,0.8","2:nogo_b","",""
"null","","html-keyboard-response","254","599399","0.0-6.0-1.11","","<img src=""img/blue-r.png"" border=""10"">","null","trial","null","","0.2,0.8","2:nogo_b","1",""
"null","","html-keyboard-response","255","600402","0.0-6.0-2.11","","<div style=""font-size:60px;"">+</div>","null","","","","","","",""
"790.64500000095","","image-keyboard-response","256","601193","0.0-6.0-0.12","","img/blue.png","32","trial","null","false","0.2,0.8","2:nogo_b","",""
"null","","html-keyboard-response","257","602207","0.0-6.0-1.12","","<img src=""img/blue-n.png"" border=""10"">","null","trial","null","","0.2,0.8","2:nogo_b","0",""
"null","","html-keyboard-response","258","603209","0.0-6.0-2.12","","<div style=""font-size:60px;"">+</div>","null","","","","","","",""
"599.6500000183005","","image-keyboard-response","259","603809","0.0-6.0-0.13","","img/yellow.png","32","trial","32","true","0.8,0.2","1:go_a","",""
"null","","html-keyboard-response","260","604819","0.0-6.0-1.13","","<img src=""img/yellow-r.png"" border=""10"">","null","trial","32","","0.8,0.2","1:go_a","1",""
"null","","html-keyboard-response","261","605823","0.0-6.0-2.13","","<div style=""font-size:60px;"">+</div>","null","","","","","","",""
"505.5200000060722","","image-keyboard-response","262","606329","0.0-6.0-0.14","","img/green.png","32","trial","32","true","1,0","3:go_c","",""
"null","","html-keyboard-response","263","607340","0.0-6.0-1.14","","<img src=""img/green-r.png"" border=""10"">","null","trial","32","","1,0","3:go_c","1",""
"null","","html-keyboard-response","264","608342","0.0-6.0-2.14","","<div style=""font-size:60px;"">+</div>","null","","","","","","",""
"null","","image-keyboard-response","265","609859","0.0-6.0-0.15","","img/orange.png","null","trial","null","true","0,1","4:nogo_d","",""
"null","","html-keyboard-response","266","610873","0.0-6.0-1.15","","<img src=""img/orange-r.png"">","null","trial","null","","0,1","4:nogo_d","1",""
"null","","html-keyboard-response","267","611875","0.0-6.0-2.15","","<div style=""font-size:60px;"">+</div>","null","","","","","","",""
"662.2349999961443","","image-keyboard-response","268","612538","0.0-6.0-0.16","","img/green.png","32","trial","32","true","1,0","3:go_c","",""
"null","","html-keyboard-response","269","613543","0.0-6.0-1.16","","<img src=""img/green-r.png"" border=""10"">","null","trial","32","","1,0","3:go_c","1",""
"null","","html-keyboard-response","270","614548","0.0-6.0-2.16","","<div style=""font-size:60px;"">+</div>","null","","","","","","",""
"462.2850000159815","","image-keyboard-response","271","615010","0.0-6.0-0.17","","img/blue.png","32","trial","null","false","0.2,0.8","2:nogo_b","",""
"null","","html-keyboard-response","272","616027","0.0-6.0-1.17","","<img src=""img/blue-n.png"" border=""10"">","null","trial","null","","0.2,0.8","2:nogo_b","0",""
"null","","html-keyboard-response","273","617041","0.0-6.0-2.17","","<div style=""font-size:60px;"">+</div>","null","","","","","","",""
"null","","image-keyboard-response","274","618552","0.0-6.0-0.18","","img/orange.png","null","trial","null","true","0,1","4:nogo_d","",""
"null","","html-keyboard-response","275","619554","0.0-6.0-1.18","","<img src=""img/orange-r.png"">","null","trial","null","","0,1","4:nogo_d","1",""
"null","","html-keyboard-response","276","620569","0.0-6.0-2.18","","<div style=""font-size:60px;"">+</div>","null","","","","","","",""
"537.1349999913946","","image-keyboard-response","277","621107","0.0-6.0-0.19","","img/yellow.png","32","trial","32","true","0.8,0.2","1:go_a","",""
"null","","html-keyboard-response","278","622115","0.0-6.0-1.19","","<img src=""img/yellow-r.png"" border=""10"">","null","trial","32","","0.8,0.2","1:go_a","1",""
"null","","html-keyboard-response","279","623116","0.0-6.0-2.19","","<div style=""font-size:60px;"">+</div>","null","","","","","","",""
"null","","image-keyboard-response","280","624618","0.0-6.0-0.20","","img/blue.png","null","trial","null","true","0.2,0.8","2:nogo_b","",""
"null","","html-keyboard-response","281","625620","0.0-6.0-1.20","","<img src=""img/blue-n.png"">","null","trial","null","","0.2,0.8","2:nogo_b","0",""
"null","","html-keyboard-response","282","626621","0.0-6.0-2.20","","<div style=""font-size:60px;"">+</div>","null","","","","","","",""
"461.77999998326413","","image-keyboard-response","283","627083","0.0-6.0-0.21","","img/yellow.png","32","trial","32","true","0.8,0.2","1:go_a","",""
"null","","html-keyboard-response","284","628091","0.0-6.0-1.21","","<img src=""img/yellow-r.png"" border=""10"">","null","trial","32","","0.8,0.2","1:go_a","1",""
"null","","html-keyboard-response","285","629101","0.0-6.0-2.21","","<div style=""font-size:60px;"">+</div>","null","","","","","","",""
"null","","image-keyboard-response","286","630616","0.0-6.0-0.22","","img/orange.png","null","trial","null","true","0,1","4:nogo_d","",""
"null","","html-keyboard-response","287","631618","0.0-6.0-1.22","","<img src=""img/orange-r.png"">","null","trial","null","","0,1","4:nogo_d","1",""
"null","","html-keyboard-response","288","632620","0.0-6.0-2.22","","<div style=""font-size:60px;"">+</div>","null","","","","","","",""
"519.0000000002328","","image-keyboard-response","289","633140","0.0-6.0-0.23","","img/green.png","32","trial","32","true","1,0","3:go_c","",""
"null","","html-keyboard-response","290","634154","0.0-6.0-1.23","","<img src=""img/green-r.png"" border=""10"">","null","trial","32","","1,0","3:go_c","1",""
"null","","html-keyboard-response","291","635157","0.0-6.0-2.23","","<div style=""font-size:60px;"">+</div>","null","","","","","","",""
"null","","image-keyboard-response","292","636669","0.0-6.0-0.24","","img/orange.png","null","trial","null","true","0,1","4:nogo_d","",""
"null","","html-keyboard-response","293","637684","0.0-6.0-1.24","","<img src=""img/orange-r.png"">","null","trial","null","","0,1","4:nogo_d","1",""
"null","","html-keyboard-response","294","638696","0.0-6.0-2.24","","<div style=""font-size:60px;"">+</div>","null","","","","","","",""
"419.99999998370185","","image-keyboard-response","295","639117","0.0-6.0-0.25","","img/blue.png","32","trial","null","false","0.2,0.8","2:nogo_b","",""
"null","","html-keyboard-response","296","640131","0.0-6.0-1.25","","<img src=""img/blue-n.png"" border=""10"">","null","trial","null","","0.2,0.8","2:nogo_b","0",""
"null","","html-keyboard-response","297","641147","0.0-6.0-2.25","","<div style=""font-size:60px;"">+</div>","null","","","","","","",""
"345.7300000009127","","image-keyboard-response","298","641493","0.0-6.0-0.26","","img/yellow.png","32","trial","32","true","0.8,0.2","1:go_a","",""
"null","","html-keyboard-response","299","642495","0.0-6.0-1.26","","<img src=""img/yellow-r.png"" border=""10"">","null","trial","32","","0.8,0.2","1:go_a","1",""
"null","","html-keyboard-response","300","643506","0.0-6.0-2.26","","<div style=""font-size:60px;"">+</div>","null","","","","","","",""
"482.560000004014","","image-keyboard-response","301","643989","0.0-6.0-0.27","","img/green.png","32","trial","32","true","1,0","3:go_c","",""
"null","","html-keyboard-response","302","644997","0.0-6.0-1.27","","<img src=""img/green-r.png"" border=""10"">","null","trial","32","","1,0","3:go_c","1",""
"null","","html-keyboard-response","303","646003","0.0-6.0-2.27","","<div style=""font-size:60px;"">+</div>","null","","","","","","",""
"null","","image-keyboard-response","304","647509","0.0-6.0-0.28","","img/orange.png","null","trial","null","true","0,1","4:nogo_d","",""
"null","","html-keyboard-response","305","648519","0.0-6.0-1.28","","<img src=""img/orange-r.png"">","null","trial","null","","0,1","4:nogo_d","1",""
"null","","html-keyboard-response","306","649530","0.0-6.0-2.28","","<div style=""font-size:60px;"">+</div>","null","","","","","","",""
"651.2499999953434","","image-keyboard-response","307","650182","0.0-6.0-0.29","","img/yellow.png","32","trial","32","true","0.8,0.2","1:go_a","",""
"null","","html-keyboard-response","308","651192","0.0-6.0-1.29","","<img src=""img/yellow-r.png"" border=""10"">","null","trial","32","","0.8,0.2","1:go_a","1",""
"null","","html-keyboard-response","309","652194","0.0-6.0-2.29","","<div style=""font-size:60px;"">+</div>","null","","","","","","",""
"443.24500000220723","","image-keyboard-response","310","652638","0.0-6.0-0.30","","img/green.png","32","trial","32","true","1,0","3:go_c","",""
"null","","html-keyboard-response","311","653650","0.0-6.0-1.30","","<img src=""img/green-r.png"" border=""10"">","null","trial","32","","1,0","3:go_c","1",""
"null","","html-keyboard-response","312","654665","0.0-6.0-2.30","","<div style=""font-size:60px;"">+</div>","null","","","","","","",""
"540.8999999926891","","image-keyboard-response","313","655206","0.0-6.0-0.31","","img/blue.png","32","trial","null","false","0.2,0.8","2:nogo_b","",""
"null","","html-keyboard-response","314","656212","0.0-6.0-1.31","","<img src=""img/blue-n.png"" border=""10"">","null","trial","null","","0.2,0.8","2:nogo_b","0",""
"null","","html-keyboard-response","315","657225","0.0-6.0-2.31","","<div style=""font-size:60px;"">+</div>","null","","","","","","",""
"484.86500000581145","","image-keyboard-response","316","657711","0.0-6.0-0.32","","img/yellow.png","32","trial","32","true","0.8,0.2","1:go_a","",""
"null","","html-keyboard-response","317","658712","0.0-6.0-1.32","","<img src=""img/yellow-r.png"" border=""10"">","null","trial","32","","0.8,0.2","1:go_a","1",""
"null","","html-keyboard-response","318","659726","0.0-6.0-2.32","","<div style=""font-size:60px;"">+</div>","null","","","","","","",""
"null","","image-keyboard-response","319","661240","0.0-6.0-0.33","","img/blue.png","null","trial","null","true","0.2,0.8","2:nogo_b","",""
"null","","html-keyboard-response","320","662253","0.0-6.0-1.33","","<img src=""img/blue-r.png"">","null","trial","null","","0.2,0.8","2:nogo_b","1",""
"null","","html-keyboard-response","321","663258","0.0-6.0-2.33","","<div style=""font-size:60px;"">+</div>","null","","","","","","",""
"null","","image-keyboard-response","322","664763","0.0-6.0-0.34","","img/orange.png","null","trial","null","true","0,1","4:nogo_d","",""
"null","","html-keyboard-response","323","665764","0.0-6.0-1.34","","<img src=""img/orange-r.png"">","null","trial","null","","0,1","4:nogo_d","1",""
"null","","html-keyboard-response","324","666765","0.0-6.0-2.34","","<div style=""font-size:60px;"">+</div>","null","","","","","","",""
"530.2550000196788","","image-keyboard-response","325","667296","0.0-6.0-0.35","","img/green.png","32","trial","32","true","1,0","3:go_c","",""
"null","","html-keyboard-response","326","668312","0.0-6.0-1.35","","<img src=""img/green-r.png"" border=""10"">","null","trial","32","","1,0","3:go_c","1",""
"null","","html-keyboard-response","327","669316","0.0-6.0-2.35","","<div style=""font-size:60px;"">+</div>","null","","","","","","",""
"523.6900000018068","","image-keyboard-response","328","669840","0.0-6.0-0.36","","img/green.png","32","trial","32","true","1,0","3:go_c","",""
"null","","html-keyboard-response","329","670851","0.0-6.0-1.36","","<img src=""img/green-r.png"" border=""10"">","null","trial","32","","1,0","3:go_c","1",""
"null","","html-keyboard-response","330","671866","0.0-6.0-2.36","","<div style=""font-size:60px;"">+</div>","null","","","","","","",""
"null","","image-keyboard-response","331","673369","0.0-6.0-0.37","","img/orange.png","null","trial","null","true","0,1","4:nogo_d","",""
"null","","html-keyboard-response","332","674383","0.0-6.0-1.37","","<img src=""img/orange-r.png"">","null","trial","null","","0,1","4:nogo_d","1",""
"null","","html-keyboard-response","333","675386","0.0-6.0-2.37","","<div style=""font-size:60px;"">+</div>","null","","","","","","",""
"581.754999991972","","image-keyboard-response","334","675969","0.0-6.0-0.38","","img/blue.png","32","trial","null","false","0.2,0.8","2:nogo_b","",""
"null","","html-keyboard-response","335","676978","0.0-6.0-1.38","","<img src=""img/blue-r.png"" border=""10"">","null","trial","null","","0.2,0.8","2:nogo_b","1",""
"null","","html-keyboard-response","336","677980","0.0-6.0-2.38","","<div style=""font-size:60px;"">+</div>","null","","","","","","",""
"444.25000000046566","","image-keyboard-response","337","678425","0.0-6.0-0.39","","img/yellow.png","32","trial","32","true","0.8,0.2","1:go_a","",""
"null","","html-keyboard-response","338","679437","0.0-6.0-1.39","","<img src=""img/yellow-r.png"" border=""10"">","null","trial","32","","0.8,0.2","1:go_a","1",""
"null","","html-keyboard-response","339","680440","0.0-6.0-2.39","","<div style=""font-size:60px;"">+</div>","null","","","","","","",""
"679.9400000018068","","image-keyboard-response","340","681121","0.0-6.0-0.40","","img/green.png","32","trial","32","true","1,0","3:go_c","",""
"null","","html-keyboard-response","341","682136","0.0-6.0-1.40","","<img src=""img/green-r.png"" border=""10"">","null","trial","32","","1,0","3:go_c","1",""
"null","","html-keyboard-response","342","683150","0.0-6.0-2.40","","<div style=""font-size:60px;"">+</div>","null","","","","","","",""
"347.25500000058673","","image-keyboard-response","343","683497","0.0-6.0-0.41","","img/yellow.png","32","trial","32","true","0.8,0.2","1:go_a","",""
"null","","html-keyboard-response","344","684506","0.0-6.0-1.41","","<img src=""img/yellow-r.png"" border=""10"">","null","trial","32","","0.8,0.2","1:go_a","1",""
"null","","html-keyboard-response","345","685515","0.0-6.0-2.41","","<div style=""font-size:60px;"">+</div>","null","","","","","","",""
"837.9549999954179","","image-keyboard-response","346","686354","0.0-6.0-0.42","","img/blue.png","32","trial","null","false","0.2,0.8","2:nogo_b","",""
"null","","html-keyboard-response","347","687360","0.0-6.0-1.42","","<img src=""img/blue-n.png"" border=""10"">","null","trial","null","","0.2,0.8","2:nogo_b","0",""
"null","","html-keyboard-response","348","688369","0.0-6.0-2.42","","<div style=""font-size:60px;"">+</div>","null","","","","","","",""
"null","","image-keyboard-response","349","689870","0.0-6.0-0.43","","img/orange.png","null","trial","null","true","0,1","4:nogo_d","",""
"null","","html-keyboard-response","350","690885","0.0-6.0-1.43","","<img src=""img/orange-r.png"">","null","trial","null","","0,1","4:nogo_d","1",""
"null","","html-keyboard-response","351","691902","0.0-6.0-2.43","","<div style=""font-size:60px;"">+</div>","null","","","","","","",""
"547.5049999949988","","image-keyboard-response","352","692450","0.0-6.0-0.44","","img/yellow.png","32","trial","32","true","0.8,0.2","1:go_a","",""
"null","","html-keyboard-response","353","693461","0.0-6.0-1.44","","<img src=""img/yellow-r.png"" border=""10"">","null","trial","32","","0.8,0.2","1:go_a","1",""
"null","","html-keyboard-response","354","694467","0.0-6.0-2.44","","<div style=""font-size:60px;"">+</div>","null","","","","","","",""
"431.0549999936484","","image-keyboard-response","355","694898","0.0-6.0-0.45","","img/green.png","32","trial","32","true","1,0","3:go_c","",""
"null","","html-keyboard-response","356","695908","0.0-6.0-1.45","","<img src=""img/green-r.png"" border=""10"">","null","trial","32","","1,0","3:go_c","1",""
"null","","html-keyboard-response","357","696911","0.0-6.0-2.45","","<div style=""font-size:60px;"">+</div>","null","","","","","","",""
"null","","image-keyboard-response","358","698414","0.0-6.0-0.46","","img/orange.png","null","trial","null","true","0,1","4:nogo_d","",""
"null","","html-keyboard-response","359","699415","0.0-6.0-1.46","","<img src=""img/orange-r.png"">","null","trial","null","","0,1","4:nogo_d","1",""
"null","","html-keyboard-response","360","700431","0.0-6.0-2.46","","<div style=""font-size:60px;"">+</div>","null","","","","","","",""
"null","","image-keyboard-response","361","701935","0.0-6.0-0.47","","img/blue.png","null","trial","null","true","0.2,0.8","2:nogo_b","",""
"null","","html-keyboard-response","362","702947","0.0-6.0-1.47","","<img src=""img/blue-r.png"">","null","trial","null","","0.2,0.8","2:nogo_b","1",""
"null","","html-keyboard-response","363","703960","0.0-6.0-2.47","","<div style=""font-size:60px;"">+</div>","null","","","","","","",""
"null","","image-keyboard-response","364","705463","0.0-6.0-0.48","","img/orange.png","null","trial","null","true","0,1","4:nogo_d","",""
"null","","html-keyboard-response","365","706475","0.0-6.0-1.48","","<img src=""img/orange-r.png"">","null","trial","null","","0,1","4:nogo_d","1",""
"null","","html-keyboard-response","366","707489","0.0-6.0-2.48","","<div style=""font-size:60px;"">+</div>","null","","","","","","",""
"null","","image-keyboard-response","367","708991","0.0-6.0-0.49","","img/blue.png","null","trial","null","true","0.2,0.8","2:nogo_b","",""
"null","","html-keyboard-response","368","710004","0.0-6.0-1.49","","<img src=""img/blue-r.png"">","null","trial","null","","0.2,0.8","2:nogo_b","1",""
"null","","html-keyboard-response","369","711019","0.0-6.0-2.49","","<div style=""font-size:60px;"">+</div>","null","","","","","","",""
"697.0100000035018","","image-keyboard-response","370","711716","0.0-6.0-0.50","","img/green.png","32","trial","32","true","1,0","3:go_c","",""
"null","","html-keyboard-response","371","712720","0.0-6.0-1.50","","<img src=""img/green-r.png"" border=""10"">","null","trial","32","","1,0","3:go_c","1",""
"null","","html-keyboard-response","372","713722","0.0-6.0-2.50","","<div style=""font-size:60px;"">+</div>","null","","","","","","",""
"441.9249999918975","","image-keyboard-response","373","714164","0.0-6.0-0.51","","img/yellow.png","32","trial","32","true","0.8,0.2","1:go_a","",""
"null","","html-keyboard-response","374","715180","0.0-6.0-1.51","","<img src=""img/yellow-r.png"" border=""10"">","null","trial","32","","0.8,0.2","1:go_a","1",""
"null","","html-keyboard-response","375","716192","0.0-6.0-2.51","","<div style=""font-size:60px;"">+</div>","null","","","","","","",""
"null","","image-keyboard-response","376","717704","0.0-6.0-0.52","","img/orange.png","null","trial","null","true","0,1","4:nogo_d","",""
"null","","html-keyboard-response","377","718705","0.0-6.0-1.52","","<img src=""img/orange-r.png"">","null","trial","null","","0,1","4:nogo_d","1",""
"null","","html-keyboard-response","378","719720","0.0-6.0-2.52","","<div style=""font-size:60px;"">+</div>","null","","","","","","",""
"580.5150000087451","","image-keyboard-response","379","720301","0.0-6.0-0.53","","img/yellow.png","32","trial","32","true","0.8,0.2","1:go_a","",""
"null","","html-keyboard-response","380","721312","0.0-6.0-1.53","","<img src=""img/yellow-r.png"" border=""10"">","null","trial","32","","0.8,0.2","1:go_a","1",""
"null","","html-keyboard-response","381","722327","0.0-6.0-2.53","","<div style=""font-size:60px;"">+</div>","null","","","","","","",""
"null","","image-keyboard-response","382","723835","0.0-6.0-0.54","","img/blue.png","null","trial","null","true","0.2,0.8","2:nogo_b","",""
"null","","html-keyboard-response","383","724849","0.0-6.0-1.54","","<img src=""img/blue-r.png"">","null","trial","null","","0.2,0.8","2:nogo_b","1",""
"null","","html-keyboard-response","384","725849","0.0-6.0-2.54","","<div style=""font-size:60px;"">+</div>","null","","","","","","",""
"660.1749999972526","","image-keyboard-response","385","726510","0.0-6.0-0.55","","img/green.png","32","trial","32","true","1,0","3:go_c","",""
"null","","html-keyboard-response","386","727524","0.0-6.0-1.55","","<img src=""img/green-r.png"" border=""10"">","null","trial","32","","1,0","3:go_c","1",""
"null","","html-keyboard-response","387","728538","0.0-6.0-2.55","","<div style=""font-size:60px;"">+</div>","null","","","","","","",""
"null","","image-keyboard-response","388","730048","0.0-6.0-0.56","","img/orange.png","null","trial","null","true","0,1","4:nogo_d","",""
"null","","html-keyboard-response","389","731051","0.0-6.0-1.56","","<img src=""img/orange-r.png"">","null","trial","null","","0,1","4:nogo_d","1",""
"null","","html-keyboard-response","390","732060","0.0-6.0-2.56","","<div style=""font-size:60px;"">+</div>","null","","","","","","",""
"713.8450000202283","","image-keyboard-response","391","732774","0.0-6.0-0.57","","img/green.png","32","trial","32","true","1,0","3:go_c","",""
"null","","html-keyboard-response","392","733780","0.0-6.0-1.57","","<img src=""img/green-r.png"" border=""10"">","null","trial","32","","1,0","3:go_c","1",""
"null","","html-keyboard-response","393","734792","0.0-6.0-2.57","","<div style=""font-size:60px;"">+</div>","null","","","","","","",""
"null","","image-keyboard-response","394","736303","0.0-6.0-0.58","","img/blue.png","null","trial","null","true","0.2,0.8","2:nogo_b","",""
"null","","html-keyboard-response","395","737304","0.0-6.0-1.58","","<img src=""img/blue-r.png"">","null","trial","null","","0.2,0.8","2:nogo_b","1",""
"null","","html-keyboard-response","396","738316","0.0-6.0-2.58","","<div style=""font-size:60px;"">+</div>","null","","","","","","",""
"626.2799999967683","","image-keyboard-response","397","738943","0.0-6.0-0.59","","img/yellow.png","32","trial","32","true","0.8,0.2","1:go_a","",""
"null","","html-keyboard-response","398","739955","0.0-6.0-1.59","","<img src=""img/yellow-n.png"" border=""10"">","null","trial","32","","0.8,0.2","1:go_a","0",""
"null","","html-keyboard-response","399","740957","0.0-6.0-2.59","","<div style=""font-size:60px;"">+</div>","null","","","","","","",""
"null","","image-keyboard-response","400","742472","0.0-6.0-0.60","","img/orange.png","null","trial","null","true","0,1","4:nogo_d","",""
"null","","html-keyboard-response","401","743474","0.0-6.0-1.60","","<img src=""img/orange-r.png"">","null","trial","null","","0,1","4:nogo_d","1",""
"null","","html-keyboard-response","402","744483","0.0-6.0-2.60","","<div style=""font-size:60px;"">+</div>","null","","","","","","",""
"604.1650000261143","","image-keyboard-response","403","745088","0.0-6.0-0.61","","img/green.png","32","trial","32","true","1,0","3:go_c","",""
"null","","html-keyboard-response","404","746092","0.0-6.0-1.61","","<img src=""img/green-r.png"" border=""10"">","null","trial","32","","1,0","3:go_c","1",""
"null","","html-keyboard-response","405","747107","0.0-6.0-2.61","","<div style=""font-size:60px;"">+</div>","null","","","","","","",""
"492.5349999975879","","image-keyboard-response","406","747600","0.0-6.0-0.62","","img/yellow.png","32","trial","32","true","0.8,0.2","1:go_a","",""
"null","","html-keyboard-response","407","748605","0.0-6.0-1.62","","<img src=""img/yellow-r.png"" border=""10"">","null","trial","32","","0.8,0.2","1:go_a","1",""
"null","","html-keyboard-response","408","749608","0.0-6.0-2.62","","<div style=""font-size:60px;"">+</div>","null","","","","","","",""
"null","","image-keyboard-response","409","751119","0.0-6.0-0.63","","img/blue.png","null","trial","null","true","0.2,0.8","2:nogo_b","",""
"null","","html-keyboard-response","410","752120","0.0-6.0-1.63","","<img src=""img/blue-n.png"">","null","trial","null","","0.2,0.8","2:nogo_b","0",""
"null","","html-keyboard-response","411","753125","0.0-6.0-2.63","","<div style=""font-size:60px;"">+</div>","null","","","","","","",""
"null","","image-keyboard-response","412","754626","0.0-6.0-0.64","","img/blue.png","null","trial","null","true","0.2,0.8","2:nogo_b","",""
"null","","html-keyboard-response","413","755627","0.0-6.0-1.64","","<img src=""img/blue-r.png"">","null","trial","null","","0.2,0.8","2:nogo_b","1",""
"null","","html-keyboard-response","414","756639","0.0-6.0-2.64","","<div style=""font-size:60px;"">+</div>","null","","","","","","",""
"529.6950000047218","","image-keyboard-response","415","757169","0.0-6.0-0.65","","img/yellow.png","32","trial","32","true","0.8,0.2","1:go_a","",""
"null","","html-keyboard-response","416","758183","0.0-6.0-1.65","","<img src=""img/yellow-r.png"" border=""10"">","null","trial","32","","0.8,0.2","1:go_a","1",""
"null","","html-keyboard-response","417","759199","0.0-6.0-2.65","","<div style=""font-size:60px;"">+</div>","null","","","","","","",""
"537.8700000001118","","image-keyboard-response","418","759737","0.0-6.0-0.66","","img/green.png","32","trial","32","true","1,0","3:go_c","",""
"null","","html-keyboard-response","419","760741","0.0-6.0-1.66","","<img src=""img/green-r.png"" border=""10"">","null","trial","32","","1,0","3:go_c","1",""
"null","","html-keyboard-response","420","761743","0.0-6.0-2.66","","<div style=""font-size:60px;"">+</div>","null","","","","","","",""
"null","","image-keyboard-response","421","763255","0.0-6.0-0.67","","img/orange.png","null","trial","null","true","0,1","4:nogo_d","",""
"null","","html-keyboard-response","422","764259","0.0-6.0-1.67","","<img src=""img/orange-r.png"">","null","trial","null","","0,1","4:nogo_d","1",""
"null","","html-keyboard-response","423","765272","0.0-6.0-2.67","","<div style=""font-size:60px;"">+</div>","null","","","","","","",""
"null","","image-keyboard-response","424","766787","0.0-6.0-0.68","","img/blue.png","null","trial","null","true","0.2,0.8","2:nogo_b","",""
"null","","html-keyboard-response","425","767799","0.0-6.0-1.68","","<img src=""img/blue-r.png"">","null","trial","null","","0.2,0.8","2:nogo_b","1",""
"null","","html-keyboard-response","426","768813","0.0-6.0-2.68","","<div style=""font-size:60px;"">+</div>","null","","","","","","",""
"637.4800000048708","","image-keyboard-response","427","769451","0.0-6.0-0.69","","img/yellow.png","32","trial","32","true","0.8,0.2","1:go_a","",""
"null","","html-keyboard-response","428","770455","0.0-6.0-1.69","","<img src=""img/yellow-r.png"" border=""10"">","null","trial","32","","0.8,0.2","1:go_a","1",""
"null","","html-keyboard-response","429","771458","0.0-6.0-2.69","","<div style=""font-size:60px;"">+</div>","null","","","","","","",""
"null","","image-keyboard-response","430","772959","0.0-6.0-0.70","","img/orange.png","null","trial","null","true","0,1","4:nogo_d","",""
"null","","html-keyboard-response","431","773961","0.0-6.0-1.70","","<img src=""img/orange-r.png"">","null","trial","null","","0,1","4:nogo_d","1",""
"null","","html-keyboard-response","432","774974","0.0-6.0-2.70","","<div style=""font-size:60px;"">+</div>","null","","","","","","",""
"580.2649999968708","","image-keyboard-response","433","775555","0.0-6.0-0.71","","img/green.png","32","trial","32","true","1,0","3:go_c","",""
"null","","html-keyboard-response","434","776571","0.0-6.0-1.71","","<img src=""img/green-r.png"" border=""10"">","null","trial","32","","1,0","3:go_c","1",""
"null","","html-keyboard-response","435","777585","0.0-6.0-2.71","","<div style=""font-size:60px;"">+</div>","null","","","","","","",""
"null","","image-keyboard-response","436","779100","0.0-6.0-0.72","","img/orange.png","null","trial","null","true","0,1","4:nogo_d","",""
"null","","html-keyboard-response","437","780105","0.0-6.0-1.72","","<img src=""img/orange-r.png"">","null","trial","null","","0,1","4:nogo_d","1",""
"null","","html-keyboard-response","438","781119","0.0-6.0-2.72","","<div style=""font-size:60px;"">+</div>","null","","","","","","",""
"588.0100000067614","","image-keyboard-response","439","781707","0.0-6.0-0.73","","img/yellow.png","32","trial","32","true","0.8,0.2","1:go_a","",""
"null","","html-keyboard-response","440","782722","0.0-6.0-1.73","","<img src=""img/yellow-n.png"" border=""10"">","null","trial","32","","0.8,0.2","1:go_a","0",""
"null","","html-keyboard-response","441","783725","0.0-6.0-2.73","","<div style=""font-size:60px;"">+</div>","null","","","","","","",""
"null","","image-keyboard-response","442","785232","0.0-6.0-0.74","","img/blue.png","null","trial","null","true","0.2,0.8","2:nogo_b","",""
"null","","html-keyboard-response","443","786236","0.0-6.0-1.74","","<img src=""img/blue-r.png"">","null","trial","null","","0.2,0.8","2:nogo_b","1",""
"null","","html-keyboard-response","444","787248","0.0-6.0-2.74","","<div style=""font-size:60px;"">+</div>","null","","","","","","",""
"627.4600000178907","","image-keyboard-response","445","787876","0.0-6.0-0.75","","img/green.png","32","trial","32","true","1,0","3:go_c","",""
"null","","html-keyboard-response","446","788878","0.0-6.0-1.75","","<img src=""img/green-r.png"" border=""10"">","null","trial","32","","1,0","3:go_c","1",""
"null","","html-keyboard-response","447","789880","0.0-6.0-2.75","","<div style=""font-size:60px;"">+</div>","null","","","","","","",""
"771.4600000181235","","image-keyboard-response","448","790652","0.0-6.0-0.76","","img/green.png","32","trial","32","true","1,0","3:go_c","",""
"null","","html-keyboard-response","449","791666","0.0-6.0-1.76","","<img src=""img/green-r.png"" border=""10"">","null","trial","32","","1,0","3:go_c","1",""
"null","","html-keyboard-response","450","792668","0.0-6.0-2.76","","<div style=""font-size:60px;"">+</div>","null","","","","","","",""
"null","","image-keyboard-response","451","794184","0.0-6.0-0.77","","img/orange.png","null","trial","null","true","0,1","4:nogo_d","",""
"null","","html-keyboard-response","452","795200","0.0-6.0-1.77","","<img src=""img/orange-r.png"">","null","trial","null","","0,1","4:nogo_d","1",""
"null","","html-keyboard-response","453","796215","0.0-6.0-2.77","","<div style=""font-size:60px;"">+</div>","null","","","","","","",""
"null","","image-keyboard-response","454","797719","0.0-6.0-0.78","","img/blue.png","null","trial","null","true","0.2,0.8","2:nogo_b","",""
"null","","html-keyboard-response","455","798729","0.0-6.0-1.78","","<img src=""img/blue-r.png"">","null","trial","null","","0.2,0.8","2:nogo_b","1",""
"null","","html-keyboard-response","456","799743","0.0-6.0-2.78","","<div style=""font-size:60px;"">+</div>","null","","","","","","",""
"646.8699999968521","","image-keyboard-response","457","800390","0.0-6.0-0.79","","img/yellow.png","32","trial","32","true","0.8,0.2","1:go_a","",""
"null","","html-keyboard-response","458","801399","0.0-6.0-1.79","","<img src=""img/yellow-r.png"" border=""10"">","null","trial","32","","0.8,0.2","1:go_a","1",""
"null","","html-keyboard-response","459","802407","0.0-6.0-2.79","","<div style=""font-size:60px;"">+</div>","null","","","","","","",""
"null","","image-keyboard-response","460","803910","0.0-6.0-0.80","","img/orange.png","null","trial","null","true","0,1","4:nogo_d","",""
"null","","html-keyboard-response","461","804926","0.0-6.0-1.80","","<img src=""img/orange-r.png"">","null","trial","null","","0,1","4:nogo_d","1",""
"null","","html-keyboard-response","462","805927","0.0-6.0-2.80","","<div style=""font-size:60px;"">+</div>","null","","","","","","",""
"null","","image-keyboard-response","463","807442","0.0-6.0-0.81","","img/blue.png","null","trial","null","true","0.2,0.8","2:nogo_b","",""
"null","","html-keyboard-response","464","808448","0.0-6.0-1.81","","<img src=""img/blue-r.png"">","null","trial","null","","0.2,0.8","2:nogo_b","1",""
"null","","html-keyboard-response","465","809450","0.0-6.0-2.81","","<div style=""font-size:60px;"">+</div>","null","","","","","","",""
"603.8699999917299","","image-keyboard-response","466","810054","0.0-6.0-0.82","","img/yellow.png","32","trial","32","true","0.8,0.2","1:go_a","",""
"null","","html-keyboard-response","467","811062","0.0-6.0-1.82","","<img src=""img/yellow-r.png"" border=""10"">","null","trial","32","","0.8,0.2","1:go_a","1",""
"null","","html-keyboard-response","468","812070","0.0-6.0-2.82","","<div style=""font-size:60px;"">+</div>","null","","","","","","",""
"632.3050000064541","","image-keyboard-response","469","812703","0.0-6.0-0.83","","img/green.png","32","trial","32","true","1,0","3:go_c","",""
"null","","html-keyboard-response","470","813710","0.0-6.0-1.83","","<img src=""img/green-r.png"" border=""10"">","null","trial","32","","1,0","3:go_c","1",""
"null","","html-keyboard-response","471","814725","0.0-6.0-2.83","","<div style=""font-size:60px;"">+</div>","null","","","","","","",""
"null","","image-keyboard-response","472","816240","0.0-6.0-0.84","","img/blue.png","null","trial","null","true","0.2,0.8","2:nogo_b","",""
"null","","html-keyboard-response","473","817242","0.0-6.0-1.84","","<img src=""img/blue-r.png"">","null","trial","null","","0.2,0.8","2:nogo_b","1",""
"null","","html-keyboard-response","474","818254","0.0-6.0-2.84","","<div style=""font-size:60px;"">+</div>","null","","","","","","",""
"488.92000000341795","","image-keyboard-response","475","818743","0.0-6.0-0.85","","img/yellow.png","32","trial","32","true","0.8,0.2","1:go_a","",""
"null","","html-keyboard-response","476","819755","0.0-6.0-1.85","","<img src=""img/yellow-r.png"" border=""10"">","null","trial","32","","0.8,0.2","1:go_a","1",""
"null","","html-keyboard-response","477","820769","0.0-6.0-2.85","","<div style=""font-size:60px;"">+</div>","null","","","","","","",""
"null","","image-keyboard-response","478","822271","0.0-6.0-0.86","","img/orange.png","null","trial","null","true","0,1","4:nogo_d","",""
"null","","html-keyboard-response","479","823272","0.0-6.0-1.86","","<img src=""img/orange-r.png"">","null","trial","null","","0,1","4:nogo_d","1",""
"null","","html-keyboard-response","480","824272","0.0-6.0-2.86","","<div style=""font-size:60px;"">+</div>","null","","","","","","",""
"599.1700000013225","","image-keyboard-response","481","824872","0.0-6.0-0.87","","img/green.png","32","trial","32","true","1,0","3:go_c","",""
"null","","html-keyboard-response","482","825885","0.0-6.0-1.87","","<img src=""img/green-r.png"" border=""10"">","null","trial","32","","1,0","3:go_c","1",""
"null","","html-keyboard-response","483","826889","0.0-6.0-2.87","","<div style=""font-size:60px;"">+</div>","null","","","","","","",""
"438.97499999729916","","image-keyboard-response","484","827328","0.0-6.0-0.88","","img/yellow.png","32","trial","32","true","0.8,0.2","1:go_a","",""
"null","","html-keyboard-response","485","828341","0.0-6.0-1.88","","<img src=""img/yellow-r.png"" border=""10"">","null","trial","32","","0.8,0.2","1:go_a","1",""
"null","","html-keyboard-response","486","829355","0.0-6.0-2.88","","<div style=""font-size:60px;"">+</div>","null","","","","","","",""
"null","","image-keyboard-response","487","830862","0.0-6.0-0.89","","img/orange.png","null","trial","null","true","0,1","4:nogo_d","",""
"null","","html-keyboard-response","488","831875","0.0-6.0-1.89","","<img src=""img/orange-r.png"">","null","trial","null","","0,1","4:nogo_d","1",""
"null","","html-keyboard-response","489","832887","0.0-6.0-2.89","","<div style=""font-size:60px;"">+</div>","null","","","","","","",""
"633.2150000089314","","image-keyboard-response","490","833521","0.0-6.0-0.90","","img/green.png","32","trial","32","true","1,0","3:go_c","",""
"null","","html-keyboard-response","491","834535","0.0-6.0-1.90","","<img src=""img/green-r.png"" border=""10"">","null","trial","32","","1,0","3:go_c","1",""
"null","","html-keyboard-response","492","835549","0.0-6.0-2.90","","<div style=""font-size:60px;"">+</div>","null","","","","","","",""
"null","","image-keyboard-response","493","837050","0.0-6.0-0.91","","img/blue.png","null","trial","null","true","0.2,0.8","2:nogo_b","",""
"null","","html-keyboard-response","494","838061","0.0-6.0-1.91","","<img src=""img/blue-r.png"">","null","trial","null","","0.2,0.8","2:nogo_b","1",""
"null","","html-keyboard-response","495","839063","0.0-6.0-2.91","","<div style=""font-size:60px;"">+</div>","null","","","","","","",""
"null","","image-keyboard-response","496","840569","0.0-6.0-0.92","","img/orange.png","null","trial","null","true","0,1","4:nogo_d","",""
"null","","html-keyboard-response","497","841570","0.0-6.0-1.92","","<img src=""img/orange-r.png"">","null","trial","null","","0,1","4:nogo_d","1",""
"null","","html-keyboard-response","498","842581","0.0-6.0-2.92","","<div style=""font-size:60px;"">+</div>","null","","","","","","",""
"null","","image-keyboard-response","499","844096","0.0-6.0-0.93","","img/blue.png","null","trial","null","true","0.2,0.8","2:nogo_b","",""
"null","","html-keyboard-response","500","845112","0.0-6.0-1.93","","<img src=""img/blue-r.png"">","null","trial","null","","0.2,0.8","2:nogo_b","1",""
"null","","html-keyboard-response","501","846126","0.0-6.0-2.93","","<div style=""font-size:60px;"">+</div>","null","","","","","","",""
"812.1199999877717","","image-keyboard-response","502","846939","0.0-6.0-0.94","","img/green.png","32","trial","32","true","1,0","3:go_c","",""
"null","","html-keyboard-response","503","847953","0.0-6.0-1.94","","<img src=""img/green-r.png"" border=""10"">","null","trial","32","","1,0","3:go_c","1",""
"null","","html-keyboard-response","504","848957","0.0-6.0-2.94","","<div style=""font-size:60px;"">+</div>","null","","","","","","",""
"644.8650000093039","","image-keyboard-response","505","849603","0.0-6.0-0.95","","img/yellow.png","32","trial","32","true","0.8,0.2","1:go_a","",""
"null","","html-keyboard-response","506","850618","0.0-6.0-1.95","","<img src=""img/yellow-n.png"" border=""10"">","null","trial","32","","0.8,0.2","1:go_a","0",""
"null","","html-keyboard-response","507","851619","0.0-6.0-2.95","","<div style=""font-size:60px;"">+</div>","null","","","","","","",""
"null","","image-keyboard-response","508","853132","0.0-6.0-0.96","","img/blue.png","null","trial","null","true","0.2,0.8","2:nogo_b","",""
"null","","html-keyboard-response","509","854143","0.0-6.0-1.96","","<img src=""img/blue-r.png"">","null","trial","null","","0.2,0.8","2:nogo_b","1",""
"null","","html-keyboard-response","510","855149","0.0-6.0-2.96","","<div style=""font-size:60px;"">+</div>","null","","","","","","",""
"533.5649999906309","","image-keyboard-response","511","855683","0.0-6.0-0.97","","img/yellow.png","32","trial","32","true","0.8,0.2","1:go_a","",""
"null","","html-keyboard-response","512","856695","0.0-6.0-1.97","","<img src=""img/yellow-r.png"" border=""10"">","null","trial","32","","0.8,0.2","1:go_a","1",""
"null","","html-keyboard-response","513","857711","0.0-6.0-2.97","","<div style=""font-size:60px;"">+</div>","null","","","","","","",""
"444.25499998033047","","image-keyboard-response","514","858156","0.0-6.0-0.98","","img/green.png","32","trial","32","true","1,0","3:go_c","",""
"null","","html-keyboard-response","515","859162","0.0-6.0-1.98","","<img src=""img/green-r.png"" border=""10"">","null","trial","32","","1,0","3:go_c","1",""
"null","","html-keyboard-response","516","860163","0.0-6.0-2.98","","<div style=""font-size:60px;"">+</div>","null","","","","","","",""
"null","","image-keyboard-response","517","861664","0.0-6.0-0.99","","img/orange.png","null","trial","null","true","0,1","4:nogo_d","",""
"null","","html-keyboard-response","518","862679","0.0-6.0-1.99","","<img src=""img/orange-r.png"">","null","trial","null","","0,1","4:nogo_d","1",""
"null","","html-keyboard-response","519","863684","0.0-6.0-2.99","","<div style=""font-size:60px;"">+</div>","null","","","","","","",""
"655.5899999802932","","image-keyboard-response","520","864340","0.0-6.0-0.100","","img/green.png","32","trial","32","true","1,0","3:go_c","",""
"null","","html-keyboard-response","521","865343","0.0-6.0-1.100","","<img src=""img/green-r.png"" border=""10"">","null","trial","32","","1,0","3:go_c","1",""
"null","","html-keyboard-response","522","866347","0.0-6.0-2.100","","<div style=""font-size:60px;"">+</div>","null","","","","","","",""
"null","","image-keyboard-response","523","867861","0.0-6.0-0.101","","img/orange.png","null","trial","null","true","0,1","4:nogo_d","",""
"null","","html-keyboard-response","524","868875","0.0-6.0-1.101","","<img src=""img/orange-r.png"">","null","trial","null","","0,1","4:nogo_d","1",""
"null","","html-keyboard-response","525","869888","0.0-6.0-2.101","","<div style=""font-size:60px;"">+</div>","null","","","","","","",""
"604.8850000079256","","image-keyboard-response","526","870493","0.0-6.0-0.102","","img/blue.png","32","trial","null","false","0.2,0.8","2:nogo_b","",""
"null","","html-keyboard-response","527","871500","0.0-6.0-1.102","","<img src=""img/blue-n.png"" border=""10"">","null","trial","null","","0.2,0.8","2:nogo_b","0",""
"null","","html-keyboard-response","528","872501","0.0-6.0-2.102","","<div style=""font-size:60px;"">+</div>","null","","","","","","",""
"559.4400000118185","","image-keyboard-response","529","873061","0.0-6.0-0.103","","img/yellow.png","32","trial","32","true","0.8,0.2","1:go_a","",""
"null","","html-keyboard-response","530","874069","0.0-6.0-1.103","","<img src=""img/yellow-r.png"" border=""10"">","null","trial","32","","0.8,0.2","1:go_a","1",""
"null","","html-keyboard-response","531","875085","0.0-6.0-2.103","","<div style=""font-size:60px;"">+</div>","null","","","","","","",""
"null","","image-keyboard-response","532","876600","0.0-6.0-0.104","","img/orange.png","null","trial","null","true","0,1","4:nogo_d","",""
"null","","html-keyboard-response","533","877608","0.0-6.0-1.104","","<img src=""img/orange-r.png"">","null","trial","null","","0,1","4:nogo_d","1",""
"null","","html-keyboard-response","534","878622","0.0-6.0-2.104","","<div style=""font-size:60px;"">+</div>","null","","","","","","",""
"null","","image-keyboard-response","535","880126","0.0-6.0-0.105","","img/blue.png","null","trial","null","true","0.2,0.8","2:nogo_b","",""
"null","","html-keyboard-response","536","881140","0.0-6.0-1.105","","<img src=""img/blue-r.png"">","null","trial","null","","0.2,0.8","2:nogo_b","1",""
"null","","html-keyboard-response","537","882141","0.0-6.0-2.105","","<div style=""font-size:60px;"">+</div>","null","","","","","","",""
"521.0450000013225","","image-keyboard-response","538","882662","0.0-6.0-0.106","","img/yellow.png","32","trial","32","true","0.8,0.2","1:go_a","",""
"null","","html-keyboard-response","539","883663","0.0-6.0-1.106","","<img src=""img/yellow-r.png"" border=""10"">","null","trial","32","","0.8,0.2","1:go_a","1",""
"null","","html-keyboard-response","540","884666","0.0-6.0-2.106","","<div style=""font-size:60px;"">+</div>","null","","","","","","",""
"571.8850000121165","","image-keyboard-response","541","885238","0.0-6.0-0.107","","img/green.png","32","trial","32","true","1,0","3:go_c","",""
"null","","html-keyboard-response","542","886249","0.0-6.0-1.107","","<img src=""img/green-r.png"" border=""10"">","null","trial","32","","1,0","3:go_c","1",""
"null","","html-keyboard-response","543","887259","0.0-6.0-2.107","","<div style=""font-size:60px;"">+</div>","null","","","","","","",""
"522.8699999861419","","image-keyboard-response","544","887782","0.0-6.0-0.108","","img/green.png","32","trial","32","true","1,0","3:go_c","",""
"null","","html-keyboard-response","545","888790","0.0-6.0-1.108","","<img src=""img/green-r.png"" border=""10"">","null","trial","32","","1,0","3:go_c","1",""
"null","","html-keyboard-response","546","889803","0.0-6.0-2.108","","<div style=""font-size:60px;"">+</div>","null","","","","","","",""
"null","","image-keyboard-response","547","891310","0.0-6.0-0.109","","img/orange.png","null","trial","null","true","0,1","4:nogo_d","",""
"null","","html-keyboard-response","548","892312","0.0-6.0-1.109","","<img src=""img/orange-r.png"">","null","trial","null","","0,1","4:nogo_d","1",""
"null","","html-keyboard-response","549","893326","0.0-6.0-2.109","","<div style=""font-size:60px;"">+</div>","null","","","","","","",""
"504.5349999854807","","image-keyboard-response","550","893831","0.0-6.0-0.110","","img/yellow.png","32","trial","32","true","0.8,0.2","1:go_a","",""
"null","","html-keyboard-response","551","894841","0.0-6.0-1.110","","<img src=""img/yellow-r.png"" border=""10"">","null","trial","32","","0.8,0.2","1:go_a","1",""
"null","","html-keyboard-response","552","895847","0.0-6.0-2.110","","<div style=""font-size:60px;"">+</div>","null","","","","","","",""
"null","","image-keyboard-response","553","897350","0.0-6.0-0.111","","img/blue.png","null","trial","null","true","0.2,0.8","2:nogo_b","",""
"null","","html-keyboard-response","554","898351","0.0-6.0-1.111","","<img src=""img/blue-r.png"">","null","trial","null","","0.2,0.8","2:nogo_b","1",""
"null","","html-keyboard-response","555","899363","0.0-6.0-2.111","","<div style=""font-size:60px;"">+</div>","null","","","","","","",""
"null","","image-keyboard-response","556","900866","0.0-6.0-0.112","","img/orange.png","null","trial","null","true","0,1","4:nogo_d","",""
"null","","html-keyboard-response","557","901871","0.0-6.0-1.112","","<img src=""img/orange-r.png"">","null","trial","null","","0,1","4:nogo_d","1",""
"null","","html-keyboard-response","558","902886","0.0-6.0-2.112","","<div style=""font-size:60px;"">+</div>","null","","","","","","",""
"537.7100000041537","","image-keyboard-response","559","903424","0.0-6.0-0.113","","img/yellow.png","32","trial","32","true","0.8,0.2","1:go_a","",""
"null","","html-keyboard-response","560","904431","0.0-6.0-1.113","","<img src=""img/yellow-r.png"" border=""10"">","null","trial","32","","0.8,0.2","1:go_a","1",""
"null","","html-keyboard-response","561","905443","0.0-6.0-2.113","","<div style=""font-size:60px;"">+</div>","null","","","","","","",""
"733.490000013262","","image-keyboard-response","562","906177","0.0-6.0-0.114","","img/green.png","32","trial","32","true","1,0","3:go_c","",""
"null","","html-keyboard-response","563","907187","0.0-6.0-1.114","","<img src=""img/green-r.png"" border=""10"">","null","trial","32","","1,0","3:go_c","1",""
"null","","html-keyboard-response","564","908202","0.0-6.0-2.114","","<div style=""font-size:60px;"">+</div>","null","","","","","","",""
"null","","image-keyboard-response","565","909714","0.0-6.0-0.115","","img/blue.png","null","trial","null","true","0.2,0.8","2:nogo_b","",""
"null","","html-keyboard-response","566","910728","0.0-6.0-1.115","","<img src=""img/blue-r.png"">","null","trial","null","","0.2,0.8","2:nogo_b","1",""
"null","","html-keyboard-response","567","911741","0.0-6.0-2.115","","<div style=""font-size:60px;"">+</div>","null","","","","","","",""
"851.7249999858905","","image-keyboard-response","568","912593","0.0-6.0-0.116","","img/yellow.png","32","trial","32","true","0.8,0.2","1:go_a","",""
"null","","html-keyboard-response","569","913601","0.0-6.0-1.116","","<img src=""img/yellow-n.png"" border=""10"">","null","trial","32","","0.8,0.2","1:go_a","0",""
"null","","html-keyboard-response","570","914618","0.0-6.0-2.116","","<div style=""font-size:60px;"">+</div>","null","","","","","","",""
"479.0600000123959","","image-keyboard-response","571","915097","0.0-6.0-0.117","","img/green.png","32","trial","32","true","1,0","3:go_c","",""
"null","","html-keyboard-response","572","916110","0.0-6.0-1.117","","<img src=""img/green-r.png"" border=""10"">","null","trial","32","","1,0","3:go_c","1",""
"null","","html-keyboard-response","573","917113","0.0-6.0-2.117","","<div style=""font-size:60px;"">+</div>","null","","","","","","",""
"null","","image-keyboard-response","574","918628","0.0-6.0-0.118","","img/orange.png","null","trial","null","true","0,1","4:nogo_d","",""
"null","","html-keyboard-response","575","919643","0.0-6.0-1.118","","<img src=""img/orange-r.png"">","null","trial","null","","0,1","4:nogo_d","1",""
"null","","html-keyboard-response","576","920658","0.0-6.0-2.118","","<div style=""font-size:60px;"">+</div>","null","","","","","","",""
"null","","image-keyboard-response","577","922163","0.0-6.0-0.119","","img/blue.png","null","trial","null","true","0.2,0.8","2:nogo_b","",""
"null","","html-keyboard-response","578","923174","0.0-6.0-1.119","","<img src=""img/blue-r.png"">","null","trial","null","","0.2,0.8","2:nogo_b","1",""
"null","","html-keyboard-response","579","924175","0.0-6.0-2.119","","<div style=""font-size:60px;"">+</div>","null","","","","","","",""
"3253.51499998942","","instructions","580","927428","0.0-7.0","[{""page_index"":0,""viewing_time"":3253.389999998035}]","","","","","","","","",""
"1213.3000000030734","","image-keyboard-response","581","928642","0.0-8.0-0.0","","img/red.png","32","trial","32","true","0.8,0.2","1:go_a","",""
"null","","html-keyboard-response","582","929648","0.0-8.0-1.0","","<img src=""img/red-n.png"" border=""10"">","null","trial","32","","0.8,0.2","1:go_a","0",""
"null","","html-keyboard-response","583","930663","0.0-8.0-2.0","","<div style=""font-size:60px;"">+</div>","null","","","","","","",""
"579.6400000108406","","image-keyboard-response","584","931243","0.0-8.0-0.1","","img/purple.png","32","trial","null","false","0.2,0.8","2:nogo_b","",""
"null","","html-keyboard-response","585","932252","0.0-8.0-1.1","","<img src=""img/purple-r.png"" border=""10"">","null","trial","null","","0.2,0.8","2:nogo_b","1",""
"null","","html-keyboard-response","586","933267","0.0-8.0-2.1","","<div style=""font-size:60px;"">+</div>","null","","","","","","",""
"575.6199999887031","","image-keyboard-response","587","933843","0.0-8.0-0.2","","img/yellow.png","32","trial","32","true","0.6,0.4","3:go_c","",""
"null","","html-keyboard-response","588","934856","0.0-8.0-1.2","","<img src=""img/yellow-r.png"" border=""10"">","null","trial","32","","0.6,0.4","3:go_c","1",""
"null","","html-keyboard-response","589","935869","0.0-8.0-2.2","","<div style=""font-size:60px;"">+</div>","null","","","","","","",""
"798.3799999929033","","image-keyboard-response","590","936668","0.0-8.0-0.3","","img/blue.png","32","trial","null","false","0.4,0.6","4:nogo_d","",""
"null","","html-keyboard-response","591","937674","0.0-8.0-1.3","","<img src=""img/blue-n.png"" border=""10"">","null","trial","null","","0.4,0.6","4:nogo_d","0",""
"null","","html-keyboard-response","592","938678","0.0-8.0-2.3","","<div style=""font-size:60px;"">+</div>","null","","","","","","",""
"725.9450000128709","","image-keyboard-response","593","939404","0.0-8.0-0.4","","img/purple.png","32","trial","null","false","0.2,0.8","2:nogo_b","",""
"null","","html-keyboard-response","594","940417","0.0-8.0-1.4","","<img src=""img/purple-n.png"" border=""10"">","null","trial","null","","0.2,0.8","2:nogo_b","0",""
"null","","html-keyboard-response","595","941420","0.0-8.0-2.4","","<div style=""font-size:60px;"">+</div>","null","","","","","","",""
"400.11499999673106","","image-keyboard-response","596","941820","0.0-8.0-0.5","","img/yellow.png","32","trial","32","true","0.6,0.4","3:go_c","",""
"null","","html-keyboard-response","597","942835","0.0-8.0-1.5","","<img src=""img/yellow-r.png"" border=""10"">","null","trial","32","","0.6,0.4","3:go_c","1",""
"null","","html-keyboard-response","598","943850","0.0-8.0-2.5","","<div style=""font-size:60px;"">+</div>","null","","","","","","",""
"null","","image-keyboard-response","599","945365","0.0-8.0-0.6","","img/red.png","null","trial","32","false","0.8,0.2","1:go_a","",""
"null","","html-keyboard-response","600","946367","0.0-8.0-1.6","","<img src=""img/red-r.png"">","null","trial","32","","0.8,0.2","1:go_a","1",""
"null","","html-keyboard-response","601","947379","0.0-8.0-2.6","","<div style=""font-size:60px;"">+</div>","null","","","","","","",""
"1296.8999999866355","","image-keyboard-response","602","948677","0.0-8.0-0.7","","img/blue.png","32","trial","null","false","0.4,0.6","4:nogo_d","",""
"null","","html-keyboard-response","603","949679","0.0-8.0-1.7","","<img src=""img/blue-r.png"" border=""10"">","null","trial","null","","0.4,0.6","4:nogo_d","1",""
"null","","html-keyboard-response","604","950693","0.0-8.0-2.7","","<div style=""font-size:60px;"">+</div>","null","","","","","","",""
"640.0250000006054","","image-keyboard-response","605","951333","0.0-8.0-0.8","","img/yellow.png","32","trial","32","true","0.6,0.4","3:go_c","",""
"null","","html-keyboard-response","606","952350","0.0-8.0-1.8","","<img src=""img/yellow-r.png"" border=""10"">","null","trial","32","","0.6,0.4","3:go_c","1",""
"null","","html-keyboard-response","607","953363","0.0-8.0-2.8","","<div style=""font-size:60px;"">+</div>","null","","","","","","",""
"null","","image-keyboard-response","608","954868","0.0-8.0-0.9","","img/red.png","null","trial","32","false","0.8,0.2","1:go_a","",""
"null","","html-keyboard-response","609","955870","0.0-8.0-1.9","","<img src=""img/red-n.png"">","null","trial","32","","0.8,0.2","1:go_a","0",""
"null","","html-keyboard-response","610","956878","0.0-8.0-2.9","","<div style=""font-size:60px;"">+</div>","null","","","","","","",""
"775.6899999803863","","image-keyboard-response","611","957654","0.0-8.0-0.10","","img/blue.png","32","trial","null","false","0.4,0.6","4:nogo_d","",""
"null","","html-keyboard-response","612","958661","0.0-8.0-1.10","","<img src=""img/blue-r.png"" border=""10"">","null","trial","null","","0.4,0.6","4:nogo_d","1",""
"null","","html-keyboard-response","613","959664","0.0-8.0-2.10","","<div style=""font-size:60px;"">+</div>","null","","","","","","",""
"null","","image-keyboard-response","614","961168","0.0-8.0-0.11","","img/purple.png","null","trial","null","true","0.2,0.8","2:nogo_b","",""
"null","","html-keyboard-response","615","962170","0.0-8.0-1.11","","<img src=""img/purple-r.png"">","null","trial","null","","0.2,0.8","2:nogo_b","1",""
"null","","html-keyboard-response","616","963175","0.0-8.0-2.11","","<div style=""font-size:60px;"">+</div>","null","","","","","","",""
"919.2200000106823","","image-keyboard-response","617","964095","0.0-8.0-0.12","","img/blue.png","32","trial","null","false","0.4,0.6","4:nogo_d","",""
"null","","html-keyboard-response","618","965110","0.0-8.0-1.12","","<img src=""img/blue-n.png"" border=""10"">","null","trial","null","","0.4,0.6","4:nogo_d","0",""
"null","","html-keyboard-response","619","966118","0.0-8.0-2.12","","<div style=""font-size:60px;"">+</div>","null","","","","","","",""
"null","","image-keyboard-response","620","967634","0.0-8.0-0.13","","img/red.png","null","trial","32","false","0.8,0.2","1:go_a","",""
"null","","html-keyboard-response","621","968647","0.0-8.0-1.13","","<img src=""img/red-n.png"">","null","trial","32","","0.8,0.2","1:go_a","0",""
"null","","html-keyboard-response","622","969648","0.0-8.0-2.13","","<div style=""font-size:60px;"">+</div>","null","","","","","","",""
"686.4899999927729","","image-keyboard-response","623","970335","0.0-8.0-0.14","","img/yellow.png","32","trial","32","true","0.6,0.4","3:go_c","",""
"null","","html-keyboard-response","624","971339","0.0-8.0-1.14","","<img src=""img/yellow-n.png"" border=""10"">","null","trial","32","","0.6,0.4","3:go_c","0",""
"null","","html-keyboard-response","625","972351","0.0-8.0-2.14","","<div style=""font-size:60px;"">+</div>","null","","","","","","",""
"null","","image-keyboard-response","626","973865","0.0-8.0-0.15","","img/purple.png","null","trial","null","true","0.2,0.8","2:nogo_b","",""
"null","","html-keyboard-response","627","974880","0.0-8.0-1.15","","<img src=""img/purple-r.png"">","null","trial","null","","0.2,0.8","2:nogo_b","1",""
"null","","html-keyboard-response","628","975895","0.0-8.0-2.15","","<div style=""font-size:60px;"">+</div>","null","","","","","","",""
"553.4349999797996","","image-keyboard-response","629","976449","0.0-8.0-0.16","","img/yellow.png","32","trial","32","true","0.6,0.4","3:go_c","",""
"null","","html-keyboard-response","630","977459","0.0-8.0-1.16","","<img src=""img/yellow-n.png"" border=""10"">","null","trial","32","","0.6,0.4","3:go_c","0",""
"null","","html-keyboard-response","631","978461","0.0-8.0-2.16","","<div style=""font-size:60px;"">+</div>","null","","","","","","",""
"null","","image-keyboard-response","632","979973","0.0-8.0-0.17","","img/red.png","null","trial","32","false","0.8,0.2","1:go_a","",""
"null","","html-keyboard-response","633","980975","0.0-8.0-1.17","","<img src=""img/red-r.png"">","null","trial","32","","0.8,0.2","1:go_a","1",""
"null","","html-keyboard-response","634","981979","0.0-8.0-2.17","","<div style=""font-size:60px;"">+</div>","null","","","","","","",""
"732.8550000092946","","image-keyboard-response","635","982713","0.0-8.0-0.18","","img/blue.png","32","trial","null","false","0.4,0.6","4:nogo_d","",""
"null","","html-keyboard-response","636","983729","0.0-8.0-1.18","","<img src=""img/blue-n.png"" border=""10"">","null","trial","null","","0.4,0.6","4:nogo_d","0",""
"null","","html-keyboard-response","637","984743","0.0-8.0-2.18","","<div style=""font-size:60px;"">+</div>","null","","","","","","",""
"null","","image-keyboard-response","638","986259","0.0-8.0-0.19","","img/purple.png","null","trial","null","true","0.2,0.8","2:nogo_b","",""
"null","","html-keyboard-response","639","987261","0.0-8.0-1.19","","<img src=""img/purple-r.png"">","null","trial","null","","0.2,0.8","2:nogo_b","1",""
"null","","html-keyboard-response","640","988271","0.0-8.0-2.19","","<div style=""font-size:60px;"">+</div>","null","","","","","","",""
"634.0049999998882","","image-keyboard-response","641","988905","0.0-8.0-0.20","","img/yellow.png","32","trial","32","true","0.6,0.4","3:go_c","",""
"null","","html-keyboard-response","642","989920","0.0-8.0-1.20","","<img src=""img/yellow-n.png"" border=""10"">","null","trial","32","","0.6,0.4","3:go_c","0",""
"null","","html-keyboard-response","643","990936","0.0-8.0-2.20","","<div style=""font-size:60px;"">+</div>","null","","","","","","",""
"null","","image-keyboard-response","644","992445","0.0-8.0-0.21","","img/purple.png","null","trial","null","true","0.2,0.8","2:nogo_b","",""
"null","","html-keyboard-response","645","993459","0.0-8.0-1.21","","<img src=""img/purple-r.png"">","null","trial","null","","0.2,0.8","2:nogo_b","1",""
"null","","html-keyboard-response","646","994460","0.0-8.0-2.21","","<div style=""font-size:60px;"">+</div>","null","","","","","","",""
"645.4650000086986","","image-keyboard-response","647","995106","0.0-8.0-0.22","","img/red.png","32","trial","32","true","0.8,0.2","1:go_a","",""
"null","","html-keyboard-response","648","996119","0.0-8.0-1.22","","<img src=""img/red-n.png"" border=""10"">","null","trial","32","","0.8,0.2","1:go_a","0",""
"null","","html-keyboard-response","649","997126","0.0-8.0-2.22","","<div style=""font-size:60px;"">+</div>","null","","","","","","",""
"843.0700000026263","","image-keyboard-response","650","997970","0.0-8.0-0.23","","img/blue.png","32","trial","null","false","0.4,0.6","4:nogo_d","",""
"null","","html-keyboard-response","651","998986","0.0-8.0-1.23","","<img src=""img/blue-n.png"" border=""10"">","null","trial","null","","0.4,0.6","4:nogo_d","0",""
"null","","html-keyboard-response","652","999989","0.0-8.0-2.23","","<div style=""font-size:60px;"">+</div>","null","","","","","","",""
"null","","image-keyboard-response","653","1001506","0.0-8.0-0.24","","img/purple.png","null","trial","null","true","0.2,0.8","2:nogo_b","",""
"null","","html-keyboard-response","654","1002507","0.0-8.0-1.24","","<img src=""img/purple-r.png"">","null","trial","null","","0.2,0.8","2:nogo_b","1",""
"null","","html-keyboard-response","655","1003513","0.0-8.0-2.24","","<div style=""font-size:60px;"">+</div>","null","","","","","","",""
"null","","image-keyboard-response","656","1005029","0.0-8.0-0.25","","img/blue.png","null","trial","null","true","0.4,0.6","4:nogo_d","",""
"null","","html-keyboard-response","657","1006045","0.0-8.0-1.25","","<img src=""img/blue-n.png"">","null","trial","null","","0.4,0.6","4:nogo_d","0",""
"null","","html-keyboard-response","658","1007059","0.0-8.0-2.25","","<div style=""font-size:60px;"">+</div>","null","","","","","","",""
"664.0600000100676","","image-keyboard-response","659","1007723","0.0-8.0-0.26","","img/yellow.png","32","trial","32","true","0.6,0.4","3:go_c","",""
"null","","html-keyboard-response","660","1008726","0.0-8.0-1.26","","<img src=""img/yellow-r.png"" border=""10"">","null","trial","32","","0.6,0.4","3:go_c","1",""
"null","","html-keyboard-response","661","1009729","0.0-8.0-2.26","","<div style=""font-size:60px;"">+</div>","null","","","","","","",""
"null","","image-keyboard-response","662","1011242","0.0-8.0-0.27","","img/red.png","null","trial","32","false","0.8,0.2","1:go_a","",""
"null","","html-keyboard-response","663","1012243","0.0-8.0-1.27","","<img src=""img/red-n.png"">","null","trial","32","","0.8,0.2","1:go_a","0",""
"null","","html-keyboard-response","664","1013258","0.0-8.0-2.27","","<div style=""font-size:60px;"">+</div>","null","","","","","","",""
"null","","image-keyboard-response","665","1014771","0.0-8.0-0.28","","img/blue.png","null","trial","null","true","0.4,0.6","4:nogo_d","",""
"null","","html-keyboard-response","666","1015774","0.0-8.0-1.28","","<img src=""img/blue-r.png"">","null","trial","null","","0.4,0.6","4:nogo_d","1",""
"null","","html-keyboard-response","667","1016787","0.0-8.0-2.28","","<div style=""font-size:60px;"">+</div>","null","","","","","","",""
"592.4149999918882","","image-keyboard-response","668","1017380","0.0-8.0-0.29","","img/yellow.png","32","trial","32","true","0.6,0.4","3:go_c","",""
"null","","html-keyboard-response","669","1018396","0.0-8.0-1.29","","<img src=""img/yellow-n.png"" border=""10"">","null","trial","32","","0.6,0.4","3:go_c","0",""
"null","","html-keyboard-response","670","1019397","0.0-8.0-2.29","","<div style=""font-size:60px;"">+</div>","null","","","","","","",""
"null","","image-keyboard-response","671","1020910","0.0-8.0-0.30","","img/red.png","null","trial","32","false","0.8,0.2","1:go_a","",""
"null","","html-keyboard-response","672","1021920","0.0-8.0-1.30","","<img src=""img/red-n.png"">","null","trial","32","","0.8,0.2","1:go_a","0",""
"null","","html-keyboard-response","673","1022935","0.0-8.0-2.30","","<div style=""font-size:60px;"">+</div>","null","","","","","","",""
"null","","image-keyboard-response","674","1024450","0.0-8.0-0.31","","img/purple.png","null","trial","null","true","0.2,0.8","2:nogo_b","",""
"null","","html-keyboard-response","675","1025465","0.0-8.0-1.31","","<img src=""img/purple-n.png"">","null","trial","null","","0.2,0.8","2:nogo_b","0",""
"null","","html-keyboard-response","676","1026480","0.0-8.0-2.31","","<div style=""font-size:60px;"">+</div>","null","","","","","","",""
"453.1200000201352","","image-keyboard-response","677","1026934","0.0-8.0-0.32","","img/yellow.png","32","trial","32","true","0.6,0.4","3:go_c","",""
"null","","html-keyboard-response","678","1027939","0.0-8.0-1.32","","<img src=""img/yellow-r.png"" border=""10"">","null","trial","32","","0.6,0.4","3:go_c","1",""
"null","","html-keyboard-response","679","1028943","0.0-8.0-2.32","","<div style=""font-size:60px;"">+</div>","null","","","","","","",""
"414.10999998333864","","image-keyboard-response","680","1029357","0.0-8.0-0.33","","img/red.png","32","trial","32","true","0.8,0.2","1:go_a","",""
"null","","html-keyboard-response","681","1030370","0.0-8.0-1.33","","<img src=""img/red-r.png"" border=""10"">","null","trial","32","","0.8,0.2","1:go_a","1",""
