"rt","url","trial_type","trial_index","time_elapsed","internal_node_id","view_history","stimulus","key_press","test_part","correct_response","correct","use_rew","which_stim","reward","responses"
"4998.675000155345","consent.html","external-html","0","5239","0.0-0.0","","","","","","","","","",""
"34065.11000008322","","instructions","1","39309","0.0-1.0","[{""page_index"":0,""viewing_time"":4140.505000017583},{""page_index"":1,""viewing_time"":7870.115000056103},{""page_index"":2,""viewing_time"":1678.0000000726432},{""page_index"":3,""viewing_time"":3515.6949998345226},{""page_index"":4,""viewing_time"":11274.610000196844},{""page_index"":5,""viewing_time"":1557.994999922812},{""page_index"":6,""viewing_time"":4027.2349999286234}]","","","","","","","","",""
"null","","image-keyboard-response","2","40812","0.0-2.0-0.0","","img/test2.PNG","null","practice","null","true","","","",""
"null","","html-keyboard-response","3","41814","0.0-2.0-1.0","","<img src=""img/test2-reward.PNG"">","null","","","","","","",""
"null","","html-keyboard-response","4","42815","0.0-2.0-2.0","","<div style=""font-size:60px;"">+</div>","null","","","","","","",""
"590.654999949038","","image-keyboard-response","5","43406","0.0-2.0-0.1","","img/test1.PNG","32","practice","32","true","","","",""
"null","","html-keyboard-response","6","44408","0.0-2.0-1.1","","<img src=""img/test1-reward.PNG"" border=""10px; grey"">","null","","","","","","",""
"null","","html-keyboard-response","7","45409","0.0-2.0-2.1","","<div style=""font-size:60px;"">+</div>","null","","","","","","",""
"null","","image-keyboard-response","8","46910","0.0-2.0-0.2","","img/test3.PNG","null","practice","null","true","","","",""
"null","","html-keyboard-response","9","47911","0.0-2.0-1.2","","<img src=""img/test3-reward.PNG"">","null","","","","","","",""
"null","","html-keyboard-response","10","48912","0.0-2.0-2.2","","<div style=""font-size:60px;"">+</div>","null","","","","","","",""
"null","","image-keyboard-response","11","50414","0.0-2.0-0.3","","img/test2.PNG","null","practice","null","true","","","",""
"null","","html-keyboard-response","12","51415","0.0-2.0-1.3","","<img src=""img/test2-reward.PNG"">","null","","","","","","",""
"null","","html-keyboard-response","13","52416","0.0-2.0-2.3","","<div style=""font-size:60px;"">+</div>","null","","","","","","",""
"1112.7899999264628","","image-keyboard-response","14","53530","0.0-2.0-0.4","","img/test1.PNG","32","practice","32","true","","","",""
"null","","html-keyboard-response","15","54531","0.0-2.0-1.4","","<img src=""img/test1-reward.PNG"" border=""10px; grey"">","null","","","","","","",""
"null","","html-keyboard-response","16","55532","0.0-2.0-2.4","","<div style=""font-size:60px;"">+</div>","null","","","","","","",""
"null","","image-keyboard-response","17","57034","0.0-2.0-0.5","","img/test3.PNG","null","practice","null","true","","","",""
"null","","html-keyboard-response","18","58036","0.0-2.0-1.5","","<img src=""img/test3-reward.PNG"">","null","","","","","","",""
"null","","html-keyboard-response","19","59037","0.0-2.0-2.5","","<div style=""font-size:60px;"">+</div>","null","","","","","","",""
"null","","image-keyboard-response","20","60538","0.0-2.0-0.6","","img/test3.PNG","null","practice","null","true","","","",""
"null","","html-keyboard-response","21","61539","0.0-2.0-1.6","","<img src=""img/test3-reward.PNG"">","null","","","","","","",""
"null","","html-keyboard-response","22","62540","0.0-2.0-2.6","","<div style=""font-size:60px;"">+</div>","null","","","","","","",""
"null","","image-keyboard-response","23","64042","0.0-2.0-0.7","","img/test2.PNG","null","practice","null","true","","","",""
"null","","html-keyboard-response","24","65044","0.0-2.0-1.7","","<img src=""img/test2-reward.PNG"">","null","","","","","","",""
"null","","html-keyboard-response","25","66045","0.0-2.0-2.7","","<div style=""font-size:60px;"">+</div>","null","","","","","","",""
"637.624999973923","","image-keyboard-response","26","66684","0.0-2.0-0.8","","img/test1.PNG","32","practice","32","true","","","",""
"null","","html-keyboard-response","27","67685","0.0-2.0-1.8","","<img src=""img/test1-reward.PNG"" border=""10px; grey"">","null","","","","","","",""
"null","","html-keyboard-response","28","68686","0.0-2.0-2.8","","<div style=""font-size:60px;"">+</div>","null","","","","","","",""
"857.1699999738485","","image-keyboard-response","29","69544","0.0-2.0-0.9","","img/test1.PNG","32","practice","32","true","","","",""
"null","","html-keyboard-response","30","70546","0.0-2.0-1.9","","<img src=""img/test1-reward.PNG"" border=""10px; grey"">","null","","","","","","",""
"null","","html-keyboard-response","31","71547","0.0-2.0-2.9","","<div style=""font-size:60px;"">+</div>","null","","","","","","",""
"null","","image-keyboard-response","32","73049","0.0-2.0-0.10","","img/test3.PNG","null","practice","null","true","","","",""
"null","","html-keyboard-response","33","74050","0.0-2.0-1.10","","<img src=""img/test3-reward.PNG"">","null","","","","","","",""
"null","","html-keyboard-response","34","75051","0.0-2.0-2.10","","<div style=""font-size:60px;"">+</div>","null","","","","","","",""
"null","","image-keyboard-response","35","76552","0.0-2.0-0.11","","img/test2.PNG","null","practice","null","true","","","",""
"null","","html-keyboard-response","36","77553","0.0-2.0-1.11","","<img src=""img/test2-reward.PNG"">","null","","","","","","",""
"null","","html-keyboard-response","37","78555","0.0-2.0-2.11","","<div style=""font-size:60px;"">+</div>","null","","","","","","",""
"2496.904999949038","","instructions","38","81052","0.0-3.0","[{""page_index"":0,""viewing_time"":2496.6700000222772}]","","","","","","","","",""
"1299.265000037849","","image-keyboard-response","39","82353","0.0-4.0-0.0","","img/green.png","32","trial","null","false","0.2,0.8","2:nogo_b","",""
"null","","html-keyboard-response","40","83355","0.0-4.0-1.0","","<img src=""img/green-n.png"" border=""10"">","null","trial","null","","0.2,0.8","2:nogo_b","0",""
"null","","html-keyboard-response","41","84357","0.0-4.0-2.0","","<div style=""font-size:60px;"">+</div>","null","","","","","","",""
"null","","image-keyboard-response","42","85858","0.0-4.0-0.1","","img/purple.png","null","trial","32","false","0.8,0.2","1:go_a","",""
"null","","html-keyboard-response","43","86861","0.0-4.0-1.1","","<img src=""img/purple-n.png"">","null","trial","32","","0.8,0.2","1:go_a","0",""
"null","","html-keyboard-response","44","87862","0.0-4.0-2.1","","<div style=""font-size:60px;"">+</div>","null","","","","","","",""
"null","","image-keyboard-response","45","89363","0.0-4.0-0.2","","img/purple.png","null","trial","32","false","0.8,0.2","1:go_a","",""
"null","","html-keyboard-response","46","90365","0.0-4.0-1.2","","<img src=""img/purple-n.png"">","null","trial","32","","0.8,0.2","1:go_a","0",""
"null","","html-keyboard-response","47","91366","0.0-4.0-2.2","","<div style=""font-size:60px;"">+</div>","null","","","","","","",""
"582.945000147447","","image-keyboard-response","48","91949","0.0-4.0-0.3","","img/green.png","32","trial","null","false","0.2,0.8","2:nogo_b","",""
"null","","html-keyboard-response","49","92952","0.0-4.0-1.3","","<img src=""img/green-r.png"" border=""10"">","null","trial","null","","0.2,0.8","2:nogo_b","1",""
"null","","html-keyboard-response","50","93954","0.0-4.0-2.3","","<div style=""font-size:60px;"">+</div>","null","","","","","","",""
"null","","image-keyboard-response","51","95455","0.0-4.0-0.4","","img/purple.png","null","trial","32","false","0.8,0.2","1:go_a","",""
"null","","html-keyboard-response","52","96457","0.0-4.0-1.4","","<img src=""img/purple-n.png"">","null","trial","32","","0.8,0.2","1:go_a","0",""
"null","","html-keyboard-response","53","97458","0.0-4.0-2.4","","<div style=""font-size:60px;"">+</div>","null","","","","","","",""
"459.135000128299","","image-keyboard-response","54","97918","0.0-4.0-0.5","","img/green.png","32","trial","null","false","0.2,0.8","2:nogo_b","",""
"null","","html-keyboard-response","55","98920","0.0-4.0-1.5","","<img src=""img/green-r.png"" border=""10"">","null","trial","null","","0.2,0.8","2:nogo_b","1",""
"null","","html-keyboard-response","56","99921","0.0-4.0-2.5","","<div style=""font-size:60px;"">+</div>","null","","","","","","",""
"null","","image-keyboard-response","57","101422","0.0-4.0-0.6","","img/purple.png","null","trial","32","false","0.8,0.2","1:go_a","",""
"null","","html-keyboard-response","58","102424","0.0-4.0-1.6","","<img src=""img/purple-r.png"">","null","trial","32","","0.8,0.2","1:go_a","1",""
"null","","html-keyboard-response","59","103425","0.0-4.0-2.6","","<div style=""font-size:60px;"">+</div>","null","","","","","","",""
"469.1049999091774","","image-keyboard-response","60","103895","0.0-4.0-0.7","","img/green.png","32","trial","null","false","0.2,0.8","2:nogo_b","",""
"null","","html-keyboard-response","61","104897","0.0-4.0-1.7","","<img src=""img/green-n.png"" border=""10"">","null","trial","null","","0.2,0.8","2:nogo_b","0",""
"null","","html-keyboard-response","62","105898","0.0-4.0-2.7","","<div style=""font-size:60px;"">+</div>","null","","","","","","",""
"null","","image-keyboard-response","63","107399","0.0-4.0-0.8","","img/purple.png","null","trial","32","false","0.8,0.2","1:go_a","",""
"null","","html-keyboard-response","64","108402","0.0-4.0-1.8","","<img src=""img/purple-n.png"">","null","trial","32","","0.8,0.2","1:go_a","0",""
"null","","html-keyboard-response","65","109403","0.0-4.0-2.8","","<div style=""font-size:60px;"">+</div>","null","","","","","","",""
"468.26499979943037","","image-keyboard-response","66","109872","0.0-4.0-0.9","","img/green.png","32","trial","null","false","0.2,0.8","2:nogo_b","",""
"null","","html-keyboard-response","67","110874","0.0-4.0-1.9","","<img src=""img/green-n.png"" border=""10"">","null","trial","null","","0.2,0.8","2:nogo_b","0",""
"null","","html-keyboard-response","68","111875","0.0-4.0-2.9","","<div style=""font-size:60px;"">+</div>","null","","","","","","",""
"848.9349998999387","","image-keyboard-response","69","112725","0.0-4.0-0.10","","img/green.png","32","trial","null","false","0.2,0.8","2:nogo_b","",""
"null","","html-keyboard-response","70","113729","0.0-4.0-1.10","","<img src=""img/green-n.png"" border=""10"">","null","trial","null","","0.2,0.8","2:nogo_b","0",""
"null","","html-keyboard-response","71","114730","0.0-4.0-2.10","","<div style=""font-size:60px;"">+</div>","null","","","","","","",""
"null","","image-keyboard-response","72","116231","0.0-4.0-0.11","","img/purple.png","null","trial","32","false","0.8,0.2","1:go_a","",""
"null","","html-keyboard-response","73","117233","0.0-4.0-1.11","","<img src=""img/purple-n.png"">","null","trial","32","","0.8,0.2","1:go_a","0",""
"null","","html-keyboard-response","74","118235","0.0-4.0-2.11","","<div style=""font-size:60px;"">+</div>","null","","","","","","",""
"null","","image-keyboard-response","75","119736","0.0-4.0-0.12","","img/purple.png","null","trial","32","false","0.8,0.2","1:go_a","",""
"null","","html-keyboard-response","76","120738","0.0-4.0-1.12","","<img src=""img/purple-n.png"">","null","trial","32","","0.8,0.2","1:go_a","0",""
"null","","html-keyboard-response","77","121739","0.0-4.0-2.12","","<div style=""font-size:60px;"">+</div>","null","","","","","","",""
"566.385000012815","","image-keyboard-response","78","122306","0.0-4.0-0.13","","img/green.png","32","trial","null","false","0.2,0.8","2:nogo_b","",""
"null","","html-keyboard-response","79","123308","0.0-4.0-1.13","","<img src=""img/green-n.png"" border=""10"">","null","trial","null","","0.2,0.8","2:nogo_b","0",""
"null","","html-keyboard-response","80","124309","0.0-4.0-2.13","","<div style=""font-size:60px;"">+</div>","null","","","","","","",""
"536.8600001093","","image-keyboard-response","81","124847","0.0-4.0-0.14","","img/purple.png","32","trial","32","true","0.8,0.2","1:go_a","",""
"null","","html-keyboard-response","82","125848","0.0-4.0-1.14","","<img src=""img/purple-r.png"" border=""10"">","null","trial","32","","0.8,0.2","1:go_a","1",""
"null","","html-keyboard-response","83","126849","0.0-4.0-2.14","","<div style=""font-size:60px;"">+</div>","null","","","","","","",""
"null","","image-keyboard-response","84","128350","0.0-4.0-0.15","","img/green.png","null","trial","null","true","0.2,0.8","2:nogo_b","",""
"null","","html-keyboard-response","85","129352","0.0-4.0-1.15","","<img src=""img/green-r.png"">","null","trial","null","","0.2,0.8","2:nogo_b","1",""
"null","","html-keyboard-response","86","130353","0.0-4.0-2.15","","<div style=""font-size:60px;"">+</div>","null","","","","","","",""
"469.3649997934699","","image-keyboard-response","87","130823","0.0-4.0-0.16","","img/purple.png","32","trial","32","true","0.8,0.2","1:go_a","",""
"null","","html-keyboard-response","88","131825","0.0-4.0-1.16","","<img src=""img/purple-r.png"" border=""10"">","null","trial","32","","0.8,0.2","1:go_a","1",""
"null","","html-keyboard-response","89","132826","0.0-4.0-2.16","","<div style=""font-size:60px;"">+</div>","null","","","","","","",""
"null","","image-keyboard-response","90","134327","0.0-4.0-0.17","","img/green.png","null","trial","null","true","0.2,0.8","2:nogo_b","",""
"null","","html-keyboard-response","91","135329","0.0-4.0-1.17","","<img src=""img/green-r.png"">","null","trial","null","","0.2,0.8","2:nogo_b","1",""
"null","","html-keyboard-response","92","136330","0.0-4.0-2.17","","<div style=""font-size:60px;"">+</div>","null","","","","","","",""
"565.110000083223","","image-keyboard-response","93","136896","0.0-4.0-0.18","","img/purple.png","32","trial","32","true","0.8,0.2","1:go_a","",""
"null","","html-keyboard-response","94","137898","0.0-4.0-1.18","","<img src=""img/purple-r.png"" border=""10"">","null","trial","32","","0.8,0.2","1:go_a","1",""
"null","","html-keyboard-response","95","138900","0.0-4.0-2.18","","<div style=""font-size:60px;"">+</div>","null","","","","","","",""
"608.5550000425428","","image-keyboard-response","96","139509","0.0-4.0-0.19","","img/green.png","32","trial","null","false","0.2,0.8","2:nogo_b","",""
"null","","html-keyboard-response","97","140510","0.0-4.0-1.19","","<img src=""img/green-n.png"" border=""10"">","null","trial","null","","0.2,0.8","2:nogo_b","0",""
"null","","html-keyboard-response","98","141512","0.0-4.0-2.19","","<div style=""font-size:60px;"">+</div>","null","","","","","","",""
"null","","image-keyboard-response","99","143013","0.0-4.0-0.20","","img/green.png","null","trial","null","true","0.2,0.8","2:nogo_b","",""
"null","","html-keyboard-response","100","144015","0.0-4.0-1.20","","<img src=""img/green-r.png"">","null","trial","null","","0.2,0.8","2:nogo_b","1",""
"null","","html-keyboard-response","101","145016","0.0-4.0-2.20","","<div style=""font-size:60px;"">+</div>","null","","","","","","",""
"429.2750000022352","","image-keyboard-response","102","145446","0.0-4.0-0.21","","img/purple.png","32","trial","32","true","0.8,0.2","1:go_a","",""
"null","","html-keyboard-response","103","146448","0.0-4.0-1.21","","<img src=""img/purple-r.png"" border=""10"">","null","trial","32","","0.8,0.2","1:go_a","1",""
"null","","html-keyboard-response","104","147449","0.0-4.0-2.21","","<div style=""font-size:60px;"">+</div>","null","","","","","","",""
"529.5349999796599","","image-keyboard-response","105","147979","0.0-4.0-0.22","","img/purple.png","32","trial","32","true","0.8,0.2","1:go_a","",""
"null","","html-keyboard-response","106","148981","0.0-4.0-1.22","","<img src=""img/purple-r.png"" border=""10"">","null","trial","32","","0.8,0.2","1:go_a","1",""
"null","","html-keyboard-response","107","149982","0.0-4.0-2.22","","<div style=""font-size:60px;"">+</div>","null","","","","","","",""
"null","","image-keyboard-response","108","151483","0.0-4.0-0.23","","img/green.png","null","trial","null","true","0.2,0.8","2:nogo_b","",""
"null","","html-keyboard-response","109","152485","0.0-4.0-1.23","","<img src=""img/green-r.png"">","null","trial","null","","0.2,0.8","2:nogo_b","1",""
"null","","html-keyboard-response","110","153486","0.0-4.0-2.23","","<div style=""font-size:60px;"">+</div>","null","","","","","","",""
"null","","image-keyboard-response","111","154987","0.0-4.0-0.24","","img/green.png","null","trial","null","true","0.2,0.8","2:nogo_b","",""
"null","","html-keyboard-response","112","155989","0.0-4.0-1.24","","<img src=""img/green-n.png"">","null","trial","null","","0.2,0.8","2:nogo_b","0",""
"null","","html-keyboard-response","113","156990","0.0-4.0-2.24","","<div style=""font-size:60px;"">+</div>","null","","","","","","",""
"440.35499985329807","","image-keyboard-response","114","157431","0.0-4.0-0.25","","img/purple.png","32","trial","32","true","0.8,0.2","1:go_a","",""
"null","","html-keyboard-response","115","158433","0.0-4.0-1.25","","<img src=""img/purple-r.png"" border=""10"">","null","trial","32","","0.8,0.2","1:go_a","1",""
"null","","html-keyboard-response","116","159434","0.0-4.0-2.25","","<div style=""font-size:60px;"">+</div>","null","","","","","","",""
"497.6550000719726","","image-keyboard-response","117","159933","0.0-4.0-0.26","","img/purple.png","32","trial","32","true","0.8,0.2","1:go_a","",""
"null","","html-keyboard-response","118","160934","0.0-4.0-1.26","","<img src=""img/purple-r.png"" border=""10"">","null","trial","32","","0.8,0.2","1:go_a","1",""
"null","","html-keyboard-response","119","161935","0.0-4.0-2.26","","<div style=""font-size:60px;"">+</div>","null","","","","","","",""
"null","","image-keyboard-response","120","163437","0.0-4.0-0.27","","img/green.png","null","trial","null","true","0.2,0.8","2:nogo_b","",""
"null","","html-keyboard-response","121","164439","0.0-4.0-1.27","","<img src=""img/green-n.png"">","null","trial","null","","0.2,0.8","2:nogo_b","0",""
"null","","html-keyboard-response","122","165440","0.0-4.0-2.27","","<div style=""font-size:60px;"">+</div>","null","","","","","","",""
"508.82000010460615","","image-keyboard-response","123","165949","0.0-4.0-0.28","","img/purple.png","32","trial","32","true","0.8,0.2","1:go_a","",""
"null","","html-keyboard-response","124","166951","0.0-4.0-1.28","","<img src=""img/purple-r.png"" border=""10"">","null","trial","32","","0.8,0.2","1:go_a","1",""
"null","","html-keyboard-response","125","167952","0.0-4.0-2.28","","<div style=""font-size:60px;"">+</div>","null","","","","","","",""
"null","","image-keyboard-response","126","169453","0.0-4.0-0.29","","img/green.png","null","trial","null","true","0.2,0.8","2:nogo_b","",""
"null","","html-keyboard-response","127","170455","0.0-4.0-1.29","","<img src=""img/green-r.png"">","null","trial","null","","0.2,0.8","2:nogo_b","1",""
"null","","html-keyboard-response","128","171456","0.0-4.0-2.29","","<div style=""font-size:60px;"">+</div>","null","","","","","","",""
"429.8050000797957","","image-keyboard-response","129","171887","0.0-4.0-0.30","","img/purple.png","32","trial","32","true","0.8,0.2","1:go_a","",""
"null","","html-keyboard-response","130","172888","0.0-4.0-1.30","","<img src=""img/purple-r.png"" border=""10"">","null","trial","32","","0.8,0.2","1:go_a","1",""
"null","","html-keyboard-response","131","173889","0.0-4.0-2.30","","<div style=""font-size:60px;"">+</div>","null","","","","","","",""
"null","","image-keyboard-response","132","175390","0.0-4.0-0.31","","img/green.png","null","trial","null","true","0.2,0.8","2:nogo_b","",""
"null","","html-keyboard-response","133","176392","0.0-4.0-1.31","","<img src=""img/green-r.png"">","null","trial","null","","0.2,0.8","2:nogo_b","1",""
"null","","html-keyboard-response","134","177393","0.0-4.0-2.31","","<div style=""font-size:60px;"">+</div>","null","","","","","","",""
"468.90500001609325","","image-keyboard-response","135","177863","0.0-4.0-0.32","","img/purple.png","32","trial","32","true","0.8,0.2","1:go_a","",""
"null","","html-keyboard-response","136","178866","0.0-4.0-1.32","","<img src=""img/purple-n.png"" border=""10"">","null","trial","32","","0.8,0.2","1:go_a","0",""
"null","","html-keyboard-response","137","179867","0.0-4.0-2.32","","<div style=""font-size:60px;"">+</div>","null","","","","","","",""
"528.8849999196827","","image-keyboard-response","138","180397","0.0-4.0-0.33","","img/green.png","32","trial","null","false","0.2,0.8","2:nogo_b","",""
"null","","html-keyboard-response","139","181398","0.0-4.0-1.33","","<img src=""img/green-n.png"" border=""10"">","null","trial","null","","0.2,0.8","2:nogo_b","0",""
"null","","html-keyboard-response","140","182399","0.0-4.0-2.33","","<div style=""font-size:60px;"">+</div>","null","","","","","","",""
"721.9849999528378","","image-keyboard-response","141","183122","0.0-4.0-0.34","","img/green.png","32","trial","null","false","0.2,0.8","2:nogo_b","",""
"null","","html-keyboard-response","142","184125","0.0-4.0-1.34","","<img src=""img/green-n.png"" border=""10"">","null","trial","null","","0.2,0.8","2:nogo_b","0",""
"null","","html-keyboard-response","143","185125","0.0-4.0-2.34","","<div style=""font-size:60px;"">+</div>","null","","","","","","",""
"null","","image-keyboard-response","144","186626","0.0-4.0-0.35","","img/purple.png","null","trial","32","false","0.8,0.2","1:go_a","",""
"null","","html-keyboard-response","145","187629","0.0-4.0-1.35","","<img src=""img/purple-n.png"">","null","trial","32","","0.8,0.2","1:go_a","0",""
"null","","html-keyboard-response","146","188630","0.0-4.0-2.35","","<div style=""font-size:60px;"">+</div>","null","","","","","","",""
"null","","image-keyboard-response","147","190131","0.0-4.0-0.36","","img/purple.png","null","trial","32","false","0.8,0.2","1:go_a","",""
"null","","html-keyboard-response","148","191133","0.0-4.0-1.36","","<img src=""img/purple-n.png"">","null","trial","32","","0.8,0.2","1:go_a","0",""
"null","","html-keyboard-response","149","192134","0.0-4.0-2.36","","<div style=""font-size:60px;"">+</div>","null","","","","","","",""
"null","","image-keyboard-response","150","193635","0.0-4.0-0.37","","img/green.png","null","trial","null","true","0.2,0.8","2:nogo_b","",""
"null","","html-keyboard-response","151","194637","0.0-4.0-1.37","","<img src=""img/green-r.png"">","null","trial","null","","0.2,0.8","2:nogo_b","1",""
"null","","html-keyboard-response","152","195638","0.0-4.0-2.37","","<div style=""font-size:60px;"">+</div>","null","","","","","","",""
"739.5750000141561","","image-keyboard-response","153","196378","0.0-4.0-0.38","","img/green.png","32","trial","null","false","0.2,0.8","2:nogo_b","",""
"null","","html-keyboard-response","154","197381","0.0-4.0-1.38","","<img src=""img/green-r.png"" border=""10"">","null","trial","null","","0.2,0.8","2:nogo_b","1",""
"null","","html-keyboard-response","155","198383","0.0-4.0-2.38","","<div style=""font-size:60px;"">+</div>","null","","","","","","",""
"null","","image-keyboard-response","156","199884","0.0-4.0-0.39","","img/purple.png","null","trial","32","false","0.8,0.2","1:go_a","",""
"null","","html-keyboard-response","157","200886","0.0-4.0-1.39","","<img src=""img/purple-n.png"">","null","trial","32","","0.8,0.2","1:go_a","0",""
"null","","html-keyboard-response","158","201887","0.0-4.0-2.39","","<div style=""font-size:60px;"">+</div>","null","","","","","","",""
"null","","image-keyboard-response","159","203388","0.0-4.0-0.40","","img/green.png","null","trial","null","true","0.2,0.8","2:nogo_b","",""
"null","","html-keyboard-response","160","204432","0.0-4.0-1.40","","<img src=""img/green-n.png"">","null","trial","null","","0.2,0.8","2:nogo_b","0",""
"null","","html-keyboard-response","161","205434","0.0-4.0-2.40","","<div style=""font-size:60px;"">+</div>","null","","","","","","",""
"null","","image-keyboard-response","162","206935","0.0-4.0-0.41","","img/purple.png","null","trial","32","false","0.8,0.2","1:go_a","",""
"null","","html-keyboard-response","163","207937","0.0-4.0-1.41","","<img src=""img/purple-r.png"">","null","trial","32","","0.8,0.2","1:go_a","1",""
"null","","html-keyboard-response","164","208939","0.0-4.0-2.41","","<div style=""font-size:60px;"">+</div>","null","","","","","","",""
"439.17999998666346","","image-keyboard-response","165","209379","0.0-4.0-0.42","","img/purple.png","32","trial","32","true","0.8,0.2","1:go_a","",""
"null","","html-keyboard-response","166","210381","0.0-4.0-1.42","","<img src=""img/purple-r.png"" border=""10"">","null","trial","32","","0.8,0.2","1:go_a","1",""
"null","","html-keyboard-response","167","211382","0.0-4.0-2.42","","<div style=""font-size:60px;"">+</div>","null","","","","","","",""
"null","","image-keyboard-response","168","212883","0.0-4.0-0.43","","img/green.png","null","trial","null","true","0.2,0.8","2:nogo_b","",""
"null","","html-keyboard-response","169","213885","0.0-4.0-1.43","","<img src=""img/green-r.png"">","null","trial","null","","0.2,0.8","2:nogo_b","1",""
"null","","html-keyboard-response","170","214886","0.0-4.0-2.43","","<div style=""font-size:60px;"">+</div>","null","","","","","","",""
"476.6149998176843","","image-keyboard-response","171","215363","0.0-4.0-0.44","","img/purple.png","32","trial","32","true","0.8,0.2","1:go_a","",""
"null","","html-keyboard-response","172","216365","0.0-4.0-1.44","","<img src=""img/purple-n.png"" border=""10"">","null","trial","32","","0.8,0.2","1:go_a","0",""
"null","","html-keyboard-response","173","217366","0.0-4.0-2.44","","<div style=""font-size:60px;"">+</div>","null","","","","","","",""
"688.7900000438094","","image-keyboard-response","174","218056","0.0-4.0-0.45","","img/green.png","32","trial","null","false","0.2,0.8","2:nogo_b","",""
"null","","html-keyboard-response","175","219058","0.0-4.0-1.45","","<img src=""img/green-r.png"" border=""10"">","null","trial","null","","0.2,0.8","2:nogo_b","1",""
"null","","html-keyboard-response","176","220059","0.0-4.0-2.45","","<div style=""font-size:60px;"">+</div>","null","","","","","","",""
"809.1700000222772","","image-keyboard-response","177","220869","0.0-4.0-0.46","","img/green.png","32","trial","null","false","0.2,0.8","2:nogo_b","",""
"null","","html-keyboard-response","178","221871","0.0-4.0-1.46","","<img src=""img/green-n.png"" border=""10"">","null","trial","null","","0.2,0.8","2:nogo_b","0",""
"null","","html-keyboard-response","179","222872","0.0-4.0-2.46","","<div style=""font-size:60px;"">+</div>","null","","","","","","",""
"null","","image-keyboard-response","180","224373","0.0-4.0-0.47","","img/purple.png","null","trial","32","false","0.8,0.2","1:go_a","",""
"null","","html-keyboard-response","181","225375","0.0-4.0-1.47","","<img src=""img/purple-r.png"">","null","trial","32","","0.8,0.2","1:go_a","1",""
"null","","html-keyboard-response","182","226375","0.0-4.0-2.47","","<div style=""font-size:60px;"">+</div>","null","","","","","","",""
"null","","image-keyboard-response","183","227876","0.0-4.0-0.48","","img/green.png","null","trial","null","true","0.2,0.8","2:nogo_b","",""
"null","","html-keyboard-response","184","228878","0.0-4.0-1.48","","<img src=""img/green-r.png"">","null","trial","null","","0.2,0.8","2:nogo_b","1",""
"null","","html-keyboard-response","185","229879","0.0-4.0-2.48","","<div style=""font-size:60px;"">+</div>","null","","","","","","",""
"904.4449999928474","","image-keyboard-response","186","230785","0.0-4.0-0.49","","img/purple.png","32","trial","32","true","0.8,0.2","1:go_a","",""
"null","","html-keyboard-response","187","231787","0.0-4.0-1.49","","<img src=""img/purple-r.png"" border=""10"">","null","trial","32","","0.8,0.2","1:go_a","1",""
"null","","html-keyboard-response","188","232788","0.0-4.0-2.49","","<div style=""font-size:60px;"">+</div>","null","","","","","","",""
"null","","image-keyboard-response","189","234289","0.0-4.0-0.50","","img/green.png","null","trial","null","true","0.2,0.8","2:nogo_b","",""
"null","","html-keyboard-response","190","235291","0.0-4.0-1.50","","<img src=""img/green-n.png"">","null","trial","null","","0.2,0.8","2:nogo_b","0",""
"null","","html-keyboard-response","191","236292","0.0-4.0-2.50","","<div style=""font-size:60px;"">+</div>","null","","","","","","",""
"null","","image-keyboard-response","192","237793","0.0-4.0-0.51","","img/purple.png","null","trial","32","false","0.8,0.2","1:go_a","",""
"null","","html-keyboard-response","193","238795","0.0-4.0-1.51","","<img src=""img/purple-n.png"">","null","trial","32","","0.8,0.2","1:go_a","0",""
"null","","html-keyboard-response","194","239797","0.0-4.0-2.51","","<div style=""font-size:60px;"">+</div>","null","","","","","","",""
"null","","image-keyboard-response","195","241298","0.0-4.0-0.52","","img/purple.png","null","trial","32","false","0.8,0.2","1:go_a","",""
"null","","html-keyboard-response","196","242300","0.0-4.0-1.52","","<img src=""img/purple-n.png"">","null","trial","32","","0.8,0.2","1:go_a","0",""
"null","","html-keyboard-response","197","243301","0.0-4.0-2.52","","<div style=""font-size:60px;"">+</div>","null","","","","","","",""
"null","","image-keyboard-response","198","244802","0.0-4.0-0.53","","img/green.png","null","trial","null","true","0.2,0.8","2:nogo_b","",""
"null","","html-keyboard-response","199","245804","0.0-4.0-1.53","","<img src=""img/green-r.png"">","null","trial","null","","0.2,0.8","2:nogo_b","1",""
"null","","html-keyboard-response","200","246805","0.0-4.0-2.53","","<div style=""font-size:60px;"">+</div>","null","","","","","","",""
"895.8600000478327","","image-keyboard-response","201","247702","0.0-4.0-0.54","","img/purple.png","32","trial","32","true","0.8,0.2","1:go_a","",""
"null","","html-keyboard-response","202","248730","0.0-4.0-1.54","","<img src=""img/purple-r.png"" border=""10"">","null","trial","32","","0.8,0.2","1:go_a","1",""
"null","","html-keyboard-response","203","249732","0.0-4.0-2.54","","<div style=""font-size:60px;"">+</div>","null","","","","","","",""
"null","","image-keyboard-response","204","251233","0.0-4.0-0.55","","img/green.png","null","trial","null","true","0.2,0.8","2:nogo_b","",""
"null","","html-keyboard-response","205","252235","0.0-4.0-1.55","","<img src=""img/green-r.png"">","null","trial","null","","0.2,0.8","2:nogo_b","1",""
"null","","html-keyboard-response","206","253236","0.0-4.0-2.55","","<div style=""font-size:60px;"">+</div>","null","","","","","","",""
"968.4399999678135","","image-keyboard-response","207","254205","0.0-4.0-0.56","","img/green.png","32","trial","null","false","0.2,0.8","2:nogo_b","",""
"null","","html-keyboard-response","208","255207","0.0-4.0-1.56","","<img src=""img/green-n.png"" border=""10"">","null","trial","null","","0.2,0.8","2:nogo_b","0",""
"null","","html-keyboard-response","209","256208","0.0-4.0-2.56","","<div style=""font-size:60px;"">+</div>","null","","","","","","",""
"465.4299998655915","","image-keyboard-response","210","256675","0.0-4.0-0.57","","img/purple.png","32","trial","32","true","0.8,0.2","1:go_a","",""
"null","","html-keyboard-response","211","257676","0.0-4.0-1.57","","<img src=""img/purple-r.png"" border=""10"">","null","trial","32","","0.8,0.2","1:go_a","1",""
"null","","html-keyboard-response","212","258677","0.0-4.0-2.57","","<div style=""font-size:60px;"">+</div>","null","","","","","","",""
"681.4149999991059","","image-keyboard-response","213","259360","0.0-4.0-0.58","","img/purple.png","32","trial","32","true","0.8,0.2","1:go_a","",""
"null","","html-keyboard-response","214","260362","0.0-4.0-1.58","","<img src=""img/purple-r.png"" border=""10"">","null","trial","32","","0.8,0.2","1:go_a","1",""
"null","","html-keyboard-response","215","261363","0.0-4.0-2.58","","<div style=""font-size:60px;"">+</div>","null","","","","","","",""
"null","","image-keyboard-response","216","262864","0.0-4.0-0.59","","img/green.png","null","trial","null","true","0.2,0.8","2:nogo_b","",""
"null","","html-keyboard-response","217","263866","0.0-4.0-1.59","","<img src=""img/green-n.png"">","null","trial","null","","0.2,0.8","2:nogo_b","0",""
"null","","html-keyboard-response","218","264867","0.0-4.0-2.59","","<div style=""font-size:60px;"">+</div>","null","","","","","","",""
"2436.3700000103563","","instructions","219","267304","0.0-5.0","[{""page_index"":0,""viewing_time"":2436.1049998551607}]","","","","","","","","",""
"null","","image-keyboard-response","220","268806","0.0-6.0-0.0","","img/yellow.png","null","trial","null","true","0.2,0.8","2:nogo_b","",""
"null","","html-keyboard-response","221","269808","0.0-6.0-1.0","","<img src=""img/yellow-r.png"">","null","trial","null","","0.2,0.8","2:nogo_b","1",""
"null","","html-keyboard-response","222","270809","0.0-6.0-2.0","","<div style=""font-size:60px;"">+</div>","null","","","","","","",""
"null","","image-keyboard-response","223","272310","0.0-6.0-0.1","","img/purple.png","null","trial","null","true","0.2,0.8","4:nogo_d","",""
"null","","html-keyboard-response","224","273312","0.0-6.0-1.1","","<img src=""img/purple-r.png"">","null","trial","null","","0.2,0.8","4:nogo_d","1",""
"null","","html-keyboard-response","225","274313","0.0-6.0-2.1","","<div style=""font-size:60px;"">+</div>","null","","","","","","",""
"1186.435000039637","","image-keyboard-response","226","275500","0.0-6.0-0.2","","img/grey.png","32","trial","32","true","0.8,0.2","3:go_c","",""
"null","","html-keyboard-response","227","276502","0.0-6.0-1.2","","<img src=""img/grey-r.png"" border=""10"">","null","trial","32","","0.8,0.2","3:go_c","1",""
"null","","html-keyboard-response","228","277503","0.0-6.0-2.2","","<div style=""font-size:60px;"">+</div>","null","","","","","","",""
"null","","image-keyboard-response","229","279004","0.0-6.0-0.3","","img/red.png","null","trial","32","false","0.8,0.2","1:go_a","",""
"null","","html-keyboard-response","230","280006","0.0-6.0-1.3","","<img src=""img/red-n.png"">","null","trial","32","","0.8,0.2","1:go_a","0",""
"null","","html-keyboard-response","231","281008","0.0-6.0-2.3","","<div style=""font-size:60px;"">+</div>","null","","","","","","",""
"null","","image-keyboard-response","232","282509","0.0-6.0-0.4","","img/yellow.png","null","trial","null","true","0.2,0.8","2:nogo_b","",""
"null","","html-keyboard-response","233","283511","0.0-6.0-1.4","","<img src=""img/yellow-r.png"">","null","trial","null","","0.2,0.8","2:nogo_b","1",""
"null","","html-keyboard-response","234","284512","0.0-6.0-2.4","","<div style=""font-size:60px;"">+</div>","null","","","","","","",""
"520.1749999541789","","image-keyboard-response","235","285033","0.0-6.0-0.5","","img/red.png","32","trial","32","true","0.8,0.2","1:go_a","",""
"null","","html-keyboard-response","236","286035","0.0-6.0-1.5","","<img src=""img/red-r.png"" border=""10"">","null","trial","32","","0.8,0.2","1:go_a","1",""
"null","","html-keyboard-response","237","287036","0.0-6.0-2.5","","<div style=""font-size:60px;"">+</div>","null","","","","","","",""
"null","","image-keyboard-response","238","288537","0.0-6.0-0.6","","img/grey.png","null","trial","32","false","0.8,0.2","3:go_c","",""
"null","","html-keyboard-response","239","289539","0.0-6.0-1.6","","<img src=""img/grey-r.png"">","null","trial","32","","0.8,0.2","3:go_c","1",""
"null","","html-keyboard-response","240","290540","0.0-6.0-2.6","","<div style=""font-size:60px;"">+</div>","null","","","","","","",""
"461.09999995678663","","image-keyboard-response","241","291002","0.0-6.0-0.7","","img/purple.png","32","trial","null","false","0.2,0.8","4:nogo_d","",""
"null","","html-keyboard-response","242","292004","0.0-6.0-1.7","","<img src=""img/purple-n.png"" border=""10"">","null","trial","null","","0.2,0.8","4:nogo_d","0",""
"null","","html-keyboard-response","243","293005","0.0-6.0-2.7","","<div style=""font-size:60px;"">+</div>","null","","","","","","",""
"null","","image-keyboard-response","244","294506","0.0-6.0-0.8","","img/yellow.png","null","trial","null","true","0.2,0.8","2:nogo_b","",""
"null","","html-keyboard-response","245","295508","0.0-6.0-1.8","","<img src=""img/yellow-r.png"">","null","trial","null","","0.2,0.8","2:nogo_b","1",""
"null","","html-keyboard-response","246","296609","0.0-6.0-2.8","","<div style=""font-size:60px;"">+</div>","null","","","","","","",""
"759.4399999361485","","image-keyboard-response","247","297370","0.0-6.0-0.9","","img/red.png","32","trial","32","true","0.8,0.2","1:go_a","",""
"null","","html-keyboard-response","248","298371","0.0-6.0-1.9","","<img src=""img/red-r.png"" border=""10"">","null","trial","32","","0.8,0.2","1:go_a","1",""
"null","","html-keyboard-response","249","299372","0.0-6.0-2.9","","<div style=""font-size:60px;"">+</div>","null","","","","","","",""
"null","","image-keyboard-response","250","300874","0.0-6.0-0.10","","img/purple.png","null","trial","null","true","0.2,0.8","4:nogo_d","",""
"null","","html-keyboard-response","251","301876","0.0-6.0-1.10","","<img src=""img/purple-r.png"">","null","trial","null","","0.2,0.8","4:nogo_d","1",""
"null","","html-keyboard-response","252","302877","0.0-6.0-2.10","","<div style=""font-size:60px;"">+</div>","null","","","","","","",""
"661.6950000170618","","image-keyboard-response","253","303540","0.0-6.0-0.11","","img/grey.png","32","trial","32","true","0.8,0.2","3:go_c","",""
"null","","html-keyboard-response","254","304541","0.0-6.0-1.11","","<img src=""img/grey-r.png"" border=""10"">","null","trial","32","","0.8,0.2","3:go_c","1",""
"null","","html-keyboard-response","255","305542","0.0-6.0-2.11","","<div style=""font-size:60px;"">+</div>","null","","","","","","",""
"1064.4000000320375","","image-keyboard-response","256","306607","0.0-6.0-0.12","","img/purple.png","32","trial","null","false","0.2,0.8","4:nogo_d","",""
"null","","html-keyboard-response","257","307609","0.0-6.0-1.12","","<img src=""img/purple-n.png"" border=""10"">","null","trial","null","","0.2,0.8","4:nogo_d","0",""
"null","","html-keyboard-response","258","308614","0.0-6.0-2.12","","<div style=""font-size:60px;"">+</div>","null","","","","","","",""
"null","","image-keyboard-response","259","310115","0.0-6.0-0.13","","img/yellow.png","null","trial","null","true","0.2,0.8","2:nogo_b","",""
"null","","html-keyboard-response","260","311117","0.0-6.0-1.13","","<img src=""img/yellow-r.png"">","null","trial","null","","0.2,0.8","2:nogo_b","1",""
"null","","html-keyboard-response","261","312118","0.0-6.0-2.13","","<div style=""font-size:60px;"">+</div>","null","","","","","","",""
"465.0999999139458","","image-keyboard-response","262","312585","0.0-6.0-0.14","","img/red.png","32","trial","32","true","0.8,0.2","1:go_a","",""
"null","","html-keyboard-response","263","313587","0.0-6.0-1.14","","<img src=""img/red-r.png"" border=""10"">","null","trial","32","","0.8,0.2","1:go_a","1",""
"null","","html-keyboard-response","264","314588","0.0-6.0-2.14","","<div style=""font-size:60px;"">+</div>","null","","","","","","",""
"null","","image-keyboard-response","265","316089","0.0-6.0-0.15","","img/grey.png","null","trial","32","false","0.8,0.2","3:go_c","",""
"null","","html-keyboard-response","266","317091","0.0-6.0-1.15","","<img src=""img/grey-r.png"">","null","trial","32","","0.8,0.2","3:go_c","1",""
"null","","html-keyboard-response","267","318092","0.0-6.0-2.15","","<div style=""font-size:60px;"">+</div>","null","","","","","","",""
"null","","image-keyboard-response","268","319593","0.0-6.0-0.16","","img/grey.png","null","trial","32","false","0.8,0.2","3:go_c","",""
"null","","html-keyboard-response","269","320599","0.0-6.0-1.16","","<img src=""img/grey-n.png"">","null","trial","32","","0.8,0.2","3:go_c","0",""
"null","","html-keyboard-response","270","321600","0.0-6.0-2.16","","<div style=""font-size:60px;"">+</div>","null","","","","","","",""
"972.0449999440461","","image-keyboard-response","271","322573","0.0-6.0-0.17","","img/red.png","32","trial","32","true","0.8,0.2","1:go_a","",""
"null","","html-keyboard-response","272","323575","0.0-6.0-1.17","","<img src=""img/red-r.png"" border=""10"">","null","trial","32","","0.8,0.2","1:go_a","1",""
"null","","html-keyboard-response","273","324576","0.0-6.0-2.17","","<div style=""font-size:60px;"">+</div>","null","","","","","","",""
"null","","image-keyboard-response","274","326078","0.0-6.0-0.18","","img/yellow.png","null","trial","null","true","0.2,0.8","2:nogo_b","",""
"null","","html-keyboard-response","275","327080","0.0-6.0-1.18","","<img src=""img/yellow-r.png"">","null","trial","null","","0.2,0.8","2:nogo_b","1",""
"null","","html-keyboard-response","276","328081","0.0-6.0-2.18","","<div style=""font-size:60px;"">+</div>","null","","","","","","",""
"1282.3099999222904","","image-keyboard-response","277","329364","0.0-6.0-0.19","","img/purple.png","32","trial","null","false","0.2,0.8","4:nogo_d","",""
"null","","html-keyboard-response","278","330366","0.0-6.0-1.19","","<img src=""img/purple-n.png"" border=""10"">","null","trial","null","","0.2,0.8","4:nogo_d","0",""
"null","","html-keyboard-response","279","331367","0.0-6.0-2.19","","<div style=""font-size:60px;"">+</div>","null","","","","","","",""
"null","","image-keyboard-response","280","332868","0.0-6.0-0.20","","img/grey.png","null","trial","32","false","0.8,0.2","3:go_c","",""
"null","","html-keyboard-response","281","333870","0.0-6.0-1.20","","<img src=""img/grey-r.png"">","null","trial","32","","0.8,0.2","3:go_c","1",""
"null","","html-keyboard-response","282","334871","0.0-6.0-2.20","","<div style=""font-size:60px;"">+</div>","null","","","","","","",""
"750.2699999604374","","image-keyboard-response","283","335622","0.0-6.0-0.21","","img/red.png","32","trial","32","true","0.8,0.2","1:go_a","",""
"null","","html-keyboard-response","284","336624","0.0-6.0-1.21","","<img src=""img/red-r.png"" border=""10"">","null","trial","32","","0.8,0.2","1:go_a","1",""
"null","","html-keyboard-response","285","337625","0.0-6.0-2.21","","<div style=""font-size:60px;"">+</div>","null","","","","","","",""
"null","","image-keyboard-response","286","339126","0.0-6.0-0.22","","img/yellow.png","null","trial","null","true","0.2,0.8","2:nogo_b","",""
"null","","html-keyboard-response","287","340128","0.0-6.0-1.22","","<img src=""img/yellow-n.png"">","null","trial","null","","0.2,0.8","2:nogo_b","0",""
"null","","html-keyboard-response","288","341129","0.0-6.0-2.22","","<div style=""font-size:60px;"">+</div>","null","","","","","","",""
"null","","image-keyboard-response","289","342630","0.0-6.0-0.23","","img/purple.png","null","trial","null","true","0.2,0.8","4:nogo_d","",""
"null","","html-keyboard-response","290","343632","0.0-6.0-1.23","","<img src=""img/purple-r.png"">","null","trial","null","","0.2,0.8","4:nogo_d","1",""
"null","","html-keyboard-response","291","344633","0.0-6.0-2.23","","<div style=""font-size:60px;"">+</div>","null","","","","","","",""
"591.6150000412017","","image-keyboard-response","292","345225","0.0-6.0-0.24","","img/yellow.png","32","trial","null","false","0.2,0.8","2:nogo_b","",""
"null","","html-keyboard-response","293","346227","0.0-6.0-1.24","","<img src=""img/yellow-n.png"" border=""10"">","null","trial","null","","0.2,0.8","2:nogo_b","0",""
"null","","html-keyboard-response","294","347228","0.0-6.0-2.24","","<div style=""font-size:60px;"">+</div>","null","","","","","","",""
"null","","image-keyboard-response","295","348729","0.0-6.0-0.25","","img/purple.png","null","trial","null","true","0.2,0.8","4:nogo_d","",""
"null","","html-keyboard-response","296","349731","0.0-6.0-1.25","","<img src=""img/purple-r.png"">","null","trial","null","","0.2,0.8","4:nogo_d","1",""
"null","","html-keyboard-response","297","350776","0.0-6.0-2.25","","<div style=""font-size:60px;"">+</div>","null","","","","","","",""
"657.3350001126528","","image-keyboard-response","298","351434","0.0-6.0-0.26","","img/grey.png","32","trial","32","true","0.8,0.2","3:go_c","",""
"null","","html-keyboard-response","299","352436","0.0-6.0-1.26","","<img src=""img/grey-r.png"" border=""10"">","null","trial","32","","0.8,0.2","3:go_c","1",""
"null","","html-keyboard-response","300","353437","0.0-6.0-2.26","","<div style=""font-size:60px;"">+</div>","null","","","","","","",""
"null","","image-keyboard-response","301","354938","0.0-6.0-0.27","","img/red.png","null","trial","32","false","0.8,0.2","1:go_a","",""
"null","","html-keyboard-response","302","355941","0.0-6.0-1.27","","<img src=""img/red-n.png"">","null","trial","32","","0.8,0.2","1:go_a","0",""
"null","","html-keyboard-response","303","356942","0.0-6.0-2.27","","<div style=""font-size:60px;"">+</div>","null","","","","","","",""
"null","","image-keyboard-response","304","358443","0.0-6.0-0.28","","img/purple.png","null","trial","null","true","0.2,0.8","4:nogo_d","",""
"null","","html-keyboard-response","305","359445","0.0-6.0-1.28","","<img src=""img/purple-r.png"">","null","trial","null","","0.2,0.8","4:nogo_d","1",""
"null","","html-keyboard-response","306","360446","0.0-6.0-2.28","","<div style=""font-size:60px;"">+</div>","null","","","","","","",""
"735.8099999837577","","image-keyboard-response","307","361183","0.0-6.0-0.29","","img/grey.png","32","trial","32","true","0.8,0.2","3:go_c","",""
"null","","html-keyboard-response","308","362185","0.0-6.0-1.29","","<img src=""img/grey-r.png"" border=""10"">","null","trial","32","","0.8,0.2","3:go_c","1",""
"null","","html-keyboard-response","309","363186","0.0-6.0-2.29","","<div style=""font-size:60px;"">+</div>","null","","","","","","",""
"null","","image-keyboard-response","310","364688","0.0-6.0-0.30","","img/yellow.png","null","trial","null","true","0.2,0.8","2:nogo_b","",""
"null","","html-keyboard-response","311","365690","0.0-6.0-1.30","","<img src=""img/yellow-n.png"">","null","trial","null","","0.2,0.8","2:nogo_b","0",""
"null","","html-keyboard-response","312","366691","0.0-6.0-2.30","","<div style=""font-size:60px;"">+</div>","null","","","","","","",""
"null","","image-keyboard-response","313","368192","0.0-6.0-0.31","","img/red.png","null","trial","32","false","0.8,0.2","1:go_a","",""
"null","","html-keyboard-response","314","369195","0.0-6.0-1.31","","<img src=""img/red-n.png"">","null","trial","32","","0.8,0.2","1:go_a","0",""
"null","","html-keyboard-response","315","370195","0.0-6.0-2.31","","<div style=""font-size:60px;"">+</div>","null","","","","","","",""
"null","","image-keyboard-response","316","371696","0.0-6.0-0.32","","img/grey.png","null","trial","32","false","0.8,0.2","3:go_c","",""
"null","","html-keyboard-response","317","372698","0.0-6.0-1.32","","<img src=""img/grey-n.png"">","null","trial","32","","0.8,0.2","3:go_c","0",""
"null","","html-keyboard-response","318","373700","0.0-6.0-2.32","","<div style=""font-size:60px;"">+</div>","null","","","","","","",""
"null","","image-keyboard-response","319","375200","0.0-6.0-0.33","","img/red.png","null","trial","32","false","0.8,0.2","1:go_a","",""
"null","","html-keyboard-response","320","376202","0.0-6.0-1.33","","<img src=""img/red-r.png"">","null","trial","32","","0.8,0.2","1:go_a","1",""
"null","","html-keyboard-response","321","377204","0.0-6.0-2.33","","<div style=""font-size:60px;"">+</div>","null","","","","","","",""
"798.1749998871237","","image-keyboard-response","322","378003","0.0-6.0-0.34","","img/purple.png","32","trial","null","false","0.2,0.8","4:nogo_d","",""
"null","","html-keyboard-response","323","379005","0.0-6.0-1.34","","<img src=""img/purple-n.png"" border=""10"">","null","trial","null","","0.2,0.8","4:nogo_d","0",""
"null","","html-keyboard-response","324","380006","0.0-6.0-2.34","","<div style=""font-size:60px;"">+</div>","null","","","","","","",""
"424.8950001783669","","image-keyboard-response","325","380431","0.0-6.0-0.35","","img/yellow.png","32","trial","null","false","0.2,0.8","2:nogo_b","",""
"null","","html-keyboard-response","326","381433","0.0-6.0-1.35","","<img src=""img/yellow-n.png"" border=""10"">","null","trial","null","","0.2,0.8","2:nogo_b","0",""
"null","","html-keyboard-response","327","382434","0.0-6.0-2.35","","<div style=""font-size:60px;"">+</div>","null","","","","","","",""
"null","","image-keyboard-response","328","383935","0.0-6.0-0.36","","img/red.png","null","trial","32","false","0.8,0.2","1:go_a","",""
"null","","html-keyboard-response","329","384937","0.0-6.0-1.36","","<img src=""img/red-n.png"">","null","trial","32","","0.8,0.2","1:go_a","0",""
"null","","html-keyboard-response","330","385938","0.0-6.0-2.36","","<div style=""font-size:60px;"">+</div>","null","","","","","","",""
"null","","image-keyboard-response","331","387439","0.0-6.0-0.37","","img/purple.png","null","trial","null","true","0.2,0.8","4:nogo_d","",""
"null","","html-keyboard-response","332","388441","0.0-6.0-1.37","","<img src=""img/purple-n.png"">","null","trial","null","","0.2,0.8","4:nogo_d","0",""
"null","","html-keyboard-response","333","389442","0.0-6.0-2.37","","<div style=""font-size:60px;"">+</div>","null","","","","","","",""
"null","","image-keyboard-response","334","390943","0.0-6.0-0.38","","img/grey.png","null","trial","32","false","0.8,0.2","3:go_c","",""
"null","","html-keyboard-response","335","391945","0.0-6.0-1.38","","<img src=""img/grey-n.png"">","null","trial","32","","0.8,0.2","3:go_c","0",""
"null","","html-keyboard-response","336","392946","0.0-6.0-2.38","","<div style=""font-size:60px;"">+</div>","null","","","","","","",""
"null","","image-keyboard-response","337","394447","0.0-6.0-0.39","","img/yellow.png","null","trial","null","true","0.2,0.8","2:nogo_b","",""
"null","","html-keyboard-response","338","395449","0.0-6.0-1.39","","<img src=""img/yellow-r.png"">","null","trial","null","","0.2,0.8","2:nogo_b","1",""
"null","","html-keyboard-response","339","396450","0.0-6.0-2.39","","<div style=""font-size:60px;"">+</div>","null","","","","","","",""
"855.9799999929965","","image-keyboard-response","340","397308","0.0-6.0-0.40","","img/grey.png","32","trial","32","true","0.8,0.2","3:go_c","",""
"null","","html-keyboard-response","341","398310","0.0-6.0-1.40","","<img src=""img/grey-r.png"" border=""10"">","null","trial","32","","0.8,0.2","3:go_c","1",""
"null","","html-keyboard-response","342","399311","0.0-6.0-2.40","","<div style=""font-size:60px;"">+</div>","null","","","","","","",""
"null","","image-keyboard-response","343","400812","0.0-6.0-0.41","","img/purple.png","null","trial","null","true","0.2,0.8","4:nogo_d","",""
"null","","html-keyboard-response","344","401814","0.0-6.0-1.41","","<img src=""img/purple-r.png"">","null","trial","null","","0.2,0.8","4:nogo_d","1",""
"null","","html-keyboard-response","345","402815","0.0-6.0-2.41","","<div style=""font-size:60px;"">+</div>","null","","","","","","",""
"628.569999942556","","image-keyboard-response","346","403444","0.0-6.0-0.42","","img/red.png","32","trial","32","true","0.8,0.2","1:go_a","",""
"null","","html-keyboard-response","347","404446","0.0-6.0-1.42","","<img src=""img/red-r.png"" border=""10"">","null","trial","32","","0.8,0.2","1:go_a","1",""
"null","","html-keyboard-response","348","405447","0.0-6.0-2.42","","<div style=""font-size:60px;"">+</div>","null","","","","","","",""
"null","","image-keyboard-response","349","406948","0.0-6.0-0.43","","img/yellow.png","null","trial","null","true","0.2,0.8","2:nogo_b","",""
"null","","html-keyboard-response","350","407950","0.0-6.0-1.43","","<img src=""img/yellow-r.png"">","null","trial","null","","0.2,0.8","2:nogo_b","1",""
"null","","html-keyboard-response","351","408951","0.0-6.0-2.43","","<div style=""font-size:60px;"">+</div>","null","","","","","","",""
"733.134999871254","","image-keyboard-response","352","409685","0.0-6.0-0.44","","img/purple.png","32","trial","null","false","0.2,0.8","4:nogo_d","",""
"null","","html-keyboard-response","353","410687","0.0-6.0-1.44","","<img src=""img/purple-n.png"" border=""10"">","null","trial","null","","0.2,0.8","4:nogo_d","0",""
"null","","html-keyboard-response","354","411688","0.0-6.0-2.44","","<div style=""font-size:60px;"">+</div>","null","","","","","","",""
"null","","image-keyboard-response","355","413189","0.0-6.0-0.45","","img/red.png","null","trial","32","false","0.8,0.2","1:go_a","",""
"null","","html-keyboard-response","356","414192","0.0-6.0-1.45","","<img src=""img/red-n.png"">","null","trial","32","","0.8,0.2","1:go_a","0",""
"null","","html-keyboard-response","357","415193","0.0-6.0-2.45","","<div style=""font-size:60px;"">+</div>","null","","","","","","",""
"null","","image-keyboard-response","358","416694","0.0-6.0-0.46","","img/yellow.png","null","trial","null","true","0.2,0.8","2:nogo_b","",""
"null","","html-keyboard-response","359","417696","0.0-6.0-1.46","","<img src=""img/yellow-r.png"">","null","trial","null","","0.2,0.8","2:nogo_b","1",""
"null","","html-keyboard-response","360","418697","0.0-6.0-2.46","","<div style=""font-size:60px;"">+</div>","null","","","","","","",""
"750.5950001068413","","image-keyboard-response","361","419449","0.0-6.0-0.47","","img/grey.png","32","trial","32","true","0.8,0.2","3:go_c","",""
"null","","html-keyboard-response","362","420451","0.0-6.0-1.47","","<img src=""img/grey-r.png"" border=""10"">","null","trial","32","","0.8,0.2","3:go_c","1",""
"null","","html-keyboard-response","363","421453","0.0-6.0-2.47","","<div style=""font-size:60px;"">+</div>","null","","","","","","",""
"1089.054999873042","","image-keyboard-response","364","422543","0.0-6.0-0.48","","img/grey.png","32","trial","32","true","0.8,0.2","3:go_c","",""
"null","","html-keyboard-response","365","423545","0.0-6.0-1.48","","<img src=""img/grey-r.png"" border=""10"">","null","trial","32","","0.8,0.2","3:go_c","1",""
"null","","html-keyboard-response","366","424546","0.0-6.0-2.48","","<div style=""font-size:60px;"">+</div>","null","","","","","","",""
"null","","image-keyboard-response","367","426047","0.0-6.0-0.49","","img/yellow.png","null","trial","null","true","0.2,0.8","2:nogo_b","",""
"null","","html-keyboard-response","368","427049","0.0-6.0-1.49","","<img src=""img/yellow-r.png"">","null","trial","null","","0.2,0.8","2:nogo_b","1",""
"null","","html-keyboard-response","369","428050","0.0-6.0-2.49","","<div style=""font-size:60px;"">+</div>","null","","","","","","",""
"null","","image-keyboard-response","370","429551","0.0-6.0-0.50","","img/purple.png","null","trial","null","true","0.2,0.8","4:nogo_d","",""
"null","","html-keyboard-response","371","430553","0.0-6.0-1.50","","<img src=""img/purple-r.png"">","null","trial","null","","0.2,0.8","4:nogo_d","1",""
"null","","html-keyboard-response","372","431555","0.0-6.0-2.50","","<div style=""font-size:60px;"">+</div>","null","","","","","","",""
"775.4150000400841","","image-keyboard-response","373","432331","0.0-6.0-0.51","","img/red.png","32","trial","32","true","0.8,0.2","1:go_a","",""
"null","","html-keyboard-response","374","433333","0.0-6.0-1.51","","<img src=""img/red-r.png"" border=""10"">","null","trial","32","","0.8,0.2","1:go_a","1",""
"null","","html-keyboard-response","375","434334","0.0-6.0-2.51","","<div style=""font-size:60px;"">+</div>","null","","","","","","",""
"985.1899999193847","","image-keyboard-response","376","435320","0.0-6.0-0.52","","img/grey.png","32","trial","32","true","0.8,0.2","3:go_c","",""
"null","","html-keyboard-response","377","436322","0.0-6.0-1.52","","<img src=""img/grey-r.png"" border=""10"">","null","trial","32","","0.8,0.2","3:go_c","1",""
"null","","html-keyboard-response","378","437323","0.0-6.0-2.52","","<div style=""font-size:60px;"">+</div>","null","","","","","","",""
"1152.01500011608","","image-keyboard-response","379","438476","0.0-6.0-0.53","","img/red.png","32","trial","32","true","0.8,0.2","1:go_a","",""
"null","","html-keyboard-response","380","439478","0.0-6.0-1.53","","<img src=""img/red-r.png"" border=""10"">","null","trial","32","","0.8,0.2","1:go_a","1",""
"null","","html-keyboard-response","381","440479","0.0-6.0-2.53","","<div style=""font-size:60px;"">+</div>","null","","","","","","",""
"null","","image-keyboard-response","382","441980","0.0-6.0-0.54","","img/purple.png","null","trial","null","true","0.2,0.8","4:nogo_d","",""
"null","","html-keyboard-response","383","442982","0.0-6.0-1.54","","<img src=""img/purple-r.png"">","null","trial","null","","0.2,0.8","4:nogo_d","1",""
"null","","html-keyboard-response","384","443983","0.0-6.0-2.54","","<div style=""font-size:60px;"">+</div>","null","","","","","","",""
"708.3000000566244","","image-keyboard-response","385","444692","0.0-6.0-0.55","","img/yellow.png","32","trial","null","false","0.2,0.8","2:nogo_b","",""
"null","","html-keyboard-response","386","445694","0.0-6.0-1.55","","<img src=""img/yellow-r.png"" border=""10"">","null","trial","null","","0.2,0.8","2:nogo_b","1",""
"null","","html-keyboard-response","387","446695","0.0-6.0-2.55","","<div style=""font-size:60px;"">+</div>","null","","","","","","",""
"null","","image-keyboard-response","388","448197","0.0-6.0-0.56","","img/purple.png","null","trial","null","true","0.2,0.8","4:nogo_d","",""
"null","","html-keyboard-response","389","449199","0.0-6.0-1.56","","<img src=""img/purple-n.png"">","null","trial","null","","0.2,0.8","4:nogo_d","0",""
"null","","html-keyboard-response","390","450200","0.0-6.0-2.56","","<div style=""font-size:60px;"">+</div>","null","","","","","","",""
"null","","image-keyboard-response","391","451701","0.0-6.0-0.57","","img/yellow.png","null","trial","null","true","0.2,0.8","2:nogo_b","",""
"null","","html-keyboard-response","392","452704","0.0-6.0-1.57","","<img src=""img/yellow-n.png"">","null","trial","null","","0.2,0.8","2:nogo_b","0",""
"null","","html-keyboard-response","393","453705","0.0-6.0-2.57","","<div style=""font-size:60px;"">+</div>","null","","","","","","",""
"null","","image-keyboard-response","394","455207","0.0-6.0-0.58","","img/grey.png","null","trial","32","false","0.8,0.2","3:go_c","",""
"null","","html-keyboard-response","395","456209","0.0-6.0-1.58","","<img src=""img/grey-n.png"">","null","trial","32","","0.8,0.2","3:go_c","0",""
"null","","html-keyboard-response","396","457210","0.0-6.0-2.58","","<div style=""font-size:60px;"">+</div>","null","","","","","","",""
"null","","image-keyboard-response","397","458711","0.0-6.0-0.59","","img/red.png","null","trial","32","false","0.8,0.2","1:go_a","",""
"null","","html-keyboard-response","398","459713","0.0-6.0-1.59","","<img src=""img/red-n.png"">","null","trial","32","","0.8,0.2","1:go_a","0",""
"null","","html-keyboard-response","399","460714","0.0-6.0-2.59","","<div style=""font-size:60px;"">+</div>","null","","","","","","",""
"null","","image-keyboard-response","400","462216","0.0-6.0-0.60","","img/grey.png","null","trial","32","false","0.8,0.2","3:go_c","",""
"null","","html-keyboard-response","401","463218","0.0-6.0-1.60","","<img src=""img/grey-n.png"">","null","trial","32","","0.8,0.2","3:go_c","0",""
"null","","html-keyboard-response","402","464219","0.0-6.0-2.60","","<div style=""font-size:60px;"">+</div>","null","","","","","","",""
"null","","image-keyboard-response","403","465720","0.0-6.0-0.61","","img/red.png","null","trial","32","false","0.8,0.2","1:go_a","",""
"null","","html-keyboard-response","404","466722","0.0-6.0-1.61","","<img src=""img/red-n.png"">","null","trial","32","","0.8,0.2","1:go_a","0",""
"null","","html-keyboard-response","405","467723","0.0-6.0-2.61","","<div style=""font-size:60px;"">+</div>","null","","","","","","",""
"null","","image-keyboard-response","406","469225","0.0-6.0-0.62","","img/purple.png","null","trial","null","true","0.2,0.8","4:nogo_d","",""
"null","","html-keyboard-response","407","470227","0.0-6.0-1.62","","<img src=""img/purple-r.png"">","null","trial","null","","0.2,0.8","4:nogo_d","1",""
"null","","html-keyboard-response","408","471228","0.0-6.0-2.62","","<div style=""font-size:60px;"">+</div>","null","","","","","","",""
"607.1399999782443","","image-keyboard-response","409","471836","0.0-6.0-0.63","","img/yellow.png","32","trial","null","false","0.2,0.8","2:nogo_b","",""
"null","","html-keyboard-response","410","472838","0.0-6.0-1.63","","<img src=""img/yellow-n.png"" border=""10"">","null","trial","null","","0.2,0.8","2:nogo_b","0",""
"null","","html-keyboard-response","411","473839","0.0-6.0-2.63","","<div style=""font-size:60px;"">+</div>","null","","","","","","",""
"696.2850000709295","","image-keyboard-response","412","474537","0.0-6.0-0.64","","img/grey.png","32","trial","32","true","0.8,0.2","3:go_c","",""
"null","","html-keyboard-response","413","475538","0.0-6.0-1.64","","<img src=""img/grey-r.png"" border=""10"">","null","trial","32","","0.8,0.2","3:go_c","1",""
"null","","html-keyboard-response","414","476540","0.0-6.0-2.64","","<div style=""font-size:60px;"">+</div>","null","","","","","","",""
"null","","image-keyboard-response","415","478041","0.0-6.0-0.65","","img/red.png","null","trial","32","false","0.8,0.2","1:go_a","",""
"null","","html-keyboard-response","416","479043","0.0-6.0-1.65","","<img src=""img/red-n.png"">","null","trial","32","","0.8,0.2","1:go_a","0",""
"null","","html-keyboard-response","417","480044","0.0-6.0-2.65","","<div style=""font-size:60px;"">+</div>","null","","","","","","",""
"null","","image-keyboard-response","418","481545","0.0-6.0-0.66","","img/yellow.png","null","trial","null","true","0.2,0.8","2:nogo_b","",""
"null","","html-keyboard-response","419","482548","0.0-6.0-1.66","","<img src=""img/yellow-r.png"">","null","trial","null","","0.2,0.8","2:nogo_b","1",""
"null","","html-keyboard-response","420","483549","0.0-6.0-2.66","","<div style=""font-size:60px;"">+</div>","null","","","","","","",""
"848.5149999614805","","image-keyboard-response","421","484398","0.0-6.0-0.67","","img/purple.png","32","trial","null","false","0.2,0.8","4:nogo_d","",""
"null","","html-keyboard-response","422","485400","0.0-6.0-1.67","","<img src=""img/purple-r.png"" border=""10"">","null","trial","null","","0.2,0.8","4:nogo_d","1",""
"null","","html-keyboard-response","423","486401","0.0-6.0-2.67","","<div style=""font-size:60px;"">+</div>","null","","","","","","",""
"752.600000007078","","image-keyboard-response","424","487154","0.0-6.0-0.68","","img/purple.png","32","trial","null","false","0.2,0.8","4:nogo_d","",""
"null","","html-keyboard-response","425","488156","0.0-6.0-1.68","","<img src=""img/purple-n.png"" border=""10"">","null","trial","null","","0.2,0.8","4:nogo_d","0",""
"null","","html-keyboard-response","426","489158","0.0-6.0-2.68","","<div style=""font-size:60px;"">+</div>","null","","","","","","",""
"927.8650002088398","","image-keyboard-response","427","490087","0.0-6.0-0.69","","img/grey.png","32","trial","32","true","0.8,0.2","3:go_c","",""
"null","","html-keyboard-response","428","491089","0.0-6.0-1.69","","<img src=""img/grey-r.png"" border=""10"">","null","trial","32","","0.8,0.2","3:go_c","1",""
"null","","html-keyboard-response","429","492090","0.0-6.0-2.69","","<div style=""font-size:60px;"">+</div>","null","","","","","","",""
"null","","image-keyboard-response","430","493591","0.0-6.0-0.70","","img/yellow.png","null","trial","null","true","0.2,0.8","2:nogo_b","",""
"null","","html-keyboard-response","431","494593","0.0-6.0-1.70","","<img src=""img/yellow-r.png"">","null","trial","null","","0.2,0.8","2:nogo_b","1",""
"null","","html-keyboard-response","432","495594","0.0-6.0-2.70","","<div style=""font-size:60px;"">+</div>","null","","","","","","",""
"732.5199998449534","","image-keyboard-response","433","496328","0.0-6.0-0.71","","img/red.png","32","trial","32","true","0.8,0.2","1:go_a","",""
"null","","html-keyboard-response","434","497329","0.0-6.0-1.71","","<img src=""img/red-n.png"" border=""10"">","null","trial","32","","0.8,0.2","1:go_a","0",""
"null","","html-keyboard-response","435","498330","0.0-6.0-2.71","","<div style=""font-size:60px;"">+</div>","null","","","","","","",""
"480.9999999124557","","image-keyboard-response","436","498812","0.0-6.0-0.72","","img/grey.png","32","trial","32","true","0.8,0.2","3:go_c","",""
"null","","html-keyboard-response","437","499815","0.0-6.0-1.72","","<img src=""img/grey-r.png"" border=""10"">","null","trial","32","","0.8,0.2","3:go_c","1",""
"null","","html-keyboard-response","438","500816","0.0-6.0-2.72","","<div style=""font-size:60px;"">+</div>","null","","","","","","",""
"null","","image-keyboard-response","439","502317","0.0-6.0-0.73","","img/purple.png","null","trial","null","true","0.2,0.8","4:nogo_d","",""
"null","","html-keyboard-response","440","503320","0.0-6.0-1.73","","<img src=""img/purple-n.png"">","null","trial","null","","0.2,0.8","4:nogo_d","0",""
"null","","html-keyboard-response","441","504321","0.0-6.0-2.73","","<div style=""font-size:60px;"">+</div>","null","","","","","","",""
"null","","image-keyboard-response","442","505822","0.0-6.0-0.74","","img/red.png","null","trial","32","false","0.8,0.2","1:go_a","",""
"null","","html-keyboard-response","443","506824","0.0-6.0-1.74","","<img src=""img/red-r.png"">","null","trial","32","","0.8,0.2","1:go_a","1",""
"null","","html-keyboard-response","444","507825","0.0-6.0-2.74","","<div style=""font-size:60px;"">+</div>","null","","","","","","",""
"767.3249999061227","","image-keyboard-response","445","508593","0.0-6.0-0.75","","img/yellow.png","32","trial","null","false","0.2,0.8","2:nogo_b","",""
"null","","html-keyboard-response","446","509595","0.0-6.0-1.75","","<img src=""img/yellow-n.png"" border=""10"">","null","trial","null","","0.2,0.8","2:nogo_b","0",""
"null","","html-keyboard-response","447","510596","0.0-6.0-2.75","","<div style=""font-size:60px;"">+</div>","null","","","","","","",""
"null","","image-keyboard-response","448","512097","0.0-6.0-0.76","","img/red.png","null","trial","32","false","0.8,0.2","1:go_a","",""
"null","","html-keyboard-response","449","513099","0.0-6.0-1.76","","<img src=""img/red-r.png"">","null","trial","32","","0.8,0.2","1:go_a","1",""
"null","","html-keyboard-response","450","514100","0.0-6.0-2.76","","<div style=""font-size:60px;"">+</div>","null","","","","","","",""
"684.4499998260289","","image-keyboard-response","451","514785","0.0-6.0-0.77","","img/purple.png","32","trial","null","false","0.2,0.8","4:nogo_d","",""
"null","","html-keyboard-response","452","515787","0.0-6.0-1.77","","<img src=""img/purple-n.png"" border=""10"">","null","trial","null","","0.2,0.8","4:nogo_d","0",""
"null","","html-keyboard-response","453","516788","0.0-6.0-2.77","","<div style=""font-size:60px;"">+</div>","null","","","","","","",""
"569.2550002131611","","image-keyboard-response","454","517358","0.0-6.0-0.78","","img/grey.png","32","trial","32","true","0.8,0.2","3:go_c","",""
"null","","html-keyboard-response","455","518360","0.0-6.0-1.78","","<img src=""img/grey-r.png"" border=""10"">","null","trial","32","","0.8,0.2","3:go_c","1",""
"null","","html-keyboard-response","456","519361","0.0-6.0-2.78","","<div style=""font-size:60px;"">+</div>","null","","","","","","",""
"null","","image-keyboard-response","457","520862","0.0-6.0-0.79","","img/yellow.png","null","trial","null","true","0.2,0.8","2:nogo_b","",""
"null","","html-keyboard-response","458","521865","0.0-6.0-1.79","","<img src=""img/yellow-r.png"">","null","trial","null","","0.2,0.8","2:nogo_b","1",""
"null","","html-keyboard-response","459","522865","0.0-6.0-2.79","","<div style=""font-size:60px;"">+</div>","null","","","","","","",""
"924.7200000099838","","image-keyboard-response","460","523791","0.0-6.0-0.80","","img/grey.png","32","trial","32","true","0.8,0.2","3:go_c","",""
"null","","html-keyboard-response","461","524792","0.0-6.0-1.80","","<img src=""img/grey-r.png"" border=""10"">","null","trial","32","","0.8,0.2","3:go_c","1",""
"null","","html-keyboard-response","462","525794","0.0-6.0-2.80","","<div style=""font-size:60px;"">+</div>","null","","","","","","",""
"null","","image-keyboard-response","463","527295","0.0-6.0-0.81","","img/yellow.png","null","trial","null","true","0.2,0.8","2:nogo_b","",""
"null","","html-keyboard-response","464","528297","0.0-6.0-1.81","","<img src=""img/yellow-r.png"">","null","trial","null","","0.2,0.8","2:nogo_b","1",""
"null","","html-keyboard-response","465","529298","0.0-6.0-2.81","","<div style=""font-size:60px;"">+</div>","null","","","","","","",""
"1219.844999955967","","image-keyboard-response","466","530519","0.0-6.0-0.82","","img/red.png","32","trial","32","true","0.8,0.2","1:go_a","",""
"null","","html-keyboard-response","467","531521","0.0-6.0-1.82","","<img src=""img/red-n.png"" border=""10"">","null","trial","32","","0.8,0.2","1:go_a","0",""
"null","","html-keyboard-response","468","532522","0.0-6.0-2.82","","<div style=""font-size:60px;"">+</div>","null","","","","","","",""
"1024.0500001236796","","image-keyboard-response","469","533547","0.0-6.0-0.83","","img/purple.png","32","trial","null","false","0.2,0.8","4:nogo_d","",""
"null","","html-keyboard-response","470","534549","0.0-6.0-1.83","","<img src=""img/purple-r.png"" border=""10"">","null","trial","null","","0.2,0.8","4:nogo_d","1",""
"null","","html-keyboard-response","471","535550","0.0-6.0-2.83","","<div style=""font-size:60px;"">+</div>","null","","","","","","",""
"null","","image-keyboard-response","472","537051","0.0-6.0-0.84","","img/red.png","null","trial","32","false","0.8,0.2","1:go_a","",""
"null","","html-keyboard-response","473","538053","0.0-6.0-1.84","","<img src=""img/red-n.png"">","null","trial","32","","0.8,0.2","1:go_a","0",""
"null","","html-keyboard-response","474","539054","0.0-6.0-2.84","","<div style=""font-size:60px;"">+</div>","null","","","","","","",""
"1084.2950001824647","","image-keyboard-response","475","540139","0.0-6.0-0.85","","img/purple.png","32","trial","null","false","0.2,0.8","4:nogo_d","",""
"null","","html-keyboard-response","476","541141","0.0-6.0-1.85","","<img src=""img/purple-n.png"" border=""10"">","null","trial","null","","0.2,0.8","4:nogo_d","0",""
"null","","html-keyboard-response","477","542143","0.0-6.0-2.85","","<div style=""font-size:60px;"">+</div>","null","","","","","","",""
"null","","image-keyboard-response","478","543644","0.0-6.0-0.86","","img/yellow.png","null","trial","null","true","0.2,0.8","2:nogo_b","",""
"null","","html-keyboard-response","479","544646","0.0-6.0-1.86","","<img src=""img/yellow-r.png"">","null","trial","null","","0.2,0.8","2:nogo_b","1",""
"null","","html-keyboard-response","480","545647","0.0-6.0-2.86","","<div style=""font-size:60px;"">+</div>","null","","","","","","",""
"null","","image-keyboard-response","481","547148","0.0-6.0-0.87","","img/grey.png","null","trial","32","false","0.8,0.2","3:go_c","",""
"null","","html-keyboard-response","482","548150","0.0-6.0-1.87","","<img src=""img/grey-n.png"">","null","trial","32","","0.8,0.2","3:go_c","0",""
"null","","html-keyboard-response","483","549151","0.0-6.0-2.87","","<div style=""font-size:60px;"">+</div>","null","","","","","","",""
"null","","image-keyboard-response","484","550652","0.0-6.0-0.88","","img/grey.png","null","trial","32","false","0.8,0.2","3:go_c","",""
"null","","html-keyboard-response","485","551654","0.0-6.0-1.88","","<img src=""img/grey-r.png"">","null","trial","32","","0.8,0.2","3:go_c","1",""
"null","","html-keyboard-response","486","552655","0.0-6.0-2.88","","<div style=""font-size:60px;"">+</div>","null","","","","","","",""
"null","","image-keyboard-response","487","554156","0.0-6.0-0.89","","img/red.png","null","trial","32","false","0.8,0.2","1:go_a","",""
"null","","html-keyboard-response","488","555158","0.0-6.0-1.89","","<img src=""img/red-n.png"">","null","trial","32","","0.8,0.2","1:go_a","0",""
"null","","html-keyboard-response","489","556159","0.0-6.0-2.89","","<div style=""font-size:60px;"">+</div>","null","","","","","","",""
"null","","image-keyboard-response","490","557660","0.0-6.0-0.90","","img/yellow.png","null","trial","null","true","0.2,0.8","2:nogo_b","",""
"null","","html-keyboard-response","491","558663","0.0-6.0-1.90","","<img src=""img/yellow-r.png"">","null","trial","null","","0.2,0.8","2:nogo_b","1",""
"null","","html-keyboard-response","492","559664","0.0-6.0-2.90","","<div style=""font-size:60px;"">+</div>","null","","","","","","",""
"650.6099998950958","","image-keyboard-response","493","560316","0.0-6.0-0.91","","img/purple.png","32","trial","null","false","0.2,0.8","4:nogo_d","",""
"null","","html-keyboard-response","494","561318","0.0-6.0-1.91","","<img src=""img/purple-n.png"" border=""10"">","null","trial","null","","0.2,0.8","4:nogo_d","0",""
"null","","html-keyboard-response","495","562319","0.0-6.0-2.91","","<div style=""font-size:60px;"">+</div>","null","","","","","","",""
"584.8000000696629","","image-keyboard-response","496","562904","0.0-6.0-0.92","","img/yellow.png","32","trial","null","false","0.2,0.8","2:nogo_b","",""
"null","","html-keyboard-response","497","563906","0.0-6.0-1.92","","<img src=""img/yellow-n.png"" border=""10"">","null","trial","null","","0.2,0.8","2:nogo_b","0",""
"null","","html-keyboard-response","498","564907","0.0-6.0-2.92","","<div style=""font-size:60px;"">+</div>","null","","","","","","",""
"609.4600001815706","","image-keyboard-response","499","565517","0.0-6.0-0.93","","img/grey.png","32","trial","32","true","0.8,0.2","3:go_c","",""
"null","","html-keyboard-response","500","566519","0.0-6.0-1.93","","<img src=""img/grey-n.png"" border=""10"">","null","trial","32","","0.8,0.2","3:go_c","0",""
"null","","html-keyboard-response","501","567520","0.0-6.0-2.93","","<div style=""font-size:60px;"">+</div>","null","","","","","","",""
"713.1599998101592","","image-keyboard-response","502","568234","0.0-6.0-0.94","","img/purple.png","32","trial","null","false","0.2,0.8","4:nogo_d","",""
"null","","html-keyboard-response","503","569236","0.0-6.0-1.94","","<img src=""img/purple-r.png"" border=""10"">","null","trial","null","","0.2,0.8","4:nogo_d","1",""
"null","","html-keyboard-response","504","570237","0.0-6.0-2.94","","<div style=""font-size:60px;"">+</div>","null","","","","","","",""
"null","","image-keyboard-response","505","571738","0.0-6.0-0.95","","img/red.png","null","trial","32","false","0.8,0.2","1:go_a","",""
"null","","html-keyboard-response","506","572740","0.0-6.0-1.95","","<img src=""img/red-r.png"">","null","trial","32","","0.8,0.2","1:go_a","1",""
"null","","html-keyboard-response","507","573741","0.0-6.0-2.95","","<div style=""font-size:60px;"">+</div>","null","","","","","","",""
"700.9300000499934","","image-keyboard-response","508","574443","0.0-6.0-0.96","","img/red.png","32","trial","32","true","0.8,0.2","1:go_a","",""
"null","","html-keyboard-response","509","575445","0.0-6.0-1.96","","<img src=""img/red-n.png"" border=""10"">","null","trial","32","","0.8,0.2","1:go_a","0",""
"null","","html-keyboard-response","510","576446","0.0-6.0-2.96","","<div style=""font-size:60px;"">+</div>","null","","","","","","",""
"600.0850000418723","","image-keyboard-response","511","577047","0.0-6.0-0.97","","img/grey.png","32","trial","32","true","0.8,0.2","3:go_c","",""
"null","","html-keyboard-response","512","578049","0.0-6.0-1.97","","<img src=""img/grey-r.png"" border=""10"">","null","trial","32","","0.8,0.2","3:go_c","1",""
"null","","html-keyboard-response","513","579050","0.0-6.0-2.97","","<div style=""font-size:60px;"">+</div>","null","","","","","","",""
"null","","image-keyboard-response","514","580551","0.0-6.0-0.98","","img/purple.png","null","trial","null","true","0.2,0.8","4:nogo_d","",""
"null","","html-keyboard-response","515","581554","0.0-6.0-1.98","","<img src=""img/purple-r.png"">","null","trial","null","","0.2,0.8","4:nogo_d","1",""
"null","","html-keyboard-response","516","582555","0.0-6.0-2.98","","<div style=""font-size:60px;"">+</div>","null","","","","","","",""
"null","","image-keyboard-response","517","584056","0.0-6.0-0.99","","img/yellow.png","null","trial","null","true","0.2,0.8","2:nogo_b","",""
"null","","html-keyboard-response","518","585058","0.0-6.0-1.99","","<img src=""img/yellow-r.png"">","null","trial","null","","0.2,0.8","2:nogo_b","1",""
"null","","html-keyboard-response","519","586059","0.0-6.0-2.99","","<div style=""font-size:60px;"">+</div>","null","","","","","","",""
"872.3299999255687","","image-keyboard-response","520","586932","0.0-6.0-0.100","","img/grey.png","32","trial","32","true","0.8,0.2","3:go_c","",""
"null","","html-keyboard-response","521","587934","0.0-6.0-1.100","","<img src=""img/grey-r.png"" border=""10"">","null","trial","32","","0.8,0.2","3:go_c","1",""
"null","","html-keyboard-response","522","588935","0.0-6.0-2.100","","<div style=""font-size:60px;"">+</div>","null","","","","","","",""
"1207.9949998296797","","image-keyboard-response","523","590144","0.0-6.0-0.101","","img/yellow.png","32","trial","null","false","0.2,0.8","2:nogo_b","",""
"null","","html-keyboard-response","524","591146","0.0-6.0-1.101","","<img src=""img/yellow-n.png"" border=""10"">","null","trial","null","","0.2,0.8","2:nogo_b","0",""
"null","","html-keyboard-response","525","592147","0.0-6.0-2.101","","<div style=""font-size:60px;"">+</div>","null","","","","","","",""
"840.5049999710172","","image-keyboard-response","526","592988","0.0-6.0-0.102","","img/purple.png","32","trial","null","false","0.2,0.8","4:nogo_d","",""
"null","","html-keyboard-response","527","593990","0.0-6.0-1.102","","<img src=""img/purple-n.png"" border=""10"">","null","trial","null","","0.2,0.8","4:nogo_d","0",""
"null","","html-keyboard-response","528","594991","0.0-6.0-2.102","","<div style=""font-size:60px;"">+</div>","null","","","","","","",""
"null","","image-keyboard-response","529","596492","0.0-6.0-0.103","","img/red.png","null","trial","32","false","0.8,0.2","1:go_a","",""
"null","","html-keyboard-response","530","597494","0.0-6.0-1.103","","<img src=""img/red-n.png"">","null","trial","32","","0.8,0.2","1:go_a","0",""
"null","","html-keyboard-response","531","598495","0.0-6.0-2.103","","<div style=""font-size:60px;"">+</div>","null","","","","","","",""
"null","","image-keyboard-response","532","599996","0.0-6.0-0.104","","img/red.png","null","trial","32","false","0.8,0.2","1:go_a","",""
"null","","html-keyboard-response","533","600998","0.0-6.0-1.104","","<img src=""img/red-n.png"">","null","trial","32","","0.8,0.2","1:go_a","0",""
"null","","html-keyboard-response","534","601999","0.0-6.0-2.104","","<div style=""font-size:60px;"">+</div>","null","","","","","","",""
"728.9299999829382","","image-keyboard-response","535","602729","0.0-6.0-0.105","","img/grey.png","32","trial","32","true","0.8,0.2","3:go_c","",""
"null","","html-keyboard-response","536","603732","0.0-6.0-1.105","","<img src=""img/grey-r.png"" border=""10"">","null","trial","32","","0.8,0.2","3:go_c","1",""
"null","","html-keyboard-response","537","604757","0.0-6.0-2.105","","<div style=""font-size:60px;"">+</div>","null","","","","","","",""
"951.0999999474734","","image-keyboard-response","538","605749","0.0-6.0-0.106","","img/purple.png","32","trial","null","false","0.2,0.8","4:nogo_d","",""
"null","","html-keyboard-response","539","606751","0.0-6.0-1.106","","<img src=""img/purple-n.png"" border=""10"">","null","trial","null","","0.2,0.8","4:nogo_d","0",""
"null","","html-keyboard-response","540","607752","0.0-6.0-2.106","","<div style=""font-size:60px;"">+</div>","null","","","","","","",""
"824.6949999593198","","image-keyboard-response","541","608578","0.0-6.0-0.107","","img/yellow.png","32","trial","null","false","0.2,0.8","2:nogo_b","",""
"null","","html-keyboard-response","542","609580","0.0-6.0-1.107","","<img src=""img/yellow-n.png"" border=""10"">","null","trial","null","","0.2,0.8","2:nogo_b","0",""
"null","","html-keyboard-response","543","610581","0.0-6.0-2.107","","<div style=""font-size:60px;"">+</div>","null","","","","","","",""
"null","","image-keyboard-response","544","612082","0.0-6.0-0.108","","img/yellow.png","null","trial","null","true","0.2,0.8","2:nogo_b","",""
"null","","html-keyboard-response","545","613084","0.0-6.0-1.108","","<img src=""img/yellow-r.png"">","null","trial","null","","0.2,0.8","2:nogo_b","1",""
"null","","html-keyboard-response","546","614085","0.0-6.0-2.108","","<div style=""font-size:60px;"">+</div>","null","","","","","","",""
"756.9349999539554","","image-keyboard-response","547","614843","0.0-6.0-0.109","","img/grey.png","32","trial","32","true","0.8,0.2","3:go_c","",""
"null","","html-keyboard-response","548","615845","0.0-6.0-1.109","","<img src=""img/grey-r.png"" border=""10"">","null","trial","32","","0.8,0.2","3:go_c","1",""
"null","","html-keyboard-response","549","616846","0.0-6.0-2.109","","<div style=""font-size:60px;"">+</div>","null","","","","","","",""
"null","","image-keyboard-response","550","618347","0.0-6.0-0.110","","img/purple.png","null","trial","null","true","0.2,0.8","4:nogo_d","",""
"null","","html-keyboard-response","551","619349","0.0-6.0-1.110","","<img src=""img/purple-n.png"">","null","trial","null","","0.2,0.8","4:nogo_d","0",""
"null","","html-keyboard-response","552","620350","0.0-6.0-2.110","","<div style=""font-size:60px;"">+</div>","null","","","","","","",""
"null","","image-keyboard-response","553","621851","0.0-6.0-0.111","","img/red.png","null","trial","32","false","0.8,0.2","1:go_a","",""
"null","","html-keyboard-response","554","622853","0.0-6.0-1.111","","<img src=""img/red-n.png"">","null","trial","32","","0.8,0.2","1:go_a","0",""
"null","","html-keyboard-response","555","623854","0.0-6.0-2.111","","<div style=""font-size:60px;"">+</div>","null","","","","","","",""
"null","","image-keyboard-response","556","625356","0.0-6.0-0.112","","img/grey.png","null","trial","32","false","0.8,0.2","3:go_c","",""
"null","","html-keyboard-response","557","626358","0.0-6.0-1.112","","<img src=""img/grey-n.png"">","null","trial","32","","0.8,0.2","3:go_c","0",""
"null","","html-keyboard-response","558","627359","0.0-6.0-2.112","","<div style=""font-size:60px;"">+</div>","null","","","","","","",""
"null","","image-keyboard-response","559","628860","0.0-6.0-0.113","","img/red.png","null","trial","32","false","0.8,0.2","1:go_a","",""
"null","","html-keyboard-response","560","629862","0.0-6.0-1.113","","<img src=""img/red-n.png"">","null","trial","32","","0.8,0.2","1:go_a","0",""
"null","","html-keyboard-response","561","630863","0.0-6.0-2.113","","<div style=""font-size:60px;"">+</div>","null","","","","","","",""
"null","","image-keyboard-response","562","632364","0.0-6.0-0.114","","img/purple.png","null","trial","null","true","0.2,0.8","4:nogo_d","",""
"null","","html-keyboard-response","563","633366","0.0-6.0-1.114","","<img src=""img/purple-r.png"">","null","trial","null","","0.2,0.8","4:nogo_d","1",""
"null","","html-keyboard-response","564","634367","0.0-6.0-2.114","","<div style=""font-size:60px;"">+</div>","null","","","","","","",""
"1082.1150001138449","","image-keyboard-response","565","635450","0.0-6.0-0.115","","img/yellow.png","32","trial","null","false","0.2,0.8","2:nogo_b","",""
"null","","html-keyboard-response","566","636452","0.0-6.0-1.115","","<img src=""img/yellow-n.png"" border=""10"">","null","trial","null","","0.2,0.8","2:nogo_b","0",""
"null","","html-keyboard-response","567","637453","0.0-6.0-2.115","","<div style=""font-size:60px;"">+</div>","null","","","","","","",""
"488.5050000157207","","image-keyboard-response","568","637943","0.0-6.0-0.116","","img/red.png","32","trial","32","true","0.8,0.2","1:go_a","",""
"null","","html-keyboard-response","569","638944","0.0-6.0-1.116","","<img src=""img/red-n.png"" border=""10"">","null","trial","32","","0.8,0.2","1:go_a","0",""
"null","","html-keyboard-response","570","639945","0.0-6.0-2.116","","<div style=""font-size:60px;"">+</div>","null","","","","","","",""
"753.1999999191612","","image-keyboard-response","571","640700","0.0-6.0-0.117","","img/yellow.png","32","trial","null","false","0.2,0.8","2:nogo_b","",""
"null","","html-keyboard-response","572","641701","0.0-6.0-1.117","","<img src=""img/yellow-r.png"" border=""10"">","null","trial","null","","0.2,0.8","2:nogo_b","1",""
"null","","html-keyboard-response","573","642703","0.0-6.0-2.117","","<div style=""font-size:60px;"">+</div>","null","","","","","","",""
"null","","image-keyboard-response","574","644205","0.0-6.0-0.118","","img/grey.png","null","trial","32","false","0.8,0.2","3:go_c","",""
"null","","html-keyboard-response","575","645207","0.0-6.0-1.118","","<img src=""img/grey-n.png"">","null","trial","32","","0.8,0.2","3:go_c","0",""
"null","","html-keyboard-response","576","646208","0.0-6.0-2.118","","<div style=""font-size:60px;"">+</div>","null","","","","","","",""
"null","","image-keyboard-response","577","647709","0.0-6.0-0.119","","img/purple.png","null","trial","null","true","0.2,0.8","4:nogo_d","",""
"null","","html-keyboard-response","578","648711","0.0-6.0-1.119","","<img src=""img/purple-r.png"">","null","trial","null","","0.2,0.8","4:nogo_d","1",""
"null","","html-keyboard-response","579","649712","0.0-6.0-2.119","","<div style=""font-size:60px;"">+</div>","null","","","","","","",""
"2527.46000001207","","instructions","580","652240","0.0-7.0","[{""page_index"":0,""viewing_time"":2527.195000089705}]","","","","","","","","",""
"null","","image-keyboard-response","581","653742","0.0-8.0-0.0","","img/purple.png","null","trial","null","true","0.4,0.6","2:nogo_b","",""
"null","","html-keyboard-response","582","654744","0.0-8.0-1.0","","<img src=""img/purple-r.png"">","null","trial","null","","0.4,0.6","2:nogo_b","1",""
"null","","html-keyboard-response","583","655745","0.0-8.0-2.0","","<div style=""font-size:60px;"">+</div>","null","","","","","","",""
"806.7550000268966","","image-keyboard-response","584","656553","0.0-8.0-0.1","","img/blue.png","32","trial","null","false","0.4,0.6","4:nogo_d","",""
"null","","html-keyboard-response","585","657555","0.0-8.0-1.1","","<img src=""img/blue-n.png"" border=""10"">","null","trial","null","","0.4,0.6","4:nogo_d","0",""
"null","","html-keyboard-response","586","658556","0.0-8.0-2.1","","<div style=""font-size:60px;"">+</div>","null","","","","","","",""
"640.3300000820309","","image-keyboard-response","587","659197","0.0-8.0-0.2","","img/green.png","32","trial","32","true","0.6,0.4","1:go_a","",""
"null","","html-keyboard-response","588","660199","0.0-8.0-1.2","","<img src=""img/green-r.png"" border=""10"">","null","trial","32","","0.6,0.4","1:go_a","1",""
"null","","html-keyboard-response","589","661200","0.0-8.0-2.2","","<div style=""font-size:60px;"">+</div>","null","","","","","","",""
"null","","image-keyboard-response","590","662701","0.0-8.0-0.3","","img/red.png","null","trial","32","false","0.6,0.4","3:go_c","",""
"null","","html-keyboard-response","591","663707","0.0-8.0-1.3","","<img src=""img/red-r.png"">","null","trial","32","","0.6,0.4","3:go_c","1",""
"null","","html-keyboard-response","592","664709","0.0-8.0-2.3","","<div style=""font-size:60px;"">+</div>","null","","","","","","",""
"1065.7699999865144","","image-keyboard-response","593","665775","0.0-8.0-0.4","","img/green.png","32","trial","32","true","0.6,0.4","1:go_a","",""
"null","","html-keyboard-response","594","666777","0.0-8.0-1.4","","<img src=""img/green-r.png"" border=""10"">","null","trial","32","","0.6,0.4","1:go_a","1",""
"null","","html-keyboard-response","595","667778","0.0-8.0-2.4","","<div style=""font-size:60px;"">+</div>","null","","","","","","",""
"null","","image-keyboard-response","596","669279","0.0-8.0-0.5","","img/red.png","null","trial","32","false","0.6,0.4","3:go_c","",""
"null","","html-keyboard-response","597","670281","0.0-8.0-1.5","","<img src=""img/red-r.png"">","null","trial","32","","0.6,0.4","3:go_c","1",""
"null","","html-keyboard-response","598","671282","0.0-8.0-2.5","","<div style=""font-size:60px;"">+</div>","null","","","","","","",""
"null","","image-keyboard-response","599","672783","0.0-8.0-0.6","","img/blue.png","null","trial","null","true","0.4,0.6","4:nogo_d","",""
"null","","html-keyboard-response","600","673785","0.0-8.0-1.6","","<img src=""img/blue-r.png"">","null","trial","null","","0.4,0.6","4:nogo_d","1",""
"null","","html-keyboard-response","601","674786","0.0-8.0-2.6","","<div style=""font-size:60px;"">+</div>","null","","","","","","",""
"792.0000001322478","","image-keyboard-response","602","675579","0.0-8.0-0.7","","img/purple.png","32","trial","null","false","0.4,0.6","2:nogo_b","",""
"null","","html-keyboard-response","603","676581","0.0-8.0-1.7","","<img src=""img/purple-r.png"" border=""10"">","null","trial","null","","0.4,0.6","2:nogo_b","1",""
"null","","html-keyboard-response","604","677583","0.0-8.0-2.7","","<div style=""font-size:60px;"">+</div>","null","","","","","","",""
"1008.7650001514703","","image-keyboard-response","605","678592","0.0-8.0-0.8","","img/purple.png","32","trial","null","false","0.4,0.6","2:nogo_b","",""
"null","","html-keyboard-response","606","679594","0.0-8.0-1.8","","<img src=""img/purple-r.png"" border=""10"">","null","trial","null","","0.4,0.6","2:nogo_b","1",""
"null","","html-keyboard-response","607","680595","0.0-8.0-2.8","","<div style=""font-size:60px;"">+</div>","null","","","","","","",""
"null","","image-keyboard-response","608","682097","0.0-8.0-0.9","","img/green.png","null","trial","32","false","0.6,0.4","1:go_a","",""
"null","","html-keyboard-response","609","683099","0.0-8.0-1.9","","<img src=""img/green-r.png"">","null","trial","32","","0.6,0.4","1:go_a","1",""
"null","","html-keyboard-response","610","684100","0.0-8.0-2.9","","<div style=""font-size:60px;"">+</div>","null","","","","","","",""
"1083.3499999716878","","image-keyboard-response","611","685184","0.0-8.0-0.10","","img/red.png","32","trial","32","true","0.6,0.4","3:go_c","",""
"null","","html-keyboard-response","612","686187","0.0-8.0-1.10","","<img src=""img/red-r.png"" border=""10"">","null","trial","32","","0.6,0.4","3:go_c","1",""
"null","","html-keyboard-response","613","687188","0.0-8.0-2.10","","<div style=""font-size:60px;"">+</div>","null","","","","","","",""
"null","","image-keyboard-response","614","688690","0.0-8.0-0.11","","img/blue.png","null","trial","null","true","0.4,0.6","4:nogo_d","",""
"null","","html-keyboard-response","615","689692","0.0-8.0-1.11","","<img src=""img/blue-n.png"">","null","trial","null","","0.4,0.6","4:nogo_d","0",""
"null","","html-keyboard-response","616","690693","0.0-8.0-2.11","","<div style=""font-size:60px;"">+</div>","null","","","","","","",""
"null","","image-keyboard-response","617","692195","0.0-8.0-0.12","","img/red.png","null","trial","32","false","0.6,0.4","3:go_c","",""
"null","","html-keyboard-response","618","693196","0.0-8.0-1.12","","<img src=""img/red-r.png"">","null","trial","32","","0.6,0.4","3:go_c","1",""
"null","","html-keyboard-response","619","694197","0.0-8.0-2.12","","<div style=""font-size:60px;"">+</div>","null","","","","","","",""
"958.0500000156462","","image-keyboard-response","620","695156","0.0-8.0-0.13","","img/green.png","32","trial","32","true","0.6,0.4","1:go_a","",""
"null","","html-keyboard-response","621","696158","0.0-8.0-1.13","","<img src=""img/green-n.png"" border=""10"">","null","trial","32","","0.6,0.4","1:go_a","0",""
"null","","html-keyboard-response","622","697159","0.0-8.0-2.13","","<div style=""font-size:60px;"">+</div>","null","","","","","","",""
"null","","image-keyboard-response","623","698660","0.0-8.0-0.14","","img/purple.png","null","trial","null","true","0.4,0.6","2:nogo_b","",""
"null","","html-keyboard-response","624","699663","0.0-8.0-1.14","","<img src=""img/purple-r.png"">","null","trial","null","","0.4,0.6","2:nogo_b","1",""
"null","","html-keyboard-response","625","700664","0.0-8.0-2.14","","<div style=""font-size:60px;"">+</div>","null","","","","","","",""
"null","","image-keyboard-response","626","702165","0.0-8.0-0.15","","img/blue.png","null","trial","null","true","0.4,0.6","4:nogo_d","",""
"null","","html-keyboard-response","627","703167","0.0-8.0-1.15","","<img src=""img/blue-n.png"">","null","trial","null","","0.4,0.6","4:nogo_d","0",""
"null","","html-keyboard-response","628","704168","0.0-8.0-2.15","","<div style=""font-size:60px;"">+</div>","null","","","","","","",""
"null","","image-keyboard-response","629","705669","0.0-8.0-0.16","","img/blue.png","null","trial","null","true","0.4,0.6","4:nogo_d","",""
"null","","html-keyboard-response","630","706671","0.0-8.0-1.16","","<img src=""img/blue-n.png"">","null","trial","null","","0.4,0.6","4:nogo_d","0",""
"null","","html-keyboard-response","631","707672","0.0-8.0-2.16","","<div style=""font-size:60px;"">+</div>","null","","","","","","",""
"null","","image-keyboard-response","632","709173","0.0-8.0-0.17","","img/green.png","null","trial","32","false","0.6,0.4","1:go_a","",""
"null","","html-keyboard-response","633","710175","0.0-8.0-1.17","","<img src=""img/green-n.png"">","null","trial","32","","0.6,0.4","1:go_a","0",""
"null","","html-keyboard-response","634","711176","0.0-8.0-2.17","","<div style=""font-size:60px;"">+</div>","null","","","","","","",""
"null","","image-keyboard-response","635","712677","0.0-8.0-0.18","","img/red.png","null","trial","32","false","0.6,0.4","3:go_c","",""
"null","","html-keyboard-response","636","713679","0.0-8.0-1.18","","<img src=""img/red-r.png"">","null","trial","32","","0.6,0.4","3:go_c","1",""
"null","","html-keyboard-response","637","714680","0.0-8.0-2.18","","<div style=""font-size:60px;"">+</div>","null","","","","","","",""
"715.1500000618398","","image-keyboard-response","638","715396","0.0-8.0-0.19","","img/purple.png","32","trial","null","false","0.4,0.6","2:nogo_b","",""
"null","","html-keyboard-response","639","716398","0.0-8.0-1.19","","<img src=""img/purple-n.png"" border=""10"">","null","trial","null","","0.4,0.6","2:nogo_b","0",""
"null","","html-keyboard-response","640","717399","0.0-8.0-2.19","","<div style=""font-size:60px;"">+</div>","null","","","","","","",""
"null","","image-keyboard-response","641","718900","0.0-8.0-0.20","","img/purple.png","null","trial","null","true","0.4,0.6","2:nogo_b","",""
"null","","html-keyboard-response","642","719902","0.0-8.0-1.20","","<img src=""img/purple-n.png"">","null","trial","null","","0.4,0.6","2:nogo_b","0",""
"null","","html-keyboard-response","643","720904","0.0-8.0-2.20","","<div style=""font-size:60px;"">+</div>","null","","","","","","",""
"null","","image-keyboard-response","644","722406","0.0-8.0-0.21","","img/blue.png","null","trial","null","true","0.4,0.6","4:nogo_d","",""
"null","","html-keyboard-response","645","723408","0.0-8.0-1.21","","<img src=""img/blue-n.png"">","null","trial","null","","0.4,0.6","4:nogo_d","0",""
"null","","html-keyboard-response","646","724409","0.0-8.0-2.21","","<div style=""font-size:60px;"">+</div>","null","","","","","","",""
"null","","image-keyboard-response","647","725910","0.0-8.0-0.22","","img/green.png","null","trial","32","false","0.6,0.4","1:go_a","",""
"null","","html-keyboard-response","648","726912","0.0-8.0-1.22","","<img src=""img/green-n.png"">","null","trial","32","","0.6,0.4","1:go_a","0",""
"null","","html-keyboard-response","649","727914","0.0-8.0-2.22","","<div style=""font-size:60px;"">+</div>","null","","","","","","",""
"null","","image-keyboard-response","650","729415","0.0-8.0-0.23","","img/red.png","null","trial","32","false","0.6,0.4","3:go_c","",""
"null","","html-keyboard-response","651","730417","0.0-8.0-1.23","","<img src=""img/red-n.png"">","null","trial","32","","0.6,0.4","3:go_c","0",""
"null","","html-keyboard-response","652","731418","0.0-8.0-2.23","","<div style=""font-size:60px;"">+</div>","null","","","","","","",""
"null","","image-keyboard-response","653","732919","0.0-8.0-0.24","","img/purple.png","null","trial","null","true","0.4,0.6","2:nogo_b","",""
"null","","html-keyboard-response","654","733921","0.0-8.0-1.24","","<img src=""img/purple-r.png"">","null","trial","null","","0.4,0.6","2:nogo_b","1",""
"null","","html-keyboard-response","655","734922","0.0-8.0-2.24","","<div style=""font-size:60px;"">+</div>","null","","","","","","",""
"1097.6150000933558","","image-keyboard-response","656","736020","0.0-8.0-0.25","","img/red.png","32","trial","32","true","0.6,0.4","3:go_c","",""
"null","","html-keyboard-response","657","737022","0.0-8.0-1.25","","<img src=""img/red-n.png"" border=""10"">","null","trial","32","","0.6,0.4","3:go_c","0",""
"null","","html-keyboard-response","658","738023","0.0-8.0-2.25","","<div style=""font-size:60px;"">+</div>","null","","","","","","",""
"null","","image-keyboard-response","659","739524","0.0-8.0-0.26","","img/green.png","null","trial","32","false","0.6,0.4","1:go_a","",""
"null","","html-keyboard-response","660","740526","0.0-8.0-1.26","","<img src=""img/green-r.png"">","null","trial","32","","0.6,0.4","1:go_a","1",""
"null","","html-keyboard-response","661","741527","0.0-8.0-2.26","","<div style=""font-size:60px;"">+</div>","null","","","","","","",""
"1123.9300000015646","","image-keyboard-response","662","742652","0.0-8.0-0.27","","img/blue.png","32","trial","null","false","0.4,0.6","4:nogo_d","",""
"null","","html-keyboard-response","663","743653","0.0-8.0-1.27","","<img src=""img/blue-r.png"" border=""10"">","null","trial","null","","0.4,0.6","4:nogo_d","1",""
"null","","html-keyboard-response","664","744654","0.0-8.0-2.27","","<div style=""font-size:60px;"">+</div>","null","","","","","","",""
"753.410000121221","","image-keyboard-response","665","745409","0.0-8.0-0.28","","img/blue.png","32","trial","null","false","0.4,0.6","4:nogo_d","",""
"null","","html-keyboard-response","666","746410","0.0-8.0-1.28","","<img src=""img/blue-r.png"" border=""10"">","null","trial","null","","0.4,0.6","4:nogo_d","1",""
"null","","html-keyboard-response","667","747411","0.0-8.0-2.28","","<div style=""font-size:60px;"">+</div>","null","","","","","","",""
"null","","image-keyboard-response","668","748912","0.0-8.0-0.29","","img/green.png","null","trial","32","false","0.6,0.4","1:go_a","",""
"null","","html-keyboard-response","669","749915","0.0-8.0-1.29","","<img src=""img/green-n.png"">","null","trial","32","","0.6,0.4","1:go_a","0",""
"null","","html-keyboard-response","670","750916","0.0-8.0-2.29","","<div style=""font-size:60px;"">+</div>","null","","","","","","",""
"null","","image-keyboard-response","671","752417","0.0-8.0-0.30","","img/red.png","null","trial","32","false","0.6,0.4","3:go_c","",""
"null","","html-keyboard-response","672","753419","0.0-8.0-1.30","","<img src=""img/red-n.png"">","null","trial","32","","0.6,0.4","3:go_c","0",""
"null","","html-keyboard-response","673","754420","0.0-8.0-2.30","","<div style=""font-size:60px;"">+</div>","null","","","","","","",""
"null","","image-keyboard-response","674","755921","0.0-8.0-0.31","","img/purple.png","null","trial","null","true","0.4,0.6","2:nogo_b","",""
"null","","html-keyboard-response","675","756923","0.0-8.0-1.31","","<img src=""img/purple-r.png"">","null","trial","null","","0.4,0.6","2:nogo_b","1",""
"null","","html-keyboard-response","676","757924","0.0-8.0-2.31","","<div style=""font-size:60px;"">+</div>","null","","","","","","",""
"1307.4299998115748","","image-keyboard-response","677","759233","0.0-8.0-0.32","","img/green.png","32","trial","32","true","0.6,0.4","1:go_a","",""
"null","","html-keyboard-response","678","760234","0.0-8.0-1.32","","<img src=""img/green-r.png"" border=""10"">","null","trial","32","","0.6,0.4","1:go_a","1",""
"null","","html-keyboard-response","679","761235","0.0-8.0-2.32","","<div style=""font-size:60px;"">+</div>","null","","","","","","",""
"null","","image-keyboard-response","680","762736","0.0-8.0-0.33","","img/red.png","null","trial","32","false","0.6,0.4","3:go_c","",""
"null","","html-keyboard-response","681","763738","0.0-8.0-1.33","","<img src=""img/red-r.png"">","null","trial","32","","0.6,0.4","3:go_c","1",""
"null","","html-keyboard-response","682","764739","0.0-8.0-2.33","","<div style=""font-size:60px;"">+</div>","null","","","","","","",""
"1068.3399999979883","","image-keyboard-response","683","765808","0.0-8.0-0.34","","img/purple.png","32","trial","null","false","0.4,0.6","2:nogo_b","",""
