"rt","url","trial_type","trial_index","time_elapsed","internal_node_id","view_history","stimulus","key_press","test_part","correct_response","correct","use_rew","which_stim","reward","responses"
"5781.995000001189","consent.html","external-html","0","5924","0.0-0.0","","","","","","","","","",""
"71038.47000000314","","instructions","1","76964","0.0-1.0","[{""page_index"":0,""viewing_time"":2758.5150000013527},{""page_index"":1,""viewing_time"":13590.554999998858},{""page_index"":2,""viewing_time"":6205.939999999828},{""page_index"":3,""viewing_time"":22442.635000003065},{""page_index"":4,""viewing_time"":9022.554999999556},{""page_index"":5,""viewing_time"":4714.349999998376},{""page_index"":6,""viewing_time"":12302.8149999991}]","","","","","","","","",""
"580.6550000015704","","image-keyboard-response","2","77547","0.0-2.0-0.0","","img/test1.PNG","32","practice","32","true","","","",""
"null","","html-keyboard-response","3","78553","0.0-2.0-1.0","","<img src=""img/test1-reward.PNG"" border=""10px; grey"">","null","","","","","","",""
"null","","html-keyboard-response","4","79569","0.0-2.0-2.0","","<div style=""font-size:60px;"">+</div>","null","","","","","","",""
"null","","image-keyboard-response","5","81082","0.0-2.0-0.1","","img/test2.PNG","null","practice","null","true","","","",""
"null","","html-keyboard-response","6","82084","0.0-2.0-1.1","","<img src=""img/test2-reward.PNG"">","null","","","","","","",""
"null","","html-keyboard-response","7","83091","0.0-2.0-2.1","","<div style=""font-size:60px;"">+</div>","null","","","","","","",""
"null","","image-keyboard-response","8","84600","0.0-2.0-0.2","","img/test3.PNG","null","practice","null","true","","","",""
"null","","html-keyboard-response","9","85602","0.0-2.0-1.2","","<img src=""img/test3-reward.PNG"">","null","","","","","","",""
"null","","html-keyboard-response","10","86608","0.0-2.0-2.2","","<div style=""font-size:60px;"">+</div>","null","","","","","","",""
"359.09499999979744","","image-keyboard-response","11","86968","0.0-2.0-0.3","","img/test1.PNG","32","practice","32","true","","","",""
"null","","html-keyboard-response","12","87972","0.0-2.0-1.3","","<img src=""img/test1-reward.PNG"" border=""10px; grey"">","null","","","","","","",""
"null","","html-keyboard-response","13","88987","0.0-2.0-2.3","","<div style=""font-size:60px;"">+</div>","null","","","","","","",""
"null","","image-keyboard-response","14","90491","0.0-2.0-0.4","","img/test3.PNG","null","practice","null","true","","","",""
"null","","html-keyboard-response","15","91497","0.0-2.0-1.4","","<img src=""img/test3-reward.PNG"">","null","","","","","","",""
"null","","html-keyboard-response","16","92507","0.0-2.0-2.4","","<div style=""font-size:60px;"">+</div>","null","","","","","","",""
"null","","image-keyboard-response","17","94015","0.0-2.0-0.5","","img/test2.PNG","null","practice","null","true","","","",""
"null","","html-keyboard-response","18","95018","0.0-2.0-1.5","","<img src=""img/test2-reward.PNG"">","null","","","","","","",""
"null","","html-keyboard-response","19","96033","0.0-2.0-2.5","","<div style=""font-size:60px;"">+</div>","null","","","","","","",""
"341.29500000199187","","image-keyboard-response","20","96380","0.0-2.0-0.6","","img/test1.PNG","32","practice","32","true","","","",""
"null","","html-keyboard-response","21","97389","0.0-2.0-1.6","","<img src=""img/test1-reward.PNG"" border=""10px; grey"">","null","","","","","","",""
"null","","html-keyboard-response","22","98399","0.0-2.0-2.6","","<div style=""font-size:60px;"">+</div>","null","","","","","","",""
"null","","image-keyboard-response","23","99903","0.0-2.0-0.7","","img/test2.PNG","null","practice","null","true","","","",""
"null","","html-keyboard-response","24","100905","0.0-2.0-1.7","","<img src=""img/test2-reward.PNG"">","null","","","","","","",""
"null","","html-keyboard-response","25","101910","0.0-2.0-2.7","","<div style=""font-size:60px;"">+</div>","null","","","","","","",""
"null","","image-keyboard-response","26","103420","0.0-2.0-0.8","","img/test3.PNG","null","practice","null","true","","","",""
"null","","html-keyboard-response","27","104436","0.0-2.0-1.8","","<img src=""img/test3-reward.PNG"">","null","","","","","","",""
"null","","html-keyboard-response","28","105440","0.0-2.0-2.8","","<div style=""font-size:60px;"">+</div>","null","","","","","","",""
"437.0999999991909","","image-keyboard-response","29","105879","0.0-2.0-0.9","","img/test1.PNG","32","practice","32","true","","","",""
"null","","html-keyboard-response","30","106882","0.0-2.0-1.9","","<img src=""img/test1-reward.PNG"" border=""10px; grey"">","null","","","","","","",""
"null","","html-keyboard-response","31","107896","0.0-2.0-2.9","","<div style=""font-size:60px;"">+</div>","null","","","","","","",""
"null","","image-keyboard-response","32","109405","0.0-2.0-0.10","","img/test2.PNG","null","practice","null","true","","","",""
"null","","html-keyboard-response","33","110406","0.0-2.0-1.10","","<img src=""img/test2-reward.PNG"">","null","","","","","","",""
"null","","html-keyboard-response","34","111419","0.0-2.0-2.10","","<div style=""font-size:60px;"">+</div>","null","","","","","","",""
"null","","image-keyboard-response","35","112930","0.0-2.0-0.11","","img/test3.PNG","null","practice","null","true","","","",""
"null","","html-keyboard-response","36","113944","0.0-2.0-1.11","","<img src=""img/test3-reward.PNG"">","null","","","","","","",""
"null","","html-keyboard-response","37","114961","0.0-2.0-2.11","","<div style=""font-size:60px;"">+</div>","null","","","","","","",""
"3990.5849999995553","","instructions","38","118952","0.0-3.0","[{""page_index"":0,""viewing_time"":3990.269999998418}]","","","","","","","","",""
"1267.3649999996996","","image-keyboard-response","39","120221","0.0-4.0-0.0","","img/grey.png","32","trial","null","false","0.2,0.8","2:nogo_b","",""
"null","","html-keyboard-response","40","121226","0.0-4.0-1.0","","<img src=""img/grey-r.png"" border=""10"">","null","trial","null","","0.2,0.8","2:nogo_b","1",""
"null","","html-keyboard-response","41","122232","0.0-4.0-2.0","","<div style=""font-size:60px;"">+</div>","null","","","","","","",""
"973.8800000013725","","image-keyboard-response","42","123208","0.0-4.0-0.1","","img/red.png","32","trial","32","true","0.8,0.2","1:go_a","",""
"null","","html-keyboard-response","43","124214","0.0-4.0-1.1","","<img src=""img/red-r.png"" border=""10"">","null","trial","32","","0.8,0.2","1:go_a","1",""
"null","","html-keyboard-response","44","125219","0.0-4.0-2.1","","<div style=""font-size:60px;"">+</div>","null","","","","","","",""
"639.9849999979779","","image-keyboard-response","45","125860","0.0-4.0-0.2","","img/red.png","32","trial","32","true","0.8,0.2","1:go_a","",""
"null","","html-keyboard-response","46","126871","0.0-4.0-1.2","","<img src=""img/red-n.png"" border=""10"">","null","trial","32","","0.8,0.2","1:go_a","0",""
"null","","html-keyboard-response","47","127877","0.0-4.0-2.2","","<div style=""font-size:60px;"">+</div>","null","","","","","","",""
"448.65500000014435","","image-keyboard-response","48","128327","0.0-4.0-0.3","","img/grey.png","32","trial","null","false","0.2,0.8","2:nogo_b","",""
"null","","html-keyboard-response","49","129338","0.0-4.0-1.3","","<img src=""img/grey-n.png"" border=""10"">","null","trial","null","","0.2,0.8","2:nogo_b","0",""
"null","","html-keyboard-response","50","130341","0.0-4.0-2.3","","<div style=""font-size:60px;"">+</div>","null","","","","","","",""
"521.0500000030152","","image-keyboard-response","51","130863","0.0-4.0-0.4","","img/grey.png","32","trial","null","false","0.2,0.8","2:nogo_b","",""
"null","","html-keyboard-response","52","131872","0.0-4.0-1.4","","<img src=""img/grey-n.png"" border=""10"">","null","trial","null","","0.2,0.8","2:nogo_b","0",""
"null","","html-keyboard-response","53","132876","0.0-4.0-2.4","","<div style=""font-size:60px;"">+</div>","null","","","","","","",""
"511.63499999893247","","image-keyboard-response","54","133389","0.0-4.0-0.5","","img/red.png","32","trial","32","true","0.8,0.2","1:go_a","",""
"null","","html-keyboard-response","55","134398","0.0-4.0-1.5","","<img src=""img/red-r.png"" border=""10"">","null","trial","32","","0.8,0.2","1:go_a","1",""
"null","","html-keyboard-response","56","135405","0.0-4.0-2.5","","<div style=""font-size:60px;"">+</div>","null","","","","","","",""
"null","","image-keyboard-response","57","136911","0.0-4.0-0.6","","img/grey.png","null","trial","null","true","0.2,0.8","2:nogo_b","",""
"null","","html-keyboard-response","58","137918","0.0-4.0-1.6","","<img src=""img/grey-r.png"">","null","trial","null","","0.2,0.8","2:nogo_b","1",""
"null","","html-keyboard-response","59","138925","0.0-4.0-2.6","","<div style=""font-size:60px;"">+</div>","null","","","","","","",""
"394.6649999998044","","image-keyboard-response","60","139321","0.0-4.0-0.7","","img/red.png","32","trial","32","true","0.8,0.2","1:go_a","",""
"null","","html-keyboard-response","61","140338","0.0-4.0-1.7","","<img src=""img/red-r.png"" border=""10"">","null","trial","32","","0.8,0.2","1:go_a","1",""
"null","","html-keyboard-response","62","141350","0.0-4.0-2.7","","<div style=""font-size:60px;"">+</div>","null","","","","","","",""
"null","","image-keyboard-response","63","142855","0.0-4.0-0.8","","img/grey.png","null","trial","null","true","0.2,0.8","2:nogo_b","",""
"null","","html-keyboard-response","64","143858","0.0-4.0-1.8","","<img src=""img/grey-r.png"">","null","trial","null","","0.2,0.8","2:nogo_b","1",""
"null","","html-keyboard-response","65","144861","0.0-4.0-2.8","","<div style=""font-size:60px;"">+</div>","null","","","","","","",""
"572.2600000008242","","image-keyboard-response","66","145434","0.0-4.0-0.9","","img/red.png","32","trial","32","true","0.8,0.2","1:go_a","",""
"null","","html-keyboard-response","67","146446","0.0-4.0-1.9","","<img src=""img/red-r.png"" border=""10"">","null","trial","32","","0.8,0.2","1:go_a","1",""
"null","","html-keyboard-response","68","147449","0.0-4.0-2.9","","<div style=""font-size:60px;"">+</div>","null","","","","","","",""
"549.4949999992969","","image-keyboard-response","69","147999","0.0-4.0-0.10","","img/red.png","32","trial","32","true","0.8,0.2","1:go_a","",""
"null","","html-keyboard-response","70","149017","0.0-4.0-1.10","","<img src=""img/red-r.png"" border=""10"">","null","trial","32","","0.8,0.2","1:go_a","1",""
"null","","html-keyboard-response","71","150030","0.0-4.0-2.10","","<div style=""font-size:60px;"">+</div>","null","","","","","","",""
"443.64000000132364","","image-keyboard-response","72","150475","0.0-4.0-0.11","","img/grey.png","32","trial","null","false","0.2,0.8","2:nogo_b","",""
"null","","html-keyboard-response","73","151477","0.0-4.0-1.11","","<img src=""img/grey-n.png"" border=""10"">","null","trial","null","","0.2,0.8","2:nogo_b","0",""
"null","","html-keyboard-response","74","152480","0.0-4.0-2.11","","<div style=""font-size:60px;"">+</div>","null","","","","","","",""
"327.44000000093365","","image-keyboard-response","75","152808","0.0-4.0-0.12","","img/red.png","32","trial","32","true","0.8,0.2","1:go_a","",""
"null","","html-keyboard-response","76","153817","0.0-4.0-1.12","","<img src=""img/red-r.png"" border=""10"">","null","trial","32","","0.8,0.2","1:go_a","1",""
"null","","html-keyboard-response","77","154822","0.0-4.0-2.12","","<div style=""font-size:60px;"">+</div>","null","","","","","","",""
"406.5999999984342","","image-keyboard-response","78","155230","0.0-4.0-0.13","","img/grey.png","32","trial","null","false","0.2,0.8","2:nogo_b","",""
"null","","html-keyboard-response","79","156239","0.0-4.0-1.13","","<img src=""img/grey-r.png"" border=""10"">","null","trial","null","","0.2,0.8","2:nogo_b","1",""
"null","","html-keyboard-response","80","157249","0.0-4.0-2.13","","<div style=""font-size:60px;"">+</div>","null","","","","","","",""
"433.3600000027218","","image-keyboard-response","81","157684","0.0-4.0-0.14","","img/red.png","32","trial","32","true","0.8,0.2","1:go_a","",""
"null","","html-keyboard-response","82","158700","0.0-4.0-1.14","","<img src=""img/red-r.png"" border=""10"">","null","trial","32","","0.8,0.2","1:go_a","1",""
"null","","html-keyboard-response","83","159704","0.0-4.0-2.14","","<div style=""font-size:60px;"">+</div>","null","","","","","","",""
"null","","image-keyboard-response","84","161213","0.0-4.0-0.15","","img/grey.png","null","trial","null","true","0.2,0.8","2:nogo_b","",""
"null","","html-keyboard-response","85","162223","0.0-4.0-1.15","","<img src=""img/grey-r.png"">","null","trial","null","","0.2,0.8","2:nogo_b","1",""
"null","","html-keyboard-response","86","163229","0.0-4.0-2.15","","<div style=""font-size:60px;"">+</div>","null","","","","","","",""
"555.899999999383","","image-keyboard-response","87","163785","0.0-4.0-0.16","","img/red.png","32","trial","32","true","0.8,0.2","1:go_a","",""
"null","","html-keyboard-response","88","164801","0.0-4.0-1.16","","<img src=""img/red-r.png"" border=""10"">","null","trial","32","","0.8,0.2","1:go_a","1",""
"null","","html-keyboard-response","89","165804","0.0-4.0-2.16","","<div style=""font-size:60px;"">+</div>","null","","","","","","",""
"412.51499999998487","","image-keyboard-response","90","166217","0.0-4.0-0.17","","img/grey.png","32","trial","null","false","0.2,0.8","2:nogo_b","",""
"null","","html-keyboard-response","91","167224","0.0-4.0-1.17","","<img src=""img/grey-n.png"" border=""10"">","null","trial","null","","0.2,0.8","2:nogo_b","0",""
"null","","html-keyboard-response","92","168236","0.0-4.0-2.17","","<div style=""font-size:60px;"">+</div>","null","","","","","","",""
"749.9900000002526","","image-keyboard-response","93","168987","0.0-4.0-0.18","","img/grey.png","32","trial","null","false","0.2,0.8","2:nogo_b","",""
"null","","html-keyboard-response","94","170002","0.0-4.0-1.18","","<img src=""img/grey-r.png"" border=""10"">","null","trial","null","","0.2,0.8","2:nogo_b","1",""
"null","","html-keyboard-response","95","171017","0.0-4.0-2.18","","<div style=""font-size:60px;"">+</div>","null","","","","","","",""
"432.98499999946216","","image-keyboard-response","96","171452","0.0-4.0-0.19","","img/red.png","32","trial","32","true","0.8,0.2","1:go_a","",""
"null","","html-keyboard-response","97","172460","0.0-4.0-1.19","","<img src=""img/red-n.png"" border=""10"">","null","trial","32","","0.8,0.2","1:go_a","0",""
"null","","html-keyboard-response","98","173462","0.0-4.0-2.19","","<div style=""font-size:60px;"">+</div>","null","","","","","","",""
"905.3100000019185","","image-keyboard-response","99","174368","0.0-4.0-0.20","","img/grey.png","32","trial","null","false","0.2,0.8","2:nogo_b","",""
"null","","html-keyboard-response","100","175372","0.0-4.0-1.20","","<img src=""img/grey-n.png"" border=""10"">","null","trial","null","","0.2,0.8","2:nogo_b","0",""
"null","","html-keyboard-response","101","176383","0.0-4.0-2.20","","<div style=""font-size:60px;"">+</div>","null","","","","","","",""
"345.9899999979825","","image-keyboard-response","102","176730","0.0-4.0-0.21","","img/red.png","32","trial","32","true","0.8,0.2","1:go_a","",""
"null","","html-keyboard-response","103","177742","0.0-4.0-1.21","","<img src=""img/red-r.png"" border=""10"">","null","trial","32","","0.8,0.2","1:go_a","1",""
"null","","html-keyboard-response","104","178780","0.0-4.0-2.21","","<div style=""font-size:60px;"">+</div>","null","","","","","","",""
"684.2450000003737","","image-keyboard-response","105","179465","0.0-4.0-0.22","","img/red.png","32","trial","32","true","0.8,0.2","1:go_a","",""
"null","","html-keyboard-response","106","180482","0.0-4.0-1.22","","<img src=""img/red-r.png"" border=""10"">","null","trial","32","","0.8,0.2","1:go_a","1",""
"null","","html-keyboard-response","107","181496","0.0-4.0-2.22","","<div style=""font-size:60px;"">+</div>","null","","","","","","",""
"null","","image-keyboard-response","108","183012","0.0-4.0-0.23","","img/grey.png","null","trial","null","true","0.2,0.8","2:nogo_b","",""
"null","","html-keyboard-response","109","184031","0.0-4.0-1.23","","<img src=""img/grey-r.png"">","null","trial","null","","0.2,0.8","2:nogo_b","1",""
"null","","html-keyboard-response","110","185038","0.0-4.0-2.23","","<div style=""font-size:60px;"">+</div>","null","","","","","","",""
"693.3850000023085","","image-keyboard-response","111","185733","0.0-4.0-0.24","","img/grey.png","32","trial","null","false","0.2,0.8","2:nogo_b","",""
"null","","html-keyboard-response","112","186736","0.0-4.0-1.24","","<img src=""img/grey-n.png"" border=""10"">","null","trial","null","","0.2,0.8","2:nogo_b","0",""
"null","","html-keyboard-response","113","187749","0.0-4.0-2.24","","<div style=""font-size:60px;"">+</div>","null","","","","","","",""
"465.1349999985541","","image-keyboard-response","114","188215","0.0-4.0-0.25","","img/red.png","32","trial","32","true","0.8,0.2","1:go_a","",""
"null","","html-keyboard-response","115","189231","0.0-4.0-1.25","","<img src=""img/red-r.png"" border=""10"">","null","trial","32","","0.8,0.2","1:go_a","1",""
"null","","html-keyboard-response","116","190235","0.0-4.0-2.25","","<div style=""font-size:60px;"">+</div>","null","","","","","","",""
"null","","image-keyboard-response","117","191750","0.0-4.0-0.26","","img/grey.png","null","trial","null","true","0.2,0.8","2:nogo_b","",""
"null","","html-keyboard-response","118","192752","0.0-4.0-1.26","","<img src=""img/grey-n.png"">","null","trial","null","","0.2,0.8","2:nogo_b","0",""
"null","","html-keyboard-response","119","193764","0.0-4.0-2.26","","<div style=""font-size:60px;"">+</div>","null","","","","","","",""
"467.77499999734573","","image-keyboard-response","120","194233","0.0-4.0-0.27","","img/red.png","32","trial","32","true","0.8,0.2","1:go_a","",""
"null","","html-keyboard-response","121","195241","0.0-4.0-1.27","","<img src=""img/red-r.png"" border=""10"">","null","trial","32","","0.8,0.2","1:go_a","1",""
"null","","html-keyboard-response","122","196247","0.0-4.0-2.27","","<div style=""font-size:60px;"">+</div>","null","","","","","","",""
"421.14500000025146","","image-keyboard-response","123","196670","0.0-4.0-0.28","","img/grey.png","32","trial","null","false","0.2,0.8","2:nogo_b","",""
"null","","html-keyboard-response","124","197679","0.0-4.0-1.28","","<img src=""img/grey-n.png"" border=""10"">","null","trial","null","","0.2,0.8","2:nogo_b","0",""
"null","","html-keyboard-response","125","198696","0.0-4.0-2.28","","<div style=""font-size:60px;"">+</div>","null","","","","","","",""
"576.4349999990372","","image-keyboard-response","126","199273","0.0-4.0-0.29","","img/red.png","32","trial","32","true","0.8,0.2","1:go_a","",""
"null","","html-keyboard-response","127","200287","0.0-4.0-1.29","","<img src=""img/red-r.png"" border=""10"">","null","trial","32","","0.8,0.2","1:go_a","1",""
"null","","html-keyboard-response","128","201292","0.0-4.0-2.29","","<div style=""font-size:60px;"">+</div>","null","","","","","","",""
"570.609999998851","","image-keyboard-response","129","201864","0.0-4.0-0.30","","img/red.png","32","trial","32","true","0.8,0.2","1:go_a","",""
"null","","html-keyboard-response","130","202870","0.0-4.0-1.30","","<img src=""img/red-n.png"" border=""10"">","null","trial","32","","0.8,0.2","1:go_a","0",""
"null","","html-keyboard-response","131","203881","0.0-4.0-2.30","","<div style=""font-size:60px;"">+</div>","null","","","","","","",""
"923.6299999975017","","image-keyboard-response","132","204806","0.0-4.0-0.31","","img/grey.png","32","trial","null","false","0.2,0.8","2:nogo_b","",""
"null","","html-keyboard-response","133","205822","0.0-4.0-1.31","","<img src=""img/grey-n.png"" border=""10"">","null","trial","null","","0.2,0.8","2:nogo_b","0",""
"null","","html-keyboard-response","134","206836","0.0-4.0-2.31","","<div style=""font-size:60px;"">+</div>","null","","","","","","",""
"444.1100000003644","","image-keyboard-response","135","207282","0.0-4.0-0.32","","img/red.png","32","trial","32","true","0.8,0.2","1:go_a","",""
"null","","html-keyboard-response","136","208297","0.0-4.0-1.32","","<img src=""img/red-r.png"" border=""10"">","null","trial","32","","0.8,0.2","1:go_a","1",""
"null","","html-keyboard-response","137","209312","0.0-4.0-2.32","","<div style=""font-size:60px;"">+</div>","null","","","","","","",""
"null","","image-keyboard-response","138","210814","0.0-4.0-0.33","","img/grey.png","null","trial","null","true","0.2,0.8","2:nogo_b","",""
"null","","html-keyboard-response","139","211817","0.0-4.0-1.33","","<img src=""img/grey-r.png"">","null","trial","null","","0.2,0.8","2:nogo_b","1",""
"null","","html-keyboard-response","140","212833","0.0-4.0-2.33","","<div style=""font-size:60px;"">+</div>","null","","","","","","",""
"476.5000000006694","","image-keyboard-response","141","213311","0.0-4.0-0.34","","img/red.png","32","trial","32","true","0.8,0.2","1:go_a","",""
"null","","html-keyboard-response","142","214323","0.0-4.0-1.34","","<img src=""img/red-n.png"" border=""10"">","null","trial","32","","0.8,0.2","1:go_a","0",""
"null","","html-keyboard-response","143","215330","0.0-4.0-2.34","","<div style=""font-size:60px;"">+</div>","null","","","","","","",""
"null","","image-keyboard-response","144","216832","0.0-4.0-0.35","","img/grey.png","null","trial","null","true","0.2,0.8","2:nogo_b","",""
"null","","html-keyboard-response","145","217836","0.0-4.0-1.35","","<img src=""img/grey-r.png"">","null","trial","null","","0.2,0.8","2:nogo_b","1",""
"null","","html-keyboard-response","146","218840","0.0-4.0-2.35","","<div style=""font-size:60px;"">+</div>","null","","","","","","",""
"847.2250000013446","","image-keyboard-response","147","219689","0.0-4.0-0.36","","img/grey.png","32","trial","null","false","0.2,0.8","2:nogo_b","",""
"null","","html-keyboard-response","148","220695","0.0-4.0-1.36","","<img src=""img/grey-n.png"" border=""10"">","null","trial","null","","0.2,0.8","2:nogo_b","0",""
"null","","html-keyboard-response","149","221706","0.0-4.0-2.36","","<div style=""font-size:60px;"">+</div>","null","","","","","","",""
"436.5800000014133","","image-keyboard-response","150","222144","0.0-4.0-0.37","","img/red.png","32","trial","32","true","0.8,0.2","1:go_a","",""
"null","","html-keyboard-response","151","223156","0.0-4.0-1.37","","<img src=""img/red-r.png"" border=""10"">","null","trial","32","","0.8,0.2","1:go_a","1",""
"null","","html-keyboard-response","152","224167","0.0-4.0-2.37","","<div style=""font-size:60px;"">+</div>","null","","","","","","",""
"578.1449999994948","","image-keyboard-response","153","224746","0.0-4.0-0.38","","img/red.png","32","trial","32","true","0.8,0.2","1:go_a","",""
"null","","html-keyboard-response","154","225757","0.0-4.0-1.38","","<img src=""img/red-r.png"" border=""10"">","null","trial","32","","0.8,0.2","1:go_a","1",""
"null","","html-keyboard-response","155","226767","0.0-4.0-2.38","","<div style=""font-size:60px;"">+</div>","null","","","","","","",""
"null","","image-keyboard-response","156","228279","0.0-4.0-0.39","","img/grey.png","null","trial","null","true","0.2,0.8","2:nogo_b","",""
"null","","html-keyboard-response","157","229288","0.0-4.0-1.39","","<img src=""img/grey-r.png"">","null","trial","null","","0.2,0.8","2:nogo_b","1",""
"null","","html-keyboard-response","158","230291","0.0-4.0-2.39","","<div style=""font-size:60px;"">+</div>","null","","","","","","",""
"null","","image-keyboard-response","159","231803","0.0-4.0-0.40","","img/grey.png","null","trial","null","true","0.2,0.8","2:nogo_b","",""
"null","","html-keyboard-response","160","232814","0.0-4.0-1.40","","<img src=""img/grey-n.png"">","null","trial","null","","0.2,0.8","2:nogo_b","0",""
"null","","html-keyboard-response","161","233819","0.0-4.0-2.40","","<div style=""font-size:60px;"">+</div>","null","","","","","","",""
"374.67000000106054","","image-keyboard-response","162","234195","0.0-4.0-0.41","","img/red.png","32","trial","32","true","0.8,0.2","1:go_a","",""
"null","","html-keyboard-response","163","235213","0.0-4.0-1.41","","<img src=""img/red-r.png"" border=""10"">","null","trial","32","","0.8,0.2","1:go_a","1",""
"null","","html-keyboard-response","164","236217","0.0-4.0-2.41","","<div style=""font-size:60px;"">+</div>","null","","","","","","",""
"898.1600000006438","","image-keyboard-response","165","237117","0.0-4.0-0.42","","img/grey.png","32","trial","null","false","0.2,0.8","2:nogo_b","",""
"null","","html-keyboard-response","166","238121","0.0-4.0-1.42","","<img src=""img/grey-n.png"" border=""10"">","null","trial","null","","0.2,0.8","2:nogo_b","0",""
"null","","html-keyboard-response","167","239134","0.0-4.0-2.42","","<div style=""font-size:60px;"">+</div>","null","","","","","","",""
"548.2850000007602","","image-keyboard-response","168","239684","0.0-4.0-0.43","","img/red.png","32","trial","32","true","0.8,0.2","1:go_a","",""
"null","","html-keyboard-response","169","240687","0.0-4.0-1.43","","<img src=""img/red-n.png"" border=""10"">","null","trial","32","","0.8,0.2","1:go_a","0",""
"null","","html-keyboard-response","170","241697","0.0-4.0-2.43","","<div style=""font-size:60px;"">+</div>","null","","","","","","",""
"null","","image-keyboard-response","171","243212","0.0-4.0-0.44","","img/grey.png","null","trial","null","true","0.2,0.8","2:nogo_b","",""
"null","","html-keyboard-response","172","244223","0.0-4.0-1.44","","<img src=""img/grey-r.png"">","null","trial","null","","0.2,0.8","2:nogo_b","1",""
"null","","html-keyboard-response","173","245238","0.0-4.0-2.44","","<div style=""font-size:60px;"">+</div>","null","","","","","","",""
"546.0200000015902","","image-keyboard-response","174","245785","0.0-4.0-0.45","","img/red.png","32","trial","32","true","0.8,0.2","1:go_a","",""
"null","","html-keyboard-response","175","246797","0.0-4.0-1.45","","<img src=""img/red-r.png"" border=""10"">","null","trial","32","","0.8,0.2","1:go_a","1",""
"null","","html-keyboard-response","176","247806","0.0-4.0-2.45","","<div style=""font-size:60px;"">+</div>","null","","","","","","",""
"547.0400000012887","","image-keyboard-response","177","248356","0.0-4.0-0.46","","img/red.png","32","trial","32","true","0.8,0.2","1:go_a","",""
"null","","html-keyboard-response","178","249365","0.0-4.0-1.46","","<img src=""img/red-n.png"" border=""10"">","null","trial","32","","0.8,0.2","1:go_a","0",""
"null","","html-keyboard-response","179","250381","0.0-4.0-2.46","","<div style=""font-size:60px;"">+</div>","null","","","","","","",""
"null","","image-keyboard-response","180","251893","0.0-4.0-0.47","","img/grey.png","null","trial","null","true","0.2,0.8","2:nogo_b","",""
"null","","html-keyboard-response","181","252911","0.0-4.0-1.47","","<img src=""img/grey-r.png"">","null","trial","null","","0.2,0.8","2:nogo_b","1",""
"null","","html-keyboard-response","182","253927","0.0-4.0-2.47","","<div style=""font-size:60px;"">+</div>","null","","","","","","",""
"501.72999999995227","","image-keyboard-response","183","254430","0.0-4.0-0.48","","img/red.png","32","trial","32","true","0.8,0.2","1:go_a","",""
"null","","html-keyboard-response","184","255433","0.0-4.0-1.48","","<img src=""img/red-r.png"" border=""10"">","null","trial","32","","0.8,0.2","1:go_a","1",""
"null","","html-keyboard-response","185","256448","0.0-4.0-2.48","","<div style=""font-size:60px;"">+</div>","null","","","","","","",""
"null","","image-keyboard-response","186","257960","0.0-4.0-0.49","","img/grey.png","null","trial","null","true","0.2,0.8","2:nogo_b","",""
"null","","html-keyboard-response","187","258975","0.0-4.0-1.49","","<img src=""img/grey-r.png"">","null","trial","null","","0.2,0.8","2:nogo_b","1",""
"null","","html-keyboard-response","188","259989","0.0-4.0-2.49","","<div style=""font-size:60px;"">+</div>","null","","","","","","",""
"null","","image-keyboard-response","189","261491","0.0-4.0-0.50","","img/grey.png","null","trial","null","true","0.2,0.8","2:nogo_b","",""
"null","","html-keyboard-response","190","262508","0.0-4.0-1.50","","<img src=""img/grey-r.png"">","null","trial","null","","0.2,0.8","2:nogo_b","1",""
"null","","html-keyboard-response","191","263524","0.0-4.0-2.50","","<div style=""font-size:60px;"">+</div>","null","","","","","","",""
"582.8199999995995","","image-keyboard-response","192","264108","0.0-4.0-0.51","","img/red.png","32","trial","32","true","0.8,0.2","1:go_a","",""
"null","","html-keyboard-response","193","265112","0.0-4.0-1.51","","<img src=""img/red-r.png"" border=""10"">","null","trial","32","","0.8,0.2","1:go_a","1",""
"null","","html-keyboard-response","194","266118","0.0-4.0-2.51","","<div style=""font-size:60px;"">+</div>","null","","","","","","",""
"600.5250000016531","","image-keyboard-response","195","266719","0.0-4.0-0.52","","img/red.png","32","trial","32","true","0.8,0.2","1:go_a","",""
"null","","html-keyboard-response","196","267729","0.0-4.0-1.52","","<img src=""img/red-r.png"" border=""10"">","null","trial","32","","0.8,0.2","1:go_a","1",""
"null","","html-keyboard-response","197","268732","0.0-4.0-2.52","","<div style=""font-size:60px;"">+</div>","null","","","","","","",""
"378.2400000017951","","image-keyboard-response","198","269112","0.0-4.0-0.53","","img/grey.png","32","trial","null","false","0.2,0.8","2:nogo_b","",""
"null","","html-keyboard-response","199","270116","0.0-4.0-1.53","","<img src=""img/grey-n.png"" border=""10"">","null","trial","null","","0.2,0.8","2:nogo_b","0",""
"null","","html-keyboard-response","200","271126","0.0-4.0-2.53","","<div style=""font-size:60px;"">+</div>","null","","","","","","",""
"null","","image-keyboard-response","201","272636","0.0-4.0-0.54","","img/grey.png","null","trial","null","true","0.2,0.8","2:nogo_b","",""
"null","","html-keyboard-response","202","273639","0.0-4.0-1.54","","<img src=""img/grey-r.png"">","null","trial","null","","0.2,0.8","2:nogo_b","1",""
"null","","html-keyboard-response","203","274640","0.0-4.0-2.54","","<div style=""font-size:60px;"">+</div>","null","","","","","","",""
"418.6050000026007","","image-keyboard-response","204","275060","0.0-4.0-0.55","","img/red.png","32","trial","32","true","0.8,0.2","1:go_a","",""
"null","","html-keyboard-response","205","276068","0.0-4.0-1.55","","<img src=""img/red-r.png"" border=""10"">","null","trial","32","","0.8,0.2","1:go_a","1",""
"null","","html-keyboard-response","206","277074","0.0-4.0-2.55","","<div style=""font-size:60px;"">+</div>","null","","","","","","",""
"818.5449999982957","","image-keyboard-response","207","277894","0.0-4.0-0.56","","img/grey.png","32","trial","null","false","0.2,0.8","2:nogo_b","",""
"null","","html-keyboard-response","208","278903","0.0-4.0-1.56","","<img src=""img/grey-r.png"" border=""10"">","null","trial","null","","0.2,0.8","2:nogo_b","1",""
"null","","html-keyboard-response","209","279914","0.0-4.0-2.56","","<div style=""font-size:60px;"">+</div>","null","","","","","","",""
"380.61499999818625","","image-keyboard-response","210","280296","0.0-4.0-0.57","","img/red.png","32","trial","32","true","0.8,0.2","1:go_a","",""
"null","","html-keyboard-response","211","281310","0.0-4.0-1.57","","<img src=""img/red-n.png"" border=""10"">","null","trial","32","","0.8,0.2","1:go_a","0",""
"null","","html-keyboard-response","212","282312","0.0-4.0-2.57","","<div style=""font-size:60px;"">+</div>","null","","","","","","",""
"null","","image-keyboard-response","213","283826","0.0-4.0-0.58","","img/grey.png","null","trial","null","true","0.2,0.8","2:nogo_b","",""
"null","","html-keyboard-response","214","284828","0.0-4.0-1.58","","<img src=""img/grey-r.png"">","null","trial","null","","0.2,0.8","2:nogo_b","1",""
"null","","html-keyboard-response","215","285837","0.0-4.0-2.58","","<div style=""font-size:60px;"">+</div>","null","","","","","","",""
"483.9700000011362","","image-keyboard-response","216","286322","0.0-4.0-0.59","","img/red.png","32","trial","32","true","0.8,0.2","1:go_a","",""
"null","","html-keyboard-response","217","287339","0.0-4.0-1.59","","<img src=""img/red-n.png"" border=""10"">","null","trial","32","","0.8,0.2","1:go_a","0",""
"null","","html-keyboard-response","218","288358","0.0-4.0-2.59","","<div style=""font-size:60px;"">+</div>","null","","","","","","",""
"4748.445000001113","","instructions","219","293108","0.0-5.0","[{""page_index"":0,""viewing_time"":4748.155000001192}]","","","","","","","","",""
"1146.984999999404","","image-keyboard-response","220","294257","0.0-6.0-0.0","","img/purple.png","32","trial","32","true","0.8,0.2","1:go_a","",""
"null","","html-keyboard-response","221","295261","0.0-6.0-1.0","","<img src=""img/purple-r.png"" border=""10"">","null","trial","32","","0.8,0.2","1:go_a","1",""
"null","","html-keyboard-response","222","296276","0.0-6.0-2.0","","<div style=""font-size:60px;"">+</div>","null","","","","","","",""
"358.0500000024913","","image-keyboard-response","223","296636","0.0-6.0-0.1","","img/blue.png","32","trial","null","false","0.2,0.8","4:nogo_d","",""
"null","","html-keyboard-response","224","297639","0.0-6.0-1.1","","<img src=""img/blue-r.png"" border=""10"">","null","trial","null","","0.2,0.8","4:nogo_d","1",""
"null","","html-keyboard-response","225","298654","0.0-6.0-2.1","","<div style=""font-size:60px;"">+</div>","null","","","","","","",""
"662.2900000002119","","image-keyboard-response","226","299317","0.0-6.0-0.2","","img/yellow.png","32","trial","32","true","0.8,0.2","3:go_c","",""
"null","","html-keyboard-response","227","300322","0.0-6.0-1.2","","<img src=""img/yellow-r.png"" border=""10"">","null","trial","32","","0.8,0.2","3:go_c","1",""
"null","","html-keyboard-response","228","301329","0.0-6.0-2.2","","<div style=""font-size:60px;"">+</div>","null","","","","","","",""
"491.04000000085216","","image-keyboard-response","229","301821","0.0-6.0-0.3","","img/red.png","32","trial","null","false","0.2,0.8","2:nogo_b","",""
"null","","html-keyboard-response","230","302835","0.0-6.0-1.3","","<img src=""img/red-n.png"" border=""10"">","null","trial","null","","0.2,0.8","2:nogo_b","0",""
"null","","html-keyboard-response","231","303851","0.0-6.0-2.3","","<div style=""font-size:60px;"">+</div>","null","","","","","","",""
"482.6299999986077","","image-keyboard-response","232","304335","0.0-6.0-0.4","","img/blue.png","32","trial","null","false","0.2,0.8","4:nogo_d","",""
"null","","html-keyboard-response","233","305350","0.0-6.0-1.4","","<img src=""img/blue-n.png"" border=""10"">","null","trial","null","","0.2,0.8","4:nogo_d","0",""
"null","","html-keyboard-response","234","306365","0.0-6.0-2.4","","<div style=""font-size:60px;"">+</div>","null","","","","","","",""
"511.5750000004773","","image-keyboard-response","235","306877","0.0-6.0-0.5","","img/red.png","32","trial","null","false","0.2,0.8","2:nogo_b","",""
"null","","html-keyboard-response","236","307884","0.0-6.0-1.5","","<img src=""img/red-n.png"" border=""10"">","null","trial","null","","0.2,0.8","2:nogo_b","0",""
"null","","html-keyboard-response","237","308897","0.0-6.0-2.5","","<div style=""font-size:60px;"">+</div>","null","","","","","","",""
"485.6199999994715","","image-keyboard-response","238","309384","0.0-6.0-0.6","","img/yellow.png","32","trial","32","true","0.8,0.2","3:go_c","",""
"null","","html-keyboard-response","239","310394","0.0-6.0-1.6","","<img src=""img/yellow-r.png"" border=""10"">","null","trial","32","","0.8,0.2","3:go_c","1",""
"null","","html-keyboard-response","240","311405","0.0-6.0-2.6","","<div style=""font-size:60px;"">+</div>","null","","","","","","",""
"425.4450000007637","","image-keyboard-response","241","311832","0.0-6.0-0.7","","img/purple.png","32","trial","32","true","0.8,0.2","1:go_a","",""
"null","","html-keyboard-response","242","312849","0.0-6.0-1.7","","<img src=""img/purple-r.png"" border=""10"">","null","trial","32","","0.8,0.2","1:go_a","1",""
"null","","html-keyboard-response","243","313859","0.0-6.0-2.7","","<div style=""font-size:60px;"">+</div>","null","","","","","","",""
"598.7600000008242","","image-keyboard-response","244","314459","0.0-6.0-0.8","","img/purple.png","32","trial","32","true","0.8,0.2","1:go_a","",""
"null","","html-keyboard-response","245","315476","0.0-6.0-1.8","","<img src=""img/purple-r.png"" border=""10"">","null","trial","32","","0.8,0.2","1:go_a","1",""
"null","","html-keyboard-response","246","316478","0.0-6.0-2.8","","<div style=""font-size:60px;"">+</div>","null","","","","","","",""
"543.2600000022212","","image-keyboard-response","247","317023","0.0-6.0-0.9","","img/blue.png","32","trial","null","false","0.2,0.8","4:nogo_d","",""
"null","","html-keyboard-response","248","318031","0.0-6.0-1.9","","<img src=""img/blue-n.png"" border=""10"">","null","trial","null","","0.2,0.8","4:nogo_d","0",""
"null","","html-keyboard-response","249","319035","0.0-6.0-2.9","","<div style=""font-size:60px;"">+</div>","null","","","","","","",""
"null","","image-keyboard-response","250","320542","0.0-6.0-0.10","","img/red.png","null","trial","null","true","0.2,0.8","2:nogo_b","",""
"null","","html-keyboard-response","251","321557","0.0-6.0-1.10","","<img src=""img/red-r.png"">","null","trial","null","","0.2,0.8","2:nogo_b","1",""
"null","","html-keyboard-response","252","322559","0.0-6.0-2.10","","<div style=""font-size:60px;"">+</div>","null","","","","","","",""
"459.36499999882653","","image-keyboard-response","253","323020","0.0-6.0-0.11","","img/yellow.png","32","trial","32","true","0.8,0.2","3:go_c","",""
"null","","html-keyboard-response","254","324029","0.0-6.0-1.11","","<img src=""img/yellow-r.png"" border=""10"">","null","trial","32","","0.8,0.2","3:go_c","1",""
"null","","html-keyboard-response","255","325035","0.0-6.0-2.11","","<div style=""font-size:60px;"">+</div>","null","","","","","","",""
"null","","image-keyboard-response","256","326537","0.0-6.0-0.12","","img/red.png","null","trial","null","true","0.2,0.8","2:nogo_b","",""
"null","","html-keyboard-response","257","327543","0.0-6.0-1.12","","<img src=""img/red-r.png"">","null","trial","null","","0.2,0.8","2:nogo_b","1",""
"null","","html-keyboard-response","258","328559","0.0-6.0-2.12","","<div style=""font-size:60px;"">+</div>","null","","","","","","",""
"633.1350000000093","","image-keyboard-response","259","329193","0.0-6.0-0.13","","img/yellow.png","32","trial","32","true","0.8,0.2","3:go_c","",""
"null","","html-keyboard-response","260","330208","0.0-6.0-1.13","","<img src=""img/yellow-r.png"" border=""10"">","null","trial","32","","0.8,0.2","3:go_c","1",""
"null","","html-keyboard-response","261","331223","0.0-6.0-2.13","","<div style=""font-size:60px;"">+</div>","null","","","","","","",""
"584.6400000009453","","image-keyboard-response","262","331809","0.0-6.0-0.14","","img/blue.png","32","trial","null","false","0.2,0.8","4:nogo_d","",""
"null","","html-keyboard-response","263","332815","0.0-6.0-1.14","","<img src=""img/blue-n.png"" border=""10"">","null","trial","null","","0.2,0.8","4:nogo_d","0",""
"null","","html-keyboard-response","264","333829","0.0-6.0-2.14","","<div style=""font-size:60px;"">+</div>","null","","","","","","",""
"578.140000001411","","image-keyboard-response","265","334409","0.0-6.0-0.15","","img/purple.png","32","trial","32","true","0.8,0.2","1:go_a","",""
"null","","html-keyboard-response","266","335425","0.0-6.0-1.15","","<img src=""img/purple-r.png"" border=""10"">","null","trial","32","","0.8,0.2","1:go_a","1",""
"null","","html-keyboard-response","267","336432","0.0-6.0-2.15","","<div style=""font-size:60px;"">+</div>","null","","","","","","",""
"567.2400000003399","","image-keyboard-response","268","337001","0.0-6.0-0.16","","img/yellow.png","32","trial","32","true","0.8,0.2","3:go_c","",""
"null","","html-keyboard-response","269","338015","0.0-6.0-1.16","","<img src=""img/yellow-r.png"" border=""10"">","null","trial","32","","0.8,0.2","3:go_c","1",""
"null","","html-keyboard-response","270","339018","0.0-6.0-2.16","","<div style=""font-size:60px;"">+</div>","null","","","","","","",""
"581.0349999992177","","image-keyboard-response","271","339600","0.0-6.0-0.17","","img/blue.png","32","trial","null","false","0.2,0.8","4:nogo_d","",""
"null","","html-keyboard-response","272","340613","0.0-6.0-1.17","","<img src=""img/blue-n.png"" border=""10"">","null","trial","null","","0.2,0.8","4:nogo_d","0",""
"null","","html-keyboard-response","273","341623","0.0-6.0-2.17","","<div style=""font-size:60px;"">+</div>","null","","","","","","",""
"570.4350000014529","","image-keyboard-response","274","342195","0.0-6.0-0.18","","img/purple.png","32","trial","32","true","0.8,0.2","1:go_a","",""
"null","","html-keyboard-response","275","343203","0.0-6.0-1.18","","<img src=""img/purple-r.png"" border=""10"">","null","trial","32","","0.8,0.2","1:go_a","1",""
"null","","html-keyboard-response","276","344213","0.0-6.0-2.18","","<div style=""font-size:60px;"">+</div>","null","","","","","","",""
"715.7150000020629","","image-keyboard-response","277","344930","0.0-6.0-0.19","","img/red.png","32","trial","null","false","0.2,0.8","2:nogo_b","",""
"null","","html-keyboard-response","278","345945","0.0-6.0-1.19","","<img src=""img/red-r.png"" border=""10"">","null","trial","null","","0.2,0.8","2:nogo_b","1",""
"null","","html-keyboard-response","279","346951","0.0-6.0-2.19","","<div style=""font-size:60px;"">+</div>","null","","","","","","",""
"515.8049999991199","","image-keyboard-response","280","347468","0.0-6.0-0.20","","img/purple.png","32","trial","32","true","0.8,0.2","1:go_a","",""
"null","","html-keyboard-response","281","348477","0.0-6.0-1.20","","<img src=""img/purple-r.png"" border=""10"">","null","trial","32","","0.8,0.2","1:go_a","1",""
"null","","html-keyboard-response","282","349480","0.0-6.0-2.20","","<div style=""font-size:60px;"">+</div>","null","","","","","","",""
"null","","image-keyboard-response","283","350990","0.0-6.0-0.21","","img/blue.png","null","trial","null","true","0.2,0.8","4:nogo_d","",""
"null","","html-keyboard-response","284","351997","0.0-6.0-1.21","","<img src=""img/blue-r.png"">","null","trial","null","","0.2,0.8","4:nogo_d","1",""
"null","","html-keyboard-response","285","353002","0.0-6.0-2.21","","<div style=""font-size:60px;"">+</div>","null","","","","","","",""
"532.2149999992689","","image-keyboard-response","286","353535","0.0-6.0-0.22","","img/red.png","32","trial","null","false","0.2,0.8","2:nogo_b","",""
"null","","html-keyboard-response","287","354549","0.0-6.0-1.22","","<img src=""img/red-n.png"" border=""10"">","null","trial","null","","0.2,0.8","2:nogo_b","0",""
"null","","html-keyboard-response","288","355561","0.0-6.0-2.22","","<div style=""font-size:60px;"">+</div>","null","","","","","","",""
"521.8750000022119","","image-keyboard-response","289","356084","0.0-6.0-0.23","","img/yellow.png","32","trial","32","true","0.8,0.2","3:go_c","",""
"null","","html-keyboard-response","290","357096","0.0-6.0-1.23","","<img src=""img/yellow-r.png"" border=""10"">","null","trial","32","","0.8,0.2","3:go_c","1",""
"null","","html-keyboard-response","291","358102","0.0-6.0-2.23","","<div style=""font-size:60px;"">+</div>","null","","","","","","",""
"836.8499999997439","","image-keyboard-response","292","358941","0.0-6.0-0.24","","img/red.png","32","trial","null","false","0.2,0.8","2:nogo_b","",""
"null","","html-keyboard-response","293","359948","0.0-6.0-1.24","","<img src=""img/red-n.png"" border=""10"">","null","trial","null","","0.2,0.8","2:nogo_b","0",""
"null","","html-keyboard-response","294","360962","0.0-6.0-2.24","","<div style=""font-size:60px;"">+</div>","null","","","","","","",""
"535.6800000008661","","image-keyboard-response","295","361499","0.0-6.0-0.25","","img/purple.png","32","trial","32","true","0.8,0.2","1:go_a","",""
"null","","html-keyboard-response","296","362516","0.0-6.0-1.25","","<img src=""img/purple-r.png"" border=""10"">","null","trial","32","","0.8,0.2","1:go_a","1",""
"null","","html-keyboard-response","297","363521","0.0-6.0-2.25","","<div style=""font-size:60px;"">+</div>","null","","","","","","",""
"null","","image-keyboard-response","298","365034","0.0-6.0-0.26","","img/blue.png","null","trial","null","true","0.2,0.8","4:nogo_d","",""
"null","","html-keyboard-response","299","366048","0.0-6.0-1.26","","<img src=""img/blue-r.png"">","null","trial","null","","0.2,0.8","4:nogo_d","1",""
"null","","html-keyboard-response","300","367058","0.0-6.0-2.26","","<div style=""font-size:60px;"">+</div>","null","","","","","","",""
"625.0999999974738","","image-keyboard-response","301","367684","0.0-6.0-0.27","","img/yellow.png","32","trial","32","true","0.8,0.2","3:go_c","",""
"null","","html-keyboard-response","302","368720","0.0-6.0-1.27","","<img src=""img/yellow-r.png"" border=""10"">","null","trial","32","","0.8,0.2","3:go_c","1",""
"null","","html-keyboard-response","303","369732","0.0-6.0-2.27","","<div style=""font-size:60px;"">+</div>","null","","","","","","",""
"1430.1850000010454","","image-keyboard-response","304","371163","0.0-6.0-0.28","","img/purple.png","32","trial","32","true","0.8,0.2","1:go_a","",""
"null","","html-keyboard-response","305","372174","0.0-6.0-1.28","","<img src=""img/purple-r.png"" border=""10"">","null","trial","32","","0.8,0.2","1:go_a","1",""
"null","","html-keyboard-response","306","373185","0.0-6.0-2.28","","<div style=""font-size:60px;"">+</div>","null","","","","","","",""
"472.73000000132015","","image-keyboard-response","307","373659","0.0-6.0-0.29","","img/yellow.png","32","trial","32","true","0.8,0.2","3:go_c","",""
"null","","html-keyboard-response","308","374664","0.0-6.0-1.29","","<img src=""img/yellow-r.png"" border=""10"">","null","trial","32","","0.8,0.2","3:go_c","1",""
"null","","html-keyboard-response","309","375668","0.0-6.0-2.29","","<div style=""font-size:60px;"">+</div>","null","","","","","","",""
"776.7700000004261","","image-keyboard-response","310","376446","0.0-6.0-0.30","","img/blue.png","32","trial","null","false","0.2,0.8","4:nogo_d","",""
"null","","html-keyboard-response","311","377461","0.0-6.0-1.30","","<img src=""img/blue-n.png"" border=""10"">","null","trial","null","","0.2,0.8","4:nogo_d","0",""
"null","","html-keyboard-response","312","378476","0.0-6.0-2.30","","<div style=""font-size:60px;"">+</div>","null","","","","","","",""
"487.47499999805586","","image-keyboard-response","313","378965","0.0-6.0-0.31","","img/red.png","32","trial","null","false","0.2,0.8","2:nogo_b","",""
"null","","html-keyboard-response","314","379978","0.0-6.0-1.31","","<img src=""img/red-n.png"" border=""10"">","null","trial","null","","0.2,0.8","2:nogo_b","0",""
"null","","html-keyboard-response","315","380984","0.0-6.0-2.31","","<div style=""font-size:60px;"">+</div>","null","","","","","","",""
"null","","image-keyboard-response","316","382498","0.0-6.0-0.32","","img/blue.png","null","trial","null","true","0.2,0.8","4:nogo_d","",""
"null","","html-keyboard-response","317","383502","0.0-6.0-1.32","","<img src=""img/blue-r.png"">","null","trial","null","","0.2,0.8","4:nogo_d","1",""
"null","","html-keyboard-response","318","384514","0.0-6.0-2.32","","<div style=""font-size:60px;"">+</div>","null","","","","","","",""
"504.8500000011991","","image-keyboard-response","319","385020","0.0-6.0-0.33","","img/purple.png","32","trial","32","true","0.8,0.2","1:go_a","",""
"null","","html-keyboard-response","320","386069","0.0-6.0-1.33","","<img src=""img/purple-r.png"" border=""10"">","null","trial","32","","0.8,0.2","1:go_a","1",""
"null","","html-keyboard-response","321","387075","0.0-6.0-2.33","","<div style=""font-size:60px;"">+</div>","null","","","","","","",""
"569.0949999989243","","image-keyboard-response","322","387645","0.0-6.0-0.34","","img/yellow.png","32","trial","32","true","0.8,0.2","3:go_c","",""
"null","","html-keyboard-response","323","388664","0.0-6.0-1.34","","<img src=""img/yellow-r.png"" border=""10"">","null","trial","32","","0.8,0.2","3:go_c","1",""
"null","","html-keyboard-response","324","389671","0.0-6.0-2.34","","<div style=""font-size:60px;"">+</div>","null","","","","","","",""
"707.8099999998813","","image-keyboard-response","325","390381","0.0-6.0-0.35","","img/red.png","32","trial","null","false","0.2,0.8","2:nogo_b","",""
"null","","html-keyboard-response","326","391395","0.0-6.0-1.35","","<img src=""img/red-n.png"" border=""10"">","null","trial","null","","0.2,0.8","2:nogo_b","0",""
"null","","html-keyboard-response","327","392403","0.0-6.0-2.35","","<div style=""font-size:60px;"">+</div>","null","","","","","","",""
"770.9599999979837","","image-keyboard-response","328","393175","0.0-6.0-0.36","","img/red.png","32","trial","null","false","0.2,0.8","2:nogo_b","",""
"null","","html-keyboard-response","329","394182","0.0-6.0-1.36","","<img src=""img/red-r.png"" border=""10"">","null","trial","null","","0.2,0.8","2:nogo_b","1",""
"null","","html-keyboard-response","330","395197","0.0-6.0-2.36","","<div style=""font-size:60px;"">+</div>","null","","","","","","",""
"null","","image-keyboard-response","331","396701","0.0-6.0-0.37","","img/blue.png","null","trial","null","true","0.2,0.8","4:nogo_d","",""
"null","","html-keyboard-response","332","397706","0.0-6.0-1.37","","<img src=""img/blue-r.png"">","null","trial","null","","0.2,0.8","4:nogo_d","1",""
"null","","html-keyboard-response","333","398708","0.0-6.0-2.37","","<div style=""font-size:60px;"">+</div>","null","","","","","","",""
"617.6050000031246","","image-keyboard-response","334","399327","0.0-6.0-0.38","","img/purple.png","32","trial","32","true","0.8,0.2","1:go_a","",""
"null","","html-keyboard-response","335","400330","0.0-6.0-1.38","","<img src=""img/purple-n.png"" border=""10"">","null","trial","32","","0.8,0.2","1:go_a","0",""
"null","","html-keyboard-response","336","401347","0.0-6.0-2.38","","<div style=""font-size:60px;"">+</div>","null","","","","","","",""
"563.9499999997206","","image-keyboard-response","337","401912","0.0-6.0-0.39","","img/yellow.png","32","trial","32","true","0.8,0.2","3:go_c","",""
"null","","html-keyboard-response","338","402918","0.0-6.0-1.39","","<img src=""img/yellow-r.png"" border=""10"">","null","trial","32","","0.8,0.2","3:go_c","1",""
"null","","html-keyboard-response","339","403924","0.0-6.0-2.39","","<div style=""font-size:60px;"">+</div>","null","","","","","","",""
"516.9849999984144","","image-keyboard-response","340","404442","0.0-6.0-0.40","","img/blue.png","32","trial","null","false","0.2,0.8","4:nogo_d","",""
"null","","html-keyboard-response","341","405459","0.0-6.0-1.40","","<img src=""img/blue-n.png"" border=""10"">","null","trial","null","","0.2,0.8","4:nogo_d","0",""
"null","","html-keyboard-response","342","406475","0.0-6.0-2.40","","<div style=""font-size:60px;"">+</div>","null","","","","","","",""
"529.6000000016065","","image-keyboard-response","343","407006","0.0-6.0-0.41","","img/red.png","32","trial","null","false","0.2,0.8","2:nogo_b","",""
"null","","html-keyboard-response","344","408011","0.0-6.0-1.41","","<img src=""img/red-n.png"" border=""10"">","null","trial","null","","0.2,0.8","2:nogo_b","0",""
"null","","html-keyboard-response","345","409019","0.0-6.0-2.41","","<div style=""font-size:60px;"">+</div>","null","","","","","","",""
"505.9949999995297","","image-keyboard-response","346","409526","0.0-6.0-0.42","","img/purple.png","32","trial","32","true","0.8,0.2","1:go_a","",""
"null","","html-keyboard-response","347","410535","0.0-6.0-1.42","","<img src=""img/purple-n.png"" border=""10"">","null","trial","32","","0.8,0.2","1:go_a","0",""
"null","","html-keyboard-response","348","411539","0.0-6.0-2.42","","<div style=""font-size:60px;"">+</div>","null","","","","","","",""
"553.2300000013784","","image-keyboard-response","349","412094","0.0-6.0-0.43","","img/yellow.png","32","trial","32","true","0.8,0.2","3:go_c","",""
"null","","html-keyboard-response","350","413107","0.0-6.0-1.43","","<img src=""img/yellow-n.png"" border=""10"">","null","trial","32","","0.8,0.2","3:go_c","0",""
"null","","html-keyboard-response","351","414121","0.0-6.0-2.43","","<div style=""font-size:60px;"">+</div>","null","","","","","","",""
"null","","image-keyboard-response","352","415631","0.0-6.0-0.44","","img/red.png","null","trial","null","true","0.2,0.8","2:nogo_b","",""
"null","","html-keyboard-response","353","416635","0.0-6.0-1.44","","<img src=""img/red-r.png"">","null","trial","null","","0.2,0.8","2:nogo_b","1",""
"null","","html-keyboard-response","354","417650","0.0-6.0-2.44","","<div style=""font-size:60px;"">+</div>","null","","","","","","",""
"289.81000000203494","","image-keyboard-response","355","417941","0.0-6.0-0.45","","img/purple.png","32","trial","32","true","0.8,0.2","1:go_a","",""
"null","","html-keyboard-response","356","418958","0.0-6.0-1.45","","<img src=""img/purple-r.png"" border=""10"">","null","trial","32","","0.8,0.2","1:go_a","1",""
"null","","html-keyboard-response","357","419966","0.0-6.0-2.45","","<div style=""font-size:60px;"">+</div>","null","","","","","","",""
"352.9500000004191","","image-keyboard-response","358","420321","0.0-6.0-0.46","","img/blue.png","32","trial","null","false","0.2,0.8","4:nogo_d","",""
"null","","html-keyboard-response","359","421338","0.0-6.0-1.46","","<img src=""img/blue-n.png"" border=""10"">","null","trial","null","","0.2,0.8","4:nogo_d","0",""
"null","","html-keyboard-response","360","422343","0.0-6.0-2.46","","<div style=""font-size:60px;"">+</div>","null","","","","","","",""
"424.70999999926426","","image-keyboard-response","361","422769","0.0-6.0-0.47","","img/yellow.png","32","trial","32","true","0.8,0.2","3:go_c","",""
"null","","html-keyboard-response","362","423781","0.0-6.0-1.47","","<img src=""img/yellow-n.png"" border=""10"">","null","trial","32","","0.8,0.2","3:go_c","0",""
"null","","html-keyboard-response","363","424793","0.0-6.0-2.47","","<div style=""font-size:60px;"">+</div>","null","","","","","","",""
"null","","image-keyboard-response","364","426303","0.0-6.0-0.48","","img/blue.png","null","trial","null","true","0.2,0.8","4:nogo_d","",""
"null","","html-keyboard-response","365","427307","0.0-6.0-1.48","","<img src=""img/blue-r.png"">","null","trial","null","","0.2,0.8","4:nogo_d","1",""
"null","","html-keyboard-response","366","428321","0.0-6.0-2.48","","<div style=""font-size:60px;"">+</div>","null","","","","","","",""
"484.75499999767635","","image-keyboard-response","367","428807","0.0-6.0-0.49","","img/red.png","32","trial","null","false","0.2,0.8","2:nogo_b","",""
"null","","html-keyboard-response","368","429812","0.0-6.0-1.49","","<img src=""img/red-n.png"" border=""10"">","null","trial","null","","0.2,0.8","2:nogo_b","0",""
"null","","html-keyboard-response","369","430818","0.0-6.0-2.49","","<div style=""font-size:60px;"">+</div>","null","","","","","","",""
"558.440000000759","","image-keyboard-response","370","431378","0.0-6.0-0.50","","img/purple.png","32","trial","32","true","0.8,0.2","1:go_a","",""
"null","","html-keyboard-response","371","432391","0.0-6.0-1.50","","<img src=""img/purple-r.png"" border=""10"">","null","trial","32","","0.8,0.2","1:go_a","1",""
"null","","html-keyboard-response","372","433392","0.0-6.0-2.50","","<div style=""font-size:60px;"">+</div>","null","","","","","","",""
"516.3499999981141","","image-keyboard-response","373","433910","0.0-6.0-0.51","","img/yellow.png","32","trial","32","true","0.8,0.2","3:go_c","",""
"null","","html-keyboard-response","374","434916","0.0-6.0-1.51","","<img src=""img/yellow-n.png"" border=""10"">","null","trial","32","","0.8,0.2","3:go_c","0",""
"null","","html-keyboard-response","375","435931","0.0-6.0-2.51","","<div style=""font-size:60px;"">+</div>","null","","","","","","",""
"null","","image-keyboard-response","376","437433","0.0-6.0-0.52","","img/blue.png","null","trial","null","true","0.2,0.8","4:nogo_d","",""
"null","","html-keyboard-response","377","438447","0.0-6.0-1.52","","<img src=""img/blue-r.png"">","null","trial","null","","0.2,0.8","4:nogo_d","1",""
"null","","html-keyboard-response","378","439451","0.0-6.0-2.52","","<div style=""font-size:60px;"">+</div>","null","","","","","","",""
"590.5649999986636","","image-keyboard-response","379","440043","0.0-6.0-0.53","","img/red.png","32","trial","null","false","0.2,0.8","2:nogo_b","",""
"null","","html-keyboard-response","380","441053","0.0-6.0-1.53","","<img src=""img/red-n.png"" border=""10"">","null","trial","null","","0.2,0.8","2:nogo_b","0",""
"null","","html-keyboard-response","381","442057","0.0-6.0-2.53","","<div style=""font-size:60px;"">+</div>","null","","","","","","",""
"565.9249999989988","","image-keyboard-response","382","442624","0.0-6.0-0.54","","img/purple.png","32","trial","32","true","0.8,0.2","1:go_a","",""
"null","","html-keyboard-response","383","443631","0.0-6.0-1.54","","<img src=""img/purple-n.png"" border=""10"">","null","trial","32","","0.8,0.2","1:go_a","0",""
"null","","html-keyboard-response","384","444637","0.0-6.0-2.54","","<div style=""font-size:60px;"">+</div>","null","","","","","","",""
"579.3599999997532","","image-keyboard-response","385","445217","0.0-6.0-0.55","","img/yellow.png","32","trial","32","true","0.8,0.2","3:go_c","",""
"null","","html-keyboard-response","386","446229","0.0-6.0-1.55","","<img src=""img/yellow-r.png"" border=""10"">","null","trial","32","","0.8,0.2","3:go_c","1",""
"null","","html-keyboard-response","387","447235","0.0-6.0-2.55","","<div style=""font-size:60px;"">+</div>","null","","","","","","",""
"645.3849999997765","","image-keyboard-response","388","447881","0.0-6.0-0.56","","img/yellow.png","32","trial","32","true","0.8,0.2","3:go_c","",""
"null","","html-keyboard-response","389","448899","0.0-6.0-1.56","","<img src=""img/yellow-n.png"" border=""10"">","null","trial","32","","0.8,0.2","3:go_c","0",""
"null","","html-keyboard-response","390","449907","0.0-6.0-2.56","","<div style=""font-size:60px;"">+</div>","null","","","","","","",""
"709.6499999970547","","image-keyboard-response","391","450617","0.0-6.0-0.57","","img/purple.png","32","trial","32","true","0.8,0.2","1:go_a","",""
"null","","html-keyboard-response","392","451631","0.0-6.0-1.57","","<img src=""img/purple-n.png"" border=""10"">","null","trial","32","","0.8,0.2","1:go_a","0",""
"null","","html-keyboard-response","393","452641","0.0-6.0-2.57","","<div style=""font-size:60px;"">+</div>","null","","","","","","",""
"463.66000000125496","","image-keyboard-response","394","453106","0.0-6.0-0.58","","img/blue.png","32","trial","null","false","0.2,0.8","4:nogo_d","",""
"null","","html-keyboard-response","395","454112","0.0-6.0-1.58","","<img src=""img/blue-n.png"" border=""10"">","null","trial","null","","0.2,0.8","4:nogo_d","0",""
"null","","html-keyboard-response","396","455121","0.0-6.0-2.58","","<div style=""font-size:60px;"">+</div>","null","","","","","","",""
"721.9650000006077","","image-keyboard-response","397","455844","0.0-6.0-0.59","","img/red.png","32","trial","null","false","0.2,0.8","2:nogo_b","",""
"null","","html-keyboard-response","398","456852","0.0-6.0-1.59","","<img src=""img/red-n.png"" border=""10"">","null","trial","null","","0.2,0.8","2:nogo_b","0",""
"null","","html-keyboard-response","399","457855","0.0-6.0-2.59","","<div style=""font-size:60px;"">+</div>","null","","","","","","",""
"576.3850000002421","","image-keyboard-response","400","458432","0.0-6.0-0.60","","img/yellow.png","32","trial","32","true","0.8,0.2","3:go_c","",""
"null","","html-keyboard-response","401","459443","0.0-6.0-1.60","","<img src=""img/yellow-r.png"" border=""10"">","null","trial","32","","0.8,0.2","3:go_c","1",""
"null","","html-keyboard-response","402","460448","0.0-6.0-2.60","","<div style=""font-size:60px;"">+</div>","null","","","","","","",""
"null","","image-keyboard-response","403","461954","0.0-6.0-0.61","","img/red.png","null","trial","null","true","0.2,0.8","2:nogo_b","",""
"null","","html-keyboard-response","404","462970","0.0-6.0-1.61","","<img src=""img/red-n.png"">","null","trial","null","","0.2,0.8","2:nogo_b","0",""
"null","","html-keyboard-response","405","463981","0.0-6.0-2.61","","<div style=""font-size:60px;"">+</div>","null","","","","","","",""
"618.6950000009965","","image-keyboard-response","406","464601","0.0-6.0-0.62","","img/purple.png","32","trial","32","true","0.8,0.2","1:go_a","",""
"null","","html-keyboard-response","407","465616","0.0-6.0-1.62","","<img src=""img/purple-r.png"" border=""10"">","null","trial","32","","0.8,0.2","1:go_a","1",""
"null","","html-keyboard-response","408","466620","0.0-6.0-2.62","","<div style=""font-size:60px;"">+</div>","null","","","","","","",""
"null","","image-keyboard-response","409","468136","0.0-6.0-0.63","","img/blue.png","null","trial","null","true","0.2,0.8","4:nogo_d","",""
"null","","html-keyboard-response","410","469140","0.0-6.0-1.63","","<img src=""img/blue-r.png"">","null","trial","null","","0.2,0.8","4:nogo_d","1",""
"null","","html-keyboard-response","411","470141","0.0-6.0-2.63","","<div style=""font-size:60px;"">+</div>","null","","","","","","",""
"634.9300000001676","","image-keyboard-response","412","470777","0.0-6.0-0.64","","img/blue.png","32","trial","null","false","0.2,0.8","4:nogo_d","",""
"null","","html-keyboard-response","413","471790","0.0-6.0-1.64","","<img src=""img/blue-n.png"" border=""10"">","null","trial","null","","0.2,0.8","4:nogo_d","0",""
"null","","html-keyboard-response","414","472801","0.0-6.0-2.64","","<div style=""font-size:60px;"">+</div>","null","","","","","","",""
"null","","image-keyboard-response","415","474305","0.0-6.0-0.65","","img/purple.png","null","trial","32","false","0.8,0.2","1:go_a","",""
"null","","html-keyboard-response","416","475315","0.0-6.0-1.65","","<img src=""img/purple-n.png"">","null","trial","32","","0.8,0.2","1:go_a","0",""
"null","","html-keyboard-response","417","476328","0.0-6.0-2.65","","<div style=""font-size:60px;"">+</div>","null","","","","","","",""
"593.7450000019162","","image-keyboard-response","418","476923","0.0-6.0-0.66","","img/red.png","32","trial","null","false","0.2,0.8","2:nogo_b","",""
"null","","html-keyboard-response","419","477927","0.0-6.0-1.66","","<img src=""img/red-n.png"" border=""10"">","null","trial","null","","0.2,0.8","2:nogo_b","0",""
"null","","html-keyboard-response","420","478934","0.0-6.0-2.66","","<div style=""font-size:60px;"">+</div>","null","","","","","","",""
"474.45499999955064","","image-keyboard-response","421","479409","0.0-6.0-0.67","","img/yellow.png","32","trial","32","true","0.8,0.2","3:go_c","",""
"null","","html-keyboard-response","422","480426","0.0-6.0-1.67","","<img src=""img/yellow-r.png"" border=""10"">","null","trial","32","","0.8,0.2","3:go_c","1",""
"null","","html-keyboard-response","423","481430","0.0-6.0-2.67","","<div style=""font-size:60px;"">+</div>","null","","","","","","",""
"460.19999999768334","","image-keyboard-response","424","481891","0.0-6.0-0.68","","img/yellow.png","32","trial","32","true","0.8,0.2","3:go_c","",""
"null","","html-keyboard-response","425","482902","0.0-6.0-1.68","","<img src=""img/yellow-r.png"" border=""10"">","null","trial","32","","0.8,0.2","3:go_c","1",""
"null","","html-keyboard-response","426","483923","0.0-6.0-2.68","","<div style=""font-size:60px;"">+</div>","null","","","","","","",""
"null","","image-keyboard-response","427","485428","0.0-6.0-0.69","","img/blue.png","null","trial","null","true","0.2,0.8","4:nogo_d","",""
"null","","html-keyboard-response","428","486435","0.0-6.0-1.69","","<img src=""img/blue-r.png"">","null","trial","null","","0.2,0.8","4:nogo_d","1",""
"null","","html-keyboard-response","429","487438","0.0-6.0-2.69","","<div style=""font-size:60px;"">+</div>","null","","","","","","",""
"683.8050000005751","","image-keyboard-response","430","488124","0.0-6.0-0.70","","img/purple.png","32","trial","32","true","0.8,0.2","1:go_a","",""
"null","","html-keyboard-response","431","489137","0.0-6.0-1.70","","<img src=""img/purple-r.png"" border=""10"">","null","trial","32","","0.8,0.2","1:go_a","1",""
"null","","html-keyboard-response","432","490143","0.0-6.0-2.70","","<div style=""font-size:60px;"">+</div>","null","","","","","","",""
"null","","image-keyboard-response","433","491651","0.0-6.0-0.71","","img/red.png","null","trial","null","true","0.2,0.8","2:nogo_b","",""
"null","","html-keyboard-response","434","492668","0.0-6.0-1.71","","<img src=""img/red-r.png"">","null","trial","null","","0.2,0.8","2:nogo_b","1",""
"null","","html-keyboard-response","435","493669","0.0-6.0-2.71","","<div style=""font-size:60px;"">+</div>","null","","","","","","",""
"471.19999999995343","","image-keyboard-response","436","494141","0.0-6.0-0.72","","img/yellow.png","32","trial","32","true","0.8,0.2","3:go_c","",""
"null","","html-keyboard-response","437","495155","0.0-6.0-1.72","","<img src=""img/yellow-r.png"" border=""10"">","null","trial","32","","0.8,0.2","3:go_c","1",""
"null","","html-keyboard-response","438","496172","0.0-6.0-2.72","","<div style=""font-size:60px;"">+</div>","null","","","","","","",""
"null","","image-keyboard-response","439","497683","0.0-6.0-0.73","","img/purple.png","null","trial","32","false","0.8,0.2","1:go_a","",""
"null","","html-keyboard-response","440","498700","0.0-6.0-1.73","","<img src=""img/purple-n.png"">","null","trial","32","","0.8,0.2","1:go_a","0",""
"null","","html-keyboard-response","441","499701","0.0-6.0-2.73","","<div style=""font-size:60px;"">+</div>","null","","","","","","",""
"764.869999999064","","image-keyboard-response","442","500468","0.0-6.0-0.74","","img/red.png","32","trial","null","false","0.2,0.8","2:nogo_b","",""
"null","","html-keyboard-response","443","501478","0.0-6.0-1.74","","<img src=""img/red-n.png"" border=""10"">","null","trial","null","","0.2,0.8","2:nogo_b","0",""
"null","","html-keyboard-response","444","502484","0.0-6.0-2.74","","<div style=""font-size:60px;"">+</div>","null","","","","","","",""
"688.285000000149","","image-keyboard-response","445","503174","0.0-6.0-0.75","","img/blue.png","32","trial","null","false","0.2,0.8","4:nogo_d","",""
"null","","html-keyboard-response","446","504185","0.0-6.0-1.75","","<img src=""img/blue-n.png"" border=""10"">","null","trial","null","","0.2,0.8","4:nogo_d","0",""
"null","","html-keyboard-response","447","505189","0.0-6.0-2.75","","<div style=""font-size:60px;"">+</div>","null","","","","","","",""
"594.2299999988172","","image-keyboard-response","448","505785","0.0-6.0-0.76","","img/purple.png","32","trial","32","true","0.8,0.2","1:go_a","",""
"null","","html-keyboard-response","449","506793","0.0-6.0-1.76","","<img src=""img/purple-r.png"" border=""10"">","null","trial","32","","0.8,0.2","1:go_a","1",""
"null","","html-keyboard-response","450","507800","0.0-6.0-2.76","","<div style=""font-size:60px;"">+</div>","null","","","","","","",""
"null","","image-keyboard-response","451","509311","0.0-6.0-0.77","","img/red.png","null","trial","null","true","0.2,0.8","2:nogo_b","",""
"null","","html-keyboard-response","452","510313","0.0-6.0-1.77","","<img src=""img/red-r.png"">","null","trial","null","","0.2,0.8","2:nogo_b","1",""
"null","","html-keyboard-response","453","511325","0.0-6.0-2.77","","<div style=""font-size:60px;"">+</div>","null","","","","","","",""
"589.1350000019884","","image-keyboard-response","454","511915","0.0-6.0-0.78","","img/yellow.png","32","trial","32","true","0.8,0.2","3:go_c","",""
"null","","html-keyboard-response","455","512927","0.0-6.0-1.78","","<img src=""img/yellow-r.png"" border=""10"">","null","trial","32","","0.8,0.2","3:go_c","1",""
"null","","html-keyboard-response","456","513930","0.0-6.0-2.78","","<div style=""font-size:60px;"">+</div>","null","","","","","","",""
"null","","image-keyboard-response","457","515434","0.0-6.0-0.79","","img/blue.png","null","trial","null","true","0.2,0.8","4:nogo_d","",""
"null","","html-keyboard-response","458","516439","0.0-6.0-1.79","","<img src=""img/blue-r.png"">","null","trial","null","","0.2,0.8","4:nogo_d","1",""
"null","","html-keyboard-response","459","517456","0.0-6.0-2.79","","<div style=""font-size:60px;"">+</div>","null","","","","","","",""
"null","","image-keyboard-response","460","518969","0.0-6.0-0.80","","img/red.png","null","trial","null","true","0.2,0.8","2:nogo_b","",""
"null","","html-keyboard-response","461","519972","0.0-6.0-1.80","","<img src=""img/red-r.png"">","null","trial","null","","0.2,0.8","2:nogo_b","1",""
"null","","html-keyboard-response","462","520986","0.0-6.0-2.80","","<div style=""font-size:60px;"">+</div>","null","","","","","","",""
"448.2900000002701","","image-keyboard-response","463","521436","0.0-6.0-0.81","","img/purple.png","32","trial","32","true","0.8,0.2","1:go_a","",""
"null","","html-keyboard-response","464","522443","0.0-6.0-1.81","","<img src=""img/purple-r.png"" border=""10"">","null","trial","32","","0.8,0.2","1:go_a","1",""
"null","","html-keyboard-response","465","523449","0.0-6.0-2.81","","<div style=""font-size:60px;"">+</div>","null","","","","","","",""
"null","","image-keyboard-response","466","524962","0.0-6.0-0.82","","img/blue.png","null","trial","null","true","0.2,0.8","4:nogo_d","",""
"null","","html-keyboard-response","467","525972","0.0-6.0-1.82","","<img src=""img/blue-r.png"">","null","trial","null","","0.2,0.8","4:nogo_d","1",""
"null","","html-keyboard-response","468","526985","0.0-6.0-2.82","","<div style=""font-size:60px;"">+</div>","null","","","","","","",""
"499.7850000000326","","image-keyboard-response","469","527486","0.0-6.0-0.83","","img/yellow.png","32","trial","32","true","0.8,0.2","3:go_c","",""
"null","","html-keyboard-response","470","528493","0.0-6.0-1.83","","<img src=""img/yellow-n.png"" border=""10"">","null","trial","32","","0.8,0.2","3:go_c","0",""
"null","","html-keyboard-response","471","529511","0.0-6.0-2.83","","<div style=""font-size:60px;"">+</div>","null","","","","","","",""
"767.8000000014435","","image-keyboard-response","472","530280","0.0-6.0-0.84","","img/purple.png","32","trial","32","true","0.8,0.2","1:go_a","",""
"null","","html-keyboard-response","473","531283","0.0-6.0-1.84","","<img src=""img/purple-n.png"" border=""10"">","null","trial","32","","0.8,0.2","1:go_a","0",""
"null","","html-keyboard-response","474","532296","0.0-6.0-2.84","","<div style=""font-size:60px;"">+</div>","null","","","","","","",""
"358.52000000164844","","image-keyboard-response","475","532655","0.0-6.0-0.85","","img/yellow.png","32","trial","32","true","0.8,0.2","3:go_c","",""
"null","","html-keyboard-response","476","533662","0.0-6.0-1.85","","<img src=""img/yellow-r.png"" border=""10"">","null","trial","32","","0.8,0.2","3:go_c","1",""
"null","","html-keyboard-response","477","534664","0.0-6.0-2.85","","<div style=""font-size:60px;"">+</div>","null","","","","","","",""
"732.2000000022817","","image-keyboard-response","478","535398","0.0-6.0-0.86","","img/blue.png","32","trial","null","false","0.2,0.8","4:nogo_d","",""
"null","","html-keyboard-response","479","536415","0.0-6.0-1.86","","<img src=""img/blue-n.png"" border=""10"">","null","trial","null","","0.2,0.8","4:nogo_d","0",""
"null","","html-keyboard-response","480","537430","0.0-6.0-2.86","","<div style=""font-size:60px;"">+</div>","null","","","","","","",""
"617.1749999993481","","image-keyboard-response","481","538049","0.0-6.0-0.87","","img/red.png","32","trial","null","false","0.2,0.8","2:nogo_b","",""
"null","","html-keyboard-response","482","539058","0.0-6.0-1.87","","<img src=""img/red-n.png"" border=""10"">","null","trial","null","","0.2,0.8","2:nogo_b","0",""
"null","","html-keyboard-response","483","540062","0.0-6.0-2.87","","<div style=""font-size:60px;"">+</div>","null","","","","","","",""
"null","","image-keyboard-response","484","541564","0.0-6.0-0.88","","img/red.png","null","trial","null","true","0.2,0.8","2:nogo_b","",""
"null","","html-keyboard-response","485","542577","0.0-6.0-1.88","","<img src=""img/red-r.png"">","null","trial","null","","0.2,0.8","2:nogo_b","1",""
"null","","html-keyboard-response","486","543585","0.0-6.0-2.88","","<div style=""font-size:60px;"">+</div>","null","","","","","","",""
"693.025000000489","","image-keyboard-response","487","544279","0.0-6.0-0.89","","img/yellow.png","32","trial","32","true","0.8,0.2","3:go_c","",""
"null","","html-keyboard-response","488","545298","0.0-6.0-1.89","","<img src=""img/yellow-n.png"" border=""10"">","null","trial","32","","0.8,0.2","3:go_c","0",""
"null","","html-keyboard-response","489","546313","0.0-6.0-2.89","","<div style=""font-size:60px;"">+</div>","null","","","","","","",""
"null","","image-keyboard-response","490","547841","0.0-6.0-0.90","","img/blue.png","null","trial","null","true","0.2,0.8","4:nogo_d","",""
"null","","html-keyboard-response","491","548847","0.0-6.0-1.90","","<img src=""img/blue-r.png"">","null","trial","null","","0.2,0.8","4:nogo_d","1",""
"null","","html-keyboard-response","492","549854","0.0-6.0-2.90","","<div style=""font-size:60px;"">+</div>","null","","","","","","",""
"null","","image-keyboard-response","493","551370","0.0-6.0-0.91","","img/purple.png","null","trial","32","false","0.8,0.2","1:go_a","",""
"null","","html-keyboard-response","494","552375","0.0-6.0-1.91","","<img src=""img/purple-n.png"">","null","trial","32","","0.8,0.2","1:go_a","0",""
"null","","html-keyboard-response","495","553388","0.0-6.0-2.91","","<div style=""font-size:60px;"">+</div>","null","","","","","","",""
"622.6150000002235","","image-keyboard-response","496","554012","0.0-6.0-0.92","","img/purple.png","32","trial","32","true","0.8,0.2","1:go_a","",""
"null","","html-keyboard-response","497","555016","0.0-6.0-1.92","","<img src=""img/purple-n.png"" border=""10"">","null","trial","32","","0.8,0.2","1:go_a","0",""
"null","","html-keyboard-response","498","556021","0.0-6.0-2.92","","<div style=""font-size:60px;"">+</div>","null","","","","","","",""
"null","","image-keyboard-response","499","557533","0.0-6.0-0.93","","img/blue.png","null","trial","null","true","0.2,0.8","4:nogo_d","",""
"null","","html-keyboard-response","500","558552","0.0-6.0-1.93","","<img src=""img/blue-r.png"">","null","trial","null","","0.2,0.8","4:nogo_d","1",""
"null","","html-keyboard-response","501","559562","0.0-6.0-2.93","","<div style=""font-size:60px;"">+</div>","null","","","","","","",""
"532.5049999993062","","image-keyboard-response","502","560096","0.0-6.0-0.94","","img/yellow.png","32","trial","32","true","0.8,0.2","3:go_c","",""
"null","","html-keyboard-response","503","561107","0.0-6.0-1.94","","<img src=""img/yellow-r.png"" border=""10"">","null","trial","32","","0.8,0.2","3:go_c","1",""
"null","","html-keyboard-response","504","562122","0.0-6.0-2.94","","<div style=""font-size:60px;"">+</div>","null","","","","","","",""
"null","","image-keyboard-response","505","563634","0.0-6.0-0.95","","img/red.png","null","trial","null","true","0.2,0.8","2:nogo_b","",""
"null","","html-keyboard-response","506","564646","0.0-6.0-1.95","","<img src=""img/red-r.png"">","null","trial","null","","0.2,0.8","2:nogo_b","1",""
"null","","html-keyboard-response","507","565656","0.0-6.0-2.95","","<div style=""font-size:60px;"">+</div>","null","","","","","","",""
"455.39999999885913","","image-keyboard-response","508","566112","0.0-6.0-0.96","","img/red.png","32","trial","null","false","0.2,0.8","2:nogo_b","",""
"null","","html-keyboard-response","509","567121","0.0-6.0-1.96","","<img src=""img/red-n.png"" border=""10"">","null","trial","null","","0.2,0.8","2:nogo_b","0",""
"null","","html-keyboard-response","510","568135","0.0-6.0-2.96","","<div style=""font-size:60px;"">+</div>","null","","","","","","",""
"517.0949999992736","","image-keyboard-response","511","568653","0.0-6.0-0.97","","img/blue.png","32","trial","null","false","0.2,0.8","4:nogo_d","",""
"null","","html-keyboard-response","512","569662","0.0-6.0-1.97","","<img src=""img/blue-r.png"" border=""10"">","null","trial","null","","0.2,0.8","4:nogo_d","1",""
"null","","html-keyboard-response","513","570676","0.0-6.0-2.97","","<div style=""font-size:60px;"">+</div>","null","","","","","","",""
"727.2349999984726","","image-keyboard-response","514","571405","0.0-6.0-0.98","","img/purple.png","32","trial","32","true","0.8,0.2","1:go_a","",""
"null","","html-keyboard-response","515","572409","0.0-6.0-1.98","","<img src=""img/purple-r.png"" border=""10"">","null","trial","32","","0.8,0.2","1:go_a","1",""
"null","","html-keyboard-response","516","573413","0.0-6.0-2.98","","<div style=""font-size:60px;"">+</div>","null","","","","","","",""
"588.7449999973178","","image-keyboard-response","517","574003","0.0-6.0-0.99","","img/yellow.png","32","trial","32","true","0.8,0.2","3:go_c","",""
"null","","html-keyboard-response","518","575019","0.0-6.0-1.99","","<img src=""img/yellow-n.png"" border=""10"">","null","trial","32","","0.8,0.2","3:go_c","0",""
"null","","html-keyboard-response","519","576037","0.0-6.0-2.99","","<div style=""font-size:60px;"">+</div>","null","","","","","","",""
"null","","image-keyboard-response","520","577539","0.0-6.0-0.100","","img/purple.png","null","trial","32","false","0.8,0.2","1:go_a","",""
"null","","html-keyboard-response","521","578548","0.0-6.0-1.100","","<img src=""img/purple-n.png"">","null","trial","32","","0.8,0.2","1:go_a","0",""
"null","","html-keyboard-response","522","579559","0.0-6.0-2.100","","<div style=""font-size:60px;"">+</div>","null","","","","","","",""
"629.0049999989569","","image-keyboard-response","523","580189","0.0-6.0-0.101","","img/yellow.png","32","trial","32","true","0.8,0.2","3:go_c","",""
"null","","html-keyboard-response","524","581206","0.0-6.0-1.101","","<img src=""img/yellow-n.png"" border=""10"">","null","trial","32","","0.8,0.2","3:go_c","0",""
"null","","html-keyboard-response","525","582213","0.0-6.0-2.101","","<div style=""font-size:60px;"">+</div>","null","","","","","","",""
"876.524999999674","","image-keyboard-response","526","583091","0.0-6.0-0.102","","img/blue.png","32","trial","null","false","0.2,0.8","4:nogo_d","",""
"null","","html-keyboard-response","527","584094","0.0-6.0-1.102","","<img src=""img/blue-r.png"" border=""10"">","null","trial","null","","0.2,0.8","4:nogo_d","1",""
"null","","html-keyboard-response","528","585104","0.0-6.0-2.102","","<div style=""font-size:60px;"">+</div>","null","","","","","","",""
"null","","image-keyboard-response","529","586618","0.0-6.0-0.103","","img/red.png","null","trial","null","true","0.2,0.8","2:nogo_b","",""
"null","","html-keyboard-response","530","587627","0.0-6.0-1.103","","<img src=""img/red-r.png"">","null","trial","null","","0.2,0.8","2:nogo_b","1",""
"null","","html-keyboard-response","531","588650","0.0-6.0-2.103","","<div style=""font-size:60px;"">+</div>","null","","","","","","",""
"null","","image-keyboard-response","532","590154","0.0-6.0-0.104","","img/purple.png","null","trial","32","false","0.8,0.2","1:go_a","",""
"null","","html-keyboard-response","533","591162","0.0-6.0-1.104","","<img src=""img/purple-n.png"">","null","trial","32","","0.8,0.2","1:go_a","0",""
"null","","html-keyboard-response","534","592166","0.0-6.0-2.104","","<div style=""font-size:60px;"">+</div>","null","","","","","","",""
"681.2550000031479","","image-keyboard-response","535","592848","0.0-6.0-0.105","","img/blue.png","32","trial","null","false","0.2,0.8","4:nogo_d","",""
"null","","html-keyboard-response","536","593860","0.0-6.0-1.105","","<img src=""img/blue-n.png"" border=""10"">","null","trial","null","","0.2,0.8","4:nogo_d","0",""
"null","","html-keyboard-response","537","594865","0.0-6.0-2.105","","<div style=""font-size:60px;"">+</div>","null","","","","","","",""
"503.2600000014063","","image-keyboard-response","538","595370","0.0-6.0-0.106","","img/red.png","32","trial","null","false","0.2,0.8","2:nogo_b","",""
"null","","html-keyboard-response","539","596376","0.0-6.0-1.106","","<img src=""img/red-r.png"" border=""10"">","null","trial","null","","0.2,0.8","2:nogo_b","1",""
"null","","html-keyboard-response","540","597392","0.0-6.0-2.106","","<div style=""font-size:60px;"">+</div>","null","","","","","","",""
"null","","image-keyboard-response","541","598906","0.0-6.0-0.107","","img/yellow.png","null","trial","32","false","0.8,0.2","3:go_c","",""
"null","","html-keyboard-response","542","599914","0.0-6.0-1.107","","<img src=""img/yellow-n.png"">","null","trial","32","","0.8,0.2","3:go_c","0",""
"null","","html-keyboard-response","543","600924","0.0-6.0-2.107","","<div style=""font-size:60px;"">+</div>","null","","","","","","",""
"null","","image-keyboard-response","544","602430","0.0-6.0-0.108","","img/blue.png","null","trial","null","true","0.2,0.8","4:nogo_d","",""
"null","","html-keyboard-response","545","603435","0.0-6.0-1.108","","<img src=""img/blue-n.png"">","null","trial","null","","0.2,0.8","4:nogo_d","0",""
"null","","html-keyboard-response","546","604441","0.0-6.0-2.108","","<div style=""font-size:60px;"">+</div>","null","","","","","","",""
"null","","image-keyboard-response","547","605943","0.0-6.0-0.109","","img/yellow.png","null","trial","32","false","0.8,0.2","3:go_c","",""
"null","","html-keyboard-response","548","606946","0.0-6.0-1.109","","<img src=""img/yellow-n.png"">","null","trial","32","","0.8,0.2","3:go_c","0",""
"null","","html-keyboard-response","549","607957","0.0-6.0-2.109","","<div style=""font-size:60px;"">+</div>","null","","","","","","",""
"713.244999999064","","image-keyboard-response","550","608672","0.0-6.0-0.110","","img/red.png","32","trial","null","false","0.2,0.8","2:nogo_b","",""
"null","","html-keyboard-response","551","609685","0.0-6.0-1.110","","<img src=""img/red-n.png"" border=""10"">","null","trial","null","","0.2,0.8","2:nogo_b","0",""
"null","","html-keyboard-response","552","610688","0.0-6.0-2.110","","<div style=""font-size:60px;"">+</div>","null","","","","","","",""
"413.00499999849126","","image-keyboard-response","553","611103","0.0-6.0-0.111","","img/purple.png","32","trial","32","true","0.8,0.2","1:go_a","",""
"null","","html-keyboard-response","554","612117","0.0-6.0-1.111","","<img src=""img/purple-r.png"" border=""10"">","null","trial","32","","0.8,0.2","1:go_a","1",""
"null","","html-keyboard-response","555","613131","0.0-6.0-2.111","","<div style=""font-size:60px;"">+</div>","null","","","","","","",""
"null","","image-keyboard-response","556","614638","0.0-6.0-0.112","","img/yellow.png","null","trial","32","false","0.8,0.2","3:go_c","",""
"null","","html-keyboard-response","557","615646","0.0-6.0-1.112","","<img src=""img/yellow-n.png"">","null","trial","32","","0.8,0.2","3:go_c","0",""
"null","","html-keyboard-response","558","616655","0.0-6.0-2.112","","<div style=""font-size:60px;"">+</div>","null","","","","","","",""
"941.0000000025611","","image-keyboard-response","559","617597","0.0-6.0-0.113","","img/purple.png","32","trial","32","true","0.8,0.2","1:go_a","",""
"null","","html-keyboard-response","560","618604","0.0-6.0-1.113","","<img src=""img/purple-r.png"" border=""10"">","null","trial","32","","0.8,0.2","1:go_a","1",""
"null","","html-keyboard-response","561","619618","0.0-6.0-2.113","","<div style=""font-size:60px;"">+</div>","null","","","","","","",""
"null","","image-keyboard-response","562","621127","0.0-6.0-0.114","","img/blue.png","null","trial","null","true","0.2,0.8","4:nogo_d","",""
"null","","html-keyboard-response","563","622129","0.0-6.0-1.114","","<img src=""img/blue-r.png"">","null","trial","null","","0.2,0.8","4:nogo_d","1",""
"null","","html-keyboard-response","564","623143","0.0-6.0-2.114","","<div style=""font-size:60px;"">+</div>","null","","","","","","",""
"null","","image-keyboard-response","565","624656","0.0-6.0-0.115","","img/red.png","null","trial","null","true","0.2,0.8","2:nogo_b","",""
"null","","html-keyboard-response","566","625665","0.0-6.0-1.115","","<img src=""img/red-r.png"">","null","trial","null","","0.2,0.8","2:nogo_b","1",""
"null","","html-keyboard-response","567","626684","0.0-6.0-2.115","","<div style=""font-size:60px;"">+</div>","null","","","","","","",""
"489.815000000759","","image-keyboard-response","568","627177","0.0-6.0-0.116","","img/red.png","32","trial","null","false","0.2,0.8","2:nogo_b","",""
"null","","html-keyboard-response","569","628186","0.0-6.0-1.116","","<img src=""img/red-n.png"" border=""10"">","null","trial","null","","0.2,0.8","2:nogo_b","0",""
"null","","html-keyboard-response","570","629199","0.0-6.0-2.116","","<div style=""font-size:60px;"">+</div>","null","","","","","","",""
"null","","image-keyboard-response","571","630715","0.0-6.0-0.117","","img/yellow.png","null","trial","32","false","0.8,0.2","3:go_c","",""
"null","","html-keyboard-response","572","631727","0.0-6.0-1.117","","<img src=""img/yellow-n.png"">","null","trial","32","","0.8,0.2","3:go_c","0",""
"null","","html-keyboard-response","573","632742","0.0-6.0-2.117","","<div style=""font-size:60px;"">+</div>","null","","","","","","",""
"982.6150000008056","","image-keyboard-response","574","633727","0.0-6.0-0.118","","img/blue.png","32","trial","null","false","0.2,0.8","4:nogo_d","",""
"null","","html-keyboard-response","575","634735","0.0-6.0-1.118","","<img src=""img/blue-n.png"" border=""10"">","null","trial","null","","0.2,0.8","4:nogo_d","0",""
"null","","html-keyboard-response","576","635741","0.0-6.0-2.118","","<div style=""font-size:60px;"">+</div>","null","","","","","","",""
"585.7800000013085","","image-keyboard-response","577","636328","0.0-6.0-0.119","","img/purple.png","32","trial","32","true","0.8,0.2","1:go_a","",""
"null","","html-keyboard-response","578","637334","0.0-6.0-1.119","","<img src=""img/purple-r.png"" border=""10"">","null","trial","32","","0.8,0.2","1:go_a","1",""
"null","","html-keyboard-response","579","638350","0.0-6.0-2.119","","<div style=""font-size:60px;"">+</div>","null","","","","","","",""
"4048.390000000014","","instructions","580","642399","0.0-7.0","[{""page_index"":0,""viewing_time"":4048.064999999129}]","","","","","","","","",""
"739.1349999997765","","image-keyboard-response","581","643139","0.0-8.0-0.0","","img/orange.png","32","trial","32","true","1,0","3:go_c","",""
"null","","html-keyboard-response","582","644142","0.0-8.0-1.0","","<img src=""img/orange-r.png"" border=""10"">","null","trial","32","","1,0","3:go_c","1",""
"null","","html-keyboard-response","583","645144","0.0-8.0-2.0","","<div style=""font-size:60px;"">+</div>","null","","","","","","",""
"1208.0749999985565","","image-keyboard-response","584","646353","0.0-8.0-0.1","","img/yellow.png","32","trial","32","true","0.8,0.2","1:go_a","",""
"null","","html-keyboard-response","585","647356","0.0-8.0-1.1","","<img src=""img/yellow-r.png"" border=""10"">","null","trial","32","","0.8,0.2","1:go_a","1",""
"null","","html-keyboard-response","586","648366","0.0-8.0-2.1","","<div style=""font-size:60px;"">+</div>","null","","","","","","",""
"606.1149999987101","","image-keyboard-response","587","648973","0.0-8.0-0.2","","img/purple.png","32","trial","null","false","0,1","4:nogo_d","",""
"null","","html-keyboard-response","588","649985","0.0-8.0-1.2","","<img src=""img/purple-n.png"" border=""10"">","null","trial","null","","0,1","4:nogo_d","0",""
"null","","html-keyboard-response","589","651001","0.0-8.0-2.2","","<div style=""font-size:60px;"">+</div>","null","","","","","","",""
"545.1350000002421","","image-keyboard-response","590","651547","0.0-8.0-0.3","","img/blue.png","32","trial","null","false","0.2,0.8","2:nogo_b","",""
"null","","html-keyboard-response","591","652560","0.0-8.0-1.3","","<img src=""img/blue-r.png"" border=""10"">","null","trial","null","","0.2,0.8","2:nogo_b","1",""
"null","","html-keyboard-response","592","653565","0.0-8.0-2.3","","<div style=""font-size:60px;"">+</div>","null","","","","","","",""
"null","","image-keyboard-response","593","655083","0.0-8.0-0.4","","img/purple.png","null","trial","null","true","0,1","4:nogo_d","",""
"null","","html-keyboard-response","594","656100","0.0-8.0-1.4","","<img src=""img/purple-r.png"">","null","trial","null","","0,1","4:nogo_d","1",""
"null","","html-keyboard-response","595","657112","0.0-8.0-2.4","","<div style=""font-size:60px;"">+</div>","null","","","","","","",""
"516.6050000006799","","image-keyboard-response","596","657630","0.0-8.0-0.5","","img/yellow.png","32","trial","32","true","0.8,0.2","1:go_a","",""
"null","","html-keyboard-response","597","658647","0.0-8.0-1.5","","<img src=""img/yellow-r.png"" border=""10"">","null","trial","32","","0.8,0.2","1:go_a","1",""
"null","","html-keyboard-response","598","659661","0.0-8.0-2.5","","<div style=""font-size:60px;"">+</div>","null","","","","","","",""
"632.045000002021","","image-keyboard-response","599","660295","0.0-8.0-0.6","","img/orange.png","32","trial","32","true","1,0","3:go_c","",""
"null","","html-keyboard-response","600","661310","0.0-8.0-1.6","","<img src=""img/orange-r.png"" border=""10"">","null","trial","32","","1,0","3:go_c","1",""
"null","","html-keyboard-response","601","662316","0.0-8.0-2.6","","<div style=""font-size:60px;"">+</div>","null","","","","","","",""
"709.0700000007637","","image-keyboard-response","602","663027","0.0-8.0-0.7","","img/blue.png","32","trial","null","false","0.2,0.8","2:nogo_b","",""
"null","","html-keyboard-response","603","664041","0.0-8.0-1.7","","<img src=""img/blue-n.png"" border=""10"">","null","trial","null","","0.2,0.8","2:nogo_b","0",""
"null","","html-keyboard-response","604","665046","0.0-8.0-2.7","","<div style=""font-size:60px;"">+</div>","null","","","","","","",""
"null","","image-keyboard-response","605","666562","0.0-8.0-0.8","","img/blue.png","null","trial","null","true","0.2,0.8","2:nogo_b","",""
"null","","html-keyboard-response","606","667580","0.0-8.0-1.8","","<img src=""img/blue-r.png"">","null","trial","null","","0.2,0.8","2:nogo_b","1",""
"null","","html-keyboard-response","607","668582","0.0-8.0-2.8","","<div style=""font-size:60px;"">+</div>","null","","","","","","",""
"515.8050000027288","","image-keyboard-response","608","669100","0.0-8.0-0.9","","img/yellow.png","32","trial","32","true","0.8,0.2","1:go_a","",""
"null","","html-keyboard-response","609","670105","0.0-8.0-1.9","","<img src=""img/yellow-r.png"" border=""10"">","null","trial","32","","0.8,0.2","1:go_a","1",""
"null","","html-keyboard-response","610","671111","0.0-8.0-2.9","","<div style=""font-size:60px;"">+</div>","null","","","","","","",""
"400.94000000320375","","image-keyboard-response","611","671513","0.0-8.0-0.10","","img/orange.png","32","trial","32","true","1,0","3:go_c","",""
"null","","html-keyboard-response","612","672523","0.0-8.0-1.10","","<img src=""img/orange-r.png"" border=""10"">","null","trial","32","","1,0","3:go_c","1",""
"null","","html-keyboard-response","613","673533","0.0-8.0-2.10","","<div style=""font-size:60px;"">+</div>","null","","","","","","",""
"449.1699999999255","","image-keyboard-response","614","673984","0.0-8.0-0.11","","img/purple.png","32","trial","null","false","0,1","4:nogo_d","",""
"null","","html-keyboard-response","615","674990","0.0-8.0-1.11","","<img src=""img/purple-n.png"" border=""10"">","null","trial","null","","0,1","4:nogo_d","0",""
"null","","html-keyboard-response","616","676000","0.0-8.0-2.11","","<div style=""font-size:60px;"">+</div>","null","","","","","","",""
"347.9899999983609","","image-keyboard-response","617","676349","0.0-8.0-0.12","","img/purple.png","32","trial","null","false","0,1","4:nogo_d","",""
"null","","html-keyboard-response","618","677361","0.0-8.0-1.12","","<img src=""img/purple-n.png"" border=""10"">","null","trial","null","","0,1","4:nogo_d","0",""
"null","","html-keyboard-response","619","678375","0.0-8.0-2.12","","<div style=""font-size:60px;"">+</div>","null","","","","","","",""
"562.1750000027241","","image-keyboard-response","620","678938","0.0-8.0-0.13","","img/orange.png","32","trial","32","true","1,0","3:go_c","",""
"null","","html-keyboard-response","621","679948","0.0-8.0-1.13","","<img src=""img/orange-r.png"" border=""10"">","null","trial","32","","1,0","3:go_c","1",""
"null","","html-keyboard-response","622","680956","0.0-8.0-2.13","","<div style=""font-size:60px;"">+</div>","null","","","","","","",""
"597.5450000005076","","image-keyboard-response","623","681554","0.0-8.0-0.14","","img/blue.png","32","trial","null","false","0.2,0.8","2:nogo_b","",""
"null","","html-keyboard-response","624","682564","0.0-8.0-1.14","","<img src=""img/blue-n.png"" border=""10"">","null","trial","null","","0.2,0.8","2:nogo_b","0",""
"null","","html-keyboard-response","625","683578","0.0-8.0-2.14","","<div style=""font-size:60px;"">+</div>","null","","","","","","",""
"502.4249999986496","","image-keyboard-response","626","684081","0.0-8.0-0.15","","img/yellow.png","32","trial","32","true","0.8,0.2","1:go_a","",""
"null","","html-keyboard-response","627","685084","0.0-8.0-1.15","","<img src=""img/yellow-n.png"" border=""10"">","null","trial","32","","0.8,0.2","1:go_a","0",""
"null","","html-keyboard-response","628","686095","0.0-8.0-2.15","","<div style=""font-size:60px;"">+</div>","null","","","","","","",""
"null","","image-keyboard-response","629","687603","0.0-8.0-0.16","","img/purple.png","null","trial","null","true","0,1","4:nogo_d","",""
"null","","html-keyboard-response","630","688608","0.0-8.0-1.16","","<img src=""img/purple-r.png"">","null","trial","null","","0,1","4:nogo_d","1",""
"null","","html-keyboard-response","631","689612","0.0-8.0-2.16","","<div style=""font-size:60px;"">+</div>","null","","","","","","",""
"531.5550000014482","","image-keyboard-response","632","690145","0.0-8.0-0.17","","img/blue.png","32","trial","null","false","0.2,0.8","2:nogo_b","",""
"null","","html-keyboard-response","633","691158","0.0-8.0-1.17","","<img src=""img/blue-n.png"" border=""10"">","null","trial","null","","0.2,0.8","2:nogo_b","0",""
"null","","html-keyboard-response","634","692164","0.0-8.0-2.17","","<div style=""font-size:60px;"">+</div>","null","","","","","","",""
"529.7050000008894","","image-keyboard-response","635","692695","0.0-8.0-0.18","","img/yellow.png","32","trial","32","true","0.8,0.2","1:go_a","",""
"null","","html-keyboard-response","636","693705","0.0-8.0-1.18","","<img src=""img/yellow-r.png"" border=""10"">","null","trial","32","","0.8,0.2","1:go_a","1",""
"null","","html-keyboard-response","637","694710","0.0-8.0-2.18","","<div style=""font-size:60px;"">+</div>","null","","","","","","",""
"455.2799999982817","","image-keyboard-response","638","695166","0.0-8.0-0.19","","img/orange.png","32","trial","32","true","1,0","3:go_c","",""
"null","","html-keyboard-response","639","696172","0.0-8.0-1.19","","<img src=""img/orange-r.png"" border=""10"">","null","trial","32","","1,0","3:go_c","1",""
"null","","html-keyboard-response","640","697185","0.0-8.0-2.19","","<div style=""font-size:60px;"">+</div>","null","","","","","","",""
"null","","image-keyboard-response","641","698689","0.0-8.0-0.20","","img/purple.png","null","trial","null","true","0,1","4:nogo_d","",""
"null","","html-keyboard-response","642","699695","0.0-8.0-1.20","","<img src=""img/purple-r.png"">","null","trial","null","","0,1","4:nogo_d","1",""
"null","","html-keyboard-response","643","700702","0.0-8.0-2.20","","<div style=""font-size:60px;"">+</div>","null","","","","","","",""
"471.9949999998789","","image-keyboard-response","644","701175","0.0-8.0-0.21","","img/yellow.png","32","trial","32","true","0.8,0.2","1:go_a","",""
"null","","html-keyboard-response","645","702190","0.0-8.0-1.21","","<img src=""img/yellow-r.png"" border=""10"">","null","trial","32","","0.8,0.2","1:go_a","1",""
"null","","html-keyboard-response","646","703204","0.0-8.0-2.21","","<div style=""font-size:60px;"">+</div>","null","","","","","","",""
"542.6450000012992","","image-keyboard-response","647","703748","0.0-8.0-0.22","","img/orange.png","32","trial","32","true","1,0","3:go_c","",""
"null","","html-keyboard-response","648","704763","0.0-8.0-1.22","","<img src=""img/orange-r.png"" border=""10"">","null","trial","32","","1,0","3:go_c","1",""
"null","","html-keyboard-response","649","705766","0.0-8.0-2.22","","<div style=""font-size:60px;"">+</div>","null","","","","","","",""
"null","","image-keyboard-response","650","707269","0.0-8.0-0.23","","img/blue.png","null","trial","null","true","0.2,0.8","2:nogo_b","",""
"null","","html-keyboard-response","651","708272","0.0-8.0-1.23","","<img src=""img/blue-r.png"">","null","trial","null","","0.2,0.8","2:nogo_b","1",""
"null","","html-keyboard-response","652","709281","0.0-8.0-2.23","","<div style=""font-size:60px;"">+</div>","null","","","","","","",""
"624.845000002184","","image-keyboard-response","653","709907","0.0-8.0-0.24","","img/yellow.png","32","trial","32","true","0.8,0.2","1:go_a","",""
"null","","html-keyboard-response","654","710918","0.0-8.0-1.24","","<img src=""img/yellow-r.png"" border=""10"">","null","trial","32","","0.8,0.2","1:go_a","1",""
"null","","html-keyboard-response","655","711929","0.0-8.0-2.24","","<div style=""font-size:60px;"">+</div>","null","","","","","","",""
"728.109999999986","","image-keyboard-response","656","712658","0.0-8.0-0.25","","img/orange.png","32","trial","32","true","1,0","3:go_c","",""
"null","","html-keyboard-response","657","713663","0.0-8.0-1.25","","<img src=""img/orange-r.png"" border=""10"">","null","trial","32","","1,0","3:go_c","1",""
"null","","html-keyboard-response","658","714674","0.0-8.0-2.25","","<div style=""font-size:60px;"">+</div>","null","","","","","","",""
"null","","image-keyboard-response","659","716184","0.0-8.0-0.26","","img/blue.png","null","trial","null","true","0.2,0.8","2:nogo_b","",""
"null","","html-keyboard-response","660","717198","0.0-8.0-1.26","","<img src=""img/blue-n.png"">","null","trial","null","","0.2,0.8","2:nogo_b","0",""
"null","","html-keyboard-response","661","718212","0.0-8.0-2.26","","<div style=""font-size:60px;"">+</div>","null","","","","","","",""
"null","","image-keyboard-response","662","719723","0.0-8.0-0.27","","img/purple.png","null","trial","null","true","0,1","4:nogo_d","",""
"null","","html-keyboard-response","663","720739","0.0-8.0-1.27","","<img src=""img/purple-r.png"">","null","trial","null","","0,1","4:nogo_d","1",""
"null","","html-keyboard-response","664","721744","0.0-8.0-2.27","","<div style=""font-size:60px;"">+</div>","null","","","","","","",""
"486.6199999996461","","image-keyboard-response","665","722232","0.0-8.0-0.28","","img/orange.png","32","trial","32","true","1,0","3:go_c","",""
"null","","html-keyboard-response","666","723239","0.0-8.0-1.28","","<img src=""img/orange-r.png"" border=""10"">","null","trial","32","","1,0","3:go_c","1",""
"null","","html-keyboard-response","667","724247","0.0-8.0-2.28","","<div style=""font-size:60px;"">+</div>","null","","","","","","",""
"380.6499999992084","","image-keyboard-response","668","724629","0.0-8.0-0.29","","img/yellow.png","32","trial","32","true","0.8,0.2","1:go_a","",""
"null","","html-keyboard-response","669","725646","0.0-8.0-1.29","","<img src=""img/yellow-r.png"" border=""10"">","null","trial","32","","0.8,0.2","1:go_a","1",""
"null","","html-keyboard-response","670","726663","0.0-8.0-2.29","","<div style=""font-size:60px;"">+</div>","null","","","","","","",""
"null","","image-keyboard-response","671","728179","0.0-8.0-0.30","","img/blue.png","null","trial","null","true","0.2,0.8","2:nogo_b","",""
"null","","html-keyboard-response","672","729186","0.0-8.0-1.30","","<img src=""img/blue-r.png"">","null","trial","null","","0.2,0.8","2:nogo_b","1",""
"null","","html-keyboard-response","673","730194","0.0-8.0-2.30","","<div style=""font-size:60px;"">+</div>","null","","","","","","",""
"null","","image-keyboard-response","674","731708","0.0-8.0-0.31","","img/purple.png","null","trial","null","true","0,1","4:nogo_d","",""
"null","","html-keyboard-response","675","732722","0.0-8.0-1.31","","<img src=""img/purple-r.png"">","null","trial","null","","0,1","4:nogo_d","1",""
