"rt","url","trial_type","trial_index","time_elapsed","internal_node_id","view_history","stimulus","key_press","test_part","correct_response","correct","use_rew","which_stim","reward","responses"
"25060.735000000932","consent.html","external-html","0","25269","0.0-0.0","","","","","","","","","",""
"31418.884999999136","","instructions","1","56688","0.0-1.0","[{""page_index"":0,""viewing_time"":2797.5399999995716},{""page_index"":1,""viewing_time"":8544.739999999365},{""page_index"":2,""viewing_time"":5217.094999999972},{""page_index"":3,""viewing_time"":3551.935000001322},{""page_index"":4,""viewing_time"":3416.8099999988044},{""page_index"":5,""viewing_time"":3592.1350000007806},{""page_index"":6,""viewing_time"":4297.795000000406}]","","","","","","","","",""
"null","","image-keyboard-response","2","58190","0.0-2.0-0.0","","img/test2.PNG","null","practice","null","true","","","",""
"null","","html-keyboard-response","3","59198","0.0-2.0-1.0","","<img src=""img/test2-reward.PNG"">","null","","","","","","",""
"null","","html-keyboard-response","4","60199","0.0-2.0-2.0","","<div style=""font-size:60px;"">+</div>","null","","","","","","",""
"454.29499999954714","","image-keyboard-response","5","60655","0.0-2.0-0.1","","img/test3.PNG","32","practice","null","false","","","",""
"null","","html-keyboard-response","6","61656","0.0-2.0-1.1","","<img src=""img/test3-neutral.PNG"" border=""10px; grey"">","null","","","","","","",""
"null","","html-keyboard-response","7","62662","0.0-2.0-2.1","","<div style=""font-size:60px;"">+</div>","null","","","","","","",""
"1144.2600000009406","","image-keyboard-response","8","63808","0.0-2.0-0.2","","img/test1.PNG","32","practice","32","true","","","",""
"null","","html-keyboard-response","9","64823","0.0-2.0-1.2","","<img src=""img/test1-reward.PNG"" border=""10px; grey"">","null","","","","","","",""
"null","","html-keyboard-response","10","65829","0.0-2.0-2.2","","<div style=""font-size:60px;"">+</div>","null","","","","","","",""
"313.720000000103","","image-keyboard-response","11","66144","0.0-2.0-0.3","","img/test2.PNG","32","practice","null","false","","","",""
"null","","html-keyboard-response","12","67153","0.0-2.0-1.3","","<img src=""img/test2-neutral.PNG"" border=""10px; grey"">","null","","","","","","",""
"null","","html-keyboard-response","13","68157","0.0-2.0-2.3","","<div style=""font-size:60px;"">+</div>","null","","","","","","",""
"null","","image-keyboard-response","14","69660","0.0-2.0-0.4","","img/test3.PNG","null","practice","null","true","","","",""
"null","","html-keyboard-response","15","70662","0.0-2.0-1.4","","<img src=""img/test3-reward.PNG"">","null","","","","","","",""
"null","","html-keyboard-response","16","71669","0.0-2.0-2.4","","<div style=""font-size:60px;"">+</div>","null","","","","","","",""
"1224.0999999994528","","image-keyboard-response","17","72895","0.0-2.0-0.5","","img/test1.PNG","32","practice","32","true","","","",""
"null","","html-keyboard-response","18","73904","0.0-2.0-1.5","","<img src=""img/test1-reward.PNG"" border=""10px; grey"">","null","","","","","","",""
"null","","html-keyboard-response","19","74920","0.0-2.0-2.5","","<div style=""font-size:60px;"">+</div>","null","","","","","","",""
"773.1800000001385","","image-keyboard-response","20","75695","0.0-2.0-0.6","","img/test1.PNG","32","practice","32","true","","","",""
"null","","html-keyboard-response","21","76709","0.0-2.0-1.6","","<img src=""img/test1-reward.PNG"" border=""10px; grey"">","null","","","","","","",""
"null","","html-keyboard-response","22","77710","0.0-2.0-2.6","","<div style=""font-size:60px;"">+</div>","null","","","","","","",""
"446.6899999988527","","image-keyboard-response","23","78158","0.0-2.0-0.7","","img/test3.PNG","32","practice","null","false","","","",""
"null","","html-keyboard-response","24","79173","0.0-2.0-1.7","","<img src=""img/test3-neutral.PNG"" border=""10px; grey"">","null","","","","","","",""
"null","","html-keyboard-response","25","80179","0.0-2.0-2.7","","<div style=""font-size:60px;"">+</div>","null","","","","","","",""
"533.980000000156","","image-keyboard-response","26","80714","0.0-2.0-0.8","","img/test2.PNG","32","practice","null","false","","","",""
"null","","html-keyboard-response","27","81728","0.0-2.0-1.8","","<img src=""img/test2-neutral.PNG"" border=""10px; grey"">","null","","","","","","",""
"null","","html-keyboard-response","28","82730","0.0-2.0-2.8","","<div style=""font-size:60px;"">+</div>","null","","","","","","",""
"839.6450000000186","","image-keyboard-response","29","83570","0.0-2.0-0.9","","img/test3.PNG","32","practice","null","false","","","",""
"null","","html-keyboard-response","30","84576","0.0-2.0-1.9","","<img src=""img/test3-neutral.PNG"" border=""10px; grey"">","null","","","","","","",""
"null","","html-keyboard-response","31","85589","0.0-2.0-2.9","","<div style=""font-size:60px;"">+</div>","null","","","","","","",""
"723.8200000010693","","image-keyboard-response","32","86315","0.0-2.0-0.10","","img/test1.PNG","32","practice","32","true","","","",""
"null","","html-keyboard-response","33","87331","0.0-2.0-1.10","","<img src=""img/test1-reward.PNG"" border=""10px; grey"">","null","","","","","","",""
"null","","html-keyboard-response","34","88333","0.0-2.0-2.10","","<div style=""font-size:60px;"">+</div>","null","","","","","","",""
"null","","image-keyboard-response","35","89848","0.0-2.0-0.11","","img/test2.PNG","null","practice","null","true","","","",""
"null","","html-keyboard-response","36","90853","0.0-2.0-1.11","","<img src=""img/test2-reward.PNG"">","null","","","","","","",""
"null","","html-keyboard-response","37","91869","0.0-2.0-2.11","","<div style=""font-size:60px;"">+</div>","null","","","","","","",""
"74929.25500000092","","instructions","38","166800","0.0-3.0","[{""page_index"":0,""viewing_time"":74929.04500000075}]","","","","","","","","",""
"924.6499999990338","","image-keyboard-response","39","167726","0.0-4.0-0.0","","img/grey.png","32","trial","32","true","0.8,0.2","1:go_a","",""
"null","","html-keyboard-response","40","168728","0.0-4.0-1.0","","<img src=""img/grey-r.png"" border=""10"">","null","trial","32","","0.8,0.2","1:go_a","1",""
"null","","html-keyboard-response","41","169740","0.0-4.0-2.0","","<div style=""font-size:60px;"">+</div>","null","","","","","","",""
"830.0499999986496","","image-keyboard-response","42","170576","0.0-4.0-0.1","","img/orange.png","32","trial","null","false","0.2,0.8","2:nogo_b","",""
"null","","html-keyboard-response","43","171592","0.0-4.0-1.1","","<img src=""img/orange-n.png"" border=""10"">","null","trial","null","","0.2,0.8","2:nogo_b","0",""
"null","","html-keyboard-response","44","172608","0.0-4.0-2.1","","<div style=""font-size:60px;"">+</div>","null","","","","","","",""
"null","","image-keyboard-response","45","174109","0.0-4.0-0.2","","img/orange.png","null","trial","null","true","0.2,0.8","2:nogo_b","",""
"null","","html-keyboard-response","46","175120","0.0-4.0-1.2","","<img src=""img/orange-r.png"">","null","trial","null","","0.2,0.8","2:nogo_b","1",""
"null","","html-keyboard-response","47","176137","0.0-4.0-2.2","","<div style=""font-size:60px;"">+</div>","null","","","","","","",""
"null","","image-keyboard-response","48","177649","0.0-4.0-0.3","","img/grey.png","null","trial","32","false","0.8,0.2","1:go_a","",""
"null","","html-keyboard-response","49","178652","0.0-4.0-1.3","","<img src=""img/grey-n.png"">","null","trial","32","","0.8,0.2","1:go_a","0",""
"null","","html-keyboard-response","50","179662","0.0-4.0-2.3","","<div style=""font-size:60px;"">+</div>","null","","","","","","",""
"null","","image-keyboard-response","51","181163","0.0-4.0-0.4","","img/orange.png","null","trial","null","true","0.2,0.8","2:nogo_b","",""
"null","","html-keyboard-response","52","182169","0.0-4.0-1.4","","<img src=""img/orange-r.png"">","null","trial","null","","0.2,0.8","2:nogo_b","1",""
"null","","html-keyboard-response","53","183171","0.0-4.0-2.4","","<div style=""font-size:60px;"">+</div>","null","","","","","","",""
"null","","image-keyboard-response","54","184684","0.0-4.0-0.5","","img/grey.png","null","trial","32","false","0.8,0.2","1:go_a","",""
"null","","html-keyboard-response","55","185696","0.0-4.0-1.5","","<img src=""img/grey-n.png"">","null","trial","32","","0.8,0.2","1:go_a","0",""
"null","","html-keyboard-response","56","186701","0.0-4.0-2.5","","<div style=""font-size:60px;"">+</div>","null","","","","","","",""
"null","","image-keyboard-response","57","188204","0.0-4.0-0.6","","img/grey.png","null","trial","32","false","0.8,0.2","1:go_a","",""
"null","","html-keyboard-response","58","189352","0.0-4.0-1.6","","<img src=""img/grey-n.png"">","null","trial","32","","0.8,0.2","1:go_a","0",""
"null","","html-keyboard-response","59","190366","0.0-4.0-2.6","","<div style=""font-size:60px;"">+</div>","null","","","","","","",""
"1442.4199999994016","","image-keyboard-response","60","191809","0.0-4.0-0.7","","img/orange.png","32","trial","null","false","0.2,0.8","2:nogo_b","",""
"null","","html-keyboard-response","61","192819","0.0-4.0-1.7","","<img src=""img/orange-n.png"" border=""10"">","null","trial","null","","0.2,0.8","2:nogo_b","0",""
"null","","html-keyboard-response","62","193836","0.0-4.0-2.7","","<div style=""font-size:60px;"">+</div>","null","","","","","","",""
"null","","image-keyboard-response","63","195358","0.0-4.0-0.8","","img/orange.png","null","trial","null","true","0.2,0.8","2:nogo_b","",""
"null","","html-keyboard-response","64","197353","0.0-4.0-1.8","","<img src=""img/orange-r.png"">","null","trial","null","","0.2,0.8","2:nogo_b","1",""
"null","","html-keyboard-response","65","199354","0.0-4.0-2.8","","<div style=""font-size:60px;"">+</div>","null","","","","","","",""
"null","","image-keyboard-response","66","201360","0.0-4.0-0.9","","img/grey.png","null","trial","32","false","0.8,0.2","1:go_a","",""
"null","","html-keyboard-response","67","203356","0.0-4.0-1.9","","<img src=""img/grey-n.png"">","null","trial","32","","0.8,0.2","1:go_a","0",""
"null","","html-keyboard-response","68","205366","0.0-4.0-2.9","","<div style=""font-size:60px;"">+</div>","null","","","","","","",""
"null","","image-keyboard-response","69","206878","0.0-4.0-0.10","","img/orange.png","null","trial","null","true","0.2,0.8","2:nogo_b","",""
"null","","html-keyboard-response","70","207888","0.0-4.0-1.10","","<img src=""img/orange-r.png"">","null","trial","null","","0.2,0.8","2:nogo_b","1",""
"null","","html-keyboard-response","71","208889","0.0-4.0-2.10","","<div style=""font-size:60px;"">+</div>","null","","","","","","",""
"null","","image-keyboard-response","72","210394","0.0-4.0-0.11","","img/grey.png","null","trial","32","false","0.8,0.2","1:go_a","",""
"null","","html-keyboard-response","73","211410","0.0-4.0-1.11","","<img src=""img/grey-n.png"">","null","trial","32","","0.8,0.2","1:go_a","0",""
"null","","html-keyboard-response","74","212426","0.0-4.0-2.11","","<div style=""font-size:60px;"">+</div>","null","","","","","","",""
"466.54500000111875","","image-keyboard-response","75","212893","0.0-4.0-0.12","","img/orange.png","32","trial","null","false","0.2,0.8","2:nogo_b","",""
"null","","html-keyboard-response","76","213911","0.0-4.0-1.12","","<img src=""img/orange-r.png"" border=""10"">","null","trial","null","","0.2,0.8","2:nogo_b","1",""
"null","","html-keyboard-response","77","214912","0.0-4.0-2.12","","<div style=""font-size:60px;"">+</div>","null","","","","","","",""
"null","","image-keyboard-response","78","216427","0.0-4.0-0.13","","img/grey.png","null","trial","32","false","0.8,0.2","1:go_a","",""
"null","","html-keyboard-response","79","217438","0.0-4.0-1.13","","<img src=""img/grey-n.png"">","null","trial","32","","0.8,0.2","1:go_a","0",""
"null","","html-keyboard-response","80","218440","0.0-4.0-2.13","","<div style=""font-size:60px;"">+</div>","null","","","","","","",""
"null","","image-keyboard-response","81","219951","0.0-4.0-0.14","","img/grey.png","null","trial","32","false","0.8,0.2","1:go_a","",""
"null","","html-keyboard-response","82","220953","0.0-4.0-1.14","","<img src=""img/grey-n.png"">","null","trial","32","","0.8,0.2","1:go_a","0",""
"null","","html-keyboard-response","83","221954","0.0-4.0-2.14","","<div style=""font-size:60px;"">+</div>","null","","","","","","",""
"737.860000001092","","image-keyboard-response","84","222693","0.0-4.0-0.15","","img/orange.png","32","trial","null","false","0.2,0.8","2:nogo_b","",""
"null","","html-keyboard-response","85","223700","0.0-4.0-1.15","","<img src=""img/orange-n.png"" border=""10"">","null","trial","null","","0.2,0.8","2:nogo_b","0",""
"null","","html-keyboard-response","86","224702","0.0-4.0-2.15","","<div style=""font-size:60px;"">+</div>","null","","","","","","",""
"null","","image-keyboard-response","87","226204","0.0-4.0-0.16","","img/grey.png","null","trial","32","false","0.8,0.2","1:go_a","",""
"null","","html-keyboard-response","88","227216","0.0-4.0-1.16","","<img src=""img/grey-r.png"">","null","trial","32","","0.8,0.2","1:go_a","1",""
"null","","html-keyboard-response","89","228227","0.0-4.0-2.16","","<div style=""font-size:60px;"">+</div>","null","","","","","","",""
"545.5799999999581","","image-keyboard-response","90","228773","0.0-4.0-0.17","","img/orange.png","32","trial","null","false","0.2,0.8","2:nogo_b","",""
"null","","html-keyboard-response","91","229776","0.0-4.0-1.17","","<img src=""img/orange-n.png"" border=""10"">","null","trial","null","","0.2,0.8","2:nogo_b","0",""
"null","","html-keyboard-response","92","230792","0.0-4.0-2.17","","<div style=""font-size:60px;"">+</div>","null","","","","","","",""
"null","","image-keyboard-response","93","232298","0.0-4.0-0.18","","img/orange.png","null","trial","null","true","0.2,0.8","2:nogo_b","",""
"null","","html-keyboard-response","94","233306","0.0-4.0-1.18","","<img src=""img/orange-r.png"">","null","trial","null","","0.2,0.8","2:nogo_b","1",""
"null","","html-keyboard-response","95","234307","0.0-4.0-2.18","","<div style=""font-size:60px;"">+</div>","null","","","","","","",""
"null","","image-keyboard-response","96","235809","0.0-4.0-0.19","","img/grey.png","null","trial","32","false","0.8,0.2","1:go_a","",""
"null","","html-keyboard-response","97","236817","0.0-4.0-1.19","","<img src=""img/grey-n.png"">","null","trial","32","","0.8,0.2","1:go_a","0",""
"null","","html-keyboard-response","98","237829","0.0-4.0-2.19","","<div style=""font-size:60px;"">+</div>","null","","","","","","",""
"987.1000000002678","","image-keyboard-response","99","238817","0.0-4.0-0.20","","img/orange.png","32","trial","null","false","0.2,0.8","2:nogo_b","",""
"null","","html-keyboard-response","100","239825","0.0-4.0-1.20","","<img src=""img/orange-n.png"" border=""10"">","null","trial","null","","0.2,0.8","2:nogo_b","0",""
"null","","html-keyboard-response","101","240836","0.0-4.0-2.20","","<div style=""font-size:60px;"">+</div>","null","","","","","","",""
"null","","image-keyboard-response","102","242344","0.0-4.0-0.21","","img/grey.png","null","trial","32","false","0.8,0.2","1:go_a","",""
"null","","html-keyboard-response","103","243355","0.0-4.0-1.21","","<img src=""img/grey-r.png"">","null","trial","32","","0.8,0.2","1:go_a","1",""
"null","","html-keyboard-response","104","244371","0.0-4.0-2.21","","<div style=""font-size:60px;"">+</div>","null","","","","","","",""
"669.8950000008917","","image-keyboard-response","105","245042","0.0-4.0-0.22","","img/grey.png","32","trial","32","true","0.8,0.2","1:go_a","",""
"null","","html-keyboard-response","106","246044","0.0-4.0-1.22","","<img src=""img/grey-r.png"" border=""10"">","null","trial","32","","0.8,0.2","1:go_a","1",""
"null","","html-keyboard-response","107","247059","0.0-4.0-2.22","","<div style=""font-size:60px;"">+</div>","null","","","","","","",""
"null","","image-keyboard-response","108","248570","0.0-4.0-0.23","","img/orange.png","null","trial","null","true","0.2,0.8","2:nogo_b","",""
"null","","html-keyboard-response","109","249583","0.0-4.0-1.23","","<img src=""img/orange-r.png"">","null","trial","null","","0.2,0.8","2:nogo_b","1",""
"null","","html-keyboard-response","110","250598","0.0-4.0-2.23","","<div style=""font-size:60px;"">+</div>","null","","","","","","",""
"633.5049999997718","","image-keyboard-response","111","251234","0.0-4.0-0.24","","img/grey.png","32","trial","32","true","0.8,0.2","1:go_a","",""
"null","","html-keyboard-response","112","252238","0.0-4.0-1.24","","<img src=""img/grey-r.png"" border=""10"">","null","trial","32","","0.8,0.2","1:go_a","1",""
"null","","html-keyboard-response","113","253253","0.0-4.0-2.24","","<div style=""font-size:60px;"">+</div>","null","","","","","","",""
"null","","image-keyboard-response","114","254770","0.0-4.0-0.25","","img/orange.png","null","trial","null","true","0.2,0.8","2:nogo_b","",""
"null","","html-keyboard-response","115","255778","0.0-4.0-1.25","","<img src=""img/orange-r.png"">","null","trial","null","","0.2,0.8","2:nogo_b","1",""
"null","","html-keyboard-response","116","256793","0.0-4.0-2.25","","<div style=""font-size:60px;"">+</div>","null","","","","","","",""
"686.8599999998114","","image-keyboard-response","117","257481","0.0-4.0-0.26","","img/orange.png","32","trial","null","false","0.2,0.8","2:nogo_b","",""
"null","","html-keyboard-response","118","258483","0.0-4.0-1.26","","<img src=""img/orange-n.png"" border=""10"">","null","trial","null","","0.2,0.8","2:nogo_b","0",""
"null","","html-keyboard-response","119","259497","0.0-4.0-2.26","","<div style=""font-size:60px;"">+</div>","null","","","","","","",""
"null","","image-keyboard-response","120","261007","0.0-4.0-0.27","","img/grey.png","null","trial","32","false","0.8,0.2","1:go_a","",""
"null","","html-keyboard-response","121","262018","0.0-4.0-1.27","","<img src=""img/grey-r.png"">","null","trial","32","","0.8,0.2","1:go_a","1",""
"null","","html-keyboard-response","122","263027","0.0-4.0-2.27","","<div style=""font-size:60px;"">+</div>","null","","","","","","",""
"560.5550000000512","","image-keyboard-response","123","263589","0.0-4.0-0.28","","img/orange.png","32","trial","null","false","0.2,0.8","2:nogo_b","",""
"null","","html-keyboard-response","124","264591","0.0-4.0-1.28","","<img src=""img/orange-r.png"" border=""10"">","null","trial","null","","0.2,0.8","2:nogo_b","1",""
"null","","html-keyboard-response","125","265601","0.0-4.0-2.28","","<div style=""font-size:60px;"">+</div>","null","","","","","","",""
"778.159999999858","","image-keyboard-response","126","266381","0.0-4.0-0.29","","img/grey.png","32","trial","32","true","0.8,0.2","1:go_a","",""
"null","","html-keyboard-response","127","267393","0.0-4.0-1.29","","<img src=""img/grey-r.png"" border=""10"">","null","trial","32","","0.8,0.2","1:go_a","1",""
"null","","html-keyboard-response","128","268398","0.0-4.0-2.29","","<div style=""font-size:60px;"">+</div>","null","","","","","","",""
"null","","image-keyboard-response","129","269907","0.0-4.0-0.30","","img/orange.png","null","trial","null","true","0.2,0.8","2:nogo_b","",""
"null","","html-keyboard-response","130","270909","0.0-4.0-1.30","","<img src=""img/orange-r.png"">","null","trial","null","","0.2,0.8","2:nogo_b","1",""
"null","","html-keyboard-response","131","271917","0.0-4.0-2.30","","<div style=""font-size:60px;"">+</div>","null","","","","","","",""
"454.2199999996228","","image-keyboard-response","132","272373","0.0-4.0-0.31","","img/grey.png","32","trial","32","true","0.8,0.2","1:go_a","",""
"null","","html-keyboard-response","133","273382","0.0-4.0-1.31","","<img src=""img/grey-n.png"" border=""10"">","null","trial","32","","0.8,0.2","1:go_a","0",""
"null","","html-keyboard-response","134","274392","0.0-4.0-2.31","","<div style=""font-size:60px;"">+</div>","null","","","","","","",""
"null","","image-keyboard-response","135","275895","0.0-4.0-0.32","","img/grey.png","null","trial","32","false","0.8,0.2","1:go_a","",""
"null","","html-keyboard-response","136","276901","0.0-4.0-1.32","","<img src=""img/grey-n.png"">","null","trial","32","","0.8,0.2","1:go_a","0",""
"null","","html-keyboard-response","137","277903","0.0-4.0-2.32","","<div style=""font-size:60px;"">+</div>","null","","","","","","",""
"null","","image-keyboard-response","138","279413","0.0-4.0-0.33","","img/orange.png","null","trial","null","true","0.2,0.8","2:nogo_b","",""
"null","","html-keyboard-response","139","280420","0.0-4.0-1.33","","<img src=""img/orange-n.png"">","null","trial","null","","0.2,0.8","2:nogo_b","0",""
"null","","html-keyboard-response","140","281429","0.0-4.0-2.33","","<div style=""font-size:60px;"">+</div>","null","","","","","","",""
"null","","image-keyboard-response","141","282939","0.0-4.0-0.34","","img/orange.png","null","trial","null","true","0.2,0.8","2:nogo_b","",""
"null","","html-keyboard-response","142","283956","0.0-4.0-1.34","","<img src=""img/orange-r.png"">","null","trial","null","","0.2,0.8","2:nogo_b","1",""
"null","","html-keyboard-response","143","284966","0.0-4.0-2.34","","<div style=""font-size:60px;"">+</div>","null","","","","","","",""
"null","","image-keyboard-response","144","286481","0.0-4.0-0.35","","img/grey.png","null","trial","32","false","0.8,0.2","1:go_a","",""
"null","","html-keyboard-response","145","287483","0.0-4.0-1.35","","<img src=""img/grey-n.png"">","null","trial","32","","0.8,0.2","1:go_a","0",""
"null","","html-keyboard-response","146","288499","0.0-4.0-2.35","","<div style=""font-size:60px;"">+</div>","null","","","","","","",""
"null","","image-keyboard-response","147","290011","0.0-4.0-0.36","","img/grey.png","null","trial","32","false","0.8,0.2","1:go_a","",""
"null","","html-keyboard-response","148","291022","0.0-4.0-1.36","","<img src=""img/grey-n.png"">","null","trial","32","","0.8,0.2","1:go_a","0",""
"null","","html-keyboard-response","149","292034","0.0-4.0-2.36","","<div style=""font-size:60px;"">+</div>","null","","","","","","",""
"477.46999999979744","","image-keyboard-response","150","292512","0.0-4.0-0.37","","img/orange.png","32","trial","null","false","0.2,0.8","2:nogo_b","",""
"null","","html-keyboard-response","151","293517","0.0-4.0-1.37","","<img src=""img/orange-n.png"" border=""10"">","null","trial","null","","0.2,0.8","2:nogo_b","0",""
"null","","html-keyboard-response","152","294526","0.0-4.0-2.37","","<div style=""font-size:60px;"">+</div>","null","","","","","","",""
"1112.9400000008754","","image-keyboard-response","153","295640","0.0-4.0-0.38","","img/grey.png","32","trial","32","true","0.8,0.2","1:go_a","",""
"null","","html-keyboard-response","154","296656","0.0-4.0-1.38","","<img src=""img/grey-r.png"" border=""10"">","null","trial","32","","0.8,0.2","1:go_a","1",""
"null","","html-keyboard-response","155","297662","0.0-4.0-2.38","","<div style=""font-size:60px;"">+</div>","null","","","","","","",""
"777.289999999979","","image-keyboard-response","156","298440","0.0-4.0-0.39","","img/orange.png","32","trial","null","false","0.2,0.8","2:nogo_b","",""
"null","","html-keyboard-response","157","299443","0.0-4.0-1.39","","<img src=""img/orange-n.png"" border=""10"">","null","trial","null","","0.2,0.8","2:nogo_b","0",""
"null","","html-keyboard-response","158","300458","0.0-4.0-2.39","","<div style=""font-size:60px;"">+</div>","null","","","","","","",""
"605.7299999992829","","image-keyboard-response","159","301064","0.0-4.0-0.40","","img/orange.png","32","trial","null","false","0.2,0.8","2:nogo_b","",""
"null","","html-keyboard-response","160","302066","0.0-4.0-1.40","","<img src=""img/orange-n.png"" border=""10"">","null","trial","null","","0.2,0.8","2:nogo_b","0",""
"null","","html-keyboard-response","161","303067","0.0-4.0-2.40","","<div style=""font-size:60px;"">+</div>","null","","","","","","",""
"null","","image-keyboard-response","162","304569","0.0-4.0-0.41","","img/grey.png","null","trial","32","false","0.8,0.2","1:go_a","",""
"null","","html-keyboard-response","163","305587","0.0-4.0-1.41","","<img src=""img/grey-n.png"">","null","trial","32","","0.8,0.2","1:go_a","0",""
"null","","html-keyboard-response","164","306603","0.0-4.0-2.41","","<div style=""font-size:60px;"">+</div>","null","","","","","","",""
"null","","image-keyboard-response","165","308109","0.0-4.0-0.42","","img/grey.png","null","trial","32","false","0.8,0.2","1:go_a","",""
"null","","html-keyboard-response","166","309123","0.0-4.0-1.42","","<img src=""img/grey-n.png"">","null","trial","32","","0.8,0.2","1:go_a","0",""
"null","","html-keyboard-response","167","310138","0.0-4.0-2.42","","<div style=""font-size:60px;"">+</div>","null","","","","","","",""
"null","","image-keyboard-response","168","311646","0.0-4.0-0.43","","img/orange.png","null","trial","null","true","0.2,0.8","2:nogo_b","",""
"null","","html-keyboard-response","169","312658","0.0-4.0-1.43","","<img src=""img/orange-r.png"">","null","trial","null","","0.2,0.8","2:nogo_b","1",""
"null","","html-keyboard-response","170","313662","0.0-4.0-2.43","","<div style=""font-size:60px;"">+</div>","null","","","","","","",""
"null","","image-keyboard-response","171","315170","0.0-4.0-0.44","","img/grey.png","null","trial","32","false","0.8,0.2","1:go_a","",""
"null","","html-keyboard-response","172","316184","0.0-4.0-1.44","","<img src=""img/grey-n.png"">","null","trial","32","","0.8,0.2","1:go_a","0",""
"null","","html-keyboard-response","173","317199","0.0-4.0-2.44","","<div style=""font-size:60px;"">+</div>","null","","","","","","",""
"740.644999999844","","image-keyboard-response","174","317940","0.0-4.0-0.45","","img/orange.png","32","trial","null","false","0.2,0.8","2:nogo_b","",""
"null","","html-keyboard-response","175","318951","0.0-4.0-1.45","","<img src=""img/orange-n.png"" border=""10"">","null","trial","null","","0.2,0.8","2:nogo_b","0",""
"null","","html-keyboard-response","176","319956","0.0-4.0-2.45","","<div style=""font-size:60px;"">+</div>","null","","","","","","",""
"774.1899999982561","","image-keyboard-response","177","320732","0.0-4.0-0.46","","img/grey.png","32","trial","32","true","0.8,0.2","1:go_a","",""
"null","","html-keyboard-response","178","321743","0.0-4.0-1.46","","<img src=""img/grey-r.png"" border=""10"">","null","trial","32","","0.8,0.2","1:go_a","1",""
"null","","html-keyboard-response","179","322751","0.0-4.0-2.46","","<div style=""font-size:60px;"">+</div>","null","","","","","","",""
"580.5700000001234","","image-keyboard-response","180","323332","0.0-4.0-0.47","","img/orange.png","32","trial","null","false","0.2,0.8","2:nogo_b","",""
"null","","html-keyboard-response","181","324340","0.0-4.0-1.47","","<img src=""img/orange-n.png"" border=""10"">","null","trial","null","","0.2,0.8","2:nogo_b","0",""
"null","","html-keyboard-response","182","325349","0.0-4.0-2.47","","<div style=""font-size:60px;"">+</div>","null","","","","","","",""
"null","","image-keyboard-response","183","326859","0.0-4.0-0.48","","img/grey.png","null","trial","32","false","0.8,0.2","1:go_a","",""
"null","","html-keyboard-response","184","327874","0.0-4.0-1.48","","<img src=""img/grey-n.png"">","null","trial","32","","0.8,0.2","1:go_a","0",""
"null","","html-keyboard-response","185","328876","0.0-4.0-2.48","","<div style=""font-size:60px;"">+</div>","null","","","","","","",""
"551.4050000001444","","image-keyboard-response","186","329428","0.0-4.0-0.49","","img/orange.png","32","trial","null","false","0.2,0.8","2:nogo_b","",""
"null","","html-keyboard-response","187","330434","0.0-4.0-1.49","","<img src=""img/orange-n.png"" border=""10"">","null","trial","null","","0.2,0.8","2:nogo_b","0",""
"null","","html-keyboard-response","188","331435","0.0-4.0-2.49","","<div style=""font-size:60px;"">+</div>","null","","","","","","",""
"1123.1699999988778","","image-keyboard-response","189","332560","0.0-4.0-0.50","","img/grey.png","32","trial","32","true","0.8,0.2","1:go_a","",""
"null","","html-keyboard-response","190","333575","0.0-4.0-1.50","","<img src=""img/grey-r.png"" border=""10"">","null","trial","32","","0.8,0.2","1:go_a","1",""
"null","","html-keyboard-response","191","334588","0.0-4.0-2.50","","<div style=""font-size:60px;"">+</div>","null","","","","","","",""
"739.0949999989825","","image-keyboard-response","192","335328","0.0-4.0-0.51","","img/orange.png","32","trial","null","false","0.2,0.8","2:nogo_b","",""
"null","","html-keyboard-response","193","336344","0.0-4.0-1.51","","<img src=""img/orange-n.png"" border=""10"">","null","trial","null","","0.2,0.8","2:nogo_b","0",""
"null","","html-keyboard-response","194","337350","0.0-4.0-2.51","","<div style=""font-size:60px;"">+</div>","null","","","","","","",""
"672.9799999993993","","image-keyboard-response","195","338024","0.0-4.0-0.52","","img/orange.png","32","trial","null","false","0.2,0.8","2:nogo_b","",""
"null","","html-keyboard-response","196","339038","0.0-4.0-1.52","","<img src=""img/orange-n.png"" border=""10"">","null","trial","null","","0.2,0.8","2:nogo_b","0",""
"null","","html-keyboard-response","197","340042","0.0-4.0-2.52","","<div style=""font-size:60px;"">+</div>","null","","","","","","",""
"860.2649999993155","","image-keyboard-response","198","340903","0.0-4.0-0.53","","img/grey.png","32","trial","32","true","0.8,0.2","1:go_a","",""
"null","","html-keyboard-response","199","341910","0.0-4.0-1.53","","<img src=""img/grey-n.png"" border=""10"">","null","trial","32","","0.8,0.2","1:go_a","0",""
"null","","html-keyboard-response","200","342912","0.0-4.0-2.53","","<div style=""font-size:60px;"">+</div>","null","","","","","","",""
"574.664999998291","","image-keyboard-response","201","343487","0.0-4.0-0.54","","img/orange.png","32","trial","null","false","0.2,0.8","2:nogo_b","",""
"null","","html-keyboard-response","202","344491","0.0-4.0-1.54","","<img src=""img/orange-n.png"" border=""10"">","null","trial","null","","0.2,0.8","2:nogo_b","0",""
"null","","html-keyboard-response","203","345505","0.0-4.0-2.54","","<div style=""font-size:60px;"">+</div>","null","","","","","","",""
"null","","image-keyboard-response","204","347012","0.0-4.0-0.55","","img/grey.png","null","trial","32","false","0.8,0.2","1:go_a","",""
"null","","html-keyboard-response","205","348025","0.0-4.0-1.55","","<img src=""img/grey-r.png"">","null","trial","32","","0.8,0.2","1:go_a","1",""
"null","","html-keyboard-response","206","349026","0.0-4.0-2.55","","<div style=""font-size:60px;"">+</div>","null","","","","","","",""
"892.5099999996601","","image-keyboard-response","207","349920","0.0-4.0-0.56","","img/orange.png","32","trial","null","false","0.2,0.8","2:nogo_b","",""
"null","","html-keyboard-response","208","350922","0.0-4.0-1.56","","<img src=""img/orange-n.png"" border=""10"">","null","trial","null","","0.2,0.8","2:nogo_b","0",""
"null","","html-keyboard-response","209","351923","0.0-4.0-2.56","","<div style=""font-size:60px;"">+</div>","null","","","","","","",""
"627.6249999991851","","image-keyboard-response","210","352552","0.0-4.0-0.57","","img/grey.png","32","trial","32","true","0.8,0.2","1:go_a","",""
"null","","html-keyboard-response","211","353555","0.0-4.0-1.57","","<img src=""img/grey-n.png"" border=""10"">","null","trial","32","","0.8,0.2","1:go_a","0",""
"null","","html-keyboard-response","212","354564","0.0-4.0-2.57","","<div style=""font-size:60px;"">+</div>","null","","","","","","",""
"null","","image-keyboard-response","213","356079","0.0-4.0-0.58","","img/grey.png","null","trial","32","false","0.8,0.2","1:go_a","",""
"null","","html-keyboard-response","214","357085","0.0-4.0-1.58","","<img src=""img/grey-n.png"">","null","trial","32","","0.8,0.2","1:go_a","0",""
"null","","html-keyboard-response","215","358100","0.0-4.0-2.58","","<div style=""font-size:60px;"">+</div>","null","","","","","","",""
"null","","image-keyboard-response","216","359603","0.0-4.0-0.59","","img/orange.png","null","trial","null","true","0.2,0.8","2:nogo_b","",""
"null","","html-keyboard-response","217","360621","0.0-4.0-1.59","","<img src=""img/orange-r.png"">","null","trial","null","","0.2,0.8","2:nogo_b","1",""
"null","","html-keyboard-response","218","361636","0.0-4.0-2.59","","<div style=""font-size:60px;"">+</div>","null","","","","","","",""
"3584.3349999996135","","instructions","219","365221","0.0-5.0","[{""page_index"":0,""viewing_time"":3584.1500000006054}]","","","","","","","","",""
"869.9300000007497","","image-keyboard-response","220","366092","0.0-6.0-0.0","","img/orange.png","32","trial","null","false","0.2,0.8","2:nogo_b","",""
"null","","html-keyboard-response","221","367105","0.0-6.0-1.0","","<img src=""img/orange-n.png"" border=""10"">","null","trial","null","","0.2,0.8","2:nogo_b","0",""
"null","","html-keyboard-response","222","368121","0.0-6.0-2.0","","<div style=""font-size:60px;"">+</div>","null","","","","","","",""
"null","","image-keyboard-response","223","369623","0.0-6.0-0.1","","img/grey.png","null","trial","32","false","0.8,0.2","1:go_a","",""
"null","","html-keyboard-response","224","370631","0.0-6.0-1.1","","<img src=""img/grey-n.png"">","null","trial","32","","0.8,0.2","1:go_a","0",""
"null","","html-keyboard-response","225","371643","0.0-6.0-2.1","","<div style=""font-size:60px;"">+</div>","null","","","","","","",""
"992.7749999988009","","image-keyboard-response","226","372637","0.0-6.0-0.2","","img/purple.png","32","trial","32","true","0.8,0.2","3:go_c","",""
"null","","html-keyboard-response","227","373651","0.0-6.0-1.2","","<img src=""img/purple-n.png"" border=""10"">","null","trial","32","","0.8,0.2","3:go_c","0",""
"null","","html-keyboard-response","228","374658","0.0-6.0-2.2","","<div style=""font-size:60px;"">+</div>","null","","","","","","",""
"944.1800000004005","","image-keyboard-response","229","375603","0.0-6.0-0.3","","img/pink.png","32","trial","null","false","0.2,0.8","4:nogo_d","",""
"null","","html-keyboard-response","230","376613","0.0-6.0-1.3","","<img src=""img/pink-n.png"" border=""10"">","null","trial","null","","0.2,0.8","4:nogo_d","0",""
"null","","html-keyboard-response","231","377624","0.0-6.0-2.3","","<div style=""font-size:60px;"">+</div>","null","","","","","","",""
"1098.8199999992503","","image-keyboard-response","232","378724","0.0-6.0-0.4","","img/purple.png","32","trial","32","true","0.8,0.2","3:go_c","",""
"null","","html-keyboard-response","233","379737","0.0-6.0-1.4","","<img src=""img/purple-r.png"" border=""10"">","null","trial","32","","0.8,0.2","3:go_c","1",""
"null","","html-keyboard-response","234","380744","0.0-6.0-2.4","","<div style=""font-size:60px;"">+</div>","null","","","","","","",""
"654.3749999982538","","image-keyboard-response","235","381400","0.0-6.0-0.5","","img/orange.png","32","trial","null","false","0.2,0.8","2:nogo_b","",""
"null","","html-keyboard-response","236","382418","0.0-6.0-1.5","","<img src=""img/orange-n.png"" border=""10"">","null","trial","null","","0.2,0.8","2:nogo_b","0",""
"null","","html-keyboard-response","237","383424","0.0-6.0-2.5","","<div style=""font-size:60px;"">+</div>","null","","","","","","",""
"462.42999999958556","","image-keyboard-response","238","383888","0.0-6.0-0.6","","img/pink.png","32","trial","null","false","0.2,0.8","4:nogo_d","",""
"null","","html-keyboard-response","239","384895","0.0-6.0-1.6","","<img src=""img/pink-r.png"" border=""10"">","null","trial","null","","0.2,0.8","4:nogo_d","1",""
"null","","html-keyboard-response","240","385905","0.0-6.0-2.6","","<div style=""font-size:60px;"">+</div>","null","","","","","","",""
"709.9199999993434","","image-keyboard-response","241","386616","0.0-6.0-0.7","","img/grey.png","32","trial","32","true","0.8,0.2","1:go_a","",""
"null","","html-keyboard-response","242","387622","0.0-6.0-1.7","","<img src=""img/grey-r.png"" border=""10"">","null","trial","32","","0.8,0.2","1:go_a","1",""
"null","","html-keyboard-response","243","388624","0.0-6.0-2.7","","<div style=""font-size:60px;"">+</div>","null","","","","","","",""
"350.76000000117347","","image-keyboard-response","244","388975","0.0-6.0-0.8","","img/grey.png","32","trial","32","true","0.8,0.2","1:go_a","",""
"null","","html-keyboard-response","245","389985","0.0-6.0-1.8","","<img src=""img/grey-r.png"" border=""10"">","null","trial","32","","0.8,0.2","1:go_a","1",""
"null","","html-keyboard-response","246","391000","0.0-6.0-2.8","","<div style=""font-size:60px;"">+</div>","null","","","","","","",""
"726.6199999994715","","image-keyboard-response","247","391727","0.0-6.0-0.9","","img/purple.png","32","trial","32","true","0.8,0.2","3:go_c","",""
"null","","html-keyboard-response","248","392736","0.0-6.0-1.9","","<img src=""img/purple-r.png"" border=""10"">","null","trial","32","","0.8,0.2","3:go_c","1",""
"null","","html-keyboard-response","249","393747","0.0-6.0-2.9","","<div style=""font-size:60px;"">+</div>","null","","","","","","",""
"395.44000000023516","","image-keyboard-response","250","394144","0.0-6.0-0.10","","img/orange.png","32","trial","null","false","0.2,0.8","2:nogo_b","",""
"null","","html-keyboard-response","251","395157","0.0-6.0-1.10","","<img src=""img/orange-n.png"" border=""10"">","null","trial","null","","0.2,0.8","2:nogo_b","0",""
"null","","html-keyboard-response","252","396158","0.0-6.0-2.10","","<div style=""font-size:60px;"">+</div>","null","","","","","","",""
"null","","image-keyboard-response","253","397668","0.0-6.0-0.11","","img/pink.png","null","trial","null","true","0.2,0.8","4:nogo_d","",""
"null","","html-keyboard-response","254","398679","0.0-6.0-1.11","","<img src=""img/pink-r.png"">","null","trial","null","","0.2,0.8","4:nogo_d","1",""
"null","","html-keyboard-response","255","399680","0.0-6.0-2.11","","<div style=""font-size:60px;"">+</div>","null","","","","","","",""
"590.6299999987823","","image-keyboard-response","256","400272","0.0-6.0-0.12","","img/pink.png","32","trial","null","false","0.2,0.8","4:nogo_d","",""
"null","","html-keyboard-response","257","401283","0.0-6.0-1.12","","<img src=""img/pink-n.png"" border=""10"">","null","trial","null","","0.2,0.8","4:nogo_d","0",""
"null","","html-keyboard-response","258","402288","0.0-6.0-2.12","","<div style=""font-size:60px;"">+</div>","null","","","","","","",""
"354.26499999995576","","image-keyboard-response","259","402643","0.0-6.0-0.13","","img/purple.png","32","trial","32","true","0.8,0.2","3:go_c","",""
"null","","html-keyboard-response","260","403659","0.0-6.0-1.13","","<img src=""img/purple-r.png"" border=""10"">","null","trial","32","","0.8,0.2","3:go_c","1",""
"null","","html-keyboard-response","261","404676","0.0-6.0-2.13","","<div style=""font-size:60px;"">+</div>","null","","","","","","",""
"null","","image-keyboard-response","262","406185","0.0-6.0-0.14","","img/orange.png","null","trial","null","true","0.2,0.8","2:nogo_b","",""
"null","","html-keyboard-response","263","407191","0.0-6.0-1.14","","<img src=""img/orange-r.png"">","null","trial","null","","0.2,0.8","2:nogo_b","1",""
"null","","html-keyboard-response","264","408203","0.0-6.0-2.14","","<div style=""font-size:60px;"">+</div>","null","","","","","","",""
"null","","image-keyboard-response","265","409705","0.0-6.0-0.15","","img/grey.png","null","trial","32","false","0.8,0.2","1:go_a","",""
"null","","html-keyboard-response","266","410713","0.0-6.0-1.15","","<img src=""img/grey-n.png"">","null","trial","32","","0.8,0.2","1:go_a","0",""
"null","","html-keyboard-response","267","411724","0.0-6.0-2.15","","<div style=""font-size:60px;"">+</div>","null","","","","","","",""
"454.1449999997276","","image-keyboard-response","268","412179","0.0-6.0-0.16","","img/purple.png","32","trial","32","true","0.8,0.2","3:go_c","",""
"null","","html-keyboard-response","269","413190","0.0-6.0-1.16","","<img src=""img/purple-r.png"" border=""10"">","null","trial","32","","0.8,0.2","3:go_c","1",""
"null","","html-keyboard-response","270","414192","0.0-6.0-2.16","","<div style=""font-size:60px;"">+</div>","null","","","","","","",""
"833.4599999997881","","image-keyboard-response","271","415027","0.0-6.0-0.17","","img/grey.png","32","trial","32","true","0.8,0.2","1:go_a","",""
"null","","html-keyboard-response","272","416041","0.0-6.0-1.17","","<img src=""img/grey-r.png"" border=""10"">","null","trial","32","","0.8,0.2","1:go_a","1",""
"null","","html-keyboard-response","273","417053","0.0-6.0-2.17","","<div style=""font-size:60px;"">+</div>","null","","","","","","",""
"500.6649999995716","","image-keyboard-response","274","417555","0.0-6.0-0.18","","img/orange.png","32","trial","null","false","0.2,0.8","2:nogo_b","",""
"null","","html-keyboard-response","275","418562","0.0-6.0-1.18","","<img src=""img/orange-n.png"" border=""10"">","null","trial","null","","0.2,0.8","2:nogo_b","0",""
"null","","html-keyboard-response","276","419577","0.0-6.0-2.18","","<div style=""font-size:60px;"">+</div>","null","","","","","","",""
"1312.7750000003143","","image-keyboard-response","277","420891","0.0-6.0-0.19","","img/pink.png","32","trial","null","false","0.2,0.8","4:nogo_d","",""
"null","","html-keyboard-response","278","421900","0.0-6.0-1.19","","<img src=""img/pink-n.png"" border=""10"">","null","trial","null","","0.2,0.8","4:nogo_d","0",""
"null","","html-keyboard-response","279","422918","0.0-6.0-2.19","","<div style=""font-size:60px;"">+</div>","null","","","","","","",""
"null","","image-keyboard-response","280","424428","0.0-6.0-0.20","","img/orange.png","null","trial","null","true","0.2,0.8","2:nogo_b","",""
"null","","html-keyboard-response","281","425440","0.0-6.0-1.20","","<img src=""img/orange-r.png"">","null","trial","null","","0.2,0.8","2:nogo_b","1",""
"null","","html-keyboard-response","282","426454","0.0-6.0-2.20","","<div style=""font-size:60px;"">+</div>","null","","","","","","",""
"null","","image-keyboard-response","283","427970","0.0-6.0-0.21","","img/pink.png","null","trial","null","true","0.2,0.8","4:nogo_d","",""
"null","","html-keyboard-response","284","428987","0.0-6.0-1.21","","<img src=""img/pink-r.png"">","null","trial","null","","0.2,0.8","4:nogo_d","1",""
"null","","html-keyboard-response","285","429988","0.0-6.0-2.21","","<div style=""font-size:60px;"">+</div>","null","","","","","","",""
"745.3900000000722","","image-keyboard-response","286","430735","0.0-6.0-0.22","","img/purple.png","32","trial","32","true","0.8,0.2","3:go_c","",""
"null","","html-keyboard-response","287","431748","0.0-6.0-1.22","","<img src=""img/purple-n.png"" border=""10"">","null","trial","32","","0.8,0.2","3:go_c","0",""
"null","","html-keyboard-response","288","432750","0.0-6.0-2.22","","<div style=""font-size:60px;"">+</div>","null","","","","","","",""
"576.0300000002026","","image-keyboard-response","289","433327","0.0-6.0-0.23","","img/grey.png","32","trial","32","true","0.8,0.2","1:go_a","",""
"null","","html-keyboard-response","290","434343","0.0-6.0-1.23","","<img src=""img/grey-r.png"" border=""10"">","null","trial","32","","0.8,0.2","1:go_a","1",""
"null","","html-keyboard-response","291","435359","0.0-6.0-2.23","","<div style=""font-size:60px;"">+</div>","null","","","","","","",""
"774.5049999994226","","image-keyboard-response","292","436135","0.0-6.0-0.24","","img/orange.png","32","trial","null","false","0.2,0.8","2:nogo_b","",""
"null","","html-keyboard-response","293","437142","0.0-6.0-1.24","","<img src=""img/orange-n.png"" border=""10"">","null","trial","null","","0.2,0.8","2:nogo_b","0",""
"null","","html-keyboard-response","294","438156","0.0-6.0-2.24","","<div style=""font-size:60px;"">+</div>","null","","","","","","",""
"609.6300000008196","","image-keyboard-response","295","438767","0.0-6.0-0.25","","img/purple.png","32","trial","32","true","0.8,0.2","3:go_c","",""
"null","","html-keyboard-response","296","439778","0.0-6.0-1.25","","<img src=""img/purple-r.png"" border=""10"">","null","trial","32","","0.8,0.2","3:go_c","1",""
"null","","html-keyboard-response","297","440783","0.0-6.0-2.25","","<div style=""font-size:60px;"">+</div>","null","","","","","","",""
"694.2600000001839","","image-keyboard-response","298","441479","0.0-6.0-0.26","","img/grey.png","32","trial","32","true","0.8,0.2","1:go_a","",""
"null","","html-keyboard-response","299","442484","0.0-6.0-1.26","","<img src=""img/grey-r.png"" border=""10"">","null","trial","32","","0.8,0.2","1:go_a","1",""
"null","","html-keyboard-response","300","443493","0.0-6.0-2.26","","<div style=""font-size:60px;"">+</div>","null","","","","","","",""
"648.9249999995227","","image-keyboard-response","301","444143","0.0-6.0-0.27","","img/pink.png","32","trial","null","false","0.2,0.8","4:nogo_d","",""
"null","","html-keyboard-response","302","445145","0.0-6.0-1.27","","<img src=""img/pink-n.png"" border=""10"">","null","trial","null","","0.2,0.8","4:nogo_d","0",""
"null","","html-keyboard-response","303","446146","0.0-6.0-2.27","","<div style=""font-size:60px;"">+</div>","null","","","","","","",""
"516.4299999996438","","image-keyboard-response","304","446663","0.0-6.0-0.28","","img/pink.png","32","trial","null","false","0.2,0.8","4:nogo_d","",""
"null","","html-keyboard-response","305","447667","0.0-6.0-1.28","","<img src=""img/pink-n.png"" border=""10"">","null","trial","null","","0.2,0.8","4:nogo_d","0",""
"null","","html-keyboard-response","306","448669","0.0-6.0-2.28","","<div style=""font-size:60px;"">+</div>","null","","","","","","",""
"476.98499999934575","","image-keyboard-response","307","449147","0.0-6.0-0.29","","img/grey.png","32","trial","32","true","0.8,0.2","1:go_a","",""
"null","","html-keyboard-response","308","450152","0.0-6.0-1.29","","<img src=""img/grey-n.png"" border=""10"">","null","trial","32","","0.8,0.2","1:go_a","0",""
"null","","html-keyboard-response","309","451154","0.0-6.0-2.29","","<div style=""font-size:60px;"">+</div>","null","","","","","","",""
"884.3799999994808","","image-keyboard-response","310","452039","0.0-6.0-0.30","","img/orange.png","32","trial","null","false","0.2,0.8","2:nogo_b","",""
"null","","html-keyboard-response","311","453042","0.0-6.0-1.30","","<img src=""img/orange-n.png"" border=""10"">","null","trial","null","","0.2,0.8","2:nogo_b","0",""
"null","","html-keyboard-response","312","454045","0.0-6.0-2.30","","<div style=""font-size:60px;"">+</div>","null","","","","","","",""
"868.2699999990873","","image-keyboard-response","313","454914","0.0-6.0-0.31","","img/purple.png","32","trial","32","true","0.8,0.2","3:go_c","",""
"null","","html-keyboard-response","314","455929","0.0-6.0-1.31","","<img src=""img/purple-r.png"" border=""10"">","null","trial","32","","0.8,0.2","3:go_c","1",""
"null","","html-keyboard-response","315","456938","0.0-6.0-2.31","","<div style=""font-size:60px;"">+</div>","null","","","","","","",""
"659.1900000002934","","image-keyboard-response","316","457598","0.0-6.0-0.32","","img/pink.png","32","trial","null","false","0.2,0.8","4:nogo_d","",""
"null","","html-keyboard-response","317","458616","0.0-6.0-1.32","","<img src=""img/pink-r.png"" border=""10"">","null","trial","null","","0.2,0.8","4:nogo_d","1",""
"null","","html-keyboard-response","318","459618","0.0-6.0-2.32","","<div style=""font-size:60px;"">+</div>","null","","","","","","",""
"null","","image-keyboard-response","319","461119","0.0-6.0-0.33","","img/grey.png","null","trial","32","false","0.8,0.2","1:go_a","",""
"null","","html-keyboard-response","320","462135","0.0-6.0-1.33","","<img src=""img/grey-r.png"">","null","trial","32","","0.8,0.2","1:go_a","1",""
"null","","html-keyboard-response","321","463144","0.0-6.0-2.33","","<div style=""font-size:60px;"">+</div>","null","","","","","","",""
"633.2849999999162","","image-keyboard-response","322","463778","0.0-6.0-0.34","","img/orange.png","32","trial","null","false","0.2,0.8","2:nogo_b","",""
"null","","html-keyboard-response","323","464793","0.0-6.0-1.34","","<img src=""img/orange-n.png"" border=""10"">","null","trial","null","","0.2,0.8","2:nogo_b","0",""
"null","","html-keyboard-response","324","465806","0.0-6.0-2.34","","<div style=""font-size:60px;"">+</div>","null","","","","","","",""
"603.410000001546","","image-keyboard-response","325","466410","0.0-6.0-0.35","","img/purple.png","32","trial","32","true","0.8,0.2","3:go_c","",""
"null","","html-keyboard-response","326","467412","0.0-6.0-1.35","","<img src=""img/purple-r.png"" border=""10"">","null","trial","32","","0.8,0.2","3:go_c","1",""
"null","","html-keyboard-response","327","468415","0.0-6.0-2.35","","<div style=""font-size:60px;"">+</div>","null","","","","","","",""
"745.8500000011409","","image-keyboard-response","328","469162","0.0-6.0-0.36","","img/purple.png","32","trial","32","true","0.8,0.2","3:go_c","",""
"null","","html-keyboard-response","329","470175","0.0-6.0-1.36","","<img src=""img/purple-r.png"" border=""10"">","null","trial","32","","0.8,0.2","3:go_c","1",""
"null","","html-keyboard-response","330","471176","0.0-6.0-2.36","","<div style=""font-size:60px;"">+</div>","null","","","","","","",""
"632.9749999985797","","image-keyboard-response","331","471810","0.0-6.0-0.37","","img/grey.png","32","trial","32","true","0.8,0.2","1:go_a","",""
"null","","html-keyboard-response","332","472812","0.0-6.0-1.37","","<img src=""img/grey-n.png"" border=""10"">","null","trial","32","","0.8,0.2","1:go_a","0",""
"null","","html-keyboard-response","333","473820","0.0-6.0-2.37","","<div style=""font-size:60px;"">+</div>","null","","","","","","",""
"null","","image-keyboard-response","334","475324","0.0-6.0-0.38","","img/orange.png","null","trial","null","true","0.2,0.8","2:nogo_b","",""
"null","","html-keyboard-response","335","476332","0.0-6.0-1.38","","<img src=""img/orange-r.png"">","null","trial","null","","0.2,0.8","2:nogo_b","1",""
"null","","html-keyboard-response","336","477344","0.0-6.0-2.38","","<div style=""font-size:60px;"">+</div>","null","","","","","","",""
"873.0400000004447","","image-keyboard-response","337","478218","0.0-6.0-0.39","","img/pink.png","32","trial","null","false","0.2,0.8","4:nogo_d","",""
"null","","html-keyboard-response","338","479228","0.0-6.0-1.39","","<img src=""img/pink-n.png"" border=""10"">","null","trial","null","","0.2,0.8","4:nogo_d","0",""
"null","","html-keyboard-response","339","480240","0.0-6.0-2.39","","<div style=""font-size:60px;"">+</div>","null","","","","","","",""
"null","","image-keyboard-response","340","481742","0.0-6.0-0.40","","img/grey.png","null","trial","32","false","0.8,0.2","1:go_a","",""
"null","","html-keyboard-response","341","482748","0.0-6.0-1.40","","<img src=""img/grey-n.png"">","null","trial","32","","0.8,0.2","1:go_a","0",""
"null","","html-keyboard-response","342","483755","0.0-6.0-2.40","","<div style=""font-size:60px;"">+</div>","null","","","","","","",""
"473.7000000004773","","image-keyboard-response","343","484230","0.0-6.0-0.41","","img/purple.png","32","trial","32","true","0.8,0.2","3:go_c","",""
"null","","html-keyboard-response","344","485239","0.0-6.0-1.41","","<img src=""img/purple-r.png"" border=""10"">","null","trial","32","","0.8,0.2","3:go_c","1",""
"null","","html-keyboard-response","345","486245","0.0-6.0-2.41","","<div style=""font-size:60px;"">+</div>","null","","","","","","",""
"519.8650000002235","","image-keyboard-response","346","486766","0.0-6.0-0.42","","img/pink.png","32","trial","null","false","0.2,0.8","4:nogo_d","",""
"null","","html-keyboard-response","347","487774","0.0-6.0-1.42","","<img src=""img/pink-n.png"" border=""10"">","null","trial","null","","0.2,0.8","4:nogo_d","0",""
"null","","html-keyboard-response","348","488775","0.0-6.0-2.42","","<div style=""font-size:60px;"">+</div>","null","","","","","","",""
"413.3250000013504","","image-keyboard-response","349","489190","0.0-6.0-0.43","","img/orange.png","32","trial","null","false","0.2,0.8","2:nogo_b","",""
"null","","html-keyboard-response","350","490197","0.0-6.0-1.43","","<img src=""img/orange-n.png"" border=""10"">","null","trial","null","","0.2,0.8","2:nogo_b","0",""
"null","","html-keyboard-response","351","491209","0.0-6.0-2.43","","<div style=""font-size:60px;"">+</div>","null","","","","","","",""
"1043.4850000001607","","image-keyboard-response","352","492254","0.0-6.0-0.44","","img/orange.png","32","trial","null","false","0.2,0.8","2:nogo_b","",""
"null","","html-keyboard-response","353","493258","0.0-6.0-1.44","","<img src=""img/orange-n.png"" border=""10"">","null","trial","null","","0.2,0.8","2:nogo_b","0",""
"null","","html-keyboard-response","354","494263","0.0-6.0-2.44","","<div style=""font-size:60px;"">+</div>","null","","","","","","",""
"null","","image-keyboard-response","355","495776","0.0-6.0-0.45","","img/grey.png","null","trial","32","false","0.8,0.2","1:go_a","",""
"null","","html-keyboard-response","356","496777","0.0-6.0-1.45","","<img src=""img/grey-n.png"">","null","trial","32","","0.8,0.2","1:go_a","0",""
"null","","html-keyboard-response","357","497781","0.0-6.0-2.45","","<div style=""font-size:60px;"">+</div>","null","","","","","","",""
"544.6649999994552","","image-keyboard-response","358","498326","0.0-6.0-0.46","","img/pink.png","32","trial","null","false","0.2,0.8","4:nogo_d","",""
"null","","html-keyboard-response","359","499330","0.0-6.0-1.46","","<img src=""img/pink-r.png"" border=""10"">","null","trial","null","","0.2,0.8","4:nogo_d","1",""
"null","","html-keyboard-response","360","500345","0.0-6.0-2.46","","<div style=""font-size:60px;"">+</div>","null","","","","","","",""
"548.3649999987683","","image-keyboard-response","361","500895","0.0-6.0-0.47","","img/purple.png","32","trial","32","true","0.8,0.2","3:go_c","",""
"null","","html-keyboard-response","362","501897","0.0-6.0-1.47","","<img src=""img/purple-r.png"" border=""10"">","null","trial","32","","0.8,0.2","3:go_c","1",""
"null","","html-keyboard-response","363","502911","0.0-6.0-2.47","","<div style=""font-size:60px;"">+</div>","null","","","","","","",""
"574.0200000000186","","image-keyboard-response","364","503486","0.0-6.0-0.48","","img/pink.png","32","trial","null","false","0.2,0.8","4:nogo_d","",""
"null","","html-keyboard-response","365","504489","0.0-6.0-1.48","","<img src=""img/pink-n.png"" border=""10"">","null","trial","null","","0.2,0.8","4:nogo_d","0",""
"null","","html-keyboard-response","366","505490","0.0-6.0-2.48","","<div style=""font-size:60px;"">+</div>","null","","","","","","",""
"542.2550000002957","","image-keyboard-response","367","506034","0.0-6.0-0.49","","img/grey.png","32","trial","32","true","0.8,0.2","1:go_a","",""
"null","","html-keyboard-response","368","507036","0.0-6.0-1.49","","<img src=""img/grey-r.png"" border=""10"">","null","trial","32","","0.8,0.2","1:go_a","1",""
"null","","html-keyboard-response","369","508051","0.0-6.0-2.49","","<div style=""font-size:60px;"">+</div>","null","","","","","","",""
"549.5250000003725","","image-keyboard-response","370","508602","0.0-6.0-0.50","","img/purple.png","32","trial","32","true","0.8,0.2","3:go_c","",""
"null","","html-keyboard-response","371","509605","0.0-6.0-1.50","","<img src=""img/purple-n.png"" border=""10"">","null","trial","32","","0.8,0.2","3:go_c","0",""
"null","","html-keyboard-response","372","510616","0.0-6.0-2.50","","<div style=""font-size:60px;"">+</div>","null","","","","","","",""
"496.64499999932013","","image-keyboard-response","373","511114","0.0-6.0-0.51","","img/orange.png","32","trial","null","false","0.2,0.8","2:nogo_b","",""
"null","","html-keyboard-response","374","512120","0.0-6.0-1.51","","<img src=""img/orange-n.png"" border=""10"">","null","trial","null","","0.2,0.8","2:nogo_b","0",""
"null","","html-keyboard-response","375","513123","0.0-6.0-2.51","","<div style=""font-size:60px;"">+</div>","null","","","","","","",""
"557.3800000001793","","image-keyboard-response","376","513681","0.0-6.0-0.52","","img/orange.png","32","trial","null","false","0.2,0.8","2:nogo_b","",""
"null","","html-keyboard-response","377","514695","0.0-6.0-1.52","","<img src=""img/orange-n.png"" border=""10"">","null","trial","null","","0.2,0.8","2:nogo_b","0",""
"null","","html-keyboard-response","378","515696","0.0-6.0-2.52","","<div style=""font-size:60px;"">+</div>","null","","","","","","",""
"null","","image-keyboard-response","379","517199","0.0-6.0-0.53","","img/grey.png","null","trial","32","false","0.8,0.2","1:go_a","",""
"null","","html-keyboard-response","380","518201","0.0-6.0-1.53","","<img src=""img/grey-n.png"">","null","trial","32","","0.8,0.2","1:go_a","0",""
"null","","html-keyboard-response","381","519204","0.0-6.0-2.53","","<div style=""font-size:60px;"">+</div>","null","","","","","","",""
"572.095000001369","","image-keyboard-response","382","519777","0.0-6.0-0.54","","img/pink.png","32","trial","null","false","0.2,0.8","4:nogo_d","",""
"null","","html-keyboard-response","383","520794","0.0-6.0-1.54","","<img src=""img/pink-n.png"" border=""10"">","null","trial","null","","0.2,0.8","4:nogo_d","0",""
"null","","html-keyboard-response","384","521807","0.0-6.0-2.54","","<div style=""font-size:60px;"">+</div>","null","","","","","","",""
"841.9800000010291","","image-keyboard-response","385","522650","0.0-6.0-0.55","","img/purple.png","32","trial","32","true","0.8,0.2","3:go_c","",""
"null","","html-keyboard-response","386","523660","0.0-6.0-1.55","","<img src=""img/purple-n.png"" border=""10"">","null","trial","32","","0.8,0.2","3:go_c","0",""
"null","","html-keyboard-response","387","524668","0.0-6.0-2.55","","<div style=""font-size:60px;"">+</div>","null","","","","","","",""
"1028.430000000284","","image-keyboard-response","388","525698","0.0-6.0-0.56","","img/orange.png","32","trial","null","false","0.2,0.8","2:nogo_b","",""
"null","","html-keyboard-response","389","526704","0.0-6.0-1.56","","<img src=""img/orange-n.png"" border=""10"">","null","trial","null","","0.2,0.8","2:nogo_b","0",""
"null","","html-keyboard-response","390","527708","0.0-6.0-2.56","","<div style=""font-size:60px;"">+</div>","null","","","","","","",""
"null","","image-keyboard-response","391","529214","0.0-6.0-0.57","","img/grey.png","null","trial","32","false","0.8,0.2","1:go_a","",""
"null","","html-keyboard-response","392","530223","0.0-6.0-1.57","","<img src=""img/grey-n.png"">","null","trial","32","","0.8,0.2","1:go_a","0",""
"null","","html-keyboard-response","393","531232","0.0-6.0-2.57","","<div style=""font-size:60px;"">+</div>","null","","","","","","",""
"463.8699999996461","","image-keyboard-response","394","531697","0.0-6.0-0.58","","img/purple.png","32","trial","32","true","0.8,0.2","3:go_c","",""
"null","","html-keyboard-response","395","532706","0.0-6.0-1.58","","<img src=""img/purple-r.png"" border=""10"">","null","trial","32","","0.8,0.2","3:go_c","1",""
"null","","html-keyboard-response","396","533713","0.0-6.0-2.58","","<div style=""font-size:60px;"">+</div>","null","","","","","","",""
"795.5299999994459","","image-keyboard-response","397","534510","0.0-6.0-0.59","","img/pink.png","32","trial","null","false","0.2,0.8","4:nogo_d","",""
"null","","html-keyboard-response","398","535518","0.0-6.0-1.59","","<img src=""img/pink-n.png"" border=""10"">","null","trial","null","","0.2,0.8","4:nogo_d","0",""
"null","","html-keyboard-response","399","536524","0.0-6.0-2.59","","<div style=""font-size:60px;"">+</div>","null","","","","","","",""
"null","","image-keyboard-response","400","538037","0.0-6.0-0.60","","img/grey.png","null","trial","32","false","0.8,0.2","1:go_a","",""
"null","","html-keyboard-response","401","539046","0.0-6.0-1.60","","<img src=""img/grey-n.png"">","null","trial","32","","0.8,0.2","1:go_a","0",""
"null","","html-keyboard-response","402","540053","0.0-6.0-2.60","","<div style=""font-size:60px;"">+</div>","null","","","","","","",""
"null","","image-keyboard-response","403","541556","0.0-6.0-0.61","","img/orange.png","null","trial","null","true","0.2,0.8","2:nogo_b","",""
"null","","html-keyboard-response","404","542558","0.0-6.0-1.61","","<img src=""img/orange-r.png"">","null","trial","null","","0.2,0.8","2:nogo_b","1",""
"null","","html-keyboard-response","405","543564","0.0-6.0-2.61","","<div style=""font-size:60px;"">+</div>","null","","","","","","",""
"432.9199999993434","","image-keyboard-response","406","543998","0.0-6.0-0.62","","img/purple.png","32","trial","32","true","0.8,0.2","3:go_c","",""
"null","","html-keyboard-response","407","544999","0.0-6.0-1.62","","<img src=""img/purple-n.png"" border=""10"">","null","trial","32","","0.8,0.2","3:go_c","0",""
"null","","html-keyboard-response","408","546001","0.0-6.0-2.62","","<div style=""font-size:60px;"">+</div>","null","","","","","","",""
"443.2550000001211","","image-keyboard-response","409","546445","0.0-6.0-0.63","","img/pink.png","32","trial","null","false","0.2,0.8","4:nogo_d","",""
"null","","html-keyboard-response","410","547463","0.0-6.0-1.63","","<img src=""img/pink-n.png"" border=""10"">","null","trial","null","","0.2,0.8","4:nogo_d","0",""
"null","","html-keyboard-response","411","548464","0.0-6.0-2.63","","<div style=""font-size:60px;"">+</div>","null","","","","","","",""
"1204.4100000003818","","image-keyboard-response","412","549670","0.0-6.0-0.64","","img/orange.png","32","trial","null","false","0.2,0.8","2:nogo_b","",""
"null","","html-keyboard-response","413","550671","0.0-6.0-1.64","","<img src=""img/orange-n.png"" border=""10"">","null","trial","null","","0.2,0.8","2:nogo_b","0",""
"null","","html-keyboard-response","414","551679","0.0-6.0-2.64","","<div style=""font-size:60px;"">+</div>","null","","","","","","",""
"null","","image-keyboard-response","415","553181","0.0-6.0-0.65","","img/grey.png","null","trial","32","false","0.8,0.2","1:go_a","",""
"null","","html-keyboard-response","416","554186","0.0-6.0-1.65","","<img src=""img/grey-n.png"">","null","trial","32","","0.8,0.2","1:go_a","0",""
"null","","html-keyboard-response","417","555192","0.0-6.0-2.65","","<div style=""font-size:60px;"">+</div>","null","","","","","","",""
"1252.4200000007404","","image-keyboard-response","418","556445","0.0-6.0-0.66","","img/purple.png","32","trial","32","true","0.8,0.2","3:go_c","",""
"null","","html-keyboard-response","419","557459","0.0-6.0-1.66","","<img src=""img/purple-r.png"" border=""10"">","null","trial","32","","0.8,0.2","3:go_c","1",""
"null","","html-keyboard-response","420","558470","0.0-6.0-2.66","","<div style=""font-size:60px;"">+</div>","null","","","","","","",""
"998.050000000163","","image-keyboard-response","421","559469","0.0-6.0-0.67","","img/pink.png","32","trial","null","false","0.2,0.8","4:nogo_d","",""
"null","","html-keyboard-response","422","560480","0.0-6.0-1.67","","<img src=""img/pink-n.png"" border=""10"">","null","trial","null","","0.2,0.8","4:nogo_d","0",""
"null","","html-keyboard-response","423","561482","0.0-6.0-2.67","","<div style=""font-size:60px;"">+</div>","null","","","","","","",""
"881.9249999996973","","image-keyboard-response","424","562365","0.0-6.0-0.68","","img/purple.png","32","trial","32","true","0.8,0.2","3:go_c","",""
"null","","html-keyboard-response","425","563367","0.0-6.0-1.68","","<img src=""img/purple-r.png"" border=""10"">","null","trial","32","","0.8,0.2","3:go_c","1",""
"null","","html-keyboard-response","426","564379","0.0-6.0-2.68","","<div style=""font-size:60px;"">+</div>","null","","","","","","",""
"null","","image-keyboard-response","427","565894","0.0-6.0-0.69","","img/grey.png","null","trial","32","false","0.8,0.2","1:go_a","",""
"null","","html-keyboard-response","428","566896","0.0-6.0-1.69","","<img src=""img/grey-n.png"">","null","trial","32","","0.8,0.2","1:go_a","0",""
"null","","html-keyboard-response","429","567897","0.0-6.0-2.69","","<div style=""font-size:60px;"">+</div>","null","","","","","","",""
"null","","image-keyboard-response","430","569399","0.0-6.0-0.70","","img/pink.png","null","trial","null","true","0.2,0.8","4:nogo_d","",""
"null","","html-keyboard-response","431","570404","0.0-6.0-1.70","","<img src=""img/pink-r.png"">","null","trial","null","","0.2,0.8","4:nogo_d","1",""
"null","","html-keyboard-response","432","571408","0.0-6.0-2.70","","<div style=""font-size:60px;"">+</div>","null","","","","","","",""
"899.6500000013039","","image-keyboard-response","433","572309","0.0-6.0-0.71","","img/orange.png","32","trial","null","false","0.2,0.8","2:nogo_b","",""
"null","","html-keyboard-response","434","573319","0.0-6.0-1.71","","<img src=""img/orange-n.png"" border=""10"">","null","trial","null","","0.2,0.8","2:nogo_b","0",""
"null","","html-keyboard-response","435","574321","0.0-6.0-2.71","","<div style=""font-size:60px;"">+</div>","null","","","","","","",""
"null","","image-keyboard-response","436","575824","0.0-6.0-0.72","","img/orange.png","null","trial","null","true","0.2,0.8","2:nogo_b","",""
"null","","html-keyboard-response","437","576838","0.0-6.0-1.72","","<img src=""img/orange-r.png"">","null","trial","null","","0.2,0.8","2:nogo_b","1",""
"null","","html-keyboard-response","438","577855","0.0-6.0-2.72","","<div style=""font-size:60px;"">+</div>","null","","","","","","",""
"972.4949999999953","","image-keyboard-response","439","578829","0.0-6.0-0.73","","img/pink.png","32","trial","null","false","0.2,0.8","4:nogo_d","",""
"null","","html-keyboard-response","440","579838","0.0-6.0-1.73","","<img src=""img/pink-n.png"" border=""10"">","null","trial","null","","0.2,0.8","4:nogo_d","0",""
"null","","html-keyboard-response","441","580854","0.0-6.0-2.73","","<div style=""font-size:60px;"">+</div>","null","","","","","","",""
"853.4600000001956","","image-keyboard-response","442","581709","0.0-6.0-0.74","","img/purple.png","32","trial","32","true","0.8,0.2","3:go_c","",""
"null","","html-keyboard-response","443","582713","0.0-6.0-1.74","","<img src=""img/purple-n.png"" border=""10"">","null","trial","32","","0.8,0.2","3:go_c","0",""
"null","","html-keyboard-response","444","583720","0.0-6.0-2.74","","<div style=""font-size:60px;"">+</div>","null","","","","","","",""
"null","","image-keyboard-response","445","585236","0.0-6.0-0.75","","img/grey.png","null","trial","32","false","0.8,0.2","1:go_a","",""
"null","","html-keyboard-response","446","586254","0.0-6.0-1.75","","<img src=""img/grey-r.png"">","null","trial","32","","0.8,0.2","1:go_a","1",""
"null","","html-keyboard-response","447","587257","0.0-6.0-2.75","","<div style=""font-size:60px;"">+</div>","null","","","","","","",""
"1075.3850000000093","","image-keyboard-response","448","588334","0.0-6.0-0.76","","img/orange.png","32","trial","null","false","0.2,0.8","2:nogo_b","",""
"null","","html-keyboard-response","449","589338","0.0-6.0-1.76","","<img src=""img/orange-r.png"" border=""10"">","null","trial","null","","0.2,0.8","2:nogo_b","1",""
"null","","html-keyboard-response","450","590339","0.0-6.0-2.76","","<div style=""font-size:60px;"">+</div>","null","","","","","","",""
"768.3400000005495","","image-keyboard-response","451","591109","0.0-6.0-0.77","","img/purple.png","32","trial","32","true","0.8,0.2","3:go_c","",""
"null","","html-keyboard-response","452","592118","0.0-6.0-1.77","","<img src=""img/purple-r.png"" border=""10"">","null","trial","32","","0.8,0.2","3:go_c","1",""
"null","","html-keyboard-response","453","593119","0.0-6.0-2.77","","<div style=""font-size:60px;"">+</div>","null","","","","","","",""
"533.5250000007218","","image-keyboard-response","454","593653","0.0-6.0-0.78","","img/pink.png","32","trial","null","false","0.2,0.8","4:nogo_d","",""
"null","","html-keyboard-response","455","594663","0.0-6.0-1.78","","<img src=""img/pink-n.png"" border=""10"">","null","trial","null","","0.2,0.8","4:nogo_d","0",""
"null","","html-keyboard-response","456","595669","0.0-6.0-2.78","","<div style=""font-size:60px;"">+</div>","null","","","","","","",""
"1154.2650000010617","","image-keyboard-response","457","596825","0.0-6.0-0.79","","img/grey.png","32","trial","32","true","0.8,0.2","1:go_a","",""
"null","","html-keyboard-response","458","597828","0.0-6.0-1.79","","<img src=""img/grey-r.png"" border=""10"">","null","trial","32","","0.8,0.2","1:go_a","1",""
"null","","html-keyboard-response","459","598834","0.0-6.0-2.79","","<div style=""font-size:60px;"">+</div>","null","","","","","","",""
"621.5949999986915","","image-keyboard-response","460","599457","0.0-6.0-0.80","","img/orange.png","32","trial","null","false","0.2,0.8","2:nogo_b","",""
"null","","html-keyboard-response","461","600459","0.0-6.0-1.80","","<img src=""img/orange-n.png"" border=""10"">","null","trial","null","","0.2,0.8","2:nogo_b","0",""
"null","","html-keyboard-response","462","601468","0.0-6.0-2.80","","<div style=""font-size:60px;"">+</div>","null","","","","","","",""
"564.0350000011967","","image-keyboard-response","463","602033","0.0-6.0-0.81","","img/purple.png","32","trial","32","true","0.8,0.2","3:go_c","",""
"null","","html-keyboard-response","464","603040","0.0-6.0-1.81","","<img src=""img/purple-r.png"" border=""10"">","null","trial","32","","0.8,0.2","3:go_c","1",""
"null","","html-keyboard-response","465","604056","0.0-6.0-2.81","","<div style=""font-size:60px;"">+</div>","null","","","","","","",""
"631.3300000001909","","image-keyboard-response","466","604689","0.0-6.0-0.82","","img/pink.png","32","trial","null","false","0.2,0.8","4:nogo_d","",""
"null","","html-keyboard-response","467","605698","0.0-6.0-1.82","","<img src=""img/pink-n.png"" border=""10"">","null","trial","null","","0.2,0.8","4:nogo_d","0",""
"null","","html-keyboard-response","468","606702","0.0-6.0-2.82","","<div style=""font-size:60px;"">+</div>","null","","","","","","",""
"1353.5649999994785","","image-keyboard-response","469","608057","0.0-6.0-0.83","","img/grey.png","32","trial","32","true","0.8,0.2","1:go_a","",""
"null","","html-keyboard-response","470","609059","0.0-6.0-1.83","","<img src=""img/grey-r.png"" border=""10"">","null","trial","32","","0.8,0.2","1:go_a","1",""
"null","","html-keyboard-response","471","610072","0.0-6.0-2.83","","<div style=""font-size:60px;"">+</div>","null","","","","","","",""
"551.4750000002095","","image-keyboard-response","472","610625","0.0-6.0-0.84","","img/purple.png","32","trial","32","true","0.8,0.2","3:go_c","",""
"null","","html-keyboard-response","473","611640","0.0-6.0-1.84","","<img src=""img/purple-r.png"" border=""10"">","null","trial","32","","0.8,0.2","3:go_c","1",""
"null","","html-keyboard-response","474","612645","0.0-6.0-2.84","","<div style=""font-size:60px;"">+</div>","null","","","","","","",""
"null","","image-keyboard-response","475","614156","0.0-6.0-0.85","","img/grey.png","null","trial","32","false","0.8,0.2","1:go_a","",""
"null","","html-keyboard-response","476","615161","0.0-6.0-1.85","","<img src=""img/grey-n.png"">","null","trial","32","","0.8,0.2","1:go_a","0",""
"null","","html-keyboard-response","477","616164","0.0-6.0-2.85","","<div style=""font-size:60px;"">+</div>","null","","","","","","",""
"763.6049999999814","","image-keyboard-response","478","616929","0.0-6.0-0.86","","img/orange.png","32","trial","null","false","0.2,0.8","2:nogo_b","",""
"null","","html-keyboard-response","479","617945","0.0-6.0-1.86","","<img src=""img/orange-n.png"" border=""10"">","null","trial","null","","0.2,0.8","2:nogo_b","0",""
"null","","html-keyboard-response","480","618958","0.0-6.0-2.86","","<div style=""font-size:60px;"">+</div>","null","","","","","","",""
"689.2499999994179","","image-keyboard-response","481","619649","0.0-6.0-0.87","","img/pink.png","32","trial","null","false","0.2,0.8","4:nogo_d","",""
"null","","html-keyboard-response","482","620652","0.0-6.0-1.87","","<img src=""img/pink-r.png"" border=""10"">","null","trial","null","","0.2,0.8","4:nogo_d","1",""
"null","","html-keyboard-response","483","621653","0.0-6.0-2.87","","<div style=""font-size:60px;"">+</div>","null","","","","","","",""
"971.1150000002235","","image-keyboard-response","484","622625","0.0-6.0-0.88","","img/pink.png","32","trial","null","false","0.2,0.8","4:nogo_d","",""
"null","","html-keyboard-response","485","623631","0.0-6.0-1.88","","<img src=""img/pink-n.png"" border=""10"">","null","trial","null","","0.2,0.8","4:nogo_d","0",""
"null","","html-keyboard-response","486","624646","0.0-6.0-2.88","","<div style=""font-size:60px;"">+</div>","null","","","","","","",""
"1050.0499999998137","","image-keyboard-response","487","625697","0.0-6.0-0.89","","img/orange.png","32","trial","null","false","0.2,0.8","2:nogo_b","",""
"null","","html-keyboard-response","488","626701","0.0-6.0-1.89","","<img src=""img/orange-n.png"" border=""10"">","null","trial","null","","0.2,0.8","2:nogo_b","0",""
"null","","html-keyboard-response","489","627703","0.0-6.0-2.89","","<div style=""font-size:60px;"">+</div>","null","","","","","","",""
"952.414999999688","","image-keyboard-response","490","628656","0.0-6.0-0.90","","img/purple.png","32","trial","32","true","0.8,0.2","3:go_c","",""
"null","","html-keyboard-response","491","629659","0.0-6.0-1.90","","<img src=""img/purple-r.png"" border=""10"">","null","trial","32","","0.8,0.2","3:go_c","1",""
"null","","html-keyboard-response","492","630660","0.0-6.0-2.90","","<div style=""font-size:60px;"">+</div>","null","","","","","","",""
"903.2400000013877","","image-keyboard-response","493","631564","0.0-6.0-0.91","","img/grey.png","32","trial","32","true","0.8,0.2","1:go_a","",""
"null","","html-keyboard-response","494","632581","0.0-6.0-1.91","","<img src=""img/grey-n.png"" border=""10"">","null","trial","32","","0.8,0.2","1:go_a","0",""
"null","","html-keyboard-response","495","633588","0.0-6.0-2.91","","<div style=""font-size:60px;"">+</div>","null","","","","","","",""
"null","","image-keyboard-response","496","635102","0.0-6.0-0.92","","img/orange.png","null","trial","null","true","0.2,0.8","2:nogo_b","",""
"null","","html-keyboard-response","497","636104","0.0-6.0-1.92","","<img src=""img/orange-r.png"">","null","trial","null","","0.2,0.8","2:nogo_b","1",""
"null","","html-keyboard-response","498","637113","0.0-6.0-2.92","","<div style=""font-size:60px;"">+</div>","null","","","","","","",""
"786.5299999993294","","image-keyboard-response","499","637900","0.0-6.0-0.93","","img/grey.png","32","trial","32","true","0.8,0.2","1:go_a","",""
"null","","html-keyboard-response","500","638906","0.0-6.0-1.93","","<img src=""img/grey-r.png"" border=""10"">","null","trial","32","","0.8,0.2","1:go_a","1",""
"null","","html-keyboard-response","501","639907","0.0-6.0-2.93","","<div style=""font-size:60px;"">+</div>","null","","","","","","",""
"527.6950000006473","","image-keyboard-response","502","640436","0.0-6.0-0.94","","img/pink.png","32","trial","null","false","0.2,0.8","4:nogo_d","",""
"null","","html-keyboard-response","503","641449","0.0-6.0-1.94","","<img src=""img/pink-n.png"" border=""10"">","null","trial","null","","0.2,0.8","4:nogo_d","0",""
"null","","html-keyboard-response","504","642461","0.0-6.0-2.94","","<div style=""font-size:60px;"">+</div>","null","","","","","","",""
"935.0549999999348","","image-keyboard-response","505","643397","0.0-6.0-0.95","","img/purple.png","32","trial","32","true","0.8,0.2","3:go_c","",""
"null","","html-keyboard-response","506","644403","0.0-6.0-1.95","","<img src=""img/purple-r.png"" border=""10"">","null","trial","32","","0.8,0.2","3:go_c","1",""
"null","","html-keyboard-response","507","645404","0.0-6.0-2.95","","<div style=""font-size:60px;"">+</div>","null","","","","","","",""
"null","","image-keyboard-response","508","646907","0.0-6.0-0.96","","img/orange.png","null","trial","null","true","0.2,0.8","2:nogo_b","",""
"null","","html-keyboard-response","509","647908","0.0-6.0-1.96","","<img src=""img/orange-r.png"">","null","trial","null","","0.2,0.8","2:nogo_b","1",""
"null","","html-keyboard-response","510","648914","0.0-6.0-2.96","","<div style=""font-size:60px;"">+</div>","null","","","","","","",""
"337.9550000008894","","image-keyboard-response","511","649253","0.0-6.0-0.97","","img/purple.png","32","trial","32","true","0.8,0.2","3:go_c","",""
"null","","html-keyboard-response","512","650267","0.0-6.0-1.97","","<img src=""img/purple-r.png"" border=""10"">","null","trial","32","","0.8,0.2","3:go_c","1",""
"null","","html-keyboard-response","513","651274","0.0-6.0-2.97","","<div style=""font-size:60px;"">+</div>","null","","","","","","",""
"481.22499999962747","","image-keyboard-response","514","651757","0.0-6.0-0.98","","img/grey.png","32","trial","32","true","0.8,0.2","1:go_a","",""
"null","","html-keyboard-response","515","652774","0.0-6.0-1.98","","<img src=""img/grey-r.png"" border=""10"">","null","trial","32","","0.8,0.2","1:go_a","1",""
"null","","html-keyboard-response","516","653775","0.0-6.0-2.98","","<div style=""font-size:60px;"">+</div>","null","","","","","","",""
"515.650000001071","","image-keyboard-response","517","654292","0.0-6.0-0.99","","img/pink.png","32","trial","null","false","0.2,0.8","4:nogo_d","",""
"null","","html-keyboard-response","518","655302","0.0-6.0-1.99","","<img src=""img/pink-n.png"" border=""10"">","null","trial","null","","0.2,0.8","4:nogo_d","0",""
"null","","html-keyboard-response","519","656304","0.0-6.0-2.99","","<div style=""font-size:60px;"">+</div>","null","","","","","","",""
"470.7699999999022","","image-keyboard-response","520","656776","0.0-6.0-0.100","","img/orange.png","32","trial","null","false","0.2,0.8","2:nogo_b","",""
"null","","html-keyboard-response","521","657782","0.0-6.0-1.100","","<img src=""img/orange-r.png"" border=""10"">","null","trial","null","","0.2,0.8","2:nogo_b","1",""
"null","","html-keyboard-response","522","658799","0.0-6.0-2.100","","<div style=""font-size:60px;"">+</div>","null","","","","","","",""
"839.9700000009034","","image-keyboard-response","523","659640","0.0-6.0-0.101","","img/grey.png","32","trial","32","true","0.8,0.2","1:go_a","",""
"null","","html-keyboard-response","524","660642","0.0-6.0-1.101","","<img src=""img/grey-r.png"" border=""10"">","null","trial","32","","0.8,0.2","1:go_a","1",""
"null","","html-keyboard-response","525","661643","0.0-6.0-2.101","","<div style=""font-size:60px;"">+</div>","null","","","","","","",""
"743.2900000002701","","image-keyboard-response","526","662388","0.0-6.0-0.102","","img/purple.png","32","trial","32","true","0.8,0.2","3:go_c","",""
"null","","html-keyboard-response","527","663399","0.0-6.0-1.102","","<img src=""img/purple-r.png"" border=""10"">","null","trial","32","","0.8,0.2","3:go_c","1",""
"null","","html-keyboard-response","528","664413","0.0-6.0-2.102","","<div style=""font-size:60px;"">+</div>","null","","","","","","",""
"414.010000000475","","image-keyboard-response","529","664828","0.0-6.0-0.103","","img/pink.png","32","trial","null","false","0.2,0.8","4:nogo_d","",""
"null","","html-keyboard-response","530","665841","0.0-6.0-1.103","","<img src=""img/pink-n.png"" border=""10"">","null","trial","null","","0.2,0.8","4:nogo_d","0",""
"null","","html-keyboard-response","531","666847","0.0-6.0-2.103","","<div style=""font-size:60px;"">+</div>","null","","","","","","",""
"950.93999999878","","image-keyboard-response","532","667800","0.0-6.0-0.104","","img/grey.png","32","trial","32","true","0.8,0.2","1:go_a","",""
"null","","html-keyboard-response","533","668802","0.0-6.0-1.104","","<img src=""img/grey-r.png"" border=""10"">","null","trial","32","","0.8,0.2","1:go_a","1",""
"null","","html-keyboard-response","534","669803","0.0-6.0-2.104","","<div style=""font-size:60px;"">+</div>","null","","","","","","",""
"483.70499999879394","","image-keyboard-response","535","670288","0.0-6.0-0.105","","img/purple.png","32","trial","32","true","0.8,0.2","3:go_c","",""
"null","","html-keyboard-response","536","671302","0.0-6.0-1.105","","<img src=""img/purple-r.png"" border=""10"">","null","trial","32","","0.8,0.2","3:go_c","1",""
"null","","html-keyboard-response","537","672304","0.0-6.0-2.105","","<div style=""font-size:60px;"">+</div>","null","","","","","","",""
"654.4099999991013","","image-keyboard-response","538","672960","0.0-6.0-0.106","","img/pink.png","32","trial","null","false","0.2,0.8","4:nogo_d","",""
"null","","html-keyboard-response","539","673970","0.0-6.0-1.106","","<img src=""img/pink-n.png"" border=""10"">","null","trial","null","","0.2,0.8","4:nogo_d","0",""
"null","","html-keyboard-response","540","674985","0.0-6.0-2.106","","<div style=""font-size:60px;"">+</div>","null","","","","","","",""
"884.9200000003912","","image-keyboard-response","541","675871","0.0-6.0-0.107","","img/orange.png","32","trial","null","false","0.2,0.8","2:nogo_b","",""
"null","","html-keyboard-response","542","676873","0.0-6.0-1.107","","<img src=""img/orange-n.png"" border=""10"">","null","trial","null","","0.2,0.8","2:nogo_b","0",""
"null","","html-keyboard-response","543","677874","0.0-6.0-2.107","","<div style=""font-size:60px;"">+</div>","null","","","","","","",""
"null","","image-keyboard-response","544","679376","0.0-6.0-0.108","","img/grey.png","null","trial","32","false","0.8,0.2","1:go_a","",""
"null","","html-keyboard-response","545","680380","0.0-6.0-1.108","","<img src=""img/grey-r.png"">","null","trial","32","","0.8,0.2","1:go_a","1",""
"null","","html-keyboard-response","546","681381","0.0-6.0-2.108","","<div style=""font-size:60px;"">+</div>","null","","","","","","",""
"null","","image-keyboard-response","547","682883","0.0-6.0-0.109","","img/orange.png","null","trial","null","true","0.2,0.8","2:nogo_b","",""
"null","","html-keyboard-response","548","683885","0.0-6.0-1.109","","<img src=""img/orange-n.png"">","null","trial","null","","0.2,0.8","2:nogo_b","0",""
"null","","html-keyboard-response","549","684901","0.0-6.0-2.109","","<div style=""font-size:60px;"">+</div>","null","","","","","","",""
"537.3949999994365","","image-keyboard-response","550","685440","0.0-6.0-0.110","","img/purple.png","32","trial","32","true","0.8,0.2","3:go_c","",""
"null","","html-keyboard-response","551","686441","0.0-6.0-1.110","","<img src=""img/purple-r.png"" border=""10"">","null","trial","32","","0.8,0.2","3:go_c","1",""
"null","","html-keyboard-response","552","687442","0.0-6.0-2.110","","<div style=""font-size:60px;"">+</div>","null","","","","","","",""
"1012.4900000010384","","image-keyboard-response","553","688456","0.0-6.0-0.111","","img/pink.png","32","trial","null","false","0.2,0.8","4:nogo_d","",""
"null","","html-keyboard-response","554","689471","0.0-6.0-1.111","","<img src=""img/pink-n.png"" border=""10"">","null","trial","null","","0.2,0.8","4:nogo_d","0",""
"null","","html-keyboard-response","555","690484","0.0-6.0-2.111","","<div style=""font-size:60px;"">+</div>","null","","","","","","",""
"null","","image-keyboard-response","556","691986","0.0-6.0-0.112","","img/pink.png","null","trial","null","true","0.2,0.8","4:nogo_d","",""
"null","","html-keyboard-response","557","692997","0.0-6.0-1.112","","<img src=""img/pink-r.png"">","null","trial","null","","0.2,0.8","4:nogo_d","1",""
"null","","html-keyboard-response","558","693999","0.0-6.0-2.112","","<div style=""font-size:60px;"">+</div>","null","","","","","","",""
"714.4850000004517","","image-keyboard-response","559","694715","0.0-6.0-0.113","","img/purple.png","32","trial","32","true","0.8,0.2","3:go_c","",""
"null","","html-keyboard-response","560","695727","0.0-6.0-1.113","","<img src=""img/purple-n.png"" border=""10"">","null","trial","32","","0.8,0.2","3:go_c","0",""
"null","","html-keyboard-response","561","696729","0.0-6.0-2.113","","<div style=""font-size:60px;"">+</div>","null","","","","","","",""
"null","","image-keyboard-response","562","698231","0.0-6.0-0.114","","img/orange.png","null","trial","null","true","0.2,0.8","2:nogo_b","",""
"null","","html-keyboard-response","563","699247","0.0-6.0-1.114","","<img src=""img/orange-n.png"">","null","trial","null","","0.2,0.8","2:nogo_b","0",""
"null","","html-keyboard-response","564","700258","0.0-6.0-2.114","","<div style=""font-size:60px;"">+</div>","null","","","","","","",""
"640.4750000000931","","image-keyboard-response","565","700899","0.0-6.0-0.115","","img/grey.png","32","trial","32","true","0.8,0.2","1:go_a","",""
"null","","html-keyboard-response","566","701902","0.0-6.0-1.115","","<img src=""img/grey-r.png"" border=""10"">","null","trial","32","","0.8,0.2","1:go_a","1",""
"null","","html-keyboard-response","567","702911","0.0-6.0-2.115","","<div style=""font-size:60px;"">+</div>","null","","","","","","",""
"1267.2750000001397","","image-keyboard-response","568","704179","0.0-6.0-0.116","","img/grey.png","32","trial","32","true","0.8,0.2","1:go_a","",""
"null","","html-keyboard-response","569","705188","0.0-6.0-1.116","","<img src=""img/grey-n.png"" border=""10"">","null","trial","32","","0.8,0.2","1:go_a","0",""
"null","","html-keyboard-response","570","706189","0.0-6.0-2.116","","<div style=""font-size:60px;"">+</div>","null","","","","","","",""
"1060.4899999998743","","image-keyboard-response","571","707251","0.0-6.0-0.117","","img/orange.png","32","trial","null","false","0.2,0.8","2:nogo_b","",""
"null","","html-keyboard-response","572","708256","0.0-6.0-1.117","","<img src=""img/orange-n.png"" border=""10"">","null","trial","null","","0.2,0.8","2:nogo_b","0",""
"null","","html-keyboard-response","573","709272","0.0-6.0-2.117","","<div style=""font-size:60px;"">+</div>","null","","","","","","",""
"833.7649999994319","","image-keyboard-response","574","710107","0.0-6.0-0.118","","img/purple.png","32","trial","32","true","0.8,0.2","3:go_c","",""
"null","","html-keyboard-response","575","711116","0.0-6.0-1.118","","<img src=""img/purple-r.png"" border=""10"">","null","trial","32","","0.8,0.2","3:go_c","1",""
"null","","html-keyboard-response","576","712133","0.0-6.0-2.118","","<div style=""font-size:60px;"">+</div>","null","","","","","","",""
"725.5900000000838","","image-keyboard-response","577","712860","0.0-6.0-0.119","","img/pink.png","32","trial","null","false","0.2,0.8","4:nogo_d","",""
"null","","html-keyboard-response","578","713876","0.0-6.0-1.119","","<img src=""img/pink-n.png"" border=""10"">","null","trial","null","","0.2,0.8","4:nogo_d","0",""
"null","","html-keyboard-response","579","714879","0.0-6.0-2.119","","<div style=""font-size:60px;"">+</div>","null","","","","","","",""
"1877.2550000012852","","instructions","580","716757","0.0-7.0","[{""page_index"":0,""viewing_time"":1877.0050000002375}]","","","","","","","","",""
"null","","image-keyboard-response","581","718260","0.0-8.0-0.0","","img/red.png","null","trial","32","false","0.8,0.2","1:go_a","",""
"null","","html-keyboard-response","582","719262","0.0-8.0-1.0","","<img src=""img/red-n.png"">","null","trial","32","","0.8,0.2","1:go_a","0",""
"null","","html-keyboard-response","583","720266","0.0-8.0-2.0","","<div style=""font-size:60px;"">+</div>","null","","","","","","",""
"null","","image-keyboard-response","584","721771","0.0-8.0-0.1","","img/grey.png","null","trial","null","true","0.2,0.8","2:nogo_b","",""
"null","","html-keyboard-response","585","722783","0.0-8.0-1.1","","<img src=""img/grey-r.png"">","null","trial","null","","0.2,0.8","2:nogo_b","1",""
"null","","html-keyboard-response","586","723791","0.0-8.0-2.1","","<div style=""font-size:60px;"">+</div>","null","","","","","","",""
"646.9900000010384","","image-keyboard-response","587","724439","0.0-8.0-0.2","","img/purple.png","32","trial","null","false","0,1","4:nogo_d","",""
"null","","html-keyboard-response","588","725457","0.0-8.0-1.2","","<img src=""img/purple-n.png"" border=""10"">","null","trial","null","","0,1","4:nogo_d","0",""
"null","","html-keyboard-response","589","726471","0.0-8.0-2.2","","<div style=""font-size:60px;"">+</div>","null","","","","","","",""
"631.1249999998836","","image-keyboard-response","590","727103","0.0-8.0-0.3","","img/orange.png","32","trial","32","true","1,0","3:go_c","",""
"null","","html-keyboard-response","591","728110","0.0-8.0-1.3","","<img src=""img/orange-r.png"" border=""10"">","null","trial","32","","1,0","3:go_c","1",""
"null","","html-keyboard-response","592","729111","0.0-8.0-2.3","","<div style=""font-size:60px;"">+</div>","null","","","","","","",""
"566.4599999999627","","image-keyboard-response","593","729679","0.0-8.0-0.4","","img/orange.png","32","trial","32","true","1,0","3:go_c","",""
"null","","html-keyboard-response","594","730685","0.0-8.0-1.4","","<img src=""img/orange-r.png"" border=""10"">","null","trial","32","","1,0","3:go_c","1",""
"null","","html-keyboard-response","595","731701","0.0-8.0-2.4","","<div style=""font-size:60px;"">+</div>","null","","","","","","",""
"536.9549999994924","","image-keyboard-response","596","732239","0.0-8.0-0.5","","img/purple.png","32","trial","null","false","0,1","4:nogo_d","",""
"null","","html-keyboard-response","597","733246","0.0-8.0-1.5","","<img src=""img/purple-n.png"" border=""10"">","null","trial","null","","0,1","4:nogo_d","0",""
"null","","html-keyboard-response","598","734259","0.0-8.0-2.5","","<div style=""font-size:60px;"">+</div>","null","","","","","","",""
"643.1250000004657","","image-keyboard-response","599","734903","0.0-8.0-0.6","","img/red.png","32","trial","32","true","0.8,0.2","1:go_a","",""
"null","","html-keyboard-response","600","735907","0.0-8.0-1.6","","<img src=""img/red-r.png"" border=""10"">","null","trial","32","","0.8,0.2","1:go_a","1",""
"null","","html-keyboard-response","601","736912","0.0-8.0-2.6","","<div style=""font-size:60px;"">+</div>","null","","","","","","",""
"null","","image-keyboard-response","602","738428","0.0-8.0-0.7","","img/grey.png","null","trial","null","true","0.2,0.8","2:nogo_b","",""
"null","","html-keyboard-response","603","739439","0.0-8.0-1.7","","<img src=""img/grey-r.png"">","null","trial","null","","0.2,0.8","2:nogo_b","1",""
"null","","html-keyboard-response","604","740446","0.0-8.0-2.7","","<div style=""font-size:60px;"">+</div>","null","","","","","","",""
"600.8199999995995","","image-keyboard-response","605","741048","0.0-8.0-0.8","","img/red.png","32","trial","32","true","0.8,0.2","1:go_a","",""
"null","","html-keyboard-response","606","742050","0.0-8.0-1.8","","<img src=""img/red-n.png"" border=""10"">","null","trial","32","","0.8,0.2","1:go_a","0",""
"null","","html-keyboard-response","607","743059","0.0-8.0-2.8","","<div style=""font-size:60px;"">+</div>","null","","","","","","",""
"762.4599999999627","","image-keyboard-response","608","743823","0.0-8.0-0.9","","img/grey.png","32","trial","null","false","0.2,0.8","2:nogo_b","",""
"null","","html-keyboard-response","609","744834","0.0-8.0-1.9","","<img src=""img/grey-r.png"" border=""10"">","null","trial","null","","0.2,0.8","2:nogo_b","1",""
"null","","html-keyboard-response","610","745837","0.0-8.0-2.9","","<div style=""font-size:60px;"">+</div>","null","","","","","","",""
"1033.8549999996321","","image-keyboard-response","611","746872","0.0-8.0-0.10","","img/orange.png","32","trial","32","true","1,0","3:go_c","",""
"null","","html-keyboard-response","612","747883","0.0-8.0-1.10","","<img src=""img/orange-r.png"" border=""10"">","null","trial","32","","1,0","3:go_c","1",""
"null","","html-keyboard-response","613","748884","0.0-8.0-2.10","","<div style=""font-size:60px;"">+</div>","null","","","","","","",""
"841.5800000003073","","image-keyboard-response","614","749727","0.0-8.0-0.11","","img/purple.png","32","trial","null","false","0,1","4:nogo_d","",""
"null","","html-keyboard-response","615","750733","0.0-8.0-1.11","","<img src=""img/purple-n.png"" border=""10"">","null","trial","null","","0,1","4:nogo_d","0",""
"null","","html-keyboard-response","616","751734","0.0-8.0-2.11","","<div style=""font-size:60px;"">+</div>","null","","","","","","",""
"707.8800000000047","","image-keyboard-response","617","752443","0.0-8.0-0.12","","img/red.png","32","trial","32","true","0.8,0.2","1:go_a","",""
"null","","html-keyboard-response","618","753449","0.0-8.0-1.12","","<img src=""img/red-n.png"" border=""10"">","null","trial","32","","0.8,0.2","1:go_a","0",""
"null","","html-keyboard-response","619","754450","0.0-8.0-2.12","","<div style=""font-size:60px;"">+</div>","null","","","","","","",""
"739.9050000003772","","image-keyboard-response","620","755191","0.0-8.0-0.13","","img/grey.png","32","trial","null","false","0.2,0.8","2:nogo_b","",""
"null","","html-keyboard-response","621","756208","0.0-8.0-1.13","","<img src=""img/grey-n.png"" border=""10"">","null","trial","null","","0.2,0.8","2:nogo_b","0",""
"null","","html-keyboard-response","622","757211","0.0-8.0-2.13","","<div style=""font-size:60px;"">+</div>","null","","","","","","",""
"1029.9450000001816","","image-keyboard-response","623","758243","0.0-8.0-0.14","","img/orange.png","32","trial","32","true","1,0","3:go_c","",""
"null","","html-keyboard-response","624","759259","0.0-8.0-1.14","","<img src=""img/orange-r.png"" border=""10"">","null","trial","32","","1,0","3:go_c","1",""
"null","","html-keyboard-response","625","760271","0.0-8.0-2.14","","<div style=""font-size:60px;"">+</div>","null","","","","","","",""
"522.0250000002561","","image-keyboard-response","626","760795","0.0-8.0-0.15","","img/purple.png","32","trial","null","false","0,1","4:nogo_d","",""
"null","","html-keyboard-response","627","761809","0.0-8.0-1.15","","<img src=""img/purple-n.png"" border=""10"">","null","trial","null","","0,1","4:nogo_d","0",""
"null","","html-keyboard-response","628","762819","0.0-8.0-2.15","","<div style=""font-size:60px;"">+</div>","null","","","","","","",""
"534.1900000002934","","image-keyboard-response","629","763355","0.0-8.0-0.16","","img/purple.png","32","trial","null","false","0,1","4:nogo_d","",""
"null","","html-keyboard-response","630","764356","0.0-8.0-1.16","","<img src=""img/purple-n.png"" border=""10"">","null","trial","null","","0,1","4:nogo_d","0",""
"null","","html-keyboard-response","631","765372","0.0-8.0-2.16","","<div style=""font-size:60px;"">+</div>","null","","","","","","",""
"null","","image-keyboard-response","632","766874","0.0-8.0-0.17","","img/grey.png","null","trial","null","true","0.2,0.8","2:nogo_b","",""
"null","","html-keyboard-response","633","767881","0.0-8.0-1.17","","<img src=""img/grey-r.png"">","null","trial","null","","0.2,0.8","2:nogo_b","1",""
"null","","html-keyboard-response","634","768896","0.0-8.0-2.17","","<div style=""font-size:60px;"">+</div>","null","","","","","","",""
"570.1200000003446","","image-keyboard-response","635","769467","0.0-8.0-0.18","","img/orange.png","32","trial","32","true","1,0","3:go_c","",""
"null","","html-keyboard-response","636","770469","0.0-8.0-1.18","","<img src=""img/orange-r.png"" border=""10"">","null","trial","32","","1,0","3:go_c","1",""
"null","","html-keyboard-response","637","771475","0.0-8.0-2.18","","<div style=""font-size:60px;"">+</div>","null","","","","","","",""
"559.6299999996554","","image-keyboard-response","638","772035","0.0-8.0-0.19","","img/red.png","32","trial","32","true","0.8,0.2","1:go_a","",""
"null","","html-keyboard-response","639","773047","0.0-8.0-1.19","","<img src=""img/red-r.png"" border=""10"">","null","trial","32","","0.8,0.2","1:go_a","1",""
"null","","html-keyboard-response","640","774060","0.0-8.0-2.19","","<div style=""font-size:60px;"">+</div>","null","","","","","","",""
"null","","image-keyboard-response","641","775572","0.0-8.0-0.20","","img/grey.png","null","trial","null","true","0.2,0.8","2:nogo_b","",""
"null","","html-keyboard-response","642","776580","0.0-8.0-1.20","","<img src=""img/grey-r.png"">","null","trial","null","","0.2,0.8","2:nogo_b","1",""
"null","","html-keyboard-response","643","777582","0.0-8.0-2.20","","<div style=""font-size:60px;"">+</div>","null","","","","","","",""
"583.4450000001816","","image-keyboard-response","644","778167","0.0-8.0-0.21","","img/purple.png","32","trial","null","false","0,1","4:nogo_d","",""
"null","","html-keyboard-response","645","779172","0.0-8.0-1.21","","<img src=""img/purple-n.png"" border=""10"">","null","trial","null","","0,1","4:nogo_d","0",""
"null","","html-keyboard-response","646","780183","0.0-8.0-2.21","","<div style=""font-size:60px;"">+</div>","null","","","","","","",""
"662.5450000010896","","image-keyboard-response","647","780847","0.0-8.0-0.22","","img/orange.png","32","trial","32","true","1,0","3:go_c","",""
"null","","html-keyboard-response","648","781855","0.0-8.0-1.22","","<img src=""img/orange-r.png"" border=""10"">","null","trial","32","","1,0","3:go_c","1",""
"null","","html-keyboard-response","649","782857","0.0-8.0-2.22","","<div style=""font-size:60px;"">+</div>","null","","","","","","",""
"null","","image-keyboard-response","650","784373","0.0-8.0-0.23","","img/red.png","null","trial","32","false","0.8,0.2","1:go_a","",""
"null","","html-keyboard-response","651","785381","0.0-8.0-1.23","","<img src=""img/red-n.png"">","null","trial","32","","0.8,0.2","1:go_a","0",""
"null","","html-keyboard-response","652","786383","0.0-8.0-2.23","","<div style=""font-size:60px;"">+</div>","null","","","","","","",""
"702.5049999991897","","image-keyboard-response","653","787087","0.0-8.0-0.24","","img/purple.png","32","trial","null","false","0,1","4:nogo_d","",""
"null","","html-keyboard-response","654","788092","0.0-8.0-1.24","","<img src=""img/purple-n.png"" border=""10"">","null","trial","null","","0,1","4:nogo_d","0",""
"null","","html-keyboard-response","655","789094","0.0-8.0-2.24","","<div style=""font-size:60px;"">+</div>","null","","","","","","",""
"591.394999999553","","image-keyboard-response","656","789687","0.0-8.0-0.25","","img/red.png","32","trial","32","true","0.8,0.2","1:go_a","",""
"null","","html-keyboard-response","657","790692","0.0-8.0-1.25","","<img src=""img/red-r.png"" border=""10"">","null","trial","32","","0.8,0.2","1:go_a","1",""
"null","","html-keyboard-response","658","791699","0.0-8.0-2.25","","<div style=""font-size:60px;"">+</div>","null","","","","","","",""
"626.4800000007963","","image-keyboard-response","659","792326","0.0-8.0-0.26","","img/grey.png","32","trial","null","false","0.2,0.8","2:nogo_b","",""
"null","","html-keyboard-response","660","793332","0.0-8.0-1.26","","<img src=""img/grey-r.png"" border=""10"">","null","trial","null","","0.2,0.8","2:nogo_b","1",""
"null","","html-keyboard-response","661","794336","0.0-8.0-2.26","","<div style=""font-size:60px;"">+</div>","null","","","","","","",""
"580.7299999996321","","image-keyboard-response","662","794918","0.0-8.0-0.27","","img/orange.png","32","trial","32","true","1,0","3:go_c","",""
"null","","html-keyboard-response","663","795927","0.0-8.0-1.27","","<img src=""img/orange-r.png"" border=""10"">","null","trial","32","","1,0","3:go_c","1",""
"null","","html-keyboard-response","664","796928","0.0-8.0-2.27","","<div style=""font-size:60px;"">+</div>","null","","","","","","",""
"853.5750000010012","","image-keyboard-response","665","797783","0.0-8.0-0.28","","img/grey.png","32","trial","null","false","0.2,0.8","2:nogo_b","",""
"null","","html-keyboard-response","666","798795","0.0-8.0-1.28","","<img src=""img/grey-n.png"" border=""10"">","null","trial","null","","0.2,0.8","2:nogo_b","0",""
"null","","html-keyboard-response","667","799805","0.0-8.0-2.28","","<div style=""font-size:60px;"">+</div>","null","","","","","","",""
"null","","image-keyboard-response","668","801308","0.0-8.0-0.29","","img/red.png","null","trial","32","false","0.8,0.2","1:go_a","",""
"null","","html-keyboard-response","669","802319","0.0-8.0-1.29","","<img src=""img/red-n.png"">","null","trial","32","","0.8,0.2","1:go_a","0",""
"null","","html-keyboard-response","670","803322","0.0-8.0-2.29","","<div style=""font-size:60px;"">+</div>","null","","","","","","",""
"779.6050000014948","","image-keyboard-response","671","804103","0.0-8.0-0.30","","img/purple.png","32","trial","null","false","0,1","4:nogo_d","",""
"null","","html-keyboard-response","672","805105","0.0-8.0-1.30","","<img src=""img/purple-n.png"" border=""10"">","null","trial","null","","0,1","4:nogo_d","0",""
"null","","html-keyboard-response","673","806114","0.0-8.0-2.30","","<div style=""font-size:60px;"">+</div>","null","","","","","","",""
"1134.8299999990268","","image-keyboard-response","674","807250","0.0-8.0-0.31","","img/orange.png","32","trial","32","true","1,0","3:go_c","",""
