"rt","url","trial_type","trial_index","time_elapsed","internal_node_id","view_history","stimulus","key_press","test_part","correct_response","correct","use_rew","which_stim","reward","responses"
"15071","consent.html","external-html","0","15128","0.0-0.0","","","","","","","","","",""
"176333.89999961853","","instructions","1","191476","0.0-1.0","[{""page_index"":0,""viewing_time"":4298.5},{""page_index"":1,""viewing_time"":39182.699999809265},{""page_index"":2,""viewing_time"":13383.5},{""page_index"":3,""viewing_time"":66645.69999980927},{""page_index"":4,""viewing_time"":24023.400000572205},{""page_index"":5,""viewing_time"":8367.599999427795},{""page_index"":6,""viewing_time"":20431.199999809265}]","","","","","","","","",""
"665.3999996185303","","image-keyboard-response","2","192144","0.0-2.0-0.0","","img/test3.PNG","32","practice","null","false","","","",""
"null","","html-keyboard-response","3","193147","0.0-2.0-1.0","","<img src=""img/test3-neutral.PNG"" border=""10px; grey"">","null","","","","","","",""
"null","","html-keyboard-response","4","194148","0.0-2.0-2.0","","<div style=""font-size:60px;"">+</div>","null","","","","","","",""
"506","","image-keyboard-response","5","194655","0.0-2.0-0.1","","img/test1.PNG","32","practice","32","true","","","",""
"null","","html-keyboard-response","6","195657","0.0-2.0-1.1","","<img src=""img/test1-reward.PNG"" border=""10px; grey"">","null","","","","","","",""
"null","","html-keyboard-response","7","196658","0.0-2.0-2.1","","<div style=""font-size:60px;"">+</div>","null","","","","","","",""
"null","","image-keyboard-response","8","198160","0.0-2.0-0.2","","img/test2.PNG","null","practice","null","true","","","",""
"null","","html-keyboard-response","9","199162","0.0-2.0-1.2","","<img src=""img/test2-reward.PNG"">","null","","","","","","",""
"null","","html-keyboard-response","10","200163","0.0-2.0-2.2","","<div style=""font-size:60px;"">+</div>","null","","","","","","",""
"778.3000001907349","","image-keyboard-response","11","200943","0.0-2.0-0.3","","img/test1.PNG","32","practice","32","true","","","",""
"null","","html-keyboard-response","12","201945","0.0-2.0-1.3","","<img src=""img/test1-reward.PNG"" border=""10px; grey"">","null","","","","","","",""
"null","","html-keyboard-response","13","202946","0.0-2.0-2.3","","<div style=""font-size:60px;"">+</div>","null","","","","","","",""
"null","","image-keyboard-response","14","204447","0.0-2.0-0.4","","img/test2.PNG","null","practice","null","true","","","",""
"null","","html-keyboard-response","15","205448","0.0-2.0-1.4","","<img src=""img/test2-reward.PNG"">","null","","","","","","",""
"null","","html-keyboard-response","16","206449","0.0-2.0-2.4","","<div style=""font-size:60px;"">+</div>","null","","","","","","",""
"null","","image-keyboard-response","17","207951","0.0-2.0-0.5","","img/test3.PNG","null","practice","null","true","","","",""
"null","","html-keyboard-response","18","208952","0.0-2.0-1.5","","<img src=""img/test3-reward.PNG"">","null","","","","","","",""
"null","","html-keyboard-response","19","209953","0.0-2.0-2.5","","<div style=""font-size:60px;"">+</div>","null","","","","","","",""
"null","","image-keyboard-response","20","211455","0.0-2.0-0.6","","img/test2.PNG","null","practice","null","true","","","",""
"null","","html-keyboard-response","21","212456","0.0-2.0-1.6","","<img src=""img/test2-reward.PNG"">","null","","","","","","",""
"null","","html-keyboard-response","22","213457","0.0-2.0-2.6","","<div style=""font-size:60px;"">+</div>","null","","","","","","",""
"652.6999998092651","","image-keyboard-response","23","214110","0.0-2.0-0.7","","img/test1.PNG","32","practice","32","true","","","",""
"null","","html-keyboard-response","24","215111","0.0-2.0-1.7","","<img src=""img/test1-reward.PNG"" border=""10px; grey"">","null","","","","","","",""
"null","","html-keyboard-response","25","216112","0.0-2.0-2.7","","<div style=""font-size:60px;"">+</div>","null","","","","","","",""
"null","","image-keyboard-response","26","217614","0.0-2.0-0.8","","img/test3.PNG","null","practice","null","true","","","",""
"null","","html-keyboard-response","27","218615","0.0-2.0-1.8","","<img src=""img/test3-reward.PNG"">","null","","","","","","",""
"null","","html-keyboard-response","28","219616","0.0-2.0-2.8","","<div style=""font-size:60px;"">+</div>","null","","","","","","",""
"null","","image-keyboard-response","29","221117","0.0-2.0-0.9","","img/test3.PNG","null","practice","null","true","","","",""
"null","","html-keyboard-response","30","222118","0.0-2.0-1.9","","<img src=""img/test3-reward.PNG"">","null","","","","","","",""
"null","","html-keyboard-response","31","223120","0.0-2.0-2.9","","<div style=""font-size:60px;"">+</div>","null","","","","","","",""
"null","","image-keyboard-response","32","224621","0.0-2.0-0.10","","img/test2.PNG","null","practice","null","true","","","",""
"null","","html-keyboard-response","33","225622","0.0-2.0-1.10","","<img src=""img/test2-reward.PNG"">","null","","","","","","",""
"null","","html-keyboard-response","34","226624","0.0-2.0-2.10","","<div style=""font-size:60px;"">+</div>","null","","","","","","",""
"493.5999994277954","","image-keyboard-response","35","227119","0.0-2.0-0.11","","img/test1.PNG","32","practice","32","true","","","",""
"null","","html-keyboard-response","36","228121","0.0-2.0-1.11","","<img src=""img/test1-reward.PNG"" border=""10px; grey"">","null","","","","","","",""
"null","","html-keyboard-response","37","229122","0.0-2.0-2.11","","<div style=""font-size:60px;"">+</div>","null","","","","","","",""
"2983.5999994277954","","instructions","38","232106","0.0-3.0","[{""page_index"":0,""viewing_time"":2983.3999996185303}]","","","","","","","","",""
"1458.0999994277954","","image-keyboard-response","39","233566","0.0-4.0-0.0","","img/purple.png","32","trial","32","true","0.8,0.2","1:go_a","",""
"null","","html-keyboard-response","40","234569","0.0-4.0-1.0","","<img src=""img/purple-r.png"" border=""10"">","null","trial","32","","0.8,0.2","1:go_a","1",""
"null","","html-keyboard-response","41","235570","0.0-4.0-2.0","","<div style=""font-size:60px;"">+</div>","null","","","","","","",""
"null","","image-keyboard-response","42","237072","0.0-4.0-0.1","","img/grey.png","null","trial","null","true","0.2,0.8","2:nogo_b","",""
"null","","html-keyboard-response","43","238074","0.0-4.0-1.1","","<img src=""img/grey-n.png"">","null","trial","null","","0.2,0.8","2:nogo_b","0",""
"null","","html-keyboard-response","44","239075","0.0-4.0-2.1","","<div style=""font-size:60px;"">+</div>","null","","","","","","",""
"602.3000001907349","","image-keyboard-response","45","239678","0.0-4.0-0.2","","img/grey.png","32","trial","null","false","0.2,0.8","2:nogo_b","",""
"null","","html-keyboard-response","46","240680","0.0-4.0-1.2","","<img src=""img/grey-n.png"" border=""10"">","null","trial","null","","0.2,0.8","2:nogo_b","0",""
"null","","html-keyboard-response","47","241685","0.0-4.0-2.2","","<div style=""font-size:60px;"">+</div>","null","","","","","","",""
"859.3999996185303","","image-keyboard-response","48","242546","0.0-4.0-0.3","","img/purple.png","32","trial","32","true","0.8,0.2","1:go_a","",""
"null","","html-keyboard-response","49","243547","0.0-4.0-1.3","","<img src=""img/purple-r.png"" border=""10"">","null","trial","32","","0.8,0.2","1:go_a","1",""
"null","","html-keyboard-response","50","244548","0.0-4.0-2.3","","<div style=""font-size:60px;"">+</div>","null","","","","","","",""
"972.1999998092651","","image-keyboard-response","51","245522","0.0-4.0-0.4","","img/grey.png","32","trial","null","false","0.2,0.8","2:nogo_b","",""
"null","","html-keyboard-response","52","246523","0.0-4.0-1.4","","<img src=""img/grey-n.png"" border=""10"">","null","trial","null","","0.2,0.8","2:nogo_b","0",""
"null","","html-keyboard-response","53","247525","0.0-4.0-2.4","","<div style=""font-size:60px;"">+</div>","null","","","","","","",""
"907.9000005722046","","image-keyboard-response","54","248433","0.0-4.0-0.5","","img/purple.png","32","trial","32","true","0.8,0.2","1:go_a","",""
"null","","html-keyboard-response","55","249436","0.0-4.0-1.5","","<img src=""img/purple-r.png"" border=""10"">","null","trial","32","","0.8,0.2","1:go_a","1",""
"null","","html-keyboard-response","56","250437","0.0-4.0-2.5","","<div style=""font-size:60px;"">+</div>","null","","","","","","",""
"1244.5","","image-keyboard-response","57","251682","0.0-4.0-0.6","","img/purple.png","32","trial","32","true","0.8,0.2","1:go_a","",""
"null","","html-keyboard-response","58","252684","0.0-4.0-1.6","","<img src=""img/purple-r.png"" border=""10"">","null","trial","32","","0.8,0.2","1:go_a","1",""
"null","","html-keyboard-response","59","253685","0.0-4.0-2.6","","<div style=""font-size:60px;"">+</div>","null","","","","","","",""
"939.5","","image-keyboard-response","60","254625","0.0-4.0-0.7","","img/grey.png","32","trial","null","false","0.2,0.8","2:nogo_b","",""
"null","","html-keyboard-response","61","255628","0.0-4.0-1.7","","<img src=""img/grey-n.png"" border=""10"">","null","trial","null","","0.2,0.8","2:nogo_b","0",""
"null","","html-keyboard-response","62","256629","0.0-4.0-2.7","","<div style=""font-size:60px;"">+</div>","null","","","","","","",""
"603.2999992370605","","image-keyboard-response","63","257233","0.0-4.0-0.8","","img/purple.png","32","trial","32","true","0.8,0.2","1:go_a","",""
"null","","html-keyboard-response","64","258235","0.0-4.0-1.8","","<img src=""img/purple-r.png"" border=""10"">","null","trial","32","","0.8,0.2","1:go_a","1",""
"null","","html-keyboard-response","65","259236","0.0-4.0-2.8","","<div style=""font-size:60px;"">+</div>","null","","","","","","",""
"844.0999994277954","","image-keyboard-response","66","260081","0.0-4.0-0.9","","img/grey.png","32","trial","null","false","0.2,0.8","2:nogo_b","",""
"null","","html-keyboard-response","67","261083","0.0-4.0-1.9","","<img src=""img/grey-n.png"" border=""10"">","null","trial","null","","0.2,0.8","2:nogo_b","0",""
"null","","html-keyboard-response","68","262084","0.0-4.0-2.9","","<div style=""font-size:60px;"">+</div>","null","","","","","","",""
"620.5","","image-keyboard-response","69","262706","0.0-4.0-0.10","","img/purple.png","32","trial","32","true","0.8,0.2","1:go_a","",""
"null","","html-keyboard-response","70","263710","0.0-4.0-1.10","","<img src=""img/purple-r.png"" border=""10"">","null","trial","32","","0.8,0.2","1:go_a","1",""
"null","","html-keyboard-response","71","264711","0.0-4.0-2.10","","<div style=""font-size:60px;"">+</div>","null","","","","","","",""
"null","","image-keyboard-response","72","266213","0.0-4.0-0.11","","img/grey.png","null","trial","null","true","0.2,0.8","2:nogo_b","",""
"null","","html-keyboard-response","73","267215","0.0-4.0-1.11","","<img src=""img/grey-r.png"">","null","trial","null","","0.2,0.8","2:nogo_b","1",""
"null","","html-keyboard-response","74","268216","0.0-4.0-2.11","","<div style=""font-size:60px;"">+</div>","null","","","","","","",""
"487.69999980926514","","image-keyboard-response","75","268705","0.0-4.0-0.12","","img/purple.png","32","trial","32","true","0.8,0.2","1:go_a","",""
"null","","html-keyboard-response","76","269707","0.0-4.0-1.12","","<img src=""img/purple-r.png"" border=""10"">","null","trial","32","","0.8,0.2","1:go_a","1",""
"null","","html-keyboard-response","77","270708","0.0-4.0-2.12","","<div style=""font-size:60px;"">+</div>","null","","","","","","",""
"923.5","","image-keyboard-response","78","271633","0.0-4.0-0.13","","img/grey.png","32","trial","null","false","0.2,0.8","2:nogo_b","",""
"null","","html-keyboard-response","79","272635","0.0-4.0-1.13","","<img src=""img/grey-n.png"" border=""10"">","null","trial","null","","0.2,0.8","2:nogo_b","0",""
"null","","html-keyboard-response","80","273636","0.0-4.0-2.13","","<div style=""font-size:60px;"">+</div>","null","","","","","","",""
"684","","image-keyboard-response","81","274321","0.0-4.0-0.14","","img/grey.png","32","trial","null","false","0.2,0.8","2:nogo_b","",""
"null","","html-keyboard-response","82","275323","0.0-4.0-1.14","","<img src=""img/grey-n.png"" border=""10"">","null","trial","null","","0.2,0.8","2:nogo_b","0",""
"null","","html-keyboard-response","83","276324","0.0-4.0-2.14","","<div style=""font-size:60px;"">+</div>","null","","","","","","",""
"571.0999994277954","","image-keyboard-response","84","276896","0.0-4.0-0.15","","img/purple.png","32","trial","32","true","0.8,0.2","1:go_a","",""
"null","","html-keyboard-response","85","277898","0.0-4.0-1.15","","<img src=""img/purple-r.png"" border=""10"">","null","trial","32","","0.8,0.2","1:go_a","1",""
"null","","html-keyboard-response","86","278899","0.0-4.0-2.15","","<div style=""font-size:60px;"">+</div>","null","","","","","","",""
"827.8999996185303","","image-keyboard-response","87","279728","0.0-4.0-0.16","","img/grey.png","32","trial","null","false","0.2,0.8","2:nogo_b","",""
"null","","html-keyboard-response","88","280731","0.0-4.0-1.16","","<img src=""img/grey-r.png"" border=""10"">","null","trial","null","","0.2,0.8","2:nogo_b","1",""
"null","","html-keyboard-response","89","281732","0.0-4.0-2.16","","<div style=""font-size:60px;"">+</div>","null","","","","","","",""
"363.80000019073486","","image-keyboard-response","90","282096","0.0-4.0-0.17","","img/purple.png","32","trial","32","true","0.8,0.2","1:go_a","",""
"null","","html-keyboard-response","91","283099","0.0-4.0-1.17","","<img src=""img/purple-n.png"" border=""10"">","null","trial","32","","0.8,0.2","1:go_a","0",""
"null","","html-keyboard-response","92","284100","0.0-4.0-2.17","","<div style=""font-size:60px;"">+</div>","null","","","","","","",""
"732.4000005722046","","image-keyboard-response","93","284833","0.0-4.0-0.18","","img/purple.png","32","trial","32","true","0.8,0.2","1:go_a","",""
"null","","html-keyboard-response","94","285835","0.0-4.0-1.18","","<img src=""img/purple-r.png"" border=""10"">","null","trial","32","","0.8,0.2","1:go_a","1",""
"null","","html-keyboard-response","95","286836","0.0-4.0-2.18","","<div style=""font-size:60px;"">+</div>","null","","","","","","",""
"1019.3000001907349","","image-keyboard-response","96","287856","0.0-4.0-0.19","","img/grey.png","32","trial","null","false","0.2,0.8","2:nogo_b","",""
"null","","html-keyboard-response","97","288858","0.0-4.0-1.19","","<img src=""img/grey-n.png"" border=""10"">","null","trial","null","","0.2,0.8","2:nogo_b","0",""
"null","","html-keyboard-response","98","289859","0.0-4.0-2.19","","<div style=""font-size:60px;"">+</div>","null","","","","","","",""
"684.3000001907349","","image-keyboard-response","99","290544","0.0-4.0-0.20","","img/purple.png","32","trial","32","true","0.8,0.2","1:go_a","",""
"null","","html-keyboard-response","100","291546","0.0-4.0-1.20","","<img src=""img/purple-n.png"" border=""10"">","null","trial","32","","0.8,0.2","1:go_a","0",""
"null","","html-keyboard-response","101","292547","0.0-4.0-2.20","","<div style=""font-size:60px;"">+</div>","null","","","","","","",""
"956","","image-keyboard-response","102","293504","0.0-4.0-0.21","","img/grey.png","32","trial","null","false","0.2,0.8","2:nogo_b","",""
"null","","html-keyboard-response","103","294506","0.0-4.0-1.21","","<img src=""img/grey-n.png"" border=""10"">","null","trial","null","","0.2,0.8","2:nogo_b","0",""
"null","","html-keyboard-response","104","295507","0.0-4.0-2.21","","<div style=""font-size:60px;"">+</div>","null","","","","","","",""
"476.6000003814697","","image-keyboard-response","105","295985","0.0-4.0-0.22","","img/grey.png","32","trial","null","false","0.2,0.8","2:nogo_b","",""
"null","","html-keyboard-response","106","296987","0.0-4.0-1.22","","<img src=""img/grey-n.png"" border=""10"">","null","trial","null","","0.2,0.8","2:nogo_b","0",""
"null","","html-keyboard-response","107","297988","0.0-4.0-2.22","","<div style=""font-size:60px;"">+</div>","null","","","","","","",""
"666.8000001907349","","image-keyboard-response","108","298656","0.0-4.0-0.23","","img/purple.png","32","trial","32","true","0.8,0.2","1:go_a","",""
"null","","html-keyboard-response","109","299658","0.0-4.0-1.23","","<img src=""img/purple-r.png"" border=""10"">","null","trial","32","","0.8,0.2","1:go_a","1",""
"null","","html-keyboard-response","110","300659","0.0-4.0-2.23","","<div style=""font-size:60px;"">+</div>","null","","","","","","",""
"907.5","","image-keyboard-response","111","301568","0.0-4.0-0.24","","img/purple.png","32","trial","32","true","0.8,0.2","1:go_a","",""
"null","","html-keyboard-response","112","302573","0.0-4.0-1.24","","<img src=""img/purple-r.png"" border=""10"">","null","trial","32","","0.8,0.2","1:go_a","1",""
"null","","html-keyboard-response","113","303574","0.0-4.0-2.24","","<div style=""font-size:60px;"">+</div>","null","","","","","","",""
"null","","image-keyboard-response","114","305075","0.0-4.0-0.25","","img/grey.png","null","trial","null","true","0.2,0.8","2:nogo_b","",""
"null","","html-keyboard-response","115","306078","0.0-4.0-1.25","","<img src=""img/grey-r.png"">","null","trial","null","","0.2,0.8","2:nogo_b","1",""
"null","","html-keyboard-response","116","307079","0.0-4.0-2.25","","<div style=""font-size:60px;"">+</div>","null","","","","","","",""
"null","","image-keyboard-response","117","308580","0.0-4.0-0.26","","img/grey.png","null","trial","null","true","0.2,0.8","2:nogo_b","",""
"null","","html-keyboard-response","118","309582","0.0-4.0-1.26","","<img src=""img/grey-n.png"">","null","trial","null","","0.2,0.8","2:nogo_b","0",""
"null","","html-keyboard-response","119","310583","0.0-4.0-2.26","","<div style=""font-size:60px;"">+</div>","null","","","","","","",""
"636.5999994277954","","image-keyboard-response","120","311220","0.0-4.0-0.27","","img/purple.png","32","trial","32","true","0.8,0.2","1:go_a","",""
"null","","html-keyboard-response","121","312222","0.0-4.0-1.27","","<img src=""img/purple-r.png"" border=""10"">","null","trial","32","","0.8,0.2","1:go_a","1",""
"null","","html-keyboard-response","122","313223","0.0-4.0-2.27","","<div style=""font-size:60px;"">+</div>","null","","","","","","",""
"587.8000001907349","","image-keyboard-response","123","313811","0.0-4.0-0.28","","img/purple.png","32","trial","32","true","0.8,0.2","1:go_a","",""
"null","","html-keyboard-response","124","314814","0.0-4.0-1.28","","<img src=""img/purple-r.png"" border=""10"">","null","trial","32","","0.8,0.2","1:go_a","1",""
"null","","html-keyboard-response","125","315815","0.0-4.0-2.28","","<div style=""font-size:60px;"">+</div>","null","","","","","","",""
"763.5999994277954","","image-keyboard-response","126","316579","0.0-4.0-0.29","","img/grey.png","32","trial","null","false","0.2,0.8","2:nogo_b","",""
"null","","html-keyboard-response","127","317581","0.0-4.0-1.29","","<img src=""img/grey-r.png"" border=""10"">","null","trial","null","","0.2,0.8","2:nogo_b","1",""
"null","","html-keyboard-response","128","318582","0.0-4.0-2.29","","<div style=""font-size:60px;"">+</div>","null","","","","","","",""
"null","","image-keyboard-response","129","320084","0.0-4.0-0.30","","img/grey.png","null","trial","null","true","0.2,0.8","2:nogo_b","",""
"null","","html-keyboard-response","130","321086","0.0-4.0-1.30","","<img src=""img/grey-r.png"">","null","trial","null","","0.2,0.8","2:nogo_b","1",""
"null","","html-keyboard-response","131","322087","0.0-4.0-2.30","","<div style=""font-size:60px;"">+</div>","null","","","","","","",""
"1371.6999998092651","","image-keyboard-response","132","323460","0.0-4.0-0.31","","img/purple.png","32","trial","32","true","0.8,0.2","1:go_a","",""
"null","","html-keyboard-response","133","324462","0.0-4.0-1.31","","<img src=""img/purple-r.png"" border=""10"">","null","trial","32","","0.8,0.2","1:go_a","1",""
"null","","html-keyboard-response","134","325463","0.0-4.0-2.31","","<div style=""font-size:60px;"">+</div>","null","","","","","","",""
"651.1999998092651","","image-keyboard-response","135","326115","0.0-4.0-0.32","","img/purple.png","32","trial","32","true","0.8,0.2","1:go_a","",""
"null","","html-keyboard-response","136","327117","0.0-4.0-1.32","","<img src=""img/purple-r.png"" border=""10"">","null","trial","32","","0.8,0.2","1:go_a","1",""
"null","","html-keyboard-response","137","328118","0.0-4.0-2.32","","<div style=""font-size:60px;"">+</div>","null","","","","","","",""
"1211.6999998092651","","image-keyboard-response","138","329331","0.0-4.0-0.33","","img/grey.png","32","trial","null","false","0.2,0.8","2:nogo_b","",""
"null","","html-keyboard-response","139","330333","0.0-4.0-1.33","","<img src=""img/grey-n.png"" border=""10"">","null","trial","null","","0.2,0.8","2:nogo_b","0",""
"null","","html-keyboard-response","140","331334","0.0-4.0-2.33","","<div style=""font-size:60px;"">+</div>","null","","","","","","",""
"907.6999998092651","","image-keyboard-response","141","332243","0.0-4.0-0.34","","img/purple.png","32","trial","32","true","0.8,0.2","1:go_a","",""
"null","","html-keyboard-response","142","333244","0.0-4.0-1.34","","<img src=""img/purple-r.png"" border=""10"">","null","trial","32","","0.8,0.2","1:go_a","1",""
"null","","html-keyboard-response","143","334245","0.0-4.0-2.34","","<div style=""font-size:60px;"">+</div>","null","","","","","","",""
"null","","image-keyboard-response","144","335746","0.0-4.0-0.35","","img/grey.png","null","trial","null","true","0.2,0.8","2:nogo_b","",""
"null","","html-keyboard-response","145","336750","0.0-4.0-1.35","","<img src=""img/grey-r.png"">","null","trial","null","","0.2,0.8","2:nogo_b","1",""
"null","","html-keyboard-response","146","337751","0.0-4.0-2.35","","<div style=""font-size:60px;"">+</div>","null","","","","","","",""
"619.1999998092651","","image-keyboard-response","147","338371","0.0-4.0-0.36","","img/purple.png","32","trial","32","true","0.8,0.2","1:go_a","",""
"null","","html-keyboard-response","148","339373","0.0-4.0-1.36","","<img src=""img/purple-r.png"" border=""10"">","null","trial","32","","0.8,0.2","1:go_a","1",""
"null","","html-keyboard-response","149","340374","0.0-4.0-2.36","","<div style=""font-size:60px;"">+</div>","null","","","","","","",""
"1100","","image-keyboard-response","150","341475","0.0-4.0-0.37","","img/grey.png","32","trial","null","false","0.2,0.8","2:nogo_b","",""
"null","","html-keyboard-response","151","342477","0.0-4.0-1.37","","<img src=""img/grey-n.png"" border=""10"">","null","trial","null","","0.2,0.8","2:nogo_b","0",""
"null","","html-keyboard-response","152","343478","0.0-4.0-2.37","","<div style=""font-size:60px;"">+</div>","null","","","","","","",""
"987.6999998092651","","image-keyboard-response","153","344466","0.0-4.0-0.38","","img/purple.png","32","trial","32","true","0.8,0.2","1:go_a","",""
"null","","html-keyboard-response","154","345469","0.0-4.0-1.38","","<img src=""img/purple-r.png"" border=""10"">","null","trial","32","","0.8,0.2","1:go_a","1",""
"null","","html-keyboard-response","155","346471","0.0-4.0-2.38","","<div style=""font-size:60px;"">+</div>","null","","","","","","",""
"null","","image-keyboard-response","156","347973","0.0-4.0-0.39","","img/grey.png","null","trial","null","true","0.2,0.8","2:nogo_b","",""
"null","","html-keyboard-response","157","348975","0.0-4.0-1.39","","<img src=""img/grey-r.png"">","null","trial","null","","0.2,0.8","2:nogo_b","1",""
"null","","html-keyboard-response","158","349976","0.0-4.0-2.39","","<div style=""font-size:60px;"">+</div>","null","","","","","","",""
"826.2000007629395","","image-keyboard-response","159","350803","0.0-4.0-0.40","","img/purple.png","32","trial","32","true","0.8,0.2","1:go_a","",""
"null","","html-keyboard-response","160","351805","0.0-4.0-1.40","","<img src=""img/purple-r.png"" border=""10"">","null","trial","32","","0.8,0.2","1:go_a","1",""
"null","","html-keyboard-response","161","352806","0.0-4.0-2.40","","<div style=""font-size:60px;"">+</div>","null","","","","","","",""
"null","","image-keyboard-response","162","354308","0.0-4.0-0.41","","img/grey.png","null","trial","null","true","0.2,0.8","2:nogo_b","",""
"null","","html-keyboard-response","163","355310","0.0-4.0-1.41","","<img src=""img/grey-n.png"">","null","trial","null","","0.2,0.8","2:nogo_b","0",""
"null","","html-keyboard-response","164","356311","0.0-4.0-2.41","","<div style=""font-size:60px;"">+</div>","null","","","","","","",""
"634.1000003814697","","image-keyboard-response","165","356946","0.0-4.0-0.42","","img/grey.png","32","trial","null","false","0.2,0.8","2:nogo_b","",""
"null","","html-keyboard-response","166","357948","0.0-4.0-1.42","","<img src=""img/grey-n.png"" border=""10"">","null","trial","null","","0.2,0.8","2:nogo_b","0",""
"null","","html-keyboard-response","167","358949","0.0-4.0-2.42","","<div style=""font-size:60px;"">+</div>","null","","","","","","",""
"523.7999992370605","","image-keyboard-response","168","359474","0.0-4.0-0.43","","img/purple.png","32","trial","32","true","0.8,0.2","1:go_a","",""
"null","","html-keyboard-response","169","360476","0.0-4.0-1.43","","<img src=""img/purple-n.png"" border=""10"">","null","trial","32","","0.8,0.2","1:go_a","0",""
"null","","html-keyboard-response","170","361477","0.0-4.0-2.43","","<div style=""font-size:60px;"">+</div>","null","","","","","","",""
"636.5","","image-keyboard-response","171","362115","0.0-4.0-0.44","","img/purple.png","32","trial","32","true","0.8,0.2","1:go_a","",""
"null","","html-keyboard-response","172","363120","0.0-4.0-1.44","","<img src=""img/purple-r.png"" border=""10"">","null","trial","32","","0.8,0.2","1:go_a","1",""
"null","","html-keyboard-response","173","364122","0.0-4.0-2.44","","<div style=""font-size:60px;"">+</div>","null","","","","","","",""
"411.4000005722046","","image-keyboard-response","174","364534","0.0-4.0-0.45","","img/grey.png","32","trial","null","false","0.2,0.8","2:nogo_b","",""
"null","","html-keyboard-response","175","365536","0.0-4.0-1.45","","<img src=""img/grey-n.png"" border=""10"">","null","trial","null","","0.2,0.8","2:nogo_b","0",""
"null","","html-keyboard-response","176","366537","0.0-4.0-2.45","","<div style=""font-size:60px;"">+</div>","null","","","","","","",""
"668.1000003814697","","image-keyboard-response","177","367206","0.0-4.0-0.46","","img/purple.png","32","trial","32","true","0.8,0.2","1:go_a","",""
"null","","html-keyboard-response","178","368208","0.0-4.0-1.46","","<img src=""img/purple-n.png"" border=""10"">","null","trial","32","","0.8,0.2","1:go_a","0",""
"null","","html-keyboard-response","179","369209","0.0-4.0-2.46","","<div style=""font-size:60px;"">+</div>","null","","","","","","",""
"null","","image-keyboard-response","180","370710","0.0-4.0-0.47","","img/grey.png","null","trial","null","true","0.2,0.8","2:nogo_b","",""
"null","","html-keyboard-response","181","371712","0.0-4.0-1.47","","<img src=""img/grey-r.png"">","null","trial","null","","0.2,0.8","2:nogo_b","1",""
"null","","html-keyboard-response","182","372713","0.0-4.0-2.47","","<div style=""font-size:60px;"">+</div>","null","","","","","","",""
"null","","image-keyboard-response","183","374214","0.0-4.0-0.48","","img/grey.png","null","trial","null","true","0.2,0.8","2:nogo_b","",""
"null","","html-keyboard-response","184","375216","0.0-4.0-1.48","","<img src=""img/grey-r.png"">","null","trial","null","","0.2,0.8","2:nogo_b","1",""
"null","","html-keyboard-response","185","376217","0.0-4.0-2.48","","<div style=""font-size:60px;"">+</div>","null","","","","","","",""
"572.6000003814697","","image-keyboard-response","186","376790","0.0-4.0-0.49","","img/purple.png","32","trial","32","true","0.8,0.2","1:go_a","",""
"null","","html-keyboard-response","187","377793","0.0-4.0-1.49","","<img src=""img/purple-r.png"" border=""10"">","null","trial","32","","0.8,0.2","1:go_a","1",""
"null","","html-keyboard-response","188","378794","0.0-4.0-2.49","","<div style=""font-size:60px;"">+</div>","null","","","","","","",""
"null","","image-keyboard-response","189","380295","0.0-4.0-0.50","","img/purple.png","null","trial","32","false","0.8,0.2","1:go_a","",""
"null","","html-keyboard-response","190","381297","0.0-4.0-1.50","","<img src=""img/purple-r.png"">","null","trial","32","","0.8,0.2","1:go_a","1",""
"null","","html-keyboard-response","191","382298","0.0-4.0-2.50","","<div style=""font-size:60px;"">+</div>","null","","","","","","",""
"1066.1999998092651","","image-keyboard-response","192","383365","0.0-4.0-0.51","","img/grey.png","32","trial","null","false","0.2,0.8","2:nogo_b","",""
"null","","html-keyboard-response","193","384367","0.0-4.0-1.51","","<img src=""img/grey-n.png"" border=""10"">","null","trial","null","","0.2,0.8","2:nogo_b","0",""
"null","","html-keyboard-response","194","385368","0.0-4.0-2.51","","<div style=""font-size:60px;"">+</div>","null","","","","","","",""
"null","","image-keyboard-response","195","386869","0.0-4.0-0.52","","img/purple.png","null","trial","32","false","0.8,0.2","1:go_a","",""
"null","","html-keyboard-response","196","387871","0.0-4.0-1.52","","<img src=""img/purple-n.png"">","null","trial","32","","0.8,0.2","1:go_a","0",""
"null","","html-keyboard-response","197","388872","0.0-4.0-2.52","","<div style=""font-size:60px;"">+</div>","null","","","","","","",""
"1244.5","","image-keyboard-response","198","390118","0.0-4.0-0.53","","img/grey.png","32","trial","null","false","0.2,0.8","2:nogo_b","",""
"null","","html-keyboard-response","199","391119","0.0-4.0-1.53","","<img src=""img/grey-n.png"" border=""10"">","null","trial","null","","0.2,0.8","2:nogo_b","0",""
"null","","html-keyboard-response","200","392120","0.0-4.0-2.53","","<div style=""font-size:60px;"">+</div>","null","","","","","","",""
"891.3000001907349","","image-keyboard-response","201","393013","0.0-4.0-0.54","","img/grey.png","32","trial","null","false","0.2,0.8","2:nogo_b","",""
"null","","html-keyboard-response","202","394014","0.0-4.0-1.54","","<img src=""img/grey-n.png"" border=""10"">","null","trial","null","","0.2,0.8","2:nogo_b","0",""
"null","","html-keyboard-response","203","395016","0.0-4.0-2.54","","<div style=""font-size:60px;"">+</div>","null","","","","","","",""
"508.5","","image-keyboard-response","204","395525","0.0-4.0-0.55","","img/purple.png","32","trial","32","true","0.8,0.2","1:go_a","",""
"null","","html-keyboard-response","205","396527","0.0-4.0-1.55","","<img src=""img/purple-n.png"" border=""10"">","null","trial","32","","0.8,0.2","1:go_a","0",""
"null","","html-keyboard-response","206","397528","0.0-4.0-2.55","","<div style=""font-size:60px;"">+</div>","null","","","","","","",""
"620.5","","image-keyboard-response","207","398149","0.0-4.0-0.56","","img/purple.png","32","trial","32","true","0.8,0.2","1:go_a","",""
"null","","html-keyboard-response","208","399151","0.0-4.0-1.56","","<img src=""img/purple-n.png"" border=""10"">","null","trial","32","","0.8,0.2","1:go_a","0",""
"null","","html-keyboard-response","209","400152","0.0-4.0-2.56","","<div style=""font-size:60px;"">+</div>","null","","","","","","",""
"1036.8999996185303","","image-keyboard-response","210","401189","0.0-4.0-0.57","","img/grey.png","32","trial","null","false","0.2,0.8","2:nogo_b","",""
"null","","html-keyboard-response","211","402191","0.0-4.0-1.57","","<img src=""img/grey-n.png"" border=""10"">","null","trial","null","","0.2,0.8","2:nogo_b","0",""
"null","","html-keyboard-response","212","403192","0.0-4.0-2.57","","<div style=""font-size:60px;"">+</div>","null","","","","","","",""
"907.8999996185303","","image-keyboard-response","213","404101","0.0-4.0-0.58","","img/purple.png","32","trial","32","true","0.8,0.2","1:go_a","",""
"null","","html-keyboard-response","214","405103","0.0-4.0-1.58","","<img src=""img/purple-n.png"" border=""10"">","null","trial","32","","0.8,0.2","1:go_a","0",""
"null","","html-keyboard-response","215","406104","0.0-4.0-2.58","","<div style=""font-size:60px;"">+</div>","null","","","","","","",""
"null","","image-keyboard-response","216","407605","0.0-4.0-0.59","","img/grey.png","null","trial","null","true","0.2,0.8","2:nogo_b","",""
"null","","html-keyboard-response","217","408607","0.0-4.0-1.59","","<img src=""img/grey-r.png"">","null","trial","null","","0.2,0.8","2:nogo_b","1",""
"null","","html-keyboard-response","218","409608","0.0-4.0-2.59","","<div style=""font-size:60px;"">+</div>","null","","","","","","",""
"46630.5","","instructions","219","456245","0.0-5.0","[{""page_index"":0,""viewing_time"":46630.300000190735}]","","","","","","","","",""
"1218.3000001907349","","image-keyboard-response","220","457465","0.0-6.0-0.0","","img/grey.png","32","trial","32","true","1,0","3:go_c","",""
"null","","html-keyboard-response","221","458467","0.0-6.0-1.0","","<img src=""img/grey-r.png"" border=""10"">","null","trial","32","","1,0","3:go_c","1",""
"null","","html-keyboard-response","222","459468","0.0-6.0-2.0","","<div style=""font-size:60px;"">+</div>","null","","","","","","",""
"1068.1999998092651","","image-keyboard-response","223","460537","0.0-6.0-0.1","","img/blue.png","32","trial","null","false","0,1","4:nogo_d","",""
"null","","html-keyboard-response","224","461539","0.0-6.0-1.1","","<img src=""img/blue-n.png"" border=""10"">","null","trial","null","","0,1","4:nogo_d","0",""
"null","","html-keyboard-response","225","462540","0.0-6.0-2.1","","<div style=""font-size:60px;"">+</div>","null","","","","","","",""
"748.1999998092651","","image-keyboard-response","226","463289","0.0-6.0-0.2","","img/green.png","32","trial","32","true","0.8,0.2","1:go_a","",""
"null","","html-keyboard-response","227","464291","0.0-6.0-1.2","","<img src=""img/green-r.png"" border=""10"">","null","trial","32","","0.8,0.2","1:go_a","1",""
"null","","html-keyboard-response","228","465292","0.0-6.0-2.2","","<div style=""font-size:60px;"">+</div>","null","","","","","","",""
"812.1000003814697","","image-keyboard-response","229","466105","0.0-6.0-0.3","","img/purple.png","32","trial","null","false","0.2,0.8","2:nogo_b","",""
"null","","html-keyboard-response","230","467107","0.0-6.0-1.3","","<img src=""img/purple-n.png"" border=""10"">","null","trial","null","","0.2,0.8","2:nogo_b","0",""
"null","","html-keyboard-response","231","468108","0.0-6.0-2.3","","<div style=""font-size:60px;"">+</div>","null","","","","","","",""
"748.5","","image-keyboard-response","232","468857","0.0-6.0-0.4","","img/green.png","32","trial","32","true","0.8,0.2","1:go_a","",""
"null","","html-keyboard-response","233","469859","0.0-6.0-1.4","","<img src=""img/green-r.png"" border=""10"">","null","trial","32","","0.8,0.2","1:go_a","1",""
"null","","html-keyboard-response","234","470860","0.0-6.0-2.4","","<div style=""font-size:60px;"">+</div>","null","","","","","","",""
"1147.5999994277954","","image-keyboard-response","235","472009","0.0-6.0-0.5","","img/blue.png","32","trial","null","false","0,1","4:nogo_d","",""
"null","","html-keyboard-response","236","473010","0.0-6.0-1.5","","<img src=""img/blue-n.png"" border=""10"">","null","trial","null","","0,1","4:nogo_d","0",""
"null","","html-keyboard-response","237","474011","0.0-6.0-2.5","","<div style=""font-size:60px;"">+</div>","null","","","","","","",""
"652.3999996185303","","image-keyboard-response","238","474664","0.0-6.0-0.6","","img/purple.png","32","trial","null","false","0.2,0.8","2:nogo_b","",""
"null","","html-keyboard-response","239","475666","0.0-6.0-1.6","","<img src=""img/purple-n.png"" border=""10"">","null","trial","null","","0.2,0.8","2:nogo_b","0",""
"null","","html-keyboard-response","240","476667","0.0-6.0-2.6","","<div style=""font-size:60px;"">+</div>","null","","","","","","",""
"1132.1000003814697","","image-keyboard-response","241","477800","0.0-6.0-0.7","","img/grey.png","32","trial","32","true","1,0","3:go_c","",""
"null","","html-keyboard-response","242","478802","0.0-6.0-1.7","","<img src=""img/grey-r.png"" border=""10"">","null","trial","32","","1,0","3:go_c","1",""
"null","","html-keyboard-response","243","479803","0.0-6.0-2.7","","<div style=""font-size:60px;"">+</div>","null","","","","","","",""
"1196.6000003814697","","image-keyboard-response","244","481001","0.0-6.0-0.8","","img/blue.png","32","trial","null","false","0,1","4:nogo_d","",""
"null","","html-keyboard-response","245","482003","0.0-6.0-1.8","","<img src=""img/blue-n.png"" border=""10"">","null","trial","null","","0,1","4:nogo_d","0",""
"null","","html-keyboard-response","246","483004","0.0-6.0-2.8","","<div style=""font-size:60px;"">+</div>","null","","","","","","",""
"779","","image-keyboard-response","247","483784","0.0-6.0-0.9","","img/green.png","32","trial","32","true","0.8,0.2","1:go_a","",""
"null","","html-keyboard-response","248","484785","0.0-6.0-1.9","","<img src=""img/green-r.png"" border=""10"">","null","trial","32","","0.8,0.2","1:go_a","1",""
"null","","html-keyboard-response","249","485787","0.0-6.0-2.9","","<div style=""font-size:60px;"">+</div>","null","","","","","","",""
"null","","image-keyboard-response","250","487288","0.0-6.0-0.10","","img/grey.png","null","trial","32","false","1,0","3:go_c","",""
"null","","html-keyboard-response","251","488291","0.0-6.0-1.10","","<img src=""img/grey-n.png"">","null","trial","32","","1,0","3:go_c","0",""
"null","","html-keyboard-response","252","489292","0.0-6.0-2.10","","<div style=""font-size:60px;"">+</div>","null","","","","","","",""
"619.4000005722046","","image-keyboard-response","253","489912","0.0-6.0-0.11","","img/purple.png","32","trial","null","false","0.2,0.8","2:nogo_b","",""
"null","","html-keyboard-response","254","490914","0.0-6.0-1.11","","<img src=""img/purple-n.png"" border=""10"">","null","trial","null","","0.2,0.8","2:nogo_b","0",""
"null","","html-keyboard-response","255","491915","0.0-6.0-2.11","","<div style=""font-size:60px;"">+</div>","null","","","","","","",""
"1357.1999998092651","","image-keyboard-response","256","493273","0.0-6.0-0.12","","img/grey.png","32","trial","32","true","1,0","3:go_c","",""
"null","","html-keyboard-response","257","494275","0.0-6.0-1.12","","<img src=""img/grey-r.png"" border=""10"">","null","trial","32","","1,0","3:go_c","1",""
"null","","html-keyboard-response","258","495276","0.0-6.0-2.12","","<div style=""font-size:60px;"">+</div>","null","","","","","","",""
"null","","image-keyboard-response","259","496777","0.0-6.0-0.13","","img/purple.png","null","trial","null","true","0.2,0.8","2:nogo_b","",""
"null","","html-keyboard-response","260","497779","0.0-6.0-1.13","","<img src=""img/purple-n.png"">","null","trial","null","","0.2,0.8","2:nogo_b","0",""
"null","","html-keyboard-response","261","498780","0.0-6.0-2.13","","<div style=""font-size:60px;"">+</div>","null","","","","","","",""
"746.5","","image-keyboard-response","262","499528","0.0-6.0-0.14","","img/green.png","32","trial","32","true","0.8,0.2","1:go_a","",""
"null","","html-keyboard-response","263","500530","0.0-6.0-1.14","","<img src=""img/green-r.png"" border=""10"">","null","trial","32","","0.8,0.2","1:go_a","1",""
"null","","html-keyboard-response","264","501531","0.0-6.0-2.14","","<div style=""font-size:60px;"">+</div>","null","","","","","","",""
"955.5999994277954","","image-keyboard-response","265","502488","0.0-6.0-0.15","","img/blue.png","32","trial","null","false","0,1","4:nogo_d","",""
"null","","html-keyboard-response","266","503490","0.0-6.0-1.15","","<img src=""img/blue-n.png"" border=""10"">","null","trial","null","","0,1","4:nogo_d","0",""
"null","","html-keyboard-response","267","504491","0.0-6.0-2.15","","<div style=""font-size:60px;"">+</div>","null","","","","","","",""
"668.3999996185303","","image-keyboard-response","268","505160","0.0-6.0-0.16","","img/green.png","32","trial","32","true","0.8,0.2","1:go_a","",""
"null","","html-keyboard-response","269","506162","0.0-6.0-1.16","","<img src=""img/green-n.png"" border=""10"">","null","trial","32","","0.8,0.2","1:go_a","0",""
"null","","html-keyboard-response","270","507163","0.0-6.0-2.16","","<div style=""font-size:60px;"">+</div>","null","","","","","","",""
"715.4000005722046","","image-keyboard-response","271","507879","0.0-6.0-0.17","","img/purple.png","32","trial","null","false","0.2,0.8","2:nogo_b","",""
"null","","html-keyboard-response","272","508881","0.0-6.0-1.17","","<img src=""img/purple-n.png"" border=""10"">","null","trial","null","","0.2,0.8","2:nogo_b","0",""
"null","","html-keyboard-response","273","509882","0.0-6.0-2.17","","<div style=""font-size:60px;"">+</div>","null","","","","","","",""
"476","","image-keyboard-response","274","510359","0.0-6.0-0.18","","img/blue.png","32","trial","null","false","0,1","4:nogo_d","",""
"null","","html-keyboard-response","275","511361","0.0-6.0-1.18","","<img src=""img/blue-n.png"" border=""10"">","null","trial","null","","0,1","4:nogo_d","0",""
"null","","html-keyboard-response","276","512362","0.0-6.0-2.18","","<div style=""font-size:60px;"">+</div>","null","","","","","","",""
"940","","image-keyboard-response","277","513303","0.0-6.0-0.19","","img/grey.png","32","trial","32","true","1,0","3:go_c","",""
"null","","html-keyboard-response","278","514305","0.0-6.0-1.19","","<img src=""img/grey-r.png"" border=""10"">","null","trial","32","","1,0","3:go_c","1",""
"null","","html-keyboard-response","279","515306","0.0-6.0-2.19","","<div style=""font-size:60px;"">+</div>","null","","","","","","",""
"null","","image-keyboard-response","280","516812","0.0-6.0-0.20","","img/purple.png","null","trial","null","true","0.2,0.8","2:nogo_b","",""
"null","","html-keyboard-response","281","517814","0.0-6.0-1.20","","<img src=""img/purple-r.png"">","null","trial","null","","0.2,0.8","2:nogo_b","1",""
"null","","html-keyboard-response","282","518815","0.0-6.0-2.20","","<div style=""font-size:60px;"">+</div>","null","","","","","","",""
"380.19999980926514","","image-keyboard-response","283","519196","0.0-6.0-0.21","","img/blue.png","32","trial","null","false","0,1","4:nogo_d","",""
"null","","html-keyboard-response","284","520198","0.0-6.0-1.21","","<img src=""img/blue-n.png"" border=""10"">","null","trial","null","","0,1","4:nogo_d","0",""
"null","","html-keyboard-response","285","521199","0.0-6.0-2.21","","<div style=""font-size:60px;"">+</div>","null","","","","","","",""
"827.4000005722046","","image-keyboard-response","286","522027","0.0-6.0-0.22","","img/grey.png","32","trial","32","true","1,0","3:go_c","",""
"null","","html-keyboard-response","287","523029","0.0-6.0-1.22","","<img src=""img/grey-r.png"" border=""10"">","null","trial","32","","1,0","3:go_c","1",""
"null","","html-keyboard-response","288","524030","0.0-6.0-2.22","","<div style=""font-size:60px;"">+</div>","null","","","","","","",""
"476.30000019073486","","image-keyboard-response","289","524507","0.0-6.0-0.23","","img/green.png","32","trial","32","true","0.8,0.2","1:go_a","",""
"null","","html-keyboard-response","290","525509","0.0-6.0-1.23","","<img src=""img/green-r.png"" border=""10"">","null","trial","32","","0.8,0.2","1:go_a","1",""
"null","","html-keyboard-response","291","526510","0.0-6.0-2.23","","<div style=""font-size:60px;"">+</div>","null","","","","","","",""
"892.0999994277954","","image-keyboard-response","292","527403","0.0-6.0-0.24","","img/green.png","32","trial","32","true","0.8,0.2","1:go_a","",""
"null","","html-keyboard-response","293","528405","0.0-6.0-1.24","","<img src=""img/green-n.png"" border=""10"">","null","trial","32","","0.8,0.2","1:go_a","0",""
"null","","html-keyboard-response","294","529406","0.0-6.0-2.24","","<div style=""font-size:60px;"">+</div>","null","","","","","","",""
"null","","image-keyboard-response","295","530907","0.0-6.0-0.25","","img/purple.png","null","trial","null","true","0.2,0.8","2:nogo_b","",""
"null","","html-keyboard-response","296","531909","0.0-6.0-1.25","","<img src=""img/purple-n.png"">","null","trial","null","","0.2,0.8","2:nogo_b","0",""
"null","","html-keyboard-response","297","532910","0.0-6.0-2.25","","<div style=""font-size:60px;"">+</div>","null","","","","","","",""
"444.3999996185303","","image-keyboard-response","298","533356","0.0-6.0-0.26","","img/grey.png","32","trial","32","true","1,0","3:go_c","",""
"null","","html-keyboard-response","299","534357","0.0-6.0-1.26","","<img src=""img/grey-r.png"" border=""10"">","null","trial","32","","1,0","3:go_c","1",""
"null","","html-keyboard-response","300","535358","0.0-6.0-2.26","","<div style=""font-size:60px;"">+</div>","null","","","","","","",""
"427.4000005722046","","image-keyboard-response","301","535787","0.0-6.0-0.27","","img/blue.png","32","trial","null","false","0,1","4:nogo_d","",""
"null","","html-keyboard-response","302","536788","0.0-6.0-1.27","","<img src=""img/blue-n.png"" border=""10"">","null","trial","null","","0,1","4:nogo_d","0",""
"null","","html-keyboard-response","303","537790","0.0-6.0-2.27","","<div style=""font-size:60px;"">+</div>","null","","","","","","",""
"1004.1999998092651","","image-keyboard-response","304","538795","0.0-6.0-0.28","","img/green.png","32","trial","32","true","0.8,0.2","1:go_a","",""
"null","","html-keyboard-response","305","539797","0.0-6.0-1.28","","<img src=""img/green-r.png"" border=""10"">","null","trial","32","","0.8,0.2","1:go_a","1",""
"null","","html-keyboard-response","306","540798","0.0-6.0-2.28","","<div style=""font-size:60px;"">+</div>","null","","","","","","",""
"748","","image-keyboard-response","307","541547","0.0-6.0-0.29","","img/purple.png","32","trial","null","false","0.2,0.8","2:nogo_b","",""
"null","","html-keyboard-response","308","542549","0.0-6.0-1.29","","<img src=""img/purple-n.png"" border=""10"">","null","trial","null","","0.2,0.8","2:nogo_b","0",""
"null","","html-keyboard-response","309","543550","0.0-6.0-2.29","","<div style=""font-size:60px;"">+</div>","null","","","","","","",""
"524.7000007629395","","image-keyboard-response","310","544075","0.0-6.0-0.30","","img/grey.png","32","trial","32","true","1,0","3:go_c","",""
"null","","html-keyboard-response","311","545078","0.0-6.0-1.30","","<img src=""img/grey-r.png"" border=""10"">","null","trial","32","","1,0","3:go_c","1",""
"null","","html-keyboard-response","312","546079","0.0-6.0-2.30","","<div style=""font-size:60px;"">+</div>","null","","","","","","",""
"682.8000001907349","","image-keyboard-response","313","546762","0.0-6.0-0.31","","img/blue.png","32","trial","null","false","0,1","4:nogo_d","",""
"null","","html-keyboard-response","314","547765","0.0-6.0-1.31","","<img src=""img/blue-n.png"" border=""10"">","null","trial","null","","0,1","4:nogo_d","0",""
"null","","html-keyboard-response","315","548766","0.0-6.0-2.31","","<div style=""font-size:60px;"">+</div>","null","","","","","","",""
"635.2999992370605","","image-keyboard-response","316","549402","0.0-6.0-0.32","","img/grey.png","32","trial","32","true","1,0","3:go_c","",""
"null","","html-keyboard-response","317","550404","0.0-6.0-1.32","","<img src=""img/grey-r.png"" border=""10"">","null","trial","32","","1,0","3:go_c","1",""
"null","","html-keyboard-response","318","551405","0.0-6.0-2.32","","<div style=""font-size:60px;"">+</div>","null","","","","","","",""
"null","","image-keyboard-response","319","552907","0.0-6.0-0.33","","img/blue.png","null","trial","null","true","0,1","4:nogo_d","",""
"null","","html-keyboard-response","320","553909","0.0-6.0-1.33","","<img src=""img/blue-r.png"">","null","trial","null","","0,1","4:nogo_d","1",""
"null","","html-keyboard-response","321","554910","0.0-6.0-2.33","","<div style=""font-size:60px;"">+</div>","null","","","","","","",""
"null","","image-keyboard-response","322","556411","0.0-6.0-0.34","","img/purple.png","null","trial","null","true","0.2,0.8","2:nogo_b","",""
"null","","html-keyboard-response","323","557413","0.0-6.0-1.34","","<img src=""img/purple-n.png"">","null","trial","null","","0.2,0.8","2:nogo_b","0",""
"null","","html-keyboard-response","324","558414","0.0-6.0-2.34","","<div style=""font-size:60px;"">+</div>","null","","","","","","",""
"603.5","","image-keyboard-response","325","559019","0.0-6.0-0.35","","img/green.png","32","trial","32","true","0.8,0.2","1:go_a","",""
"null","","html-keyboard-response","326","560020","0.0-6.0-1.35","","<img src=""img/green-r.png"" border=""10"">","null","trial","32","","0.8,0.2","1:go_a","1",""
"null","","html-keyboard-response","327","561021","0.0-6.0-2.35","","<div style=""font-size:60px;"">+</div>","null","","","","","","",""
"1003.6999998092651","","image-keyboard-response","328","562026","0.0-6.0-0.36","","img/grey.png","32","trial","32","true","1,0","3:go_c","",""
"null","","html-keyboard-response","329","563028","0.0-6.0-1.36","","<img src=""img/grey-r.png"" border=""10"">","null","trial","32","","1,0","3:go_c","1",""
"null","","html-keyboard-response","330","564029","0.0-6.0-2.36","","<div style=""font-size:60px;"">+</div>","null","","","","","","",""
"null","","image-keyboard-response","331","565530","0.0-6.0-0.37","","img/green.png","null","trial","32","false","0.8,0.2","1:go_a","",""
"null","","html-keyboard-response","332","566532","0.0-6.0-1.37","","<img src=""img/green-r.png"">","null","trial","32","","0.8,0.2","1:go_a","1",""
"null","","html-keyboard-response","333","567533","0.0-6.0-2.37","","<div style=""font-size:60px;"">+</div>","null","","","","","","",""
"null","","image-keyboard-response","334","569034","0.0-6.0-0.38","","img/purple.png","null","trial","null","true","0.2,0.8","2:nogo_b","",""
"null","","html-keyboard-response","335","570036","0.0-6.0-1.38","","<img src=""img/purple-r.png"">","null","trial","null","","0.2,0.8","2:nogo_b","1",""
"null","","html-keyboard-response","336","571038","0.0-6.0-2.38","","<div style=""font-size:60px;"">+</div>","null","","","","","","",""
"null","","image-keyboard-response","337","572540","0.0-6.0-0.39","","img/blue.png","null","trial","null","true","0,1","4:nogo_d","",""
"null","","html-keyboard-response","338","573541","0.0-6.0-1.39","","<img src=""img/blue-r.png"">","null","trial","null","","0,1","4:nogo_d","1",""
"null","","html-keyboard-response","339","574543","0.0-6.0-2.39","","<div style=""font-size:60px;"">+</div>","null","","","","","","",""
"842.3999996185303","","image-keyboard-response","340","575386","0.0-6.0-0.40","","img/grey.png","32","trial","32","true","1,0","3:go_c","",""
"null","","html-keyboard-response","341","576388","0.0-6.0-1.40","","<img src=""img/grey-r.png"" border=""10"">","null","trial","32","","1,0","3:go_c","1",""
"null","","html-keyboard-response","342","577393","0.0-6.0-2.40","","<div style=""font-size:60px;"">+</div>","null","","","","","","",""
"1083.6999998092651","","image-keyboard-response","343","578478","0.0-6.0-0.41","","img/blue.png","32","trial","null","false","0,1","4:nogo_d","",""
"null","","html-keyboard-response","344","579480","0.0-6.0-1.41","","<img src=""img/blue-n.png"" border=""10"">","null","trial","null","","0,1","4:nogo_d","0",""
"null","","html-keyboard-response","345","580481","0.0-6.0-2.41","","<div style=""font-size:60px;"">+</div>","null","","","","","","",""
"null","","image-keyboard-response","346","581982","0.0-6.0-0.42","","img/green.png","null","trial","32","false","0.8,0.2","1:go_a","",""
"null","","html-keyboard-response","347","582984","0.0-6.0-1.42","","<img src=""img/green-n.png"">","null","trial","32","","0.8,0.2","1:go_a","0",""
"null","","html-keyboard-response","348","583985","0.0-6.0-2.42","","<div style=""font-size:60px;"">+</div>","null","","","","","","",""
"1004.1000003814697","","image-keyboard-response","349","584990","0.0-6.0-0.43","","img/purple.png","32","trial","null","false","0.2,0.8","2:nogo_b","",""
"null","","html-keyboard-response","350","585992","0.0-6.0-1.43","","<img src=""img/purple-n.png"" border=""10"">","null","trial","null","","0.2,0.8","2:nogo_b","0",""
"null","","html-keyboard-response","351","586993","0.0-6.0-2.43","","<div style=""font-size:60px;"">+</div>","null","","","","","","",""
"1067.0999994277954","","image-keyboard-response","352","588061","0.0-6.0-0.44","","img/grey.png","32","trial","32","true","1,0","3:go_c","",""
"null","","html-keyboard-response","353","589063","0.0-6.0-1.44","","<img src=""img/grey-r.png"" border=""10"">","null","trial","32","","1,0","3:go_c","1",""
"null","","html-keyboard-response","354","590064","0.0-6.0-2.44","","<div style=""font-size:60px;"">+</div>","null","","","","","","",""
"668.0999994277954","","image-keyboard-response","355","590733","0.0-6.0-0.45","","img/green.png","32","trial","32","true","0.8,0.2","1:go_a","",""
"null","","html-keyboard-response","356","591735","0.0-6.0-1.45","","<img src=""img/green-r.png"" border=""10"">","null","trial","32","","0.8,0.2","1:go_a","1",""
"null","","html-keyboard-response","357","592736","0.0-6.0-2.45","","<div style=""font-size:60px;"">+</div>","null","","","","","","",""
"null","","image-keyboard-response","358","594238","0.0-6.0-0.46","","img/blue.png","null","trial","null","true","0,1","4:nogo_d","",""
"null","","html-keyboard-response","359","595240","0.0-6.0-1.46","","<img src=""img/blue-r.png"">","null","trial","null","","0,1","4:nogo_d","1",""
"null","","html-keyboard-response","360","596242","0.0-6.0-2.46","","<div style=""font-size:60px;"">+</div>","null","","","","","","",""
"null","","image-keyboard-response","361","597744","0.0-6.0-0.47","","img/purple.png","null","trial","null","true","0.2,0.8","2:nogo_b","",""
"null","","html-keyboard-response","362","598746","0.0-6.0-1.47","","<img src=""img/purple-n.png"">","null","trial","null","","0.2,0.8","2:nogo_b","0",""
"null","","html-keyboard-response","363","599747","0.0-6.0-2.47","","<div style=""font-size:60px;"">+</div>","null","","","","","","",""
"null","","image-keyboard-response","364","601249","0.0-6.0-0.48","","img/blue.png","null","trial","null","true","0,1","4:nogo_d","",""
"null","","html-keyboard-response","365","602251","0.0-6.0-1.48","","<img src=""img/blue-r.png"">","null","trial","null","","0,1","4:nogo_d","1",""
"null","","html-keyboard-response","366","603252","0.0-6.0-2.48","","<div style=""font-size:60px;"">+</div>","null","","","","","","",""
"1176.3999996185303","","image-keyboard-response","367","604429","0.0-6.0-0.49","","img/grey.png","32","trial","32","true","1,0","3:go_c","",""
"null","","html-keyboard-response","368","605431","0.0-6.0-1.49","","<img src=""img/grey-r.png"" border=""10"">","null","trial","32","","1,0","3:go_c","1",""
"null","","html-keyboard-response","369","606432","0.0-6.0-2.49","","<div style=""font-size:60px;"">+</div>","null","","","","","","",""
"491.9000005722046","","image-keyboard-response","370","606925","0.0-6.0-0.50","","img/green.png","32","trial","32","true","0.8,0.2","1:go_a","",""
"null","","html-keyboard-response","371","607927","0.0-6.0-1.50","","<img src=""img/green-r.png"" border=""10"">","null","trial","32","","0.8,0.2","1:go_a","1",""
"null","","html-keyboard-response","372","608928","0.0-6.0-2.50","","<div style=""font-size:60px;"">+</div>","null","","","","","","",""
"347.80000019073486","","image-keyboard-response","373","609277","0.0-6.0-0.51","","img/purple.png","32","trial","null","false","0.2,0.8","2:nogo_b","",""
"null","","html-keyboard-response","374","610279","0.0-6.0-1.51","","<img src=""img/purple-n.png"" border=""10"">","null","trial","null","","0.2,0.8","2:nogo_b","0",""
"null","","html-keyboard-response","375","611280","0.0-6.0-2.51","","<div style=""font-size:60px;"">+</div>","null","","","","","","",""
"859.5999994277954","","image-keyboard-response","376","612141","0.0-6.0-0.52","","img/grey.png","32","trial","32","true","1,0","3:go_c","",""
"null","","html-keyboard-response","377","613143","0.0-6.0-1.52","","<img src=""img/grey-r.png"" border=""10"">","null","trial","32","","1,0","3:go_c","1",""
"null","","html-keyboard-response","378","614144","0.0-6.0-2.52","","<div style=""font-size:60px;"">+</div>","null","","","","","","",""
"null","","image-keyboard-response","379","615646","0.0-6.0-0.53","","img/blue.png","null","trial","null","true","0,1","4:nogo_d","",""
"null","","html-keyboard-response","380","616648","0.0-6.0-1.53","","<img src=""img/blue-r.png"">","null","trial","null","","0,1","4:nogo_d","1",""
"null","","html-keyboard-response","381","617649","0.0-6.0-2.53","","<div style=""font-size:60px;"">+</div>","null","","","","","","",""
"74.90000057220459","","image-keyboard-response","382","617725","0.0-6.0-0.54","","img/purple.png","32","trial","null","false","0.2,0.8","2:nogo_b","",""
"null","","html-keyboard-response","383","618727","0.0-6.0-1.54","","<img src=""img/purple-r.png"" border=""10"">","null","trial","null","","0.2,0.8","2:nogo_b","1",""
"null","","html-keyboard-response","384","619728","0.0-6.0-2.54","","<div style=""font-size:60px;"">+</div>","null","","","","","","",""
"null","","image-keyboard-response","385","621230","0.0-6.0-0.55","","img/green.png","null","trial","32","false","0.8,0.2","1:go_a","",""
"null","","html-keyboard-response","386","622232","0.0-6.0-1.55","","<img src=""img/green-n.png"">","null","trial","32","","0.8,0.2","1:go_a","0",""
"null","","html-keyboard-response","387","623233","0.0-6.0-2.55","","<div style=""font-size:60px;"">+</div>","null","","","","","","",""
"null","","image-keyboard-response","388","624734","0.0-6.0-0.56","","img/purple.png","null","trial","null","true","0.2,0.8","2:nogo_b","",""
"null","","html-keyboard-response","389","625736","0.0-6.0-1.56","","<img src=""img/purple-r.png"">","null","trial","null","","0.2,0.8","2:nogo_b","1",""
"null","","html-keyboard-response","390","626737","0.0-6.0-2.56","","<div style=""font-size:60px;"">+</div>","null","","","","","","",""
"1034.2999992370605","","image-keyboard-response","391","627773","0.0-6.0-0.57","","img/grey.png","32","trial","32","true","1,0","3:go_c","",""
"null","","html-keyboard-response","392","628774","0.0-6.0-1.57","","<img src=""img/grey-r.png"" border=""10"">","null","trial","32","","1,0","3:go_c","1",""
"null","","html-keyboard-response","393","629778","0.0-6.0-2.57","","<div style=""font-size:60px;"">+</div>","null","","","","","","",""
"1129.5","","image-keyboard-response","394","630908","0.0-6.0-0.58","","img/blue.png","32","trial","null","false","0,1","4:nogo_d","",""
"null","","html-keyboard-response","395","631910","0.0-6.0-1.58","","<img src=""img/blue-n.png"" border=""10"">","null","trial","null","","0,1","4:nogo_d","0",""
"null","","html-keyboard-response","396","632911","0.0-6.0-2.58","","<div style=""font-size:60px;"">+</div>","null","","","","","","",""
"null","","image-keyboard-response","397","634412","0.0-6.0-0.59","","img/green.png","null","trial","32","false","0.8,0.2","1:go_a","",""
"null","","html-keyboard-response","398","635414","0.0-6.0-1.59","","<img src=""img/green-n.png"">","null","trial","32","","0.8,0.2","1:go_a","0",""
"null","","html-keyboard-response","399","636415","0.0-6.0-2.59","","<div style=""font-size:60px;"">+</div>","null","","","","","","",""
"null","","image-keyboard-response","400","637921","0.0-6.0-0.60","","img/blue.png","null","trial","null","true","0,1","4:nogo_d","",""
"null","","html-keyboard-response","401","638923","0.0-6.0-1.60","","<img src=""img/blue-r.png"">","null","trial","null","","0,1","4:nogo_d","1",""
"null","","html-keyboard-response","402","639924","0.0-6.0-2.60","","<div style=""font-size:60px;"">+</div>","null","","","","","","",""
"842.9000005722046","","image-keyboard-response","403","640768","0.0-6.0-0.61","","img/grey.png","32","trial","32","true","1,0","3:go_c","",""
"null","","html-keyboard-response","404","641770","0.0-6.0-1.61","","<img src=""img/grey-r.png"" border=""10"">","null","trial","32","","1,0","3:go_c","1",""
"null","","html-keyboard-response","405","642771","0.0-6.0-2.61","","<div style=""font-size:60px;"">+</div>","null","","","","","","",""
"null","","image-keyboard-response","406","644272","0.0-6.0-0.62","","img/purple.png","null","trial","null","true","0.2,0.8","2:nogo_b","",""
"null","","html-keyboard-response","407","645274","0.0-6.0-1.62","","<img src=""img/purple-n.png"">","null","trial","null","","0.2,0.8","2:nogo_b","0",""
"null","","html-keyboard-response","408","646275","0.0-6.0-2.62","","<div style=""font-size:60px;"">+</div>","null","","","","","","",""
"410.69999980926514","","image-keyboard-response","409","646688","0.0-6.0-0.63","","img/green.png","32","trial","32","true","0.8,0.2","1:go_a","",""
"null","","html-keyboard-response","410","647689","0.0-6.0-1.63","","<img src=""img/green-r.png"" border=""10"">","null","trial","32","","0.8,0.2","1:go_a","1",""
"null","","html-keyboard-response","411","648690","0.0-6.0-2.63","","<div style=""font-size:60px;"">+</div>","null","","","","","","",""
"764.6999998092651","","image-keyboard-response","412","649456","0.0-6.0-0.64","","img/grey.png","32","trial","32","true","1,0","3:go_c","",""
"null","","html-keyboard-response","413","650458","0.0-6.0-1.64","","<img src=""img/grey-r.png"" border=""10"">","null","trial","32","","1,0","3:go_c","1",""
"null","","html-keyboard-response","414","651459","0.0-6.0-2.64","","<div style=""font-size:60px;"">+</div>","null","","","","","","",""
"null","","image-keyboard-response","415","652960","0.0-6.0-0.65","","img/green.png","null","trial","32","false","0.8,0.2","1:go_a","",""
"null","","html-keyboard-response","416","653963","0.0-6.0-1.65","","<img src=""img/green-n.png"">","null","trial","32","","0.8,0.2","1:go_a","0",""
"null","","html-keyboard-response","417","654964","0.0-6.0-2.65","","<div style=""font-size:60px;"">+</div>","null","","","","","","",""
"1018.8000001907349","","image-keyboard-response","418","655983","0.0-6.0-0.66","","img/purple.png","32","trial","null","false","0.2,0.8","2:nogo_b","",""
"null","","html-keyboard-response","419","656986","0.0-6.0-1.66","","<img src=""img/purple-n.png"" border=""10"">","null","trial","null","","0.2,0.8","2:nogo_b","0",""
"null","","html-keyboard-response","420","657987","0.0-6.0-2.66","","<div style=""font-size:60px;"">+</div>","null","","","","","","",""
"1051.5","","image-keyboard-response","421","659039","0.0-6.0-0.67","","img/blue.png","32","trial","null","false","0,1","4:nogo_d","",""
"null","","html-keyboard-response","422","660041","0.0-6.0-1.67","","<img src=""img/blue-n.png"" border=""10"">","null","trial","null","","0,1","4:nogo_d","0",""
"null","","html-keyboard-response","423","661042","0.0-6.0-2.67","","<div style=""font-size:60px;"">+</div>","null","","","","","","",""
"null","","image-keyboard-response","424","662543","0.0-6.0-0.68","","img/purple.png","null","trial","null","true","0.2,0.8","2:nogo_b","",""
"null","","html-keyboard-response","425","663545","0.0-6.0-1.68","","<img src=""img/purple-r.png"">","null","trial","null","","0.2,0.8","2:nogo_b","1",""
"null","","html-keyboard-response","426","664546","0.0-6.0-2.68","","<div style=""font-size:60px;"">+</div>","null","","","","","","",""
"764.5999994277954","","image-keyboard-response","427","665311","0.0-6.0-0.69","","img/grey.png","32","trial","32","true","1,0","3:go_c","",""
"null","","html-keyboard-response","428","666313","0.0-6.0-1.69","","<img src=""img/grey-r.png"" border=""10"">","null","trial","32","","1,0","3:go_c","1",""
"null","","html-keyboard-response","429","667314","0.0-6.0-2.69","","<div style=""font-size:60px;"">+</div>","null","","","","","","",""
"null","","image-keyboard-response","430","668815","0.0-6.0-0.70","","img/blue.png","null","trial","null","true","0,1","4:nogo_d","",""
"null","","html-keyboard-response","431","669817","0.0-6.0-1.70","","<img src=""img/blue-r.png"">","null","trial","null","","0,1","4:nogo_d","1",""
"null","","html-keyboard-response","432","670818","0.0-6.0-2.70","","<div style=""font-size:60px;"">+</div>","null","","","","","","",""
"523.6999998092651","","image-keyboard-response","433","671343","0.0-6.0-0.71","","img/green.png","32","trial","32","true","0.8,0.2","1:go_a","",""
"null","","html-keyboard-response","434","672345","0.0-6.0-1.71","","<img src=""img/green-r.png"" border=""10"">","null","trial","32","","0.8,0.2","1:go_a","1",""
"null","","html-keyboard-response","435","673346","0.0-6.0-2.71","","<div style=""font-size:60px;"">+</div>","null","","","","","","",""
"604.2999992370605","","image-keyboard-response","436","673951","0.0-6.0-0.72","","img/grey.png","32","trial","32","true","1,0","3:go_c","",""
"null","","html-keyboard-response","437","674953","0.0-6.0-1.72","","<img src=""img/grey-r.png"" border=""10"">","null","trial","32","","1,0","3:go_c","1",""
"null","","html-keyboard-response","438","675954","0.0-6.0-2.72","","<div style=""font-size:60px;"">+</div>","null","","","","","","",""
"619.3999996185303","","image-keyboard-response","439","676575","0.0-6.0-0.73","","img/green.png","32","trial","32","true","0.8,0.2","1:go_a","",""
"null","","html-keyboard-response","440","677576","0.0-6.0-1.73","","<img src=""img/green-r.png"" border=""10"">","null","trial","32","","0.8,0.2","1:go_a","1",""
"null","","html-keyboard-response","441","678577","0.0-6.0-2.73","","<div style=""font-size:60px;"">+</div>","null","","","","","","",""
"null","","image-keyboard-response","442","680078","0.0-6.0-0.74","","img/blue.png","null","trial","null","true","0,1","4:nogo_d","",""
"null","","html-keyboard-response","443","681080","0.0-6.0-1.74","","<img src=""img/blue-r.png"">","null","trial","null","","0,1","4:nogo_d","1",""
"null","","html-keyboard-response","444","682081","0.0-6.0-2.74","","<div style=""font-size:60px;"">+</div>","null","","","","","","",""
"null","","image-keyboard-response","445","683583","0.0-6.0-0.75","","img/purple.png","null","trial","null","true","0.2,0.8","2:nogo_b","",""
"null","","html-keyboard-response","446","684585","0.0-6.0-1.75","","<img src=""img/purple-r.png"">","null","trial","null","","0.2,0.8","2:nogo_b","1",""
"null","","html-keyboard-response","447","685587","0.0-6.0-2.75","","<div style=""font-size:60px;"">+</div>","null","","","","","","",""
"714.6999998092651","","image-keyboard-response","448","686302","0.0-6.0-0.76","","img/blue.png","32","trial","null","false","0,1","4:nogo_d","",""
"null","","html-keyboard-response","449","687305","0.0-6.0-1.76","","<img src=""img/blue-n.png"" border=""10"">","null","trial","null","","0,1","4:nogo_d","0",""
"null","","html-keyboard-response","450","688306","0.0-6.0-2.76","","<div style=""font-size:60px;"">+</div>","null","","","","","","",""
"667.6000003814697","","image-keyboard-response","451","688974","0.0-6.0-0.77","","img/grey.png","32","trial","32","true","1,0","3:go_c","",""
"null","","html-keyboard-response","452","689977","0.0-6.0-1.77","","<img src=""img/grey-r.png"" border=""10"">","null","trial","32","","1,0","3:go_c","1",""
"null","","html-keyboard-response","453","690978","0.0-6.0-2.77","","<div style=""font-size:60px;"">+</div>","null","","","","","","",""
"683.5","","image-keyboard-response","454","691662","0.0-6.0-0.78","","img/green.png","32","trial","32","true","0.8,0.2","1:go_a","",""
"null","","html-keyboard-response","455","692664","0.0-6.0-1.78","","<img src=""img/green-n.png"" border=""10"">","null","trial","32","","0.8,0.2","1:go_a","0",""
"null","","html-keyboard-response","456","693665","0.0-6.0-2.78","","<div style=""font-size:60px;"">+</div>","null","","","","","","",""
"1100.8999996185303","","image-keyboard-response","457","694767","0.0-6.0-0.79","","img/purple.png","32","trial","null","false","0.2,0.8","2:nogo_b","",""
"null","","html-keyboard-response","458","695769","0.0-6.0-1.79","","<img src=""img/purple-n.png"" border=""10"">","null","trial","null","","0.2,0.8","2:nogo_b","0",""
"null","","html-keyboard-response","459","696770","0.0-6.0-2.79","","<div style=""font-size:60px;"">+</div>","null","","","","","","",""
"715.0999994277954","","image-keyboard-response","460","697486","0.0-6.0-0.80","","img/grey.png","32","trial","32","true","1,0","3:go_c","",""
"null","","html-keyboard-response","461","698492","0.0-6.0-1.80","","<img src=""img/grey-r.png"" border=""10"">","null","trial","32","","1,0","3:go_c","1",""
"null","","html-keyboard-response","462","699493","0.0-6.0-2.80","","<div style=""font-size:60px;"">+</div>","null","","","","","","",""
"651.8000001907349","","image-keyboard-response","463","700146","0.0-6.0-0.81","","img/green.png","32","trial","32","true","0.8,0.2","1:go_a","",""
"null","","html-keyboard-response","464","701148","0.0-6.0-1.81","","<img src=""img/green-r.png"" border=""10"">","null","trial","32","","0.8,0.2","1:go_a","1",""
"null","","html-keyboard-response","465","702149","0.0-6.0-2.81","","<div style=""font-size:60px;"">+</div>","null","","","","","","",""
"null","","image-keyboard-response","466","703650","0.0-6.0-0.82","","img/blue.png","null","trial","null","true","0,1","4:nogo_d","",""
"null","","html-keyboard-response","467","704651","0.0-6.0-1.82","","<img src=""img/blue-r.png"">","null","trial","null","","0,1","4:nogo_d","1",""
"null","","html-keyboard-response","468","705652","0.0-6.0-2.82","","<div style=""font-size:60px;"">+</div>","null","","","","","","",""
"null","","image-keyboard-response","469","707154","0.0-6.0-0.83","","img/purple.png","null","trial","null","true","0.2,0.8","2:nogo_b","",""
"null","","html-keyboard-response","470","708156","0.0-6.0-1.83","","<img src=""img/purple-n.png"">","null","trial","null","","0.2,0.8","2:nogo_b","0",""
"null","","html-keyboard-response","471","709157","0.0-6.0-2.83","","<div style=""font-size:60px;"">+</div>","null","","","","","","",""
"876.1000003814697","","image-keyboard-response","472","710034","0.0-6.0-0.84","","img/purple.png","32","trial","null","false","0.2,0.8","2:nogo_b","",""
"null","","html-keyboard-response","473","711036","0.0-6.0-1.84","","<img src=""img/purple-n.png"" border=""10"">","null","trial","null","","0.2,0.8","2:nogo_b","0",""
"null","","html-keyboard-response","474","712038","0.0-6.0-2.84","","<div style=""font-size:60px;"">+</div>","null","","","","","","",""
"587.1000003814697","","image-keyboard-response","475","712626","0.0-6.0-0.85","","img/green.png","32","trial","32","true","0.8,0.2","1:go_a","",""
"null","","html-keyboard-response","476","713628","0.0-6.0-1.85","","<img src=""img/green-r.png"" border=""10"">","null","trial","32","","0.8,0.2","1:go_a","1",""
"null","","html-keyboard-response","477","714629","0.0-6.0-2.85","","<div style=""font-size:60px;"">+</div>","null","","","","","","",""
"684","","image-keyboard-response","478","715314","0.0-6.0-0.86","","img/grey.png","32","trial","32","true","1,0","3:go_c","",""
"null","","html-keyboard-response","479","716316","0.0-6.0-1.86","","<img src=""img/grey-r.png"" border=""10"">","null","trial","32","","1,0","3:go_c","1",""
"null","","html-keyboard-response","480","717317","0.0-6.0-2.86","","<div style=""font-size:60px;"">+</div>","null","","","","","","",""
"1051.7000007629395","","image-keyboard-response","481","718369","0.0-6.0-0.87","","img/blue.png","32","trial","null","false","0,1","4:nogo_d","",""
"null","","html-keyboard-response","482","719372","0.0-6.0-1.87","","<img src=""img/blue-n.png"" border=""10"">","null","trial","null","","0,1","4:nogo_d","0",""
"null","","html-keyboard-response","483","720373","0.0-6.0-2.87","","<div style=""font-size:60px;"">+</div>","null","","","","","","",""
"null","","image-keyboard-response","484","721875","0.0-6.0-0.88","","img/purple.png","null","trial","null","true","0.2,0.8","2:nogo_b","",""
"null","","html-keyboard-response","485","722877","0.0-6.0-1.88","","<img src=""img/purple-r.png"">","null","trial","null","","0.2,0.8","2:nogo_b","1",""
"null","","html-keyboard-response","486","723878","0.0-6.0-2.88","","<div style=""font-size:60px;"">+</div>","null","","","","","","",""
"1115.0999994277954","","image-keyboard-response","487","724994","0.0-6.0-0.89","","img/blue.png","32","trial","null","false","0,1","4:nogo_d","",""
"null","","html-keyboard-response","488","725996","0.0-6.0-1.89","","<img src=""img/blue-n.png"" border=""10"">","null","trial","null","","0,1","4:nogo_d","0",""
"null","","html-keyboard-response","489","726997","0.0-6.0-2.89","","<div style=""font-size:60px;"">+</div>","null","","","","","","",""
"731.1000003814697","","image-keyboard-response","490","727729","0.0-6.0-0.90","","img/green.png","32","trial","32","true","0.8,0.2","1:go_a","",""
"null","","html-keyboard-response","491","728731","0.0-6.0-1.90","","<img src=""img/green-r.png"" border=""10"">","null","trial","32","","0.8,0.2","1:go_a","1",""
"null","","html-keyboard-response","492","729732","0.0-6.0-2.90","","<div style=""font-size:60px;"">+</div>","null","","","","","","",""
"411.9000005722046","","image-keyboard-response","493","730145","0.0-6.0-0.91","","img/grey.png","32","trial","32","true","1,0","3:go_c","",""
"null","","html-keyboard-response","494","731147","0.0-6.0-1.91","","<img src=""img/grey-r.png"" border=""10"">","null","trial","32","","1,0","3:go_c","1",""
"null","","html-keyboard-response","495","732148","0.0-6.0-2.91","","<div style=""font-size:60px;"">+</div>","null","","","","","","",""
"null","","image-keyboard-response","496","733650","0.0-6.0-0.92","","img/purple.png","null","trial","null","true","0.2,0.8","2:nogo_b","",""
"null","","html-keyboard-response","497","734652","0.0-6.0-1.92","","<img src=""img/purple-r.png"">","null","trial","null","","0.2,0.8","2:nogo_b","1",""
"null","","html-keyboard-response","498","735653","0.0-6.0-2.92","","<div style=""font-size:60px;"">+</div>","null","","","","","","",""
"763.5","","image-keyboard-response","499","736418","0.0-6.0-0.93","","img/grey.png","32","trial","32","true","1,0","3:go_c","",""
"null","","html-keyboard-response","500","737419","0.0-6.0-1.93","","<img src=""img/grey-r.png"" border=""10"">","null","trial","32","","1,0","3:go_c","1",""
"null","","html-keyboard-response","501","738420","0.0-6.0-2.93","","<div style=""font-size:60px;"">+</div>","null","","","","","","",""
"699.5","","image-keyboard-response","502","739121","0.0-6.0-0.94","","img/green.png","32","trial","32","true","0.8,0.2","1:go_a","",""
"null","","html-keyboard-response","503","740122","0.0-6.0-1.94","","<img src=""img/green-r.png"" border=""10"">","null","trial","32","","0.8,0.2","1:go_a","1",""
"null","","html-keyboard-response","504","741123","0.0-6.0-2.94","","<div style=""font-size:60px;"">+</div>","null","","","","","","",""
"908.1999998092651","","image-keyboard-response","505","742033","0.0-6.0-0.95","","img/blue.png","32","trial","null","false","0,1","4:nogo_d","",""
"null","","html-keyboard-response","506","743034","0.0-6.0-1.95","","<img src=""img/blue-n.png"" border=""10"">","null","trial","null","","0,1","4:nogo_d","0",""
"null","","html-keyboard-response","507","744035","0.0-6.0-2.95","","<div style=""font-size:60px;"">+</div>","null","","","","","","",""
"668.0999994277954","","image-keyboard-response","508","744705","0.0-6.0-0.96","","img/green.png","32","trial","32","true","0.8,0.2","1:go_a","",""
"null","","html-keyboard-response","509","745706","0.0-6.0-1.96","","<img src=""img/green-r.png"" border=""10"">","null","trial","32","","0.8,0.2","1:go_a","1",""
"null","","html-keyboard-response","510","746708","0.0-6.0-2.96","","<div style=""font-size:60px;"">+</div>","null","","","","","","",""
"652.5","","image-keyboard-response","511","747361","0.0-6.0-0.97","","img/purple.png","32","trial","null","false","0.2,0.8","2:nogo_b","",""
"null","","html-keyboard-response","512","748364","0.0-6.0-1.97","","<img src=""img/purple-n.png"" border=""10"">","null","trial","null","","0.2,0.8","2:nogo_b","0",""
"null","","html-keyboard-response","513","749365","0.0-6.0-2.97","","<div style=""font-size:60px;"">+</div>","null","","","","","","",""
"667.1000003814697","","image-keyboard-response","514","750033","0.0-6.0-0.98","","img/blue.png","32","trial","null","false","0,1","4:nogo_d","",""
"null","","html-keyboard-response","515","751035","0.0-6.0-1.98","","<img src=""img/blue-n.png"" border=""10"">","null","trial","null","","0,1","4:nogo_d","0",""
"null","","html-keyboard-response","516","752036","0.0-6.0-2.98","","<div style=""font-size:60px;"">+</div>","null","","","","","","",""
"475.6000003814697","","image-keyboard-response","517","752512","0.0-6.0-0.99","","img/grey.png","32","trial","32","true","1,0","3:go_c","",""
"null","","html-keyboard-response","518","753514","0.0-6.0-1.99","","<img src=""img/grey-r.png"" border=""10"">","null","trial","32","","1,0","3:go_c","1",""
"null","","html-keyboard-response","519","754515","0.0-6.0-2.99","","<div style=""font-size:60px;"">+</div>","null","","","","","","",""
"460.69999980926514","","image-keyboard-response","520","754976","0.0-6.0-0.100","","img/purple.png","32","trial","null","false","0.2,0.8","2:nogo_b","",""
"null","","html-keyboard-response","521","755978","0.0-6.0-1.100","","<img src=""img/purple-n.png"" border=""10"">","null","trial","null","","0.2,0.8","2:nogo_b","0",""
"null","","html-keyboard-response","522","756979","0.0-6.0-2.100","","<div style=""font-size:60px;"">+</div>","null","","","","","","",""
"397.0999994277954","","image-keyboard-response","523","757377","0.0-6.0-0.101","","img/blue.png","32","trial","null","false","0,1","4:nogo_d","",""
"null","","html-keyboard-response","524","758379","0.0-6.0-1.101","","<img src=""img/blue-n.png"" border=""10"">","null","trial","null","","0,1","4:nogo_d","0",""
"null","","html-keyboard-response","525","759384","0.0-6.0-2.101","","<div style=""font-size:60px;"">+</div>","null","","","","","","",""
"474.69999980926514","","image-keyboard-response","526","759860","0.0-6.0-0.102","","img/green.png","32","trial","32","true","0.8,0.2","1:go_a","",""
"null","","html-keyboard-response","527","760861","0.0-6.0-1.102","","<img src=""img/green-r.png"" border=""10"">","null","trial","32","","0.8,0.2","1:go_a","1",""
"null","","html-keyboard-response","528","761862","0.0-6.0-2.102","","<div style=""font-size:60px;"">+</div>","null","","","","","","",""
"476.80000019073486","","image-keyboard-response","529","762340","0.0-6.0-0.103","","img/grey.png","32","trial","32","true","1,0","3:go_c","",""
"null","","html-keyboard-response","530","763342","0.0-6.0-1.103","","<img src=""img/grey-r.png"" border=""10"">","null","trial","32","","1,0","3:go_c","1",""
"null","","html-keyboard-response","531","764343","0.0-6.0-2.103","","<div style=""font-size:60px;"">+</div>","null","","","","","","",""
"427.80000019073486","","image-keyboard-response","532","764772","0.0-6.0-0.104","","img/grey.png","32","trial","32","true","1,0","3:go_c","",""
"null","","html-keyboard-response","533","765774","0.0-6.0-1.104","","<img src=""img/grey-r.png"" border=""10"">","null","trial","32","","1,0","3:go_c","1",""
"null","","html-keyboard-response","534","766775","0.0-6.0-2.104","","<div style=""font-size:60px;"">+</div>","null","","","","","","",""
"427.6000003814697","","image-keyboard-response","535","767204","0.0-6.0-0.105","","img/green.png","32","trial","32","true","0.8,0.2","1:go_a","",""
"null","","html-keyboard-response","536","768206","0.0-6.0-1.105","","<img src=""img/green-n.png"" border=""10"">","null","trial","32","","0.8,0.2","1:go_a","0",""
"null","","html-keyboard-response","537","769207","0.0-6.0-2.105","","<div style=""font-size:60px;"">+</div>","null","","","","","","",""
"556.1999998092651","","image-keyboard-response","538","769765","0.0-6.0-0.106","","img/purple.png","32","trial","null","false","0.2,0.8","2:nogo_b","",""
"null","","html-keyboard-response","539","770766","0.0-6.0-1.106","","<img src=""img/purple-n.png"" border=""10"">","null","trial","null","","0.2,0.8","2:nogo_b","0",""
"null","","html-keyboard-response","540","771767","0.0-6.0-2.106","","<div style=""font-size:60px;"">+</div>","null","","","","","","",""
"null","","image-keyboard-response","541","773271","0.0-6.0-0.107","","img/blue.png","null","trial","null","true","0,1","4:nogo_d","",""
"null","","html-keyboard-response","542","774274","0.0-6.0-1.107","","<img src=""img/blue-r.png"">","null","trial","null","","0,1","4:nogo_d","1",""
"null","","html-keyboard-response","543","775275","0.0-6.0-2.107","","<div style=""font-size:60px;"">+</div>","null","","","","","","",""
"712","","image-keyboard-response","544","775988","0.0-6.0-0.108","","img/blue.png","32","trial","null","false","0,1","4:nogo_d","",""
"null","","html-keyboard-response","545","776990","0.0-6.0-1.108","","<img src=""img/blue-n.png"" border=""10"">","null","trial","null","","0,1","4:nogo_d","0",""
"null","","html-keyboard-response","546","777991","0.0-6.0-2.108","","<div style=""font-size:60px;"">+</div>","null","","","","","","",""
"635.8000001907349","","image-keyboard-response","547","778627","0.0-6.0-0.109","","img/purple.png","32","trial","null","false","0.2,0.8","2:nogo_b","",""
"null","","html-keyboard-response","548","779630","0.0-6.0-1.109","","<img src=""img/purple-n.png"" border=""10"">","null","trial","null","","0.2,0.8","2:nogo_b","0",""
"null","","html-keyboard-response","549","780631","0.0-6.0-2.109","","<div style=""font-size:60px;"">+</div>","null","","","","","","",""
"508.5","","image-keyboard-response","550","781140","0.0-6.0-0.110","","img/green.png","32","trial","32","true","0.8,0.2","1:go_a","",""
"null","","html-keyboard-response","551","782142","0.0-6.0-1.110","","<img src=""img/green-r.png"" border=""10"">","null","trial","32","","0.8,0.2","1:go_a","1",""
"null","","html-keyboard-response","552","783143","0.0-6.0-2.110","","<div style=""font-size:60px;"">+</div>","null","","","","","","",""
"667.8999996185303","","image-keyboard-response","553","783812","0.0-6.0-0.111","","img/grey.png","32","trial","32","true","1,0","3:go_c","",""
"null","","html-keyboard-response","554","784814","0.0-6.0-1.111","","<img src=""img/grey-r.png"" border=""10"">","null","trial","32","","1,0","3:go_c","1",""
"null","","html-keyboard-response","555","785815","0.0-6.0-2.111","","<div style=""font-size:60px;"">+</div>","null","","","","","","",""
"891.1999998092651","","image-keyboard-response","556","786707","0.0-6.0-0.112","","img/purple.png","32","trial","null","false","0.2,0.8","2:nogo_b","",""
"null","","html-keyboard-response","557","787709","0.0-6.0-1.112","","<img src=""img/purple-n.png"" border=""10"">","null","trial","null","","0.2,0.8","2:nogo_b","0",""
"null","","html-keyboard-response","558","788710","0.0-6.0-2.112","","<div style=""font-size:60px;"">+</div>","null","","","","","","",""
"null","","image-keyboard-response","559","790211","0.0-6.0-0.113","","img/grey.png","null","trial","32","false","1,0","3:go_c","",""
"null","","html-keyboard-response","560","791213","0.0-6.0-1.113","","<img src=""img/grey-n.png"">","null","trial","32","","1,0","3:go_c","0",""
"null","","html-keyboard-response","561","792214","0.0-6.0-2.113","","<div style=""font-size:60px;"">+</div>","null","","","","","","",""
"604.5","","image-keyboard-response","562","792820","0.0-6.0-0.114","","img/blue.png","32","trial","null","false","0,1","4:nogo_d","",""
"null","","html-keyboard-response","563","793822","0.0-6.0-1.114","","<img src=""img/blue-n.png"" border=""10"">","null","trial","null","","0,1","4:nogo_d","0",""
"null","","html-keyboard-response","564","794823","0.0-6.0-2.114","","<div style=""font-size:60px;"">+</div>","null","","","","","","",""
"570.7000007629395","","image-keyboard-response","565","795395","0.0-6.0-0.115","","img/green.png","32","trial","32","true","0.8,0.2","1:go_a","",""
"null","","html-keyboard-response","566","796397","0.0-6.0-1.115","","<img src=""img/green-r.png"" border=""10"">","null","trial","32","","0.8,0.2","1:go_a","1",""
"null","","html-keyboard-response","567","797400","0.0-6.0-2.115","","<div style=""font-size:60px;"">+</div>","null","","","","","","",""
"1178.3000001907349","","image-keyboard-response","568","798579","0.0-6.0-0.116","","img/green.png","32","trial","32","true","0.8,0.2","1:go_a","",""
"null","","html-keyboard-response","569","799581","0.0-6.0-1.116","","<img src=""img/green-r.png"" border=""10"">","null","trial","32","","0.8,0.2","1:go_a","1",""
"null","","html-keyboard-response","570","800582","0.0-6.0-2.116","","<div style=""font-size:60px;"">+</div>","null","","","","","","",""
"1019.3999996185303","","image-keyboard-response","571","801603","0.0-6.0-0.117","","img/purple.png","32","trial","null","false","0.2,0.8","2:nogo_b","",""
"null","","html-keyboard-response","572","802604","0.0-6.0-1.117","","<img src=""img/purple-n.png"" border=""10"">","null","trial","null","","0.2,0.8","2:nogo_b","0",""
"null","","html-keyboard-response","573","803607","0.0-6.0-2.117","","<div style=""font-size:60px;"">+</div>","null","","","","","","",""
"699.8999996185303","","image-keyboard-response","574","804307","0.0-6.0-0.118","","img/grey.png","32","trial","32","true","1,0","3:go_c","",""
"null","","html-keyboard-response","575","805309","0.0-6.0-1.118","","<img src=""img/grey-r.png"" border=""10"">","null","trial","32","","1,0","3:go_c","1",""
"null","","html-keyboard-response","576","806311","0.0-6.0-2.118","","<div style=""font-size:60px;"">+</div>","null","","","","","","",""
"null","","image-keyboard-response","577","807812","0.0-6.0-0.119","","img/blue.png","null","trial","null","true","0,1","4:nogo_d","",""
"null","","html-keyboard-response","578","808814","0.0-6.0-1.119","","<img src=""img/blue-r.png"">","null","trial","null","","0,1","4:nogo_d","1",""
"null","","html-keyboard-response","579","809815","0.0-6.0-2.119","","<div style=""font-size:60px;"">+</div>","null","","","","","","",""
"4375.300000190735","","instructions","580","814190","0.0-7.0","[{""page_index"":0,""viewing_time"":4375.10000038147}]","","","","","","","","",""
"1250.8000001907349","","image-keyboard-response","581","815443","0.0-8.0-0.0","","img/blue.png","32","trial","32","true","0.6,0.4","3:go_c","",""
"null","","html-keyboard-response","582","816445","0.0-8.0-1.0","","<img src=""img/blue-r.png"" border=""10"">","null","trial","32","","0.6,0.4","3:go_c","1",""
"null","","html-keyboard-response","583","817446","0.0-8.0-2.0","","<div style=""font-size:60px;"">+</div>","null","","","","","","",""
"443.29999923706055","","image-keyboard-response","584","817890","0.0-8.0-0.1","","img/purple.png","32","trial","null","false","0.4,0.6","4:nogo_d","",""
"null","","html-keyboard-response","585","818892","0.0-8.0-1.1","","<img src=""img/purple-n.png"" border=""10"">","null","trial","null","","0.4,0.6","4:nogo_d","0",""
"null","","html-keyboard-response","586","819897","0.0-8.0-2.1","","<div style=""font-size:60px;"">+</div>","null","","","","","","",""
"700.1999998092651","","image-keyboard-response","587","820598","0.0-8.0-0.2","","img/pink.png","32","trial","null","false","0.2,0.8","2:nogo_b","",""
"null","","html-keyboard-response","588","821600","0.0-8.0-1.2","","<img src=""img/pink-n.png"" border=""10"">","null","trial","null","","0.2,0.8","2:nogo_b","0",""
"null","","html-keyboard-response","589","822601","0.0-8.0-2.2","","<div style=""font-size:60px;"">+</div>","null","","","","","","",""
"732.1000003814697","","image-keyboard-response","590","823334","0.0-8.0-0.3","","img/red.png","32","trial","32","true","0.8,0.2","1:go_a","",""
"null","","html-keyboard-response","591","824336","0.0-8.0-1.3","","<img src=""img/red-r.png"" border=""10"">","null","trial","32","","0.8,0.2","1:go_a","1",""
"null","","html-keyboard-response","592","825337","0.0-8.0-2.3","","<div style=""font-size:60px;"">+</div>","null","","","","","","",""
"796.4000005722046","","image-keyboard-response","593","826135","0.0-8.0-0.4","","img/purple.png","32","trial","null","false","0.4,0.6","4:nogo_d","",""
"null","","html-keyboard-response","594","827137","0.0-8.0-1.4","","<img src=""img/purple-n.png"" border=""10"">","null","trial","null","","0.4,0.6","4:nogo_d","0",""
"null","","html-keyboard-response","595","828138","0.0-8.0-2.4","","<div style=""font-size:60px;"">+</div>","null","","","","","","",""
"634.7000007629395","","image-keyboard-response","596","828774","0.0-8.0-0.5","","img/blue.png","32","trial","32","true","0.6,0.4","3:go_c","",""
"null","","html-keyboard-response","597","829776","0.0-8.0-1.5","","<img src=""img/blue-r.png"" border=""10"">","null","trial","32","","0.6,0.4","3:go_c","1",""
"null","","html-keyboard-response","598","830778","0.0-8.0-2.5","","<div style=""font-size:60px;"">+</div>","null","","","","","","",""
"1147.5","","image-keyboard-response","599","831926","0.0-8.0-0.6","","img/red.png","32","trial","32","true","0.8,0.2","1:go_a","",""
"null","","html-keyboard-response","600","832928","0.0-8.0-1.6","","<img src=""img/red-r.png"" border=""10"">","null","trial","32","","0.8,0.2","1:go_a","1",""
"null","","html-keyboard-response","601","833929","0.0-8.0-2.6","","<div style=""font-size:60px;"">+</div>","null","","","","","","",""
"732.3000001907349","","image-keyboard-response","602","834662","0.0-8.0-0.7","","img/pink.png","32","trial","null","false","0.2,0.8","2:nogo_b","",""
"null","","html-keyboard-response","603","835664","0.0-8.0-1.7","","<img src=""img/pink-r.png"" border=""10"">","null","trial","null","","0.2,0.8","2:nogo_b","1",""
"null","","html-keyboard-response","604","836665","0.0-8.0-2.7","","<div style=""font-size:60px;"">+</div>","null","","","","","","",""
"572.5","","image-keyboard-response","605","837238","0.0-8.0-0.8","","img/pink.png","32","trial","null","false","0.2,0.8","2:nogo_b","",""
"null","","html-keyboard-response","606","838241","0.0-8.0-1.8","","<img src=""img/pink-n.png"" border=""10"">","null","trial","null","","0.2,0.8","2:nogo_b","0",""
"null","","html-keyboard-response","607","839242","0.0-8.0-2.8","","<div style=""font-size:60px;"">+</div>","null","","","","","","",""
"602.8000001907349","","image-keyboard-response","608","839846","0.0-8.0-0.9","","img/red.png","32","trial","32","true","0.8,0.2","1:go_a","",""
"null","","html-keyboard-response","609","840848","0.0-8.0-1.9","","<img src=""img/red-r.png"" border=""10"">","null","trial","32","","0.8,0.2","1:go_a","1",""
"null","","html-keyboard-response","610","841849","0.0-8.0-2.9","","<div style=""font-size:60px;"">+</div>","null","","","","","","",""
"null","","image-keyboard-response","611","843350","0.0-8.0-0.10","","img/purple.png","null","trial","null","true","0.4,0.6","4:nogo_d","",""
"null","","html-keyboard-response","612","844356","0.0-8.0-1.10","","<img src=""img/purple-n.png"">","null","trial","null","","0.4,0.6","4:nogo_d","0",""
"null","","html-keyboard-response","613","845357","0.0-8.0-2.10","","<div style=""font-size:60px;"">+</div>","null","","","","","","",""
"727.6000003814697","","image-keyboard-response","614","846086","0.0-8.0-0.11","","img/blue.png","32","trial","32","true","0.6,0.4","3:go_c","",""
"null","","html-keyboard-response","615","847087","0.0-8.0-1.11","","<img src=""img/blue-r.png"" border=""10"">","null","trial","32","","0.6,0.4","3:go_c","1",""
"null","","html-keyboard-response","616","848088","0.0-8.0-2.11","","<div style=""font-size:60px;"">+</div>","null","","","","","","",""
"null","","image-keyboard-response","617","849590","0.0-8.0-0.12","","img/purple.png","null","trial","null","true","0.4,0.6","4:nogo_d","",""
"null","","html-keyboard-response","618","850592","0.0-8.0-1.12","","<img src=""img/purple-r.png"">","null","trial","null","","0.4,0.6","4:nogo_d","1",""
"null","","html-keyboard-response","619","851593","0.0-8.0-2.12","","<div style=""font-size:60px;"">+</div>","null","","","","","","",""
"619.5999994277954","","image-keyboard-response","620","852214","0.0-8.0-0.13","","img/pink.png","32","trial","null","false","0.2,0.8","2:nogo_b","",""
"null","","html-keyboard-response","621","853216","0.0-8.0-1.13","","<img src=""img/pink-n.png"" border=""10"">","null","trial","null","","0.2,0.8","2:nogo_b","0",""
"null","","html-keyboard-response","622","854217","0.0-8.0-2.13","","<div style=""font-size:60px;"">+</div>","null","","","","","","",""
"650.8999996185303","","image-keyboard-response","623","854869","0.0-8.0-0.14","","img/red.png","32","trial","32","true","0.8,0.2","1:go_a","",""
"null","","html-keyboard-response","624","855871","0.0-8.0-1.14","","<img src=""img/red-n.png"" border=""10"">","null","trial","32","","0.8,0.2","1:go_a","0",""
"null","","html-keyboard-response","625","856872","0.0-8.0-2.14","","<div style=""font-size:60px;"">+</div>","null","","","","","","",""
"779.6999998092651","","image-keyboard-response","626","857653","0.0-8.0-0.15","","img/blue.png","32","trial","32","true","0.6,0.4","3:go_c","",""
"null","","html-keyboard-response","627","858655","0.0-8.0-1.15","","<img src=""img/blue-n.png"" border=""10"">","null","trial","32","","0.6,0.4","3:go_c","0",""
"null","","html-keyboard-response","628","859656","0.0-8.0-2.15","","<div style=""font-size:60px;"">+</div>","null","","","","","","",""
"731.5","","image-keyboard-response","629","860389","0.0-8.0-0.16","","img/blue.png","32","trial","32","true","0.6,0.4","3:go_c","",""
"null","","html-keyboard-response","630","861391","0.0-8.0-1.16","","<img src=""img/blue-r.png"" border=""10"">","null","trial","32","","0.6,0.4","3:go_c","1",""
"null","","html-keyboard-response","631","862393","0.0-8.0-2.16","","<div style=""font-size:60px;"">+</div>","null","","","","","","",""
"null","","image-keyboard-response","632","863894","0.0-8.0-0.17","","img/purple.png","null","trial","null","true","0.4,0.6","4:nogo_d","",""
"null","","html-keyboard-response","633","864896","0.0-8.0-1.17","","<img src=""img/purple-n.png"">","null","trial","null","","0.4,0.6","4:nogo_d","0",""
"null","","html-keyboard-response","634","865897","0.0-8.0-2.17","","<div style=""font-size:60px;"">+</div>","null","","","","","","",""
"1403.6999998092651","","image-keyboard-response","635","867301","0.0-8.0-0.18","","img/pink.png","32","trial","null","false","0.2,0.8","2:nogo_b","",""
"null","","html-keyboard-response","636","868304","0.0-8.0-1.18","","<img src=""img/pink-n.png"" border=""10"">","null","trial","null","","0.2,0.8","2:nogo_b","0",""
"null","","html-keyboard-response","637","869305","0.0-8.0-2.18","","<div style=""font-size:60px;"">+</div>","null","","","","","","",""
"539","","image-keyboard-response","638","869845","0.0-8.0-0.19","","img/red.png","32","trial","32","true","0.8,0.2","1:go_a","",""
"null","","html-keyboard-response","639","870847","0.0-8.0-1.19","","<img src=""img/red-r.png"" border=""10"">","null","trial","32","","0.8,0.2","1:go_a","1",""
"null","","html-keyboard-response","640","871848","0.0-8.0-2.19","","<div style=""font-size:60px;"">+</div>","null","","","","","","",""
"587.6000003814697","","image-keyboard-response","641","872437","0.0-8.0-0.20","","img/pink.png","32","trial","null","false","0.2,0.8","2:nogo_b","",""
"null","","html-keyboard-response","642","873439","0.0-8.0-1.20","","<img src=""img/pink-r.png"" border=""10"">","null","trial","null","","0.2,0.8","2:nogo_b","1",""
"null","","html-keyboard-response","643","874440","0.0-8.0-2.20","","<div style=""font-size:60px;"">+</div>","null","","","","","","",""
"539.6000003814697","","image-keyboard-response","644","874981","0.0-8.0-0.21","","img/blue.png","32","trial","32","true","0.6,0.4","3:go_c","",""
"null","","html-keyboard-response","645","875983","0.0-8.0-1.21","","<img src=""img/blue-r.png"" border=""10"">","null","trial","32","","0.6,0.4","3:go_c","1",""
"null","","html-keyboard-response","646","876984","0.0-8.0-2.21","","<div style=""font-size:60px;"">+</div>","null","","","","","","",""
"null","","image-keyboard-response","647","878486","0.0-8.0-0.22","","img/purple.png","null","trial","null","true","0.4,0.6","4:nogo_d","",""
"null","","html-keyboard-response","648","879488","0.0-8.0-1.22","","<img src=""img/purple-r.png"">","null","trial","null","","0.4,0.6","4:nogo_d","1",""
"null","","html-keyboard-response","649","880493","0.0-8.0-2.22","","<div style=""font-size:60px;"">+</div>","null","","","","","","",""
"634.4000005722046","","image-keyboard-response","650","881129","0.0-8.0-0.23","","img/red.png","32","trial","32","true","0.8,0.2","1:go_a","",""
"null","","html-keyboard-response","651","882130","0.0-8.0-1.23","","<img src=""img/red-r.png"" border=""10"">","null","trial","32","","0.8,0.2","1:go_a","1",""
"null","","html-keyboard-response","652","883131","0.0-8.0-2.23","","<div style=""font-size:60px;"">+</div>","null","","","","","","",""
"716.1999998092651","","image-keyboard-response","653","883849","0.0-8.0-0.24","","img/blue.png","32","trial","32","true","0.6,0.4","3:go_c","",""
"null","","html-keyboard-response","654","884850","0.0-8.0-1.24","","<img src=""img/blue-n.png"" border=""10"">","null","trial","32","","0.6,0.4","3:go_c","0",""
"null","","html-keyboard-response","655","885853","0.0-8.0-2.24","","<div style=""font-size:60px;"">+</div>","null","","","","","","",""
"1098.4000005722046","","image-keyboard-response","656","886952","0.0-8.0-0.25","","img/purple.png","32","trial","null","false","0.4,0.6","4:nogo_d","",""
"null","","html-keyboard-response","657","887954","0.0-8.0-1.25","","<img src=""img/purple-r.png"" border=""10"">","null","trial","null","","0.4,0.6","4:nogo_d","1",""
"null","","html-keyboard-response","658","888956","0.0-8.0-2.25","","<div style=""font-size:60px;"">+</div>","null","","","","","","",""
"1003.5999994277954","","image-keyboard-response","659","889960","0.0-8.0-0.26","","img/red.png","32","trial","32","true","0.8,0.2","1:go_a","",""
"null","","html-keyboard-response","660","890962","0.0-8.0-1.26","","<img src=""img/red-r.png"" border=""10"">","null","trial","32","","0.8,0.2","1:go_a","1",""
"null","","html-keyboard-response","661","891963","0.0-8.0-2.26","","<div style=""font-size:60px;"">+</div>","null","","","","","","",""
"652.5","","image-keyboard-response","662","892616","0.0-8.0-0.27","","img/pink.png","32","trial","null","false","0.2,0.8","2:nogo_b","",""
"null","","html-keyboard-response","663","893618","0.0-8.0-1.27","","<img src=""img/pink-n.png"" border=""10"">","null","trial","null","","0.2,0.8","2:nogo_b","0",""
"null","","html-keyboard-response","664","894620","0.0-8.0-2.27","","<div style=""font-size:60px;"">+</div>","null","","","","","","",""
"null","","image-keyboard-response","665","896122","0.0-8.0-0.28","","img/red.png","null","trial","32","false","0.8,0.2","1:go_a","",""
"null","","html-keyboard-response","666","897124","0.0-8.0-1.28","","<img src=""img/red-n.png"">","null","trial","32","","0.8,0.2","1:go_a","0",""
"null","","html-keyboard-response","667","898125","0.0-8.0-2.28","","<div style=""font-size:60px;"">+</div>","null","","","","","","",""
"null","","image-keyboard-response","668","899627","0.0-8.0-0.29","","img/blue.png","null","trial","32","false","0.6,0.4","3:go_c","",""
"null","","html-keyboard-response","669","900629","0.0-8.0-1.29","","<img src=""img/blue-r.png"">","null","trial","32","","0.6,0.4","3:go_c","1",""
"null","","html-keyboard-response","670","901630","0.0-8.0-2.29","","<div style=""font-size:60px;"">+</div>","null","","","","","","",""
"568.8000001907349","","image-keyboard-response","671","902200","0.0-8.0-0.30","","img/pink.png","32","trial","null","false","0.2,0.8","2:nogo_b","",""
"null","","html-keyboard-response","672","903202","0.0-8.0-1.30","","<img src=""img/pink-n.png"" border=""10"">","null","trial","null","","0.2,0.8","2:nogo_b","0",""
"null","","html-keyboard-response","673","904203","0.0-8.0-2.30","","<div style=""font-size:60px;"">+</div>","null","","","","","","",""
"1419.3999996185303","","image-keyboard-response","674","905624","0.0-8.0-0.31","","img/purple.png","32","trial","null","false","0.4,0.6","4:nogo_d","",""
"null","","html-keyboard-response","675","906626","0.0-8.0-1.31","","<img src=""img/purple-r.png"" border=""10"">","null","trial","null","","0.4,0.6","4:nogo_d","1",""
"null","","html-keyboard-response","676","907627","0.0-8.0-2.31","","<div style=""font-size:60px;"">+</div>","null","","","","","","",""
"1019.4000005722046","","image-keyboard-response","677","908648","0.0-8.0-0.32","","img/red.png","32","trial","32","true","0.8,0.2","1:go_a","",""
"null","","html-keyboard-response","678","909649","0.0-8.0-1.32","","<img src=""img/red-r.png"" border=""10"">","null","trial","32","","0.8,0.2","1:go_a","1",""
