"rt","url","trial_type","trial_index","time_elapsed","internal_node_id","view_history","stimulus","key_press","test_part","correct_response","correct","use_rew","which_stim","reward","responses"
"35404.76999996463","consent.html","external-html","0","35499","0.0-0.0","","","","","","","","","",""
"111796.35499999858","","instructions","1","147294","0.0-1.0","[{""page_index"":0,""viewing_time"":7287.525000050664},{""page_index"":1,""viewing_time"":25511.889999965206},{""page_index"":2,""viewing_time"":8998.269999981858},{""page_index"":3,""viewing_time"":28260.275000007823},{""page_index"":4,""viewing_time"":16714.689999993425},{""page_index"":5,""viewing_time"":11275.970000016969},{""page_index"":6,""viewing_time"":13746.380000025965}]","","","","","","","","",""
"null","","image-keyboard-response","2","148806","0.0-2.0-0.0","","img/test2.PNG","null","practice","null","true","","","",""
"null","","html-keyboard-response","3","149819","0.0-2.0-1.0","","<img src=""img/test2-reward.PNG"">","null","","","","","","",""
"null","","html-keyboard-response","4","150832","0.0-2.0-2.0","","<div style=""font-size:60px;"">+</div>","null","","","","","","",""
"null","","image-keyboard-response","5","152346","0.0-2.0-0.1","","img/test3.PNG","null","practice","null","true","","","",""
"null","","html-keyboard-response","6","153357","0.0-2.0-1.1","","<img src=""img/test3-reward.PNG"">","null","","","","","","",""
"null","","html-keyboard-response","7","154368","0.0-2.0-2.1","","<div style=""font-size:60px;"">+</div>","null","","","","","","",""
"462.6099999877624","","image-keyboard-response","8","154832","0.0-2.0-0.2","","img/test1.PNG","32","practice","32","true","","","",""
"null","","html-keyboard-response","9","155848","0.0-2.0-1.2","","<img src=""img/test1-reward.PNG"" border=""10px; grey"">","null","","","","","","",""
"null","","html-keyboard-response","10","156862","0.0-2.0-2.2","","<div style=""font-size:60px;"">+</div>","null","","","","","","",""
"561.8299999623559","","image-keyboard-response","11","157424","0.0-2.0-0.3","","img/test1.PNG","32","practice","32","true","","","",""
"null","","html-keyboard-response","12","158436","0.0-2.0-1.3","","<img src=""img/test1-reward.PNG"" border=""10px; grey"">","null","","","","","","",""
"null","","html-keyboard-response","13","159453","0.0-2.0-2.3","","<div style=""font-size:60px;"">+</div>","null","","","","","","",""
"null","","image-keyboard-response","14","160963","0.0-2.0-0.4","","img/test2.PNG","null","practice","null","true","","","",""
"null","","html-keyboard-response","15","161973","0.0-2.0-1.4","","<img src=""img/test2-reward.PNG"">","null","","","","","","",""
"null","","html-keyboard-response","16","162976","0.0-2.0-2.4","","<div style=""font-size:60px;"">+</div>","null","","","","","","",""
"null","","image-keyboard-response","17","164491","0.0-2.0-0.5","","img/test3.PNG","null","practice","null","true","","","",""
"null","","html-keyboard-response","18","165499","0.0-2.0-1.5","","<img src=""img/test3-reward.PNG"">","null","","","","","","",""
"null","","html-keyboard-response","19","166505","0.0-2.0-2.5","","<div style=""font-size:60px;"">+</div>","null","","","","","","",""
"393.74999998835847","","image-keyboard-response","20","166900","0.0-2.0-0.6","","img/test1.PNG","32","practice","32","true","","","",""
"null","","html-keyboard-response","21","167902","0.0-2.0-1.6","","<img src=""img/test1-reward.PNG"" border=""10px; grey"">","null","","","","","","",""
"null","","html-keyboard-response","22","168908","0.0-2.0-2.6","","<div style=""font-size:60px;"">+</div>","null","","","","","","",""
"null","","image-keyboard-response","23","170416","0.0-2.0-0.7","","img/test2.PNG","null","practice","null","true","","","",""
"null","","html-keyboard-response","24","171427","0.0-2.0-1.7","","<img src=""img/test2-reward.PNG"">","null","","","","","","",""
"null","","html-keyboard-response","25","172439","0.0-2.0-2.7","","<div style=""font-size:60px;"">+</div>","null","","","","","","",""
"null","","image-keyboard-response","26","173953","0.0-2.0-0.8","","img/test3.PNG","null","practice","null","true","","","",""
"null","","html-keyboard-response","27","174962","0.0-2.0-1.8","","<img src=""img/test3-reward.PNG"">","null","","","","","","",""
"null","","html-keyboard-response","28","175978","0.0-2.0-2.8","","<div style=""font-size:60px;"">+</div>","null","","","","","","",""
"null","","image-keyboard-response","29","177489","0.0-2.0-0.9","","img/test2.PNG","null","practice","null","true","","","",""
"null","","html-keyboard-response","30","178495","0.0-2.0-1.9","","<img src=""img/test2-reward.PNG"">","null","","","","","","",""
"null","","html-keyboard-response","31","179510","0.0-2.0-2.9","","<div style=""font-size:60px;"">+</div>","null","","","","","","",""
"406.62500000325963","","image-keyboard-response","32","179918","0.0-2.0-0.10","","img/test1.PNG","32","practice","32","true","","","",""
"null","","html-keyboard-response","33","180932","0.0-2.0-1.10","","<img src=""img/test1-reward.PNG"" border=""10px; grey"">","null","","","","","","",""
"null","","html-keyboard-response","34","181945","0.0-2.0-2.10","","<div style=""font-size:60px;"">+</div>","null","","","","","","",""
"null","","image-keyboard-response","35","183458","0.0-2.0-0.11","","img/test3.PNG","null","practice","null","true","","","",""
"null","","html-keyboard-response","36","184470","0.0-2.0-1.11","","<img src=""img/test3-reward.PNG"">","null","","","","","","",""
"null","","html-keyboard-response","37","185481","0.0-2.0-2.11","","<div style=""font-size:60px;"">+</div>","null","","","","","","",""
"3883.030000026338","","instructions","38","189364","0.0-3.0","[{""page_index"":0,""viewing_time"":3882.6700000208803}]","","","","","","","","",""
"1151.3150000246242","","image-keyboard-response","39","190518","0.0-4.0-0.0","","img/purple.png","32","trial","null","false","0.2,0.8","2:nogo_b","",""
"null","","html-keyboard-response","40","191528","0.0-4.0-1.0","","<img src=""img/purple-r.png"" border=""10"">","null","trial","null","","0.2,0.8","2:nogo_b","1",""
"null","","html-keyboard-response","41","192533","0.0-4.0-2.0","","<div style=""font-size:60px;"">+</div>","null","","","","","","",""
"498.4800000092946","","image-keyboard-response","42","193035","0.0-4.0-0.1","","img/green.png","32","trial","32","true","0.8,0.2","1:go_a","",""
"null","","html-keyboard-response","43","194047","0.0-4.0-1.1","","<img src=""img/green-r.png"" border=""10"">","null","trial","32","","0.8,0.2","1:go_a","1",""
"null","","html-keyboard-response","44","195060","0.0-4.0-2.1","","<div style=""font-size:60px;"">+</div>","null","","","","","","",""
"459.5650000264868","","image-keyboard-response","45","195521","0.0-4.0-0.2","","img/green.png","32","trial","32","true","0.8,0.2","1:go_a","",""
"null","","html-keyboard-response","46","196525","0.0-4.0-1.2","","<img src=""img/green-r.png"" border=""10"">","null","trial","32","","0.8,0.2","1:go_a","1",""
"null","","html-keyboard-response","47","197533","0.0-4.0-2.2","","<div style=""font-size:60px;"">+</div>","null","","","","","","",""
"369.5150000276044","","image-keyboard-response","48","197904","0.0-4.0-0.3","","img/purple.png","32","trial","null","false","0.2,0.8","2:nogo_b","",""
"null","","html-keyboard-response","49","198912","0.0-4.0-1.3","","<img src=""img/purple-n.png"" border=""10"">","null","trial","null","","0.2,0.8","2:nogo_b","0",""
"null","","html-keyboard-response","50","199920","0.0-4.0-2.3","","<div style=""font-size:60px;"">+</div>","null","","","","","","",""
"455.3650000016205","","image-keyboard-response","51","200377","0.0-4.0-0.4","","img/purple.png","32","trial","null","false","0.2,0.8","2:nogo_b","",""
"null","","html-keyboard-response","52","201384","0.0-4.0-1.4","","<img src=""img/purple-n.png"" border=""10"">","null","trial","null","","0.2,0.8","2:nogo_b","0",""
"null","","html-keyboard-response","53","202399","0.0-4.0-2.4","","<div style=""font-size:60px;"">+</div>","null","","","","","","",""
"442.54999997792765","","image-keyboard-response","54","202843","0.0-4.0-0.5","","img/green.png","32","trial","32","true","0.8,0.2","1:go_a","",""
"null","","html-keyboard-response","55","203859","0.0-4.0-1.5","","<img src=""img/green-r.png"" border=""10"">","null","trial","32","","0.8,0.2","1:go_a","1",""
"null","","html-keyboard-response","56","204872","0.0-4.0-2.5","","<div style=""font-size:60px;"">+</div>","null","","","","","","",""
"418.439999979455","","image-keyboard-response","57","205291","0.0-4.0-0.6","","img/green.png","32","trial","32","true","0.8,0.2","1:go_a","",""
"null","","html-keyboard-response","58","206301","0.0-4.0-1.6","","<img src=""img/green-r.png"" border=""10"">","null","trial","32","","0.8,0.2","1:go_a","1",""
"null","","html-keyboard-response","59","207323","0.0-4.0-2.6","","<div style=""font-size:60px;"">+</div>","null","","","","","","",""
"null","","image-keyboard-response","60","208834","0.0-4.0-0.7","","img/purple.png","null","trial","null","true","0.2,0.8","2:nogo_b","",""
"null","","html-keyboard-response","61","209848","0.0-4.0-1.7","","<img src=""img/purple-r.png"">","null","trial","null","","0.2,0.8","2:nogo_b","1",""
"null","","html-keyboard-response","62","210849","0.0-4.0-2.7","","<div style=""font-size:60px;"">+</div>","null","","","","","","",""
"385.56000002427027","","image-keyboard-response","63","211235","0.0-4.0-0.8","","img/green.png","32","trial","32","true","0.8,0.2","1:go_a","",""
"null","","html-keyboard-response","64","212240","0.0-4.0-1.8","","<img src=""img/green-r.png"" border=""10"">","null","trial","32","","0.8,0.2","1:go_a","1",""
"null","","html-keyboard-response","65","213254","0.0-4.0-2.8","","<div style=""font-size:60px;"">+</div>","null","","","","","","",""
"359.5400000340305","","image-keyboard-response","66","213614","0.0-4.0-0.9","","img/purple.png","32","trial","null","false","0.2,0.8","2:nogo_b","",""
"null","","html-keyboard-response","67","214623","0.0-4.0-1.9","","<img src=""img/purple-n.png"" border=""10"">","null","trial","null","","0.2,0.8","2:nogo_b","0",""
"null","","html-keyboard-response","68","215636","0.0-4.0-2.9","","<div style=""font-size:60px;"">+</div>","null","","","","","","",""
"460.94499999890104","","image-keyboard-response","69","216098","0.0-4.0-0.10","","img/green.png","32","trial","32","true","0.8,0.2","1:go_a","",""
"null","","html-keyboard-response","70","217113","0.0-4.0-1.10","","<img src=""img/green-n.png"" border=""10"">","null","trial","32","","0.8,0.2","1:go_a","0",""
"null","","html-keyboard-response","71","218123","0.0-4.0-2.10","","<div style=""font-size:60px;"">+</div>","null","","","","","","",""
"null","","image-keyboard-response","72","219639","0.0-4.0-0.11","","img/purple.png","null","trial","null","true","0.2,0.8","2:nogo_b","",""
"null","","html-keyboard-response","73","220656","0.0-4.0-1.11","","<img src=""img/purple-r.png"">","null","trial","null","","0.2,0.8","2:nogo_b","1",""
"null","","html-keyboard-response","74","221670","0.0-4.0-2.11","","<div style=""font-size:60px;"">+</div>","null","","","","","","",""
"310.6599999591708","","image-keyboard-response","75","221982","0.0-4.0-0.12","","img/green.png","32","trial","32","true","0.8,0.2","1:go_a","",""
"null","","html-keyboard-response","76","222989","0.0-4.0-1.12","","<img src=""img/green-r.png"" border=""10"">","null","trial","32","","0.8,0.2","1:go_a","1",""
"null","","html-keyboard-response","77","223993","0.0-4.0-2.12","","<div style=""font-size:60px;"">+</div>","null","","","","","","",""
"null","","image-keyboard-response","78","225501","0.0-4.0-0.13","","img/purple.png","null","trial","null","true","0.2,0.8","2:nogo_b","",""
"null","","html-keyboard-response","79","226515","0.0-4.0-1.13","","<img src=""img/purple-n.png"">","null","trial","null","","0.2,0.8","2:nogo_b","0",""
"null","","html-keyboard-response","80","227517","0.0-4.0-2.13","","<div style=""font-size:60px;"">+</div>","null","","","","","","",""
"457.32499996665865","","image-keyboard-response","81","227975","0.0-4.0-0.14","","img/purple.png","32","trial","null","false","0.2,0.8","2:nogo_b","",""
"null","","html-keyboard-response","82","228987","0.0-4.0-1.14","","<img src=""img/purple-r.png"" border=""10"">","null","trial","null","","0.2,0.8","2:nogo_b","1",""
"null","","html-keyboard-response","83","229994","0.0-4.0-2.14","","<div style=""font-size:60px;"">+</div>","null","","","","","","",""
"412.6200000173412","","image-keyboard-response","84","230408","0.0-4.0-0.15","","img/green.png","32","trial","32","true","0.8,0.2","1:go_a","",""
"null","","html-keyboard-response","85","231418","0.0-4.0-1.15","","<img src=""img/green-r.png"" border=""10"">","null","trial","32","","0.8,0.2","1:go_a","1",""
"null","","html-keyboard-response","86","232432","0.0-4.0-2.15","","<div style=""font-size:60px;"">+</div>","null","","","","","","",""
"599.640000029467","","image-keyboard-response","87","233032","0.0-4.0-0.16","","img/purple.png","32","trial","null","false","0.2,0.8","2:nogo_b","",""
"null","","html-keyboard-response","88","234050","0.0-4.0-1.16","","<img src=""img/purple-n.png"" border=""10"">","null","trial","null","","0.2,0.8","2:nogo_b","0",""
"null","","html-keyboard-response","89","235057","0.0-4.0-2.16","","<div style=""font-size:60px;"">+</div>","null","","","","","","",""
"313.04999999701977","","image-keyboard-response","90","235371","0.0-4.0-0.17","","img/green.png","32","trial","32","true","0.8,0.2","1:go_a","",""
"null","","html-keyboard-response","91","236374","0.0-4.0-1.17","","<img src=""img/green-r.png"" border=""10"">","null","trial","32","","0.8,0.2","1:go_a","1",""
"null","","html-keyboard-response","92","237380","0.0-4.0-2.17","","<div style=""font-size:60px;"">+</div>","null","","","","","","",""
"null","","image-keyboard-response","93","238883","0.0-4.0-0.18","","img/purple.png","null","trial","null","true","0.2,0.8","2:nogo_b","",""
"null","","html-keyboard-response","94","239890","0.0-4.0-1.18","","<img src=""img/purple-n.png"">","null","trial","null","","0.2,0.8","2:nogo_b","0",""
"null","","html-keyboard-response","95","240898","0.0-4.0-2.18","","<div style=""font-size:60px;"">+</div>","null","","","","","","",""
"583.8150000199676","","image-keyboard-response","96","241483","0.0-4.0-0.19","","img/green.png","32","trial","32","true","0.8,0.2","1:go_a","",""
"null","","html-keyboard-response","97","242496","0.0-4.0-1.19","","<img src=""img/green-n.png"" border=""10"">","null","trial","32","","0.8,0.2","1:go_a","0",""
"null","","html-keyboard-response","98","243507","0.0-4.0-2.19","","<div style=""font-size:60px;"">+</div>","null","","","","","","",""
"null","","image-keyboard-response","99","245016","0.0-4.0-0.20","","img/purple.png","null","trial","null","true","0.2,0.8","2:nogo_b","",""
"null","","html-keyboard-response","100","246024","0.0-4.0-1.20","","<img src=""img/purple-r.png"">","null","trial","null","","0.2,0.8","2:nogo_b","1",""
"null","","html-keyboard-response","101","247040","0.0-4.0-2.20","","<div style=""font-size:60px;"">+</div>","null","","","","","","",""
"543.4949999907985","","image-keyboard-response","102","247584","0.0-4.0-0.21","","img/green.png","32","trial","32","true","0.8,0.2","1:go_a","",""
"null","","html-keyboard-response","103","248597","0.0-4.0-1.21","","<img src=""img/green-r.png"" border=""10"">","null","trial","32","","0.8,0.2","1:go_a","1",""
"null","","html-keyboard-response","104","249609","0.0-4.0-2.21","","<div style=""font-size:60px;"">+</div>","null","","","","","","",""
"511.9299999787472","","image-keyboard-response","105","250122","0.0-4.0-0.22","","img/green.png","32","trial","32","true","0.8,0.2","1:go_a","",""
"null","","html-keyboard-response","106","251135","0.0-4.0-1.22","","<img src=""img/green-r.png"" border=""10"">","null","trial","32","","0.8,0.2","1:go_a","1",""
"null","","html-keyboard-response","107","252138","0.0-4.0-2.22","","<div style=""font-size:60px;"">+</div>","null","","","","","","",""
"null","","image-keyboard-response","108","253653","0.0-4.0-0.23","","img/purple.png","null","trial","null","true","0.2,0.8","2:nogo_b","",""
"null","","html-keyboard-response","109","254661","0.0-4.0-1.23","","<img src=""img/purple-r.png"">","null","trial","null","","0.2,0.8","2:nogo_b","1",""
"null","","html-keyboard-response","110","255662","0.0-4.0-2.23","","<div style=""font-size:60px;"">+</div>","null","","","","","","",""
"494.50999998953193","","image-keyboard-response","111","256157","0.0-4.0-0.24","","img/green.png","32","trial","32","true","0.8,0.2","1:go_a","",""
"null","","html-keyboard-response","112","257169","0.0-4.0-1.24","","<img src=""img/green-r.png"" border=""10"">","null","trial","32","","0.8,0.2","1:go_a","1",""
"null","","html-keyboard-response","113","258184","0.0-4.0-2.24","","<div style=""font-size:60px;"">+</div>","null","","","","","","",""
"495.7899999571964","","image-keyboard-response","114","258680","0.0-4.0-0.25","","img/purple.png","32","trial","null","false","0.2,0.8","2:nogo_b","",""
"null","","html-keyboard-response","115","259684","0.0-4.0-1.25","","<img src=""img/purple-n.png"" border=""10"">","null","trial","null","","0.2,0.8","2:nogo_b","0",""
"null","","html-keyboard-response","116","260699","0.0-4.0-2.25","","<div style=""font-size:60px;"">+</div>","null","","","","","","",""
"601.8899999908172","","image-keyboard-response","117","261302","0.0-4.0-0.26","","img/purple.png","32","trial","null","false","0.2,0.8","2:nogo_b","",""
"null","","html-keyboard-response","118","262312","0.0-4.0-1.26","","<img src=""img/purple-n.png"" border=""10"">","null","trial","null","","0.2,0.8","2:nogo_b","0",""
"null","","html-keyboard-response","119","263320","0.0-4.0-2.26","","<div style=""font-size:60px;"">+</div>","null","","","","","","",""
"464.27500003483146","","image-keyboard-response","120","263785","0.0-4.0-0.27","","img/green.png","32","trial","32","true","0.8,0.2","1:go_a","",""
"null","","html-keyboard-response","121","264791","0.0-4.0-1.27","","<img src=""img/green-r.png"" border=""10"">","null","trial","32","","0.8,0.2","1:go_a","1",""
"null","","html-keyboard-response","122","265803","0.0-4.0-2.27","","<div style=""font-size:60px;"">+</div>","null","","","","","","",""
"435.2500000386499","","image-keyboard-response","123","266239","0.0-4.0-0.28","","img/green.png","32","trial","32","true","0.8,0.2","1:go_a","",""
"null","","html-keyboard-response","124","267243","0.0-4.0-1.28","","<img src=""img/green-r.png"" border=""10"">","null","trial","32","","0.8,0.2","1:go_a","1",""
"null","","html-keyboard-response","125","268258","0.0-4.0-2.28","","<div style=""font-size:60px;"">+</div>","null","","","","","","",""
"null","","image-keyboard-response","126","269773","0.0-4.0-0.29","","img/purple.png","null","trial","null","true","0.2,0.8","2:nogo_b","",""
"null","","html-keyboard-response","127","270778","0.0-4.0-1.29","","<img src=""img/purple-r.png"">","null","trial","null","","0.2,0.8","2:nogo_b","1",""
"null","","html-keyboard-response","128","271788","0.0-4.0-2.29","","<div style=""font-size:60px;"">+</div>","null","","","","","","",""
"472.1000000135973","","image-keyboard-response","129","272261","0.0-4.0-0.30","","img/green.png","32","trial","32","true","0.8,0.2","1:go_a","",""
"null","","html-keyboard-response","130","273277","0.0-4.0-1.30","","<img src=""img/green-r.png"" border=""10"">","null","trial","32","","0.8,0.2","1:go_a","1",""
"null","","html-keyboard-response","131","274285","0.0-4.0-2.30","","<div style=""font-size:60px;"">+</div>","null","","","","","","",""
"null","","image-keyboard-response","132","275788","0.0-4.0-0.31","","img/purple.png","null","trial","null","true","0.2,0.8","2:nogo_b","",""
"null","","html-keyboard-response","133","276805","0.0-4.0-1.31","","<img src=""img/purple-r.png"">","null","trial","null","","0.2,0.8","2:nogo_b","1",""
"null","","html-keyboard-response","134","277811","0.0-4.0-2.31","","<div style=""font-size:60px;"">+</div>","null","","","","","","",""
"607.4300000327639","","image-keyboard-response","135","278419","0.0-4.0-0.32","","img/green.png","32","trial","32","true","0.8,0.2","1:go_a","",""
"null","","html-keyboard-response","136","279428","0.0-4.0-1.32","","<img src=""img/green-r.png"" border=""10"">","null","trial","32","","0.8,0.2","1:go_a","1",""
"null","","html-keyboard-response","137","280435","0.0-4.0-2.32","","<div style=""font-size:60px;"">+</div>","null","","","","","","",""
"1489.0550000127405","","image-keyboard-response","138","281925","0.0-4.0-0.33","","img/purple.png","32","trial","null","false","0.2,0.8","2:nogo_b","",""
"null","","html-keyboard-response","139","282934","0.0-4.0-1.33","","<img src=""img/purple-r.png"" border=""10"">","null","trial","null","","0.2,0.8","2:nogo_b","1",""
"null","","html-keyboard-response","140","283949","0.0-4.0-2.33","","<div style=""font-size:60px;"">+</div>","null","","","","","","",""
"592.6200000103563","","image-keyboard-response","141","284543","0.0-4.0-0.34","","img/green.png","32","trial","32","true","0.8,0.2","1:go_a","",""
"null","","html-keyboard-response","142","285556","0.0-4.0-1.34","","<img src=""img/green-r.png"" border=""10"">","null","trial","32","","0.8,0.2","1:go_a","1",""
"null","","html-keyboard-response","143","286566","0.0-4.0-2.34","","<div style=""font-size:60px;"">+</div>","null","","","","","","",""
"null","","image-keyboard-response","144","288072","0.0-4.0-0.35","","img/purple.png","null","trial","null","true","0.2,0.8","2:nogo_b","",""
"null","","html-keyboard-response","145","289076","0.0-4.0-1.35","","<img src=""img/purple-n.png"">","null","trial","null","","0.2,0.8","2:nogo_b","0",""
"null","","html-keyboard-response","146","290087","0.0-4.0-2.35","","<div style=""font-size:60px;"">+</div>","null","","","","","","",""
"358.7150000385009","","image-keyboard-response","147","290446","0.0-4.0-0.36","","img/green.png","32","trial","32","true","0.8,0.2","1:go_a","",""
"null","","html-keyboard-response","148","291451","0.0-4.0-1.36","","<img src=""img/green-r.png"" border=""10"">","null","trial","32","","0.8,0.2","1:go_a","1",""
"null","","html-keyboard-response","149","292464","0.0-4.0-2.36","","<div style=""font-size:60px;"">+</div>","null","","","","","","",""
"null","","image-keyboard-response","150","293972","0.0-4.0-0.37","","img/purple.png","null","trial","null","true","0.2,0.8","2:nogo_b","",""
"null","","html-keyboard-response","151","294976","0.0-4.0-1.37","","<img src=""img/purple-r.png"">","null","trial","null","","0.2,0.8","2:nogo_b","1",""
"null","","html-keyboard-response","152","295992","0.0-4.0-2.37","","<div style=""font-size:60px;"">+</div>","null","","","","","","",""
"544.6850000298582","","image-keyboard-response","153","296539","0.0-4.0-0.38","","img/green.png","32","trial","32","true","0.8,0.2","1:go_a","",""
"null","","html-keyboard-response","154","297549","0.0-4.0-1.38","","<img src=""img/green-r.png"" border=""10"">","null","trial","32","","0.8,0.2","1:go_a","1",""
"null","","html-keyboard-response","155","298560","0.0-4.0-2.38","","<div style=""font-size:60px;"">+</div>","null","","","","","","",""
"1290.6000000075437","","image-keyboard-response","156","299851","0.0-4.0-0.39","","img/purple.png","32","trial","null","false","0.2,0.8","2:nogo_b","",""
"null","","html-keyboard-response","157","300857","0.0-4.0-1.39","","<img src=""img/purple-n.png"" border=""10"">","null","trial","null","","0.2,0.8","2:nogo_b","0",""
"null","","html-keyboard-response","158","301866","0.0-4.0-2.39","","<div style=""font-size:60px;"">+</div>","null","","","","","","",""
"null","","image-keyboard-response","159","303370","0.0-4.0-0.40","","img/purple.png","null","trial","null","true","0.2,0.8","2:nogo_b","",""
"null","","html-keyboard-response","160","304383","0.0-4.0-1.40","","<img src=""img/purple-r.png"">","null","trial","null","","0.2,0.8","2:nogo_b","1",""
"null","","html-keyboard-response","161","305384","0.0-4.0-2.40","","<div style=""font-size:60px;"">+</div>","null","","","","","","",""
"371.259999985341","","image-keyboard-response","162","305756","0.0-4.0-0.41","","img/green.png","32","trial","32","true","0.8,0.2","1:go_a","",""
"null","","html-keyboard-response","163","306758","0.0-4.0-1.41","","<img src=""img/green-n.png"" border=""10"">","null","trial","32","","0.8,0.2","1:go_a","0",""
"null","","html-keyboard-response","164","307767","0.0-4.0-2.41","","<div style=""font-size:60px;"">+</div>","null","","","","","","",""
"461.6300000343472","","image-keyboard-response","165","308230","0.0-4.0-0.42","","img/purple.png","32","trial","null","false","0.2,0.8","2:nogo_b","",""
"null","","html-keyboard-response","166","309243","0.0-4.0-1.42","","<img src=""img/purple-n.png"" border=""10"">","null","trial","null","","0.2,0.8","2:nogo_b","0",""
"null","","html-keyboard-response","167","310257","0.0-4.0-2.42","","<div style=""font-size:60px;"">+</div>","null","","","","","","",""
"318.9799999818206","","image-keyboard-response","168","310576","0.0-4.0-0.43","","img/green.png","32","trial","32","true","0.8,0.2","1:go_a","",""
"null","","html-keyboard-response","169","311587","0.0-4.0-1.43","","<img src=""img/green-n.png"" border=""10"">","null","trial","32","","0.8,0.2","1:go_a","0",""
"null","","html-keyboard-response","170","312596","0.0-4.0-2.43","","<div style=""font-size:60px;"">+</div>","null","","","","","","",""
"374.03000000631437","","image-keyboard-response","171","312971","0.0-4.0-0.44","","img/green.png","32","trial","32","true","0.8,0.2","1:go_a","",""
"null","","html-keyboard-response","172","313976","0.0-4.0-1.44","","<img src=""img/green-r.png"" border=""10"">","null","trial","32","","0.8,0.2","1:go_a","1",""
"null","","html-keyboard-response","173","314977","0.0-4.0-2.44","","<div style=""font-size:60px;"">+</div>","null","","","","","","",""
"null","","image-keyboard-response","174","316490","0.0-4.0-0.45","","img/purple.png","null","trial","null","true","0.2,0.8","2:nogo_b","",""
"null","","html-keyboard-response","175","317506","0.0-4.0-1.45","","<img src=""img/purple-r.png"">","null","trial","null","","0.2,0.8","2:nogo_b","1",""
"null","","html-keyboard-response","176","318508","0.0-4.0-2.45","","<div style=""font-size:60px;"">+</div>","null","","","","","","",""
"902.1049999864772","","image-keyboard-response","177","319411","0.0-4.0-0.46","","img/green.png","32","trial","32","true","0.8,0.2","1:go_a","",""
"null","","html-keyboard-response","178","320418","0.0-4.0-1.46","","<img src=""img/green-r.png"" border=""10"">","null","trial","32","","0.8,0.2","1:go_a","1",""
"null","","html-keyboard-response","179","321433","0.0-4.0-2.46","","<div style=""font-size:60px;"">+</div>","null","","","","","","",""
"null","","image-keyboard-response","180","322950","0.0-4.0-0.47","","img/purple.png","null","trial","null","true","0.2,0.8","2:nogo_b","",""
"null","","html-keyboard-response","181","323967","0.0-4.0-1.47","","<img src=""img/purple-n.png"">","null","trial","null","","0.2,0.8","2:nogo_b","0",""
"null","","html-keyboard-response","182","324980","0.0-4.0-2.47","","<div style=""font-size:60px;"">+</div>","null","","","","","","",""
"null","","image-keyboard-response","183","326493","0.0-4.0-0.48","","img/purple.png","null","trial","null","true","0.2,0.8","2:nogo_b","",""
"null","","html-keyboard-response","184","327506","0.0-4.0-1.48","","<img src=""img/purple-r.png"">","null","trial","null","","0.2,0.8","2:nogo_b","1",""
"null","","html-keyboard-response","185","328512","0.0-4.0-2.48","","<div style=""font-size:60px;"">+</div>","null","","","","","","",""
"881.9600000279024","","image-keyboard-response","186","329395","0.0-4.0-0.49","","img/green.png","32","trial","32","true","0.8,0.2","1:go_a","",""
"null","","html-keyboard-response","187","330402","0.0-4.0-1.49","","<img src=""img/green-r.png"" border=""10"">","null","trial","32","","0.8,0.2","1:go_a","1",""
"null","","html-keyboard-response","188","331418","0.0-4.0-2.49","","<div style=""font-size:60px;"">+</div>","null","","","","","","",""
"461.87499997904524","","image-keyboard-response","189","331881","0.0-4.0-0.50","","img/green.png","32","trial","32","true","0.8,0.2","1:go_a","",""
"null","","html-keyboard-response","190","332893","0.0-4.0-1.50","","<img src=""img/green-n.png"" border=""10"">","null","trial","32","","0.8,0.2","1:go_a","0",""
"null","","html-keyboard-response","191","333895","0.0-4.0-2.50","","<div style=""font-size:60px;"">+</div>","null","","","","","","",""
"1227.9200000339188","","image-keyboard-response","192","335124","0.0-4.0-0.51","","img/purple.png","32","trial","null","false","0.2,0.8","2:nogo_b","",""
"null","","html-keyboard-response","193","336131","0.0-4.0-1.51","","<img src=""img/purple-n.png"" border=""10"">","null","trial","null","","0.2,0.8","2:nogo_b","0",""
"null","","html-keyboard-response","194","337134","0.0-4.0-2.51","","<div style=""font-size:60px;"">+</div>","null","","","","","","",""
"null","","image-keyboard-response","195","338641","0.0-4.0-0.52","","img/purple.png","null","trial","null","true","0.2,0.8","2:nogo_b","",""
"null","","html-keyboard-response","196","339648","0.0-4.0-1.52","","<img src=""img/purple-r.png"">","null","trial","null","","0.2,0.8","2:nogo_b","1",""
"null","","html-keyboard-response","197","340657","0.0-4.0-2.52","","<div style=""font-size:60px;"">+</div>","null","","","","","","",""
"367.04000004101545","","image-keyboard-response","198","341025","0.0-4.0-0.53","","img/green.png","32","trial","32","true","0.8,0.2","1:go_a","",""
"null","","html-keyboard-response","199","342033","0.0-4.0-1.53","","<img src=""img/green-r.png"" border=""10"">","null","trial","32","","0.8,0.2","1:go_a","1",""
"null","","html-keyboard-response","200","343043","0.0-4.0-2.53","","<div style=""font-size:60px;"">+</div>","null","","","","","","",""
"null","","image-keyboard-response","201","344545","0.0-4.0-0.54","","img/purple.png","null","trial","null","true","0.2,0.8","2:nogo_b","",""
"null","","html-keyboard-response","202","345558","0.0-4.0-1.54","","<img src=""img/purple-r.png"">","null","trial","null","","0.2,0.8","2:nogo_b","1",""
"null","","html-keyboard-response","203","346570","0.0-4.0-2.54","","<div style=""font-size:60px;"">+</div>","null","","","","","","",""
"679.0449999971315","","image-keyboard-response","204","347250","0.0-4.0-0.55","","img/green.png","32","trial","32","true","0.8,0.2","1:go_a","",""
"null","","html-keyboard-response","205","348260","0.0-4.0-1.55","","<img src=""img/green-r.png"" border=""10"">","null","trial","32","","0.8,0.2","1:go_a","1",""
"null","","html-keyboard-response","206","349262","0.0-4.0-2.55","","<div style=""font-size:60px;"">+</div>","null","","","","","","",""
"521.0549999610521","","image-keyboard-response","207","349784","0.0-4.0-0.56","","img/green.png","32","trial","32","true","0.8,0.2","1:go_a","",""
"null","","html-keyboard-response","208","350787","0.0-4.0-1.56","","<img src=""img/green-r.png"" border=""10"">","null","trial","32","","0.8,0.2","1:go_a","1",""
"null","","html-keyboard-response","209","351798","0.0-4.0-2.56","","<div style=""font-size:60px;"">+</div>","null","","","","","","",""
"null","","image-keyboard-response","210","353309","0.0-4.0-0.57","","img/purple.png","null","trial","null","true","0.2,0.8","2:nogo_b","",""
"null","","html-keyboard-response","211","354311","0.0-4.0-1.57","","<img src=""img/purple-r.png"">","null","trial","null","","0.2,0.8","2:nogo_b","1",""
"null","","html-keyboard-response","212","355324","0.0-4.0-2.57","","<div style=""font-size:60px;"">+</div>","null","","","","","","",""
"655.5499999667518","","image-keyboard-response","213","355981","0.0-4.0-0.58","","img/green.png","32","trial","32","true","0.8,0.2","1:go_a","",""
"null","","html-keyboard-response","214","356983","0.0-4.0-1.58","","<img src=""img/green-r.png"" border=""10"">","null","trial","32","","0.8,0.2","1:go_a","1",""
"null","","html-keyboard-response","215","357989","0.0-4.0-2.58","","<div style=""font-size:60px;"">+</div>","null","","","","","","",""
"null","","image-keyboard-response","216","359506","0.0-4.0-0.59","","img/purple.png","null","trial","null","true","0.2,0.8","2:nogo_b","",""
"null","","html-keyboard-response","217","360516","0.0-4.0-1.59","","<img src=""img/purple-r.png"">","null","trial","null","","0.2,0.8","2:nogo_b","1",""
"null","","html-keyboard-response","218","361519","0.0-4.0-2.59","","<div style=""font-size:60px;"">+</div>","null","","","","","","",""
"69114.01000001933","","instructions","219","430634","0.0-5.0","[{""page_index"":0,""viewing_time"":69113.72500000289}]","","","","","","","","",""
"1397.4750000052154","","image-keyboard-response","220","432033","0.0-6.0-0.0","","img/purple.png","32","trial","32","true","0.8,0.2","1:go_a","",""
"null","","html-keyboard-response","221","433040","0.0-6.0-1.0","","<img src=""img/purple-r.png"" border=""10"">","null","trial","32","","0.8,0.2","1:go_a","1",""
"null","","html-keyboard-response","222","434048","0.0-6.0-2.0","","<div style=""font-size:60px;"">+</div>","null","","","","","","",""
"1099.0400000009686","","image-keyboard-response","223","435148","0.0-6.0-0.1","","img/pink.png","32","trial","null","false","0.2,0.8","2:nogo_b","",""
"null","","html-keyboard-response","224","436149","0.0-6.0-1.1","","<img src=""img/pink-r.png"" border=""10"">","null","trial","null","","0.2,0.8","2:nogo_b","1",""
"null","","html-keyboard-response","225","437165","0.0-6.0-2.1","","<div style=""font-size:60px;"">+</div>","null","","","","","","",""
"995.1250000158325","","image-keyboard-response","226","438161","0.0-6.0-0.2","","img/grey.png","32","trial","32","true","1,0","3:go_c","",""
"null","","html-keyboard-response","227","439163","0.0-6.0-1.2","","<img src=""img/grey-r.png"" border=""10"">","null","trial","32","","1,0","3:go_c","1",""
"null","","html-keyboard-response","228","440174","0.0-6.0-2.2","","<div style=""font-size:60px;"">+</div>","null","","","","","","",""
"1103.3499999903142","","image-keyboard-response","229","441278","0.0-6.0-0.3","","img/red.png","32","trial","null","false","0,1","4:nogo_d","",""
"null","","html-keyboard-response","230","442291","0.0-6.0-1.3","","<img src=""img/red-n.png"" border=""10"">","null","trial","null","","0,1","4:nogo_d","0",""
"null","","html-keyboard-response","231","443300","0.0-6.0-2.3","","<div style=""font-size:60px;"">+</div>","null","","","","","","",""
"615.8500000019558","","image-keyboard-response","232","443917","0.0-6.0-0.4","","img/pink.png","32","trial","null","false","0.2,0.8","2:nogo_b","",""
"null","","html-keyboard-response","233","444919","0.0-6.0-1.4","","<img src=""img/pink-n.png"" border=""10"">","null","trial","null","","0.2,0.8","2:nogo_b","0",""
"null","","html-keyboard-response","234","445934","0.0-6.0-2.4","","<div style=""font-size:60px;"">+</div>","null","","","","","","",""
"507.54999998025596","","image-keyboard-response","235","446443","0.0-6.0-0.5","","img/purple.png","32","trial","32","true","0.8,0.2","1:go_a","",""
"null","","html-keyboard-response","236","447451","0.0-6.0-1.5","","<img src=""img/purple-r.png"" border=""10"">","null","trial","32","","0.8,0.2","1:go_a","1",""
"null","","html-keyboard-response","237","448456","0.0-6.0-2.5","","<div style=""font-size:60px;"">+</div>","null","","","","","","",""
"null","","image-keyboard-response","238","449958","0.0-6.0-0.6","","img/red.png","null","trial","null","true","0,1","4:nogo_d","",""
"null","","html-keyboard-response","239","450962","0.0-6.0-1.6","","<img src=""img/red-r.png"">","null","trial","null","","0,1","4:nogo_d","1",""
"null","","html-keyboard-response","240","451964","0.0-6.0-2.6","","<div style=""font-size:60px;"">+</div>","null","","","","","","",""
"646.9100000103936","","image-keyboard-response","241","452612","0.0-6.0-0.7","","img/grey.png","32","trial","32","true","1,0","3:go_c","",""
"null","","html-keyboard-response","242","453623","0.0-6.0-1.7","","<img src=""img/grey-r.png"" border=""10"">","null","trial","32","","1,0","3:go_c","1",""
"null","","html-keyboard-response","243","454627","0.0-6.0-2.7","","<div style=""font-size:60px;"">+</div>","null","","","","","","",""
"470.9300000104122","","image-keyboard-response","244","455099","0.0-6.0-0.8","","img/grey.png","32","trial","32","true","1,0","3:go_c","",""
"null","","html-keyboard-response","245","456114","0.0-6.0-1.8","","<img src=""img/grey-r.png"" border=""10"">","null","trial","32","","1,0","3:go_c","1",""
"null","","html-keyboard-response","246","457121","0.0-6.0-2.8","","<div style=""font-size:60px;"">+</div>","null","","","","","","",""
"null","","image-keyboard-response","247","458633","0.0-6.0-0.9","","img/red.png","null","trial","null","true","0,1","4:nogo_d","",""
"null","","html-keyboard-response","248","459644","0.0-6.0-1.9","","<img src=""img/red-r.png"">","null","trial","null","","0,1","4:nogo_d","1",""
"null","","html-keyboard-response","249","460653","0.0-6.0-2.9","","<div style=""font-size:60px;"">+</div>","null","","","","","","",""
"772.0100000151433","","image-keyboard-response","250","461426","0.0-6.0-0.10","","img/purple.png","32","trial","32","true","0.8,0.2","1:go_a","",""
"null","","html-keyboard-response","251","462429","0.0-6.0-1.10","","<img src=""img/purple-r.png"" border=""10"">","null","trial","32","","0.8,0.2","1:go_a","1",""
"null","","html-keyboard-response","252","463441","0.0-6.0-2.10","","<div style=""font-size:60px;"">+</div>","null","","","","","","",""
"553.6599999759346","","image-keyboard-response","253","463996","0.0-6.0-0.11","","img/pink.png","32","trial","null","false","0.2,0.8","2:nogo_b","",""
"null","","html-keyboard-response","254","465012","0.0-6.0-1.11","","<img src=""img/pink-r.png"" border=""10"">","null","trial","null","","0.2,0.8","2:nogo_b","1",""
"null","","html-keyboard-response","255","466020","0.0-6.0-2.11","","<div style=""font-size:60px;"">+</div>","null","","","","","","",""
"642.2599999932572","","image-keyboard-response","256","466663","0.0-6.0-0.12","","img/pink.png","32","trial","null","false","0.2,0.8","2:nogo_b","",""
"null","","html-keyboard-response","257","467676","0.0-6.0-1.12","","<img src=""img/pink-n.png"" border=""10"">","null","trial","null","","0.2,0.8","2:nogo_b","0",""
"null","","html-keyboard-response","258","468686","0.0-6.0-2.12","","<div style=""font-size:60px;"">+</div>","null","","","","","","",""
"466.2349999998696","","image-keyboard-response","259","469153","0.0-6.0-0.13","","img/purple.png","32","trial","32","true","0.8,0.2","1:go_a","",""
"null","","html-keyboard-response","260","470156","0.0-6.0-1.13","","<img src=""img/purple-r.png"" border=""10"">","null","trial","32","","0.8,0.2","1:go_a","1",""
"null","","html-keyboard-response","261","471165","0.0-6.0-2.13","","<div style=""font-size:60px;"">+</div>","null","","","","","","",""
"396.9350000261329","","image-keyboard-response","262","471563","0.0-6.0-0.14","","img/grey.png","32","trial","32","true","1,0","3:go_c","",""
"null","","html-keyboard-response","263","472575","0.0-6.0-1.14","","<img src=""img/grey-r.png"" border=""10"">","null","trial","32","","1,0","3:go_c","1",""
"null","","html-keyboard-response","264","473586","0.0-6.0-2.14","","<div style=""font-size:60px;"">+</div>","null","","","","","","",""
"1068.0299999658018","","image-keyboard-response","265","474655","0.0-6.0-0.15","","img/red.png","32","trial","null","false","0,1","4:nogo_d","",""
"null","","html-keyboard-response","266","475657","0.0-6.0-1.15","","<img src=""img/red-n.png"" border=""10"">","null","trial","null","","0,1","4:nogo_d","0",""
"null","","html-keyboard-response","267","476661","0.0-6.0-2.15","","<div style=""font-size:60px;"">+</div>","null","","","","","","",""
"586.1600000062026","","image-keyboard-response","268","477248","0.0-6.0-0.16","","img/pink.png","32","trial","null","false","0.2,0.8","2:nogo_b","",""
"null","","html-keyboard-response","269","478258","0.0-6.0-1.16","","<img src=""img/pink-n.png"" border=""10"">","null","trial","null","","0.2,0.8","2:nogo_b","0",""
"null","","html-keyboard-response","270","479262","0.0-6.0-2.16","","<div style=""font-size:60px;"">+</div>","null","","","","","","",""
"null","","image-keyboard-response","271","480767","0.0-6.0-0.17","","img/red.png","null","trial","null","true","0,1","4:nogo_d","",""
"null","","html-keyboard-response","272","481774","0.0-6.0-1.17","","<img src=""img/red-r.png"">","null","trial","null","","0,1","4:nogo_d","1",""
"null","","html-keyboard-response","273","482785","0.0-6.0-2.17","","<div style=""font-size:60px;"">+</div>","null","","","","","","",""
"744.8200000217184","","image-keyboard-response","274","483531","0.0-6.0-0.18","","img/purple.png","32","trial","32","true","0.8,0.2","1:go_a","",""
"null","","html-keyboard-response","275","484533","0.0-6.0-1.18","","<img src=""img/purple-n.png"" border=""10"">","null","trial","32","","0.8,0.2","1:go_a","0",""
"null","","html-keyboard-response","276","485549","0.0-6.0-2.18","","<div style=""font-size:60px;"">+</div>","null","","","","","","",""
"557.8650000388734","","image-keyboard-response","277","486108","0.0-6.0-0.19","","img/grey.png","32","trial","32","true","1,0","3:go_c","",""
"null","","html-keyboard-response","278","487124","0.0-6.0-1.19","","<img src=""img/grey-r.png"" border=""10"">","null","trial","32","","1,0","3:go_c","1",""
"null","","html-keyboard-response","279","488128","0.0-6.0-2.19","","<div style=""font-size:60px;"">+</div>","null","","","","","","",""
"null","","image-keyboard-response","280","489636","0.0-6.0-0.20","","img/red.png","null","trial","null","true","0,1","4:nogo_d","",""
"null","","html-keyboard-response","281","490651","0.0-6.0-1.20","","<img src=""img/red-r.png"">","null","trial","null","","0,1","4:nogo_d","1",""
"null","","html-keyboard-response","282","491656","0.0-6.0-2.20","","<div style=""font-size:60px;"">+</div>","null","","","","","","",""
"null","","image-keyboard-response","283","493167","0.0-6.0-0.21","","img/pink.png","null","trial","null","true","0.2,0.8","2:nogo_b","",""
"null","","html-keyboard-response","284","494183","0.0-6.0-1.21","","<img src=""img/pink-r.png"">","null","trial","null","","0.2,0.8","2:nogo_b","1",""
"null","","html-keyboard-response","285","495188","0.0-6.0-2.21","","<div style=""font-size:60px;"">+</div>","null","","","","","","",""
"1374.7150000417605","","image-keyboard-response","286","496563","0.0-6.0-0.22","","img/purple.png","32","trial","32","true","0.8,0.2","1:go_a","",""
"null","","html-keyboard-response","287","497574","0.0-6.0-1.22","","<img src=""img/purple-r.png"" border=""10"">","null","trial","32","","0.8,0.2","1:go_a","1",""
"null","","html-keyboard-response","288","498582","0.0-6.0-2.22","","<div style=""font-size:60px;"">+</div>","null","","","","","","",""
"531.1700000311248","","image-keyboard-response","289","499114","0.0-6.0-0.23","","img/grey.png","32","trial","32","true","1,0","3:go_c","",""
"null","","html-keyboard-response","290","500123","0.0-6.0-1.23","","<img src=""img/grey-r.png"" border=""10"">","null","trial","32","","1,0","3:go_c","1",""
"null","","html-keyboard-response","291","501129","0.0-6.0-2.23","","<div style=""font-size:60px;"">+</div>","null","","","","","","",""
"1282.7599999727681","","image-keyboard-response","292","502413","0.0-6.0-0.24","","img/purple.png","32","trial","32","true","0.8,0.2","1:go_a","",""
"null","","html-keyboard-response","293","503415","0.0-6.0-1.24","","<img src=""img/purple-r.png"" border=""10"">","null","trial","32","","0.8,0.2","1:go_a","1",""
"null","","html-keyboard-response","294","504418","0.0-6.0-2.24","","<div style=""font-size:60px;"">+</div>","null","","","","","","",""
"1477.3649999988265","","image-keyboard-response","295","505897","0.0-6.0-0.25","","img/pink.png","32","trial","null","false","0.2,0.8","2:nogo_b","",""
"null","","html-keyboard-response","296","506906","0.0-6.0-1.25","","<img src=""img/pink-n.png"" border=""10"">","null","trial","null","","0.2,0.8","2:nogo_b","0",""
"null","","html-keyboard-response","297","507921","0.0-6.0-2.25","","<div style=""font-size:60px;"">+</div>","null","","","","","","",""
"582.8599999658763","","image-keyboard-response","298","508505","0.0-6.0-0.26","","img/grey.png","32","trial","32","true","1,0","3:go_c","",""
"null","","html-keyboard-response","299","509522","0.0-6.0-1.26","","<img src=""img/grey-r.png"" border=""10"">","null","trial","32","","1,0","3:go_c","1",""
"null","","html-keyboard-response","300","510539","0.0-6.0-2.26","","<div style=""font-size:60px;"">+</div>","null","","","","","","",""
"null","","image-keyboard-response","301","512041","0.0-6.0-0.27","","img/red.png","null","trial","null","true","0,1","4:nogo_d","",""
"null","","html-keyboard-response","302","513054","0.0-6.0-1.27","","<img src=""img/red-r.png"">","null","trial","null","","0,1","4:nogo_d","1",""
"null","","html-keyboard-response","303","514070","0.0-6.0-2.27","","<div style=""font-size:60px;"">+</div>","null","","","","","","",""
"1104.639999975916","","image-keyboard-response","304","515175","0.0-6.0-0.28","","img/grey.png","32","trial","32","true","1,0","3:go_c","",""
"null","","html-keyboard-response","305","516181","0.0-6.0-1.28","","<img src=""img/grey-r.png"" border=""10"">","null","trial","32","","1,0","3:go_c","1",""
"null","","html-keyboard-response","306","517184","0.0-6.0-2.28","","<div style=""font-size:60px;"">+</div>","null","","","","","","",""
"1198.900000017602","","image-keyboard-response","307","518383","0.0-6.0-0.29","","img/purple.png","32","trial","32","true","0.8,0.2","1:go_a","",""
"null","","html-keyboard-response","308","519386","0.0-6.0-1.29","","<img src=""img/purple-r.png"" border=""10"">","null","trial","32","","0.8,0.2","1:go_a","1",""
"null","","html-keyboard-response","309","520399","0.0-6.0-2.29","","<div style=""font-size:60px;"">+</div>","null","","","","","","",""
"null","","image-keyboard-response","310","521905","0.0-6.0-0.30","","img/pink.png","null","trial","null","true","0.2,0.8","2:nogo_b","",""
"null","","html-keyboard-response","311","522907","0.0-6.0-1.30","","<img src=""img/pink-r.png"">","null","trial","null","","0.2,0.8","2:nogo_b","1",""
"null","","html-keyboard-response","312","523913","0.0-6.0-2.30","","<div style=""font-size:60px;"">+</div>","null","","","","","","",""
"null","","image-keyboard-response","313","525423","0.0-6.0-0.31","","img/red.png","null","trial","null","true","0,1","4:nogo_d","",""
"null","","html-keyboard-response","314","526428","0.0-6.0-1.31","","<img src=""img/red-r.png"">","null","trial","null","","0,1","4:nogo_d","1",""
"null","","html-keyboard-response","315","527431","0.0-6.0-2.31","","<div style=""font-size:60px;"">+</div>","null","","","","","","",""
"null","","image-keyboard-response","316","528935","0.0-6.0-0.32","","img/red.png","null","trial","null","true","0,1","4:nogo_d","",""
"null","","html-keyboard-response","317","529941","0.0-6.0-1.32","","<img src=""img/red-r.png"">","null","trial","null","","0,1","4:nogo_d","1",""
"null","","html-keyboard-response","318","530958","0.0-6.0-2.32","","<div style=""font-size:60px;"">+</div>","null","","","","","","",""
"1006.2199999811128","","image-keyboard-response","319","531965","0.0-6.0-0.33","","img/purple.png","32","trial","32","true","0.8,0.2","1:go_a","",""
"null","","html-keyboard-response","320","532974","0.0-6.0-1.33","","<img src=""img/purple-r.png"" border=""10"">","null","trial","32","","0.8,0.2","1:go_a","1",""
"null","","html-keyboard-response","321","533982","0.0-6.0-2.33","","<div style=""font-size:60px;"">+</div>","null","","","","","","",""
"null","","image-keyboard-response","322","535498","0.0-6.0-0.34","","img/pink.png","null","trial","null","true","0.2,0.8","2:nogo_b","",""
"null","","html-keyboard-response","323","536500","0.0-6.0-1.34","","<img src=""img/pink-r.png"">","null","trial","null","","0.2,0.8","2:nogo_b","1",""
"null","","html-keyboard-response","324","537516","0.0-6.0-2.34","","<div style=""font-size:60px;"">+</div>","null","","","","","","",""
"560.1949999690987","","image-keyboard-response","325","538077","0.0-6.0-0.35","","img/grey.png","32","trial","32","true","1,0","3:go_c","",""
"null","","html-keyboard-response","326","539092","0.0-6.0-1.35","","<img src=""img/grey-r.png"" border=""10"">","null","trial","32","","1,0","3:go_c","1",""
"null","","html-keyboard-response","327","540094","0.0-6.0-2.35","","<div style=""font-size:60px;"">+</div>","null","","","","","","",""
"null","","image-keyboard-response","328","541609","0.0-6.0-0.36","","img/pink.png","null","trial","null","true","0.2,0.8","2:nogo_b","",""
"null","","html-keyboard-response","329","542624","0.0-6.0-1.36","","<img src=""img/pink-n.png"">","null","trial","null","","0.2,0.8","2:nogo_b","0",""
"null","","html-keyboard-response","330","543645","0.0-6.0-2.36","","<div style=""font-size:60px;"">+</div>","null","","","","","","",""
"null","","image-keyboard-response","331","545153","0.0-6.0-0.37","","img/red.png","null","trial","null","true","0,1","4:nogo_d","",""
"null","","html-keyboard-response","332","546169","0.0-6.0-1.37","","<img src=""img/red-r.png"">","null","trial","null","","0,1","4:nogo_d","1",""
"null","","html-keyboard-response","333","547171","0.0-6.0-2.37","","<div style=""font-size:60px;"">+</div>","null","","","","","","",""
"845.5399999511428","","image-keyboard-response","334","548018","0.0-6.0-0.38","","img/grey.png","32","trial","32","true","1,0","3:go_c","",""
"null","","html-keyboard-response","335","549035","0.0-6.0-1.38","","<img src=""img/grey-r.png"" border=""10"">","null","trial","32","","1,0","3:go_c","1",""
"null","","html-keyboard-response","336","550039","0.0-6.0-2.38","","<div style=""font-size:60px;"">+</div>","null","","","","","","",""
"1278.2700000097975","","image-keyboard-response","337","551310","0.0-6.0-0.39","","img/purple.png","32","trial","32","true","0.8,0.2","1:go_a","",""
"null","","html-keyboard-response","338","552318","0.0-6.0-1.39","","<img src=""img/purple-r.png"" border=""10"">","null","trial","32","","0.8,0.2","1:go_a","1",""
"null","","html-keyboard-response","339","553328","0.0-6.0-2.39","","<div style=""font-size:60px;"">+</div>","null","","","","","","",""
"1341.7899999767542","","image-keyboard-response","340","554670","0.0-6.0-0.40","","img/red.png","32","trial","null","false","0,1","4:nogo_d","",""
"null","","html-keyboard-response","341","555679","0.0-6.0-1.40","","<img src=""img/red-n.png"" border=""10"">","null","trial","null","","0,1","4:nogo_d","0",""
"null","","html-keyboard-response","342","556681","0.0-6.0-2.40","","<div style=""font-size:60px;"">+</div>","null","","","","","","",""
"434.23499999335036","","image-keyboard-response","343","557116","0.0-6.0-0.41","","img/purple.png","32","trial","32","true","0.8,0.2","1:go_a","",""
"null","","html-keyboard-response","344","558132","0.0-6.0-1.41","","<img src=""img/purple-r.png"" border=""10"">","null","trial","32","","0.8,0.2","1:go_a","1",""
"null","","html-keyboard-response","345","559145","0.0-6.0-2.41","","<div style=""font-size:60px;"">+</div>","null","","","","","","",""
"null","","image-keyboard-response","346","560654","0.0-6.0-0.42","","img/pink.png","null","trial","null","true","0.2,0.8","2:nogo_b","",""
"null","","html-keyboard-response","347","561660","0.0-6.0-1.42","","<img src=""img/pink-r.png"">","null","trial","null","","0.2,0.8","2:nogo_b","1",""
"null","","html-keyboard-response","348","562669","0.0-6.0-2.42","","<div style=""font-size:60px;"">+</div>","null","","","","","","",""
"446.4799999841489","","image-keyboard-response","349","563116","0.0-6.0-0.43","","img/grey.png","32","trial","32","true","1,0","3:go_c","",""
"null","","html-keyboard-response","350","564129","0.0-6.0-1.43","","<img src=""img/grey-r.png"" border=""10"">","null","trial","32","","1,0","3:go_c","1",""
"null","","html-keyboard-response","351","565133","0.0-6.0-2.43","","<div style=""font-size:60px;"">+</div>","null","","","","","","",""
"null","","image-keyboard-response","352","566636","0.0-6.0-0.44","","img/pink.png","null","trial","null","true","0.2,0.8","2:nogo_b","",""
"null","","html-keyboard-response","353","567650","0.0-6.0-1.44","","<img src=""img/pink-r.png"">","null","trial","null","","0.2,0.8","2:nogo_b","1",""
"null","","html-keyboard-response","354","568655","0.0-6.0-2.44","","<div style=""font-size:60px;"">+</div>","null","","","","","","",""
"946.059999987483","","image-keyboard-response","355","569601","0.0-6.0-0.45","","img/grey.png","32","trial","32","true","1,0","3:go_c","",""
"null","","html-keyboard-response","356","570616","0.0-6.0-1.45","","<img src=""img/grey-r.png"" border=""10"">","null","trial","32","","1,0","3:go_c","1",""
"null","","html-keyboard-response","357","571631","0.0-6.0-2.45","","<div style=""font-size:60px;"">+</div>","null","","","","","","",""
"1359.6000000252388","","image-keyboard-response","358","572991","0.0-6.0-0.46","","img/purple.png","32","trial","32","true","0.8,0.2","1:go_a","",""
"null","","html-keyboard-response","359","574005","0.0-6.0-1.46","","<img src=""img/purple-r.png"" border=""10"">","null","trial","32","","0.8,0.2","1:go_a","1",""
"null","","html-keyboard-response","360","575014","0.0-6.0-2.46","","<div style=""font-size:60px;"">+</div>","null","","","","","","",""
"null","","image-keyboard-response","361","576526","0.0-6.0-0.47","","img/red.png","null","trial","null","true","0,1","4:nogo_d","",""
"null","","html-keyboard-response","362","577538","0.0-6.0-1.47","","<img src=""img/red-r.png"">","null","trial","null","","0,1","4:nogo_d","1",""
"null","","html-keyboard-response","363","578545","0.0-6.0-2.47","","<div style=""font-size:60px;"">+</div>","null","","","","","","",""
"657.8250000020489","","image-keyboard-response","364","579204","0.0-6.0-0.48","","img/grey.png","32","trial","32","true","1,0","3:go_c","",""
"null","","html-keyboard-response","365","580207","0.0-6.0-1.48","","<img src=""img/grey-r.png"" border=""10"">","null","trial","32","","1,0","3:go_c","1",""
"null","","html-keyboard-response","366","581220","0.0-6.0-2.48","","<div style=""font-size:60px;"">+</div>","null","","","","","","",""
"null","","image-keyboard-response","367","582724","0.0-6.0-0.49","","img/red.png","null","trial","null","true","0,1","4:nogo_d","",""
"null","","html-keyboard-response","368","583731","0.0-6.0-1.49","","<img src=""img/red-r.png"">","null","trial","null","","0,1","4:nogo_d","1",""
"null","","html-keyboard-response","369","584743","0.0-6.0-2.49","","<div style=""font-size:60px;"">+</div>","null","","","","","","",""
"null","","image-keyboard-response","370","586256","0.0-6.0-0.50","","img/pink.png","null","trial","null","true","0.2,0.8","2:nogo_b","",""
"null","","html-keyboard-response","371","587259","0.0-6.0-1.50","","<img src=""img/pink-r.png"">","null","trial","null","","0.2,0.8","2:nogo_b","1",""
"null","","html-keyboard-response","372","588266","0.0-6.0-2.50","","<div style=""font-size:60px;"">+</div>","null","","","","","","",""
"1047.8449999936856","","image-keyboard-response","373","589315","0.0-6.0-0.51","","img/purple.png","32","trial","32","true","0.8,0.2","1:go_a","",""
"null","","html-keyboard-response","374","590332","0.0-6.0-1.51","","<img src=""img/purple-r.png"" border=""10"">","null","trial","32","","0.8,0.2","1:go_a","1",""
"null","","html-keyboard-response","375","591343","0.0-6.0-2.51","","<div style=""font-size:60px;"">+</div>","null","","","","","","",""
"null","","image-keyboard-response","376","592853","0.0-6.0-0.52","","img/red.png","null","trial","null","true","0,1","4:nogo_d","",""
"null","","html-keyboard-response","377","593855","0.0-6.0-1.52","","<img src=""img/red-r.png"">","null","trial","null","","0,1","4:nogo_d","1",""
"null","","html-keyboard-response","378","594871","0.0-6.0-2.52","","<div style=""font-size:60px;"">+</div>","null","","","","","","",""
"679.8200000193901","","image-keyboard-response","379","595552","0.0-6.0-0.53","","img/grey.png","32","trial","32","true","1,0","3:go_c","",""
"null","","html-keyboard-response","380","596559","0.0-6.0-1.53","","<img src=""img/grey-r.png"" border=""10"">","null","trial","32","","1,0","3:go_c","1",""
"null","","html-keyboard-response","381","597571","0.0-6.0-2.53","","<div style=""font-size:60px;"">+</div>","null","","","","","","",""
"null","","image-keyboard-response","382","599074","0.0-6.0-0.54","","img/pink.png","null","trial","null","true","0.2,0.8","2:nogo_b","",""
"null","","html-keyboard-response","383","600077","0.0-6.0-1.54","","<img src=""img/pink-r.png"">","null","trial","null","","0.2,0.8","2:nogo_b","1",""
"null","","html-keyboard-response","384","601082","0.0-6.0-2.54","","<div style=""font-size:60px;"">+</div>","null","","","","","","",""
"782.1600000024773","","image-keyboard-response","385","601865","0.0-6.0-0.55","","img/purple.png","32","trial","32","true","0.8,0.2","1:go_a","",""
"null","","html-keyboard-response","386","602877","0.0-6.0-1.55","","<img src=""img/purple-r.png"" border=""10"">","null","trial","32","","0.8,0.2","1:go_a","1",""
"null","","html-keyboard-response","387","603879","0.0-6.0-2.55","","<div style=""font-size:60px;"">+</div>","null","","","","","","",""
"null","","image-keyboard-response","388","605391","0.0-6.0-0.56","","img/pink.png","null","trial","null","true","0.2,0.8","2:nogo_b","",""
"null","","html-keyboard-response","389","606394","0.0-6.0-1.56","","<img src=""img/pink-r.png"">","null","trial","null","","0.2,0.8","2:nogo_b","1",""
"null","","html-keyboard-response","390","607399","0.0-6.0-2.56","","<div style=""font-size:60px;"">+</div>","null","","","","","","",""
"672.0949999871664","","image-keyboard-response","391","608072","0.0-6.0-0.57","","img/grey.png","32","trial","32","true","1,0","3:go_c","",""
"null","","html-keyboard-response","392","609079","0.0-6.0-1.57","","<img src=""img/grey-r.png"" border=""10"">","null","trial","32","","1,0","3:go_c","1",""
"null","","html-keyboard-response","393","610092","0.0-6.0-2.57","","<div style=""font-size:60px;"">+</div>","null","","","","","","",""
"1172.0450000138953","","image-keyboard-response","394","611266","0.0-6.0-0.58","","img/purple.png","32","trial","32","true","0.8,0.2","1:go_a","",""
"null","","html-keyboard-response","395","612287","0.0-6.0-1.58","","<img src=""img/purple-r.png"" border=""10"">","null","trial","32","","0.8,0.2","1:go_a","1",""
"null","","html-keyboard-response","396","613293","0.0-6.0-2.58","","<div style=""font-size:60px;"">+</div>","null","","","","","","",""
"null","","image-keyboard-response","397","614809","0.0-6.0-0.59","","img/red.png","null","trial","null","true","0,1","4:nogo_d","",""
"null","","html-keyboard-response","398","615812","0.0-6.0-1.59","","<img src=""img/red-r.png"">","null","trial","null","","0,1","4:nogo_d","1",""
"null","","html-keyboard-response","399","616814","0.0-6.0-2.59","","<div style=""font-size:60px;"">+</div>","null","","","","","","",""
"null","","image-keyboard-response","400","618330","0.0-6.0-0.60","","img/pink.png","null","trial","null","true","0.2,0.8","2:nogo_b","",""
"null","","html-keyboard-response","401","619339","0.0-6.0-1.60","","<img src=""img/pink-r.png"">","null","trial","null","","0.2,0.8","2:nogo_b","1",""
"null","","html-keyboard-response","402","620352","0.0-6.0-2.60","","<div style=""font-size:60px;"">+</div>","null","","","","","","",""
"539.0499999630265","","image-keyboard-response","403","620892","0.0-6.0-0.61","","img/grey.png","32","trial","32","true","1,0","3:go_c","",""
"null","","html-keyboard-response","404","621898","0.0-6.0-1.61","","<img src=""img/grey-r.png"" border=""10"">","null","trial","32","","1,0","3:go_c","1",""
"null","","html-keyboard-response","405","622909","0.0-6.0-2.61","","<div style=""font-size:60px;"">+</div>","null","","","","","","",""
"806.7900000023656","","image-keyboard-response","406","623717","0.0-6.0-0.62","","img/purple.png","32","trial","32","true","0.8,0.2","1:go_a","",""
"null","","html-keyboard-response","407","624736","0.0-6.0-1.62","","<img src=""img/purple-r.png"" border=""10"">","null","trial","32","","0.8,0.2","1:go_a","1",""
"null","","html-keyboard-response","408","625739","0.0-6.0-2.62","","<div style=""font-size:60px;"">+</div>","null","","","","","","",""
"null","","image-keyboard-response","409","627246","0.0-6.0-0.63","","img/red.png","null","trial","null","true","0,1","4:nogo_d","",""
"null","","html-keyboard-response","410","628254","0.0-6.0-1.63","","<img src=""img/red-r.png"">","null","trial","null","","0,1","4:nogo_d","1",""
"null","","html-keyboard-response","411","629258","0.0-6.0-2.63","","<div style=""font-size:60px;"">+</div>","null","","","","","","",""
"null","","image-keyboard-response","412","630763","0.0-6.0-0.64","","img/red.png","null","trial","null","true","0,1","4:nogo_d","",""
"null","","html-keyboard-response","413","631776","0.0-6.0-1.64","","<img src=""img/red-r.png"">","null","trial","null","","0,1","4:nogo_d","1",""
"null","","html-keyboard-response","414","632782","0.0-6.0-2.64","","<div style=""font-size:60px;"">+</div>","null","","","","","","",""
"649.5199999772012","","image-keyboard-response","415","633433","0.0-6.0-0.65","","img/grey.png","32","trial","32","true","1,0","3:go_c","",""
"null","","html-keyboard-response","416","634436","0.0-6.0-1.65","","<img src=""img/grey-r.png"" border=""10"">","null","trial","32","","1,0","3:go_c","1",""
"null","","html-keyboard-response","417","635448","0.0-6.0-2.65","","<div style=""font-size:60px;"">+</div>","null","","","","","","",""
"null","","image-keyboard-response","418","636964","0.0-6.0-0.66","","img/pink.png","null","trial","null","true","0.2,0.8","2:nogo_b","",""
"null","","html-keyboard-response","419","637968","0.0-6.0-1.66","","<img src=""img/pink-n.png"">","null","trial","null","","0.2,0.8","2:nogo_b","0",""
"null","","html-keyboard-response","420","638982","0.0-6.0-2.66","","<div style=""font-size:60px;"">+</div>","null","","","","","","",""
"594.1750000347383","","image-keyboard-response","421","639577","0.0-6.0-0.67","","img/purple.png","32","trial","32","true","0.8,0.2","1:go_a","",""
"null","","html-keyboard-response","422","640581","0.0-6.0-1.67","","<img src=""img/purple-n.png"" border=""10"">","null","trial","32","","0.8,0.2","1:go_a","0",""
"null","","html-keyboard-response","423","641588","0.0-6.0-2.67","","<div style=""font-size:60px;"">+</div>","null","","","","","","",""
"454.5049999724142","","image-keyboard-response","424","642044","0.0-6.0-0.68","","img/grey.png","32","trial","32","true","1,0","3:go_c","",""
"null","","html-keyboard-response","425","643050","0.0-6.0-1.68","","<img src=""img/grey-r.png"" border=""10"">","null","trial","32","","1,0","3:go_c","1",""
"null","","html-keyboard-response","426","644051","0.0-6.0-2.68","","<div style=""font-size:60px;"">+</div>","null","","","","","","",""
"null","","image-keyboard-response","427","645568","0.0-6.0-0.69","","img/pink.png","null","trial","null","true","0.2,0.8","2:nogo_b","",""
"null","","html-keyboard-response","428","646570","0.0-6.0-1.69","","<img src=""img/pink-n.png"">","null","trial","null","","0.2,0.8","2:nogo_b","0",""
"null","","html-keyboard-response","429","647577","0.0-6.0-2.69","","<div style=""font-size:60px;"">+</div>","null","","","","","","",""
"768.355000007432","","image-keyboard-response","430","648346","0.0-6.0-0.70","","img/purple.png","32","trial","32","true","0.8,0.2","1:go_a","",""
"null","","html-keyboard-response","431","649363","0.0-6.0-1.70","","<img src=""img/purple-r.png"" border=""10"">","null","trial","32","","0.8,0.2","1:go_a","1",""
"null","","html-keyboard-response","432","650375","0.0-6.0-2.70","","<div style=""font-size:60px;"">+</div>","null","","","","","","",""
"null","","image-keyboard-response","433","651877","0.0-6.0-0.71","","img/red.png","null","trial","null","true","0,1","4:nogo_d","",""
"null","","html-keyboard-response","434","652883","0.0-6.0-1.71","","<img src=""img/red-r.png"">","null","trial","null","","0,1","4:nogo_d","1",""
"null","","html-keyboard-response","435","653884","0.0-6.0-2.71","","<div style=""font-size:60px;"">+</div>","null","","","","","","",""
"485.3949999669567","","image-keyboard-response","436","654371","0.0-6.0-0.72","","img/purple.png","32","trial","32","true","0.8,0.2","1:go_a","",""
"null","","html-keyboard-response","437","655377","0.0-6.0-1.72","","<img src=""img/purple-n.png"" border=""10"">","null","trial","32","","0.8,0.2","1:go_a","0",""
"null","","html-keyboard-response","438","656391","0.0-6.0-2.72","","<div style=""font-size:60px;"">+</div>","null","","","","","","",""
"null","","image-keyboard-response","439","657893","0.0-6.0-0.73","","img/red.png","null","trial","null","true","0,1","4:nogo_d","",""
"null","","html-keyboard-response","440","658908","0.0-6.0-1.73","","<img src=""img/red-r.png"">","null","trial","null","","0,1","4:nogo_d","1",""
"null","","html-keyboard-response","441","659923","0.0-6.0-2.73","","<div style=""font-size:60px;"">+</div>","null","","","","","","",""
"null","","image-keyboard-response","442","661433","0.0-6.0-0.74","","img/pink.png","null","trial","null","true","0.2,0.8","2:nogo_b","",""
"null","","html-keyboard-response","443","662441","0.0-6.0-1.74","","<img src=""img/pink-n.png"">","null","trial","null","","0.2,0.8","2:nogo_b","0",""
"null","","html-keyboard-response","444","663444","0.0-6.0-2.74","","<div style=""font-size:60px;"">+</div>","null","","","","","","",""
"1020.4649999504909","","image-keyboard-response","445","664465","0.0-6.0-0.75","","img/grey.png","32","trial","32","true","1,0","3:go_c","",""
"null","","html-keyboard-response","446","665472","0.0-6.0-1.75","","<img src=""img/grey-r.png"" border=""10"">","null","trial","32","","1,0","3:go_c","1",""
"null","","html-keyboard-response","447","666486","0.0-6.0-2.75","","<div style=""font-size:60px;"">+</div>","null","","","","","","",""
"1119.280000042636","","image-keyboard-response","448","667606","0.0-6.0-0.76","","img/purple.png","32","trial","32","true","0.8,0.2","1:go_a","",""
"null","","html-keyboard-response","449","668611","0.0-6.0-1.76","","<img src=""img/purple-r.png"" border=""10"">","null","trial","32","","0.8,0.2","1:go_a","1",""
"null","","html-keyboard-response","450","669621","0.0-6.0-2.76","","<div style=""font-size:60px;"">+</div>","null","","","","","","",""
"816.2149999989197","","image-keyboard-response","451","670439","0.0-6.0-0.77","","img/grey.png","32","trial","32","true","1,0","3:go_c","",""
"null","","html-keyboard-response","452","671448","0.0-6.0-1.77","","<img src=""img/grey-r.png"" border=""10"">","null","trial","32","","1,0","3:go_c","1",""
"null","","html-keyboard-response","453","672457","0.0-6.0-2.77","","<div style=""font-size:60px;"">+</div>","null","","","","","","",""
"null","","image-keyboard-response","454","673960","0.0-6.0-0.78","","img/red.png","null","trial","null","true","0,1","4:nogo_d","",""
"null","","html-keyboard-response","455","674975","0.0-6.0-1.78","","<img src=""img/red-r.png"">","null","trial","null","","0,1","4:nogo_d","1",""
"null","","html-keyboard-response","456","675991","0.0-6.0-2.78","","<div style=""font-size:60px;"">+</div>","null","","","","","","",""
"null","","image-keyboard-response","457","677506","0.0-6.0-0.79","","img/pink.png","null","trial","null","true","0.2,0.8","2:nogo_b","",""
"null","","html-keyboard-response","458","678512","0.0-6.0-1.79","","<img src=""img/pink-n.png"">","null","trial","null","","0.2,0.8","2:nogo_b","0",""
"null","","html-keyboard-response","459","679518","0.0-6.0-2.79","","<div style=""font-size:60px;"">+</div>","null","","","","","","",""
"624.3099999846891","","image-keyboard-response","460","680144","0.0-6.0-0.80","","img/grey.png","32","trial","32","true","1,0","3:go_c","",""
"null","","html-keyboard-response","461","681147","0.0-6.0-1.80","","<img src=""img/grey-r.png"" border=""10"">","null","trial","32","","1,0","3:go_c","1",""
"null","","html-keyboard-response","462","682160","0.0-6.0-2.80","","<div style=""font-size:60px;"">+</div>","null","","","","","","",""
"null","","image-keyboard-response","463","683675","0.0-6.0-0.81","","img/red.png","null","trial","null","true","0,1","4:nogo_d","",""
"null","","html-keyboard-response","464","684683","0.0-6.0-1.81","","<img src=""img/red-r.png"">","null","trial","null","","0,1","4:nogo_d","1",""
"null","","html-keyboard-response","465","685693","0.0-6.0-2.81","","<div style=""font-size:60px;"">+</div>","null","","","","","","",""
"null","","image-keyboard-response","466","687196","0.0-6.0-0.82","","img/pink.png","null","trial","null","true","0.2,0.8","2:nogo_b","",""
"null","","html-keyboard-response","467","688203","0.0-6.0-1.82","","<img src=""img/pink-r.png"">","null","trial","null","","0.2,0.8","2:nogo_b","1",""
"null","","html-keyboard-response","468","689213","0.0-6.0-2.82","","<div style=""font-size:60px;"">+</div>","null","","","","","","",""
"598.1700000120327","","image-keyboard-response","469","689812","0.0-6.0-0.83","","img/purple.png","32","trial","32","true","0.8,0.2","1:go_a","",""
"null","","html-keyboard-response","470","690822","0.0-6.0-1.83","","<img src=""img/purple-r.png"" border=""10"">","null","trial","32","","0.8,0.2","1:go_a","1",""
"null","","html-keyboard-response","471","691834","0.0-6.0-2.83","","<div style=""font-size:60px;"">+</div>","null","","","","","","",""
"null","","image-keyboard-response","472","693341","0.0-6.0-0.84","","img/pink.png","null","trial","null","true","0.2,0.8","2:nogo_b","",""
"null","","html-keyboard-response","473","694343","0.0-6.0-1.84","","<img src=""img/pink-r.png"">","null","trial","null","","0.2,0.8","2:nogo_b","1",""
"null","","html-keyboard-response","474","695357","0.0-6.0-2.84","","<div style=""font-size:60px;"">+</div>","null","","","","","","",""
"890.0450000073761","","image-keyboard-response","475","696248","0.0-6.0-0.85","","img/grey.png","32","trial","32","true","1,0","3:go_c","",""
"null","","html-keyboard-response","476","697262","0.0-6.0-1.85","","<img src=""img/grey-r.png"" border=""10"">","null","trial","32","","1,0","3:go_c","1",""
"null","","html-keyboard-response","477","698268","0.0-6.0-2.85","","<div style=""font-size:60px;"">+</div>","null","","","","","","",""
"739.1300000017509","","image-keyboard-response","478","699008","0.0-6.0-0.86","","img/purple.png","32","trial","32","true","0.8,0.2","1:go_a","",""
"null","","html-keyboard-response","479","700014","0.0-6.0-1.86","","<img src=""img/purple-n.png"" border=""10"">","null","trial","32","","0.8,0.2","1:go_a","0",""
"null","","html-keyboard-response","480","701020","0.0-6.0-2.86","","<div style=""font-size:60px;"">+</div>","null","","","","","","",""
"null","","image-keyboard-response","481","702530","0.0-6.0-0.87","","img/red.png","null","trial","null","true","0,1","4:nogo_d","",""
"null","","html-keyboard-response","482","703544","0.0-6.0-1.87","","<img src=""img/red-r.png"">","null","trial","null","","0,1","4:nogo_d","1",""
"null","","html-keyboard-response","483","704546","0.0-6.0-2.87","","<div style=""font-size:60px;"">+</div>","null","","","","","","",""
"null","","image-keyboard-response","484","706061","0.0-6.0-0.88","","img/pink.png","null","trial","null","true","0.2,0.8","2:nogo_b","",""
"null","","html-keyboard-response","485","707064","0.0-6.0-1.88","","<img src=""img/pink-r.png"">","null","trial","null","","0.2,0.8","2:nogo_b","1",""
"null","","html-keyboard-response","486","708070","0.0-6.0-2.88","","<div style=""font-size:60px;"">+</div>","null","","","","","","",""
"941.7350000003353","","image-keyboard-response","487","709012","0.0-6.0-0.89","","img/purple.png","32","trial","32","true","0.8,0.2","1:go_a","",""
"null","","html-keyboard-response","488","710015","0.0-6.0-1.89","","<img src=""img/purple-r.png"" border=""10"">","null","trial","32","","0.8,0.2","1:go_a","1",""
"null","","html-keyboard-response","489","711017","0.0-6.0-2.89","","<div style=""font-size:60px;"">+</div>","null","","","","","","",""
"null","","image-keyboard-response","490","712529","0.0-6.0-0.90","","img/red.png","null","trial","null","true","0,1","4:nogo_d","",""
"null","","html-keyboard-response","491","713533","0.0-6.0-1.90","","<img src=""img/red-r.png"">","null","trial","null","","0,1","4:nogo_d","1",""
"null","","html-keyboard-response","492","714548","0.0-6.0-2.90","","<div style=""font-size:60px;"">+</div>","null","","","","","","",""
"708.4350000368431","","image-keyboard-response","493","715258","0.0-6.0-0.91","","img/grey.png","32","trial","32","true","1,0","3:go_c","",""
"null","","html-keyboard-response","494","716272","0.0-6.0-1.91","","<img src=""img/grey-r.png"" border=""10"">","null","trial","32","","1,0","3:go_c","1",""
"null","","html-keyboard-response","495","717278","0.0-6.0-2.91","","<div style=""font-size:60px;"">+</div>","null","","","","","","",""
"939.1449999529868","","image-keyboard-response","496","718218","0.0-6.0-0.92","","img/purple.png","32","trial","32","true","0.8,0.2","1:go_a","",""
"null","","html-keyboard-response","497","719225","0.0-6.0-1.92","","<img src=""img/purple-r.png"" border=""10"">","null","trial","32","","0.8,0.2","1:go_a","1",""
"null","","html-keyboard-response","498","720231","0.0-6.0-2.92","","<div style=""font-size:60px;"">+</div>","null","","","","","","",""
"1032.96500002034","","image-keyboard-response","499","721265","0.0-6.0-0.93","","img/grey.png","32","trial","32","true","1,0","3:go_c","",""
"null","","html-keyboard-response","500","722271","0.0-6.0-1.93","","<img src=""img/grey-r.png"" border=""10"">","null","trial","32","","1,0","3:go_c","1",""
"null","","html-keyboard-response","501","723276","0.0-6.0-2.93","","<div style=""font-size:60px;"">+</div>","null","","","","","","",""
"null","","image-keyboard-response","502","724785","0.0-6.0-0.94","","img/red.png","null","trial","null","true","0,1","4:nogo_d","",""
"null","","html-keyboard-response","503","725788","0.0-6.0-1.94","","<img src=""img/red-r.png"">","null","trial","null","","0,1","4:nogo_d","1",""
"null","","html-keyboard-response","504","726801","0.0-6.0-2.94","","<div style=""font-size:60px;"">+</div>","null","","","","","","",""
"null","","image-keyboard-response","505","728311","0.0-6.0-0.95","","img/pink.png","null","trial","null","true","0.2,0.8","2:nogo_b","",""
"null","","html-keyboard-response","506","729321","0.0-6.0-1.95","","<img src=""img/pink-r.png"">","null","trial","null","","0.2,0.8","2:nogo_b","1",""
"null","","html-keyboard-response","507","730330","0.0-6.0-2.95","","<div style=""font-size:60px;"">+</div>","null","","","","","","",""
"724.3499999749474","","image-keyboard-response","508","731056","0.0-6.0-0.96","","img/grey.png","32","trial","32","true","1,0","3:go_c","",""
"null","","html-keyboard-response","509","732059","0.0-6.0-1.96","","<img src=""img/grey-r.png"" border=""10"">","null","trial","32","","1,0","3:go_c","1",""
"null","","html-keyboard-response","510","733075","0.0-6.0-2.96","","<div style=""font-size:60px;"">+</div>","null","","","","","","",""
"986.4299999899231","","image-keyboard-response","511","734063","0.0-6.0-0.97","","img/purple.png","32","trial","32","true","0.8,0.2","1:go_a","",""
"null","","html-keyboard-response","512","735067","0.0-6.0-1.97","","<img src=""img/purple-r.png"" border=""10"">","null","trial","32","","0.8,0.2","1:go_a","1",""
"null","","html-keyboard-response","513","736070","0.0-6.0-2.97","","<div style=""font-size:60px;"">+</div>","null","","","","","","",""
"null","","image-keyboard-response","514","737576","0.0-6.0-0.98","","img/red.png","null","trial","null","true","0,1","4:nogo_d","",""
"null","","html-keyboard-response","515","738583","0.0-6.0-1.98","","<img src=""img/red-r.png"">","null","trial","null","","0,1","4:nogo_d","1",""
"null","","html-keyboard-response","516","739591","0.0-6.0-2.98","","<div style=""font-size:60px;"">+</div>","null","","","","","","",""
"null","","image-keyboard-response","517","741101","0.0-6.0-0.99","","img/pink.png","null","trial","null","true","0.2,0.8","2:nogo_b","",""
"null","","html-keyboard-response","518","742111","0.0-6.0-1.99","","<img src=""img/pink-r.png"">","null","trial","null","","0.2,0.8","2:nogo_b","1",""
"null","","html-keyboard-response","519","743125","0.0-6.0-2.99","","<div style=""font-size:60px;"">+</div>","null","","","","","","",""
"null","","image-keyboard-response","520","744632","0.0-6.0-0.100","","img/red.png","null","trial","null","true","0,1","4:nogo_d","",""
"null","","html-keyboard-response","521","745645","0.0-6.0-1.100","","<img src=""img/red-r.png"">","null","trial","null","","0,1","4:nogo_d","1",""
"null","","html-keyboard-response","522","746660","0.0-6.0-2.100","","<div style=""font-size:60px;"">+</div>","null","","","","","","",""
"686.3950000260957","","image-keyboard-response","523","747347","0.0-6.0-0.101","","img/grey.png","32","trial","32","true","1,0","3:go_c","",""
"null","","html-keyboard-response","524","748352","0.0-6.0-1.101","","<img src=""img/grey-r.png"" border=""10"">","null","trial","32","","1,0","3:go_c","1",""
"null","","html-keyboard-response","525","749365","0.0-6.0-2.101","","<div style=""font-size:60px;"">+</div>","null","","","","","","",""
"null","","image-keyboard-response","526","750873","0.0-6.0-0.102","","img/pink.png","null","trial","null","true","0.2,0.8","2:nogo_b","",""
"null","","html-keyboard-response","527","751876","0.0-6.0-1.102","","<img src=""img/pink-r.png"">","null","trial","null","","0.2,0.8","2:nogo_b","1",""
"null","","html-keyboard-response","528","752885","0.0-6.0-2.102","","<div style=""font-size:60px;"">+</div>","null","","","","","","",""
"1109.249999979511","","image-keyboard-response","529","753995","0.0-6.0-0.103","","img/purple.png","32","trial","32","true","0.8,0.2","1:go_a","",""
"null","","html-keyboard-response","530","755006","0.0-6.0-1.103","","<img src=""img/purple-r.png"" border=""10"">","null","trial","32","","0.8,0.2","1:go_a","1",""
"null","","html-keyboard-response","531","756015","0.0-6.0-2.103","","<div style=""font-size:60px;"">+</div>","null","","","","","","",""
"null","","image-keyboard-response","532","757519","0.0-6.0-0.104","","img/pink.png","null","trial","null","true","0.2,0.8","2:nogo_b","",""
"null","","html-keyboard-response","533","758523","0.0-6.0-1.104","","<img src=""img/pink-r.png"">","null","trial","null","","0.2,0.8","2:nogo_b","1",""
"null","","html-keyboard-response","534","759529","0.0-6.0-2.104","","<div style=""font-size:60px;"">+</div>","null","","","","","","",""
"869.6500000078231","","image-keyboard-response","535","760400","0.0-6.0-0.105","","img/grey.png","32","trial","32","true","1,0","3:go_c","",""
"null","","html-keyboard-response","536","761407","0.0-6.0-1.105","","<img src=""img/grey-r.png"" border=""10"">","null","trial","32","","1,0","3:go_c","1",""
"null","","html-keyboard-response","537","762423","0.0-6.0-2.105","","<div style=""font-size:60px;"">+</div>","null","","","","","","",""
"1001.4300000038929","","image-keyboard-response","538","763425","0.0-6.0-0.106","","img/purple.png","32","trial","32","true","0.8,0.2","1:go_a","",""
"null","","html-keyboard-response","539","764434","0.0-6.0-1.106","","<img src=""img/purple-n.png"" border=""10"">","null","trial","32","","0.8,0.2","1:go_a","0",""
"null","","html-keyboard-response","540","765442","0.0-6.0-2.106","","<div style=""font-size:60px;"">+</div>","null","","","","","","",""
"null","","image-keyboard-response","541","766949","0.0-6.0-0.107","","img/red.png","null","trial","null","true","0,1","4:nogo_d","",""
"null","","html-keyboard-response","542","767956","0.0-6.0-1.107","","<img src=""img/red-r.png"">","null","trial","null","","0,1","4:nogo_d","1",""
"null","","html-keyboard-response","543","768968","0.0-6.0-2.107","","<div style=""font-size:60px;"">+</div>","null","","","","","","",""
"null","","image-keyboard-response","544","770481","0.0-6.0-0.108","","img/pink.png","null","trial","null","true","0.2,0.8","2:nogo_b","",""
"null","","html-keyboard-response","545","771494","0.0-6.0-1.108","","<img src=""img/pink-r.png"">","null","trial","null","","0.2,0.8","2:nogo_b","1",""
"null","","html-keyboard-response","546","772497","0.0-6.0-2.108","","<div style=""font-size:60px;"">+</div>","null","","","","","","",""
"1168.4600000153296","","image-keyboard-response","547","773667","0.0-6.0-0.109","","img/purple.png","32","trial","32","true","0.8,0.2","1:go_a","",""
"null","","html-keyboard-response","548","774669","0.0-6.0-1.109","","<img src=""img/purple-r.png"" border=""10"">","null","trial","32","","0.8,0.2","1:go_a","1",""
"null","","html-keyboard-response","549","775686","0.0-6.0-2.109","","<div style=""font-size:60px;"">+</div>","null","","","","","","",""
"1443.5199999716133","","image-keyboard-response","550","777130","0.0-6.0-0.110","","img/red.png","32","trial","null","false","0,1","4:nogo_d","",""
"null","","html-keyboard-response","551","778138","0.0-6.0-1.110","","<img src=""img/red-n.png"" border=""10"">","null","trial","null","","0,1","4:nogo_d","0",""
"null","","html-keyboard-response","552","779153","0.0-6.0-2.110","","<div style=""font-size:60px;"">+</div>","null","","","","","","",""
"611.2399999983609","","image-keyboard-response","553","779766","0.0-6.0-0.111","","img/grey.png","32","trial","32","true","1,0","3:go_c","",""
"null","","html-keyboard-response","554","780772","0.0-6.0-1.111","","<img src=""img/grey-r.png"" border=""10"">","null","trial","32","","1,0","3:go_c","1",""
"null","","html-keyboard-response","555","781780","0.0-6.0-2.111","","<div style=""font-size:60px;"">+</div>","null","","","","","","",""
"822.1600000397302","","image-keyboard-response","556","782603","0.0-6.0-0.112","","img/purple.png","32","trial","32","true","0.8,0.2","1:go_a","",""
"null","","html-keyboard-response","557","783618","0.0-6.0-1.112","","<img src=""img/purple-r.png"" border=""10"">","null","trial","32","","0.8,0.2","1:go_a","1",""
"null","","html-keyboard-response","558","784626","0.0-6.0-2.112","","<div style=""font-size:60px;"">+</div>","null","","","","","","",""
"null","","image-keyboard-response","559","786130","0.0-6.0-0.113","","img/red.png","null","trial","null","true","0,1","4:nogo_d","",""
"null","","html-keyboard-response","560","787138","0.0-6.0-1.113","","<img src=""img/red-r.png"">","null","trial","null","","0,1","4:nogo_d","1",""
"null","","html-keyboard-response","561","788141","0.0-6.0-2.113","","<div style=""font-size:60px;"">+</div>","null","","","","","","",""
"877.0099999965169","","image-keyboard-response","562","789019","0.0-6.0-0.114","","img/grey.png","32","trial","32","true","1,0","3:go_c","",""
"null","","html-keyboard-response","563","790026","0.0-6.0-1.114","","<img src=""img/grey-r.png"" border=""10"">","null","trial","32","","1,0","3:go_c","1",""
"null","","html-keyboard-response","564","791035","0.0-6.0-2.114","","<div style=""font-size:60px;"">+</div>","null","","","","","","",""
"null","","image-keyboard-response","565","792546","0.0-6.0-0.115","","img/pink.png","null","trial","null","true","0.2,0.8","2:nogo_b","",""
"null","","html-keyboard-response","566","793553","0.0-6.0-1.115","","<img src=""img/pink-n.png"">","null","trial","null","","0.2,0.8","2:nogo_b","0",""
"null","","html-keyboard-response","567","794557","0.0-6.0-2.115","","<div style=""font-size:60px;"">+</div>","null","","","","","","",""
"null","","image-keyboard-response","568","796062","0.0-6.0-0.116","","img/red.png","null","trial","null","true","0,1","4:nogo_d","",""
"null","","html-keyboard-response","569","797077","0.0-6.0-1.116","","<img src=""img/red-r.png"">","null","trial","null","","0,1","4:nogo_d","1",""
"null","","html-keyboard-response","570","798090","0.0-6.0-2.116","","<div style=""font-size:60px;"">+</div>","null","","","","","","",""
"834.7799999755807","","image-keyboard-response","571","798926","0.0-6.0-0.117","","img/purple.png","32","trial","32","true","0.8,0.2","1:go_a","",""
"null","","html-keyboard-response","572","799931","0.0-6.0-1.117","","<img src=""img/purple-r.png"" border=""10"">","null","trial","32","","0.8,0.2","1:go_a","1",""
"null","","html-keyboard-response","573","800940","0.0-6.0-2.117","","<div style=""font-size:60px;"">+</div>","null","","","","","","",""
"697.7549999719486","","image-keyboard-response","574","801640","0.0-6.0-0.118","","img/grey.png","32","trial","32","true","1,0","3:go_c","",""
"null","","html-keyboard-response","575","802653","0.0-6.0-1.118","","<img src=""img/grey-r.png"" border=""10"">","null","trial","32","","1,0","3:go_c","1",""
"null","","html-keyboard-response","576","803668","0.0-6.0-2.118","","<div style=""font-size:60px;"">+</div>","null","","","","","","",""
"null","","image-keyboard-response","577","805177","0.0-6.0-0.119","","img/pink.png","null","trial","null","true","0.2,0.8","2:nogo_b","",""
"null","","html-keyboard-response","578","806185","0.0-6.0-1.119","","<img src=""img/pink-r.png"">","null","trial","null","","0.2,0.8","2:nogo_b","1",""
"null","","html-keyboard-response","579","807198","0.0-6.0-2.119","","<div style=""font-size:60px;"">+</div>","null","","","","","","",""
"59644.33000003919","","instructions","580","866841","0.0-7.0","[{""page_index"":0,""viewing_time"":59643.90500000445}]","","","","","","","","",""
"1409.6649999846704","","image-keyboard-response","581","868253","0.0-8.0-0.0","","img/red.png","32","trial","null","false","0.2,0.8","2:nogo_b","",""
"null","","html-keyboard-response","582","869265","0.0-8.0-1.0","","<img src=""img/red-n.png"" border=""10"">","null","trial","null","","0.2,0.8","2:nogo_b","0",""
"null","","html-keyboard-response","583","870275","0.0-8.0-2.0","","<div style=""font-size:60px;"">+</div>","null","","","","","","",""
"1110.6249999720603","","image-keyboard-response","584","871386","0.0-8.0-0.1","","img/blue.png","32","trial","null","false","0.4,0.6","4:nogo_d","",""
"null","","html-keyboard-response","585","872402","0.0-8.0-1.1","","<img src=""img/blue-r.png"" border=""10"">","null","trial","null","","0.4,0.6","4:nogo_d","1",""
"null","","html-keyboard-response","586","873416","0.0-8.0-2.1","","<div style=""font-size:60px;"">+</div>","null","","","","","","",""
"1259.539999999106","","image-keyboard-response","587","874677","0.0-8.0-0.2","","img/grey.png","32","trial","32","true","0.6,0.4","3:go_c","",""
"null","","html-keyboard-response","588","875687","0.0-8.0-1.2","","<img src=""img/grey-n.png"" border=""10"">","null","trial","32","","0.6,0.4","3:go_c","0",""
"null","","html-keyboard-response","589","876693","0.0-8.0-2.2","","<div style=""font-size:60px;"">+</div>","null","","","","","","",""
"1021.0749999969266","","image-keyboard-response","590","877716","0.0-8.0-0.3","","img/orange.png","32","trial","32","true","0.8,0.2","1:go_a","",""
"null","","html-keyboard-response","591","878728","0.0-8.0-1.3","","<img src=""img/orange-r.png"" border=""10"">","null","trial","32","","0.8,0.2","1:go_a","1",""
"null","","html-keyboard-response","592","879730","0.0-8.0-2.3","","<div style=""font-size:60px;"">+</div>","null","","","","","","",""
"1068.8649999792688","","image-keyboard-response","593","880799","0.0-8.0-0.4","","img/orange.png","32","trial","32","true","0.8,0.2","1:go_a","",""
"null","","html-keyboard-response","594","881801","0.0-8.0-1.4","","<img src=""img/orange-r.png"" border=""10"">","null","trial","32","","0.8,0.2","1:go_a","1",""
"null","","html-keyboard-response","595","882816","0.0-8.0-2.4","","<div style=""font-size:60px;"">+</div>","null","","","","","","",""
"1213.7299999594688","","image-keyboard-response","596","884031","0.0-8.0-0.5","","img/red.png","32","trial","null","false","0.2,0.8","2:nogo_b","",""
"null","","html-keyboard-response","597","885033","0.0-8.0-1.5","","<img src=""img/red-n.png"" border=""10"">","null","trial","null","","0.2,0.8","2:nogo_b","0",""
"null","","html-keyboard-response","598","886043","0.0-8.0-2.5","","<div style=""font-size:60px;"">+</div>","null","","","","","","",""
"971.1450000177138","","image-keyboard-response","599","887016","0.0-8.0-0.6","","img/blue.png","32","trial","null","false","0.4,0.6","4:nogo_d","",""
"null","","html-keyboard-response","600","888029","0.0-8.0-1.6","","<img src=""img/blue-r.png"" border=""10"">","null","trial","null","","0.4,0.6","4:nogo_d","1",""
"null","","html-keyboard-response","601","889039","0.0-8.0-2.6","","<div style=""font-size:60px;"">+</div>","null","","","","","","",""
"1133.4050000295974","","image-keyboard-response","602","890173","0.0-8.0-0.7","","img/grey.png","32","trial","32","true","0.6,0.4","3:go_c","",""
"null","","html-keyboard-response","603","891184","0.0-8.0-1.7","","<img src=""img/grey-r.png"" border=""10"">","null","trial","32","","0.6,0.4","3:go_c","1",""
"null","","html-keyboard-response","604","892191","0.0-8.0-2.7","","<div style=""font-size:60px;"">+</div>","null","","","","","","",""
"989.4300000160001","","image-keyboard-response","605","893181","0.0-8.0-0.8","","img/orange.png","32","trial","32","true","0.8,0.2","1:go_a","",""
"null","","html-keyboard-response","606","894188","0.0-8.0-1.8","","<img src=""img/orange-r.png"" border=""10"">","null","trial","32","","0.8,0.2","1:go_a","1",""
"null","","html-keyboard-response","607","895196","0.0-8.0-2.8","","<div style=""font-size:60px;"">+</div>","null","","","","","","",""
"1151.9800000241958","","image-keyboard-response","608","896350","0.0-8.0-0.9","","img/grey.png","32","trial","32","true","0.6,0.4","3:go_c","",""
"null","","html-keyboard-response","609","897358","0.0-8.0-1.9","","<img src=""img/grey-r.png"" border=""10"">","null","trial","32","","0.6,0.4","3:go_c","1",""
"null","","html-keyboard-response","610","898362","0.0-8.0-2.9","","<div style=""font-size:60px;"">+</div>","null","","","","","","",""
"null","","image-keyboard-response","611","899873","0.0-8.0-0.10","","img/red.png","null","trial","null","true","0.2,0.8","2:nogo_b","",""
"null","","html-keyboard-response","612","900876","0.0-8.0-1.10","","<img src=""img/red-n.png"">","null","trial","null","","0.2,0.8","2:nogo_b","0",""
"null","","html-keyboard-response","613","901884","0.0-8.0-2.10","","<div style=""font-size:60px;"">+</div>","null","","","","","","",""
"1037.274999951478","","image-keyboard-response","614","902923","0.0-8.0-0.11","","img/blue.png","32","trial","null","false","0.4,0.6","4:nogo_d","",""
"null","","html-keyboard-response","615","903924","0.0-8.0-1.11","","<img src=""img/blue-r.png"" border=""10"">","null","trial","null","","0.4,0.6","4:nogo_d","1",""
"null","","html-keyboard-response","616","904927","0.0-8.0-2.11","","<div style=""font-size:60px;"">+</div>","null","","","","","","",""
"900.1350000035018","","image-keyboard-response","617","905828","0.0-8.0-0.12","","img/blue.png","32","trial","null","false","0.4,0.6","4:nogo_d","",""
"null","","html-keyboard-response","618","906832","0.0-8.0-1.12","","<img src=""img/blue-r.png"" border=""10"">","null","trial","null","","0.4,0.6","4:nogo_d","1",""
"null","","html-keyboard-response","619","907841","0.0-8.0-2.12","","<div style=""font-size:60px;"">+</div>","null","","","","","","",""
"1141.4099999819882","","image-keyboard-response","620","908983","0.0-8.0-0.13","","img/grey.png","32","trial","32","true","0.6,0.4","3:go_c","",""
"null","","html-keyboard-response","621","909996","0.0-8.0-1.13","","<img src=""img/grey-r.png"" border=""10"">","null","trial","32","","0.6,0.4","3:go_c","1",""
"null","","html-keyboard-response","622","911005","0.0-8.0-2.13","","<div style=""font-size:60px;"">+</div>","null","","","","","","",""
"null","","image-keyboard-response","623","912507","0.0-8.0-0.14","","img/red.png","null","trial","null","true","0.2,0.8","2:nogo_b","",""
"null","","html-keyboard-response","624","913523","0.0-8.0-1.14","","<img src=""img/red-r.png"">","null","trial","null","","0.2,0.8","2:nogo_b","1",""
"null","","html-keyboard-response","625","914529","0.0-8.0-2.14","","<div style=""font-size:60px;"">+</div>","null","","","","","","",""
"1262.4250000226311","","image-keyboard-response","626","915793","0.0-8.0-0.15","","img/orange.png","32","trial","32","true","0.8,0.2","1:go_a","",""
"null","","html-keyboard-response","627","916798","0.0-8.0-1.15","","<img src=""img/orange-r.png"" border=""10"">","null","trial","32","","0.8,0.2","1:go_a","1",""
"null","","html-keyboard-response","628","917804","0.0-8.0-2.15","","<div style=""font-size:60px;"">+</div>","null","","","","","","",""
"1190.5599999590777","","image-keyboard-response","629","918996","0.0-8.0-0.16","","img/orange.png","32","trial","32","true","0.8,0.2","1:go_a","",""
"null","","html-keyboard-response","630","920011","0.0-8.0-1.16","","<img src=""img/orange-r.png"" border=""10"">","null","trial","32","","0.8,0.2","1:go_a","1",""
"null","","html-keyboard-response","631","921015","0.0-8.0-2.16","","<div style=""font-size:60px;"">+</div>","null","","","","","","",""
"1017.4850000184961","","image-keyboard-response","632","922034","0.0-8.0-0.17","","img/blue.png","32","trial","null","false","0.4,0.6","4:nogo_d","",""
"null","","html-keyboard-response","633","923042","0.0-8.0-1.17","","<img src=""img/blue-n.png"" border=""10"">","null","trial","null","","0.4,0.6","4:nogo_d","0",""
"null","","html-keyboard-response","634","924056","0.0-8.0-2.17","","<div style=""font-size:60px;"">+</div>","null","","","","","","",""
"null","","image-keyboard-response","635","925564","0.0-8.0-0.18","","img/red.png","null","trial","null","true","0.2,0.8","2:nogo_b","",""
"null","","html-keyboard-response","636","926572","0.0-8.0-1.18","","<img src=""img/red-r.png"">","null","trial","null","","0.2,0.8","2:nogo_b","1",""
"null","","html-keyboard-response","637","927587","0.0-8.0-2.18","","<div style=""font-size:60px;"">+</div>","null","","","","","","",""
"1093.6000000219792","","image-keyboard-response","638","928682","0.0-8.0-0.19","","img/grey.png","32","trial","32","true","0.6,0.4","3:go_c","",""
"null","","html-keyboard-response","639","929685","0.0-8.0-1.19","","<img src=""img/grey-r.png"" border=""10"">","null","trial","32","","0.6,0.4","3:go_c","1",""
"null","","html-keyboard-response","640","930691","0.0-8.0-2.19","","<div style=""font-size:60px;"">+</div>","null","","","","","","",""
"1248.0149999610148","","image-keyboard-response","641","931940","0.0-8.0-0.20","","img/grey.png","32","trial","32","true","0.6,0.4","3:go_c","",""
"null","","html-keyboard-response","642","932953","0.0-8.0-1.20","","<img src=""img/grey-r.png"" border=""10"">","null","trial","32","","0.6,0.4","3:go_c","1",""
"null","","html-keyboard-response","643","933961","0.0-8.0-2.20","","<div style=""font-size:60px;"">+</div>","null","","","","","","",""
"1067.029999976512","","image-keyboard-response","644","935029","0.0-8.0-0.21","","img/orange.png","32","trial","32","true","0.8,0.2","1:go_a","",""
"null","","html-keyboard-response","645","936037","0.0-8.0-1.21","","<img src=""img/orange-n.png"" border=""10"">","null","trial","32","","0.8,0.2","1:go_a","0",""
"null","","html-keyboard-response","646","937052","0.0-8.0-2.21","","<div style=""font-size:60px;"">+</div>","null","","","","","","",""
"839.7400000249036","","image-keyboard-response","647","937893","0.0-8.0-0.22","","img/blue.png","32","trial","null","false","0.4,0.6","4:nogo_d","",""
"null","","html-keyboard-response","648","938905","0.0-8.0-1.22","","<img src=""img/blue-r.png"" border=""10"">","null","trial","null","","0.4,0.6","4:nogo_d","1",""
"null","","html-keyboard-response","649","939920","0.0-8.0-2.22","","<div style=""font-size:60px;"">+</div>","null","","","","","","",""
"null","","image-keyboard-response","650","941436","0.0-8.0-0.23","","img/red.png","null","trial","null","true","0.2,0.8","2:nogo_b","",""
"null","","html-keyboard-response","651","942445","0.0-8.0-1.23","","<img src=""img/red-r.png"">","null","trial","null","","0.2,0.8","2:nogo_b","1",""
"null","","html-keyboard-response","652","943458","0.0-8.0-2.23","","<div style=""font-size:60px;"">+</div>","null","","","","","","",""
"null","","image-keyboard-response","653","944973","0.0-8.0-0.24","","img/red.png","null","trial","null","true","0.2,0.8","2:nogo_b","",""
"null","","html-keyboard-response","654","945981","0.0-8.0-1.24","","<img src=""img/red-n.png"">","null","trial","null","","0.2,0.8","2:nogo_b","0",""
"null","","html-keyboard-response","655","946982","0.0-8.0-2.24","","<div style=""font-size:60px;"">+</div>","null","","","","","","",""
"982.3549999855459","","image-keyboard-response","656","947965","0.0-8.0-0.25","","img/orange.png","32","trial","32","true","0.8,0.2","1:go_a","",""
"null","","html-keyboard-response","657","948982","0.0-8.0-1.25","","<img src=""img/orange-r.png"" border=""10"">","null","trial","32","","0.8,0.2","1:go_a","1",""
"null","","html-keyboard-response","658","949985","0.0-8.0-2.25","","<div style=""font-size:60px;"">+</div>","null","","","","","","",""
"1213.6599999503233","","image-keyboard-response","659","951200","0.0-8.0-0.26","","img/blue.png","32","trial","null","false","0.4,0.6","4:nogo_d","",""
"null","","html-keyboard-response","660","952218","0.0-8.0-1.26","","<img src=""img/blue-r.png"" border=""10"">","null","trial","null","","0.4,0.6","4:nogo_d","1",""
"null","","html-keyboard-response","661","953221","0.0-8.0-2.26","","<div style=""font-size:60px;"">+</div>","null","","","","","","",""
"1108.7200000183657","","image-keyboard-response","662","954331","0.0-8.0-0.27","","img/grey.png","32","trial","32","true","0.6,0.4","3:go_c","",""
"null","","html-keyboard-response","663","955341","0.0-8.0-1.27","","<img src=""img/grey-n.png"" border=""10"">","null","trial","32","","0.6,0.4","3:go_c","0",""
"null","","html-keyboard-response","664","956355","0.0-8.0-2.27","","<div style=""font-size:60px;"">+</div>","null","","","","","","",""
"1142.9650000063702","","image-keyboard-response","665","957499","0.0-8.0-0.28","","img/blue.png","32","trial","null","false","0.4,0.6","4:nogo_d","",""
"null","","html-keyboard-response","666","958508","0.0-8.0-1.28","","<img src=""img/blue-n.png"" border=""10"">","null","trial","null","","0.4,0.6","4:nogo_d","0",""
"null","","html-keyboard-response","667","959517","0.0-8.0-2.28","","<div style=""font-size:60px;"">+</div>","null","","","","","","",""
"null","","image-keyboard-response","668","961030","0.0-8.0-0.29","","img/grey.png","null","trial","32","false","0.6,0.4","3:go_c","",""
"null","","html-keyboard-response","669","962038","0.0-8.0-1.29","","<img src=""img/grey-n.png"">","null","trial","32","","0.6,0.4","3:go_c","0",""
"null","","html-keyboard-response","670","963040","0.0-8.0-2.29","","<div style=""font-size:60px;"">+</div>","null","","","","","","",""
"null","","image-keyboard-response","671","964546","0.0-8.0-0.30","","img/red.png","null","trial","null","true","0.2,0.8","2:nogo_b","",""
"null","","html-keyboard-response","672","965555","0.0-8.0-1.30","","<img src=""img/red-r.png"">","null","trial","null","","0.2,0.8","2:nogo_b","1",""
"null","","html-keyboard-response","673","966562","0.0-8.0-2.30","","<div style=""font-size:60px;"">+</div>","null","","","","","","",""
"1175.6700000260025","","image-keyboard-response","674","967739","0.0-8.0-0.31","","img/orange.png","32","trial","32","true","0.8,0.2","1:go_a","",""
"null","","html-keyboard-response","675","968748","0.0-8.0-1.31","","<img src=""img/orange-r.png"" border=""10"">","null","trial","32","","0.8,0.2","1:go_a","1",""
"null","","html-keyboard-response","676","969752","0.0-8.0-2.31","","<div style=""font-size:60px;"">+</div>","null","","","","","","",""
"1155.4699999978766","","image-keyboard-response","677","970909","0.0-8.0-0.32","","img/orange.png","32","trial","32","true","0.8,0.2","1:go_a","",""
"null","","html-keyboard-response","678","971922","0.0-8.0-1.32","","<img src=""img/orange-n.png"" border=""10"">","null","trial","32","","0.8,0.2","1:go_a","0",""
"null","","html-keyboard-response","679","972931","0.0-8.0-2.32","","<div style=""font-size:60px;"">+</div>","null","","","","","","",""
"null","","image-keyboard-response","680","974434","0.0-8.0-0.33","","img/red.png","null","trial","null","true","0.2,0.8","2:nogo_b","",""
