"rt","url","trial_type","trial_index","time_elapsed","internal_node_id","view_history","stimulus","key_press","test_part","correct_response","correct","use_rew","which_stim","reward","responses"
"15290.159999989555","consent.html","external-html","0","15386","0.0-0.0","","","","","","","","","",""
"204779.71499999694","","instructions","1","220167","0.0-1.0","[{""page_index"":0,""viewing_time"":14941.55000000319},{""page_index"":1,""viewing_time"":51152.00000000186},{""page_index"":2,""viewing_time"":10829.85500000359},{""page_index"":3,""viewing_time"":58517.84000000043},{""page_index"":4,""viewing_time"":32237.884999995003},{""page_index"":5,""viewing_time"":15587.945000006584},{""page_index"":6,""viewing_time"":21511.90499999211}]","","","","","","","","",""
"null","","image-keyboard-response","2","221669","0.0-2.0-0.0","","img/test2.PNG","null","practice","null","true","","","",""
"null","","html-keyboard-response","3","222687","0.0-2.0-1.0","","<img src=""img/test2-reward.PNG"">","null","","","","","","",""
"null","","html-keyboard-response","4","223693","0.0-2.0-2.0","","<div style=""font-size:60px;"">+</div>","null","","","","","","",""
"null","","image-keyboard-response","5","225199","0.0-2.0-0.1","","img/test3.PNG","null","practice","null","true","","","",""
"null","","html-keyboard-response","6","226215","0.0-2.0-1.1","","<img src=""img/test3-reward.PNG"">","null","","","","","","",""
"null","","html-keyboard-response","7","227226","0.0-2.0-2.1","","<div style=""font-size:60px;"">+</div>","null","","","","","","",""
"409.8450000019511","","image-keyboard-response","8","227639","0.0-2.0-0.2","","img/test1.PNG","32","practice","32","true","","","",""
"null","","html-keyboard-response","9","228654","0.0-2.0-1.2","","<img src=""img/test1-reward.PNG"" border=""10px; grey"">","null","","","","","","",""
"null","","html-keyboard-response","10","229659","0.0-2.0-2.2","","<div style=""font-size:60px;"">+</div>","null","","","","","","",""
"516.4650000078836","","image-keyboard-response","11","230177","0.0-2.0-0.3","","img/test1.PNG","32","practice","32","true","","","",""
"null","","html-keyboard-response","12","231194","0.0-2.0-1.3","","<img src=""img/test1-reward.PNG"" border=""10px; grey"">","null","","","","","","",""
"null","","html-keyboard-response","13","232206","0.0-2.0-2.3","","<div style=""font-size:60px;"">+</div>","null","","","","","","",""
"null","","image-keyboard-response","14","233716","0.0-2.0-0.4","","img/test2.PNG","null","practice","null","true","","","",""
"null","","html-keyboard-response","15","234731","0.0-2.0-1.4","","<img src=""img/test2-reward.PNG"">","null","","","","","","",""
"null","","html-keyboard-response","16","235743","0.0-2.0-2.4","","<div style=""font-size:60px;"">+</div>","null","","","","","","",""
"null","","image-keyboard-response","17","237255","0.0-2.0-0.5","","img/test3.PNG","null","practice","null","true","","","",""
"null","","html-keyboard-response","18","238258","0.0-2.0-1.5","","<img src=""img/test3-reward.PNG"">","null","","","","","","",""
"null","","html-keyboard-response","19","239264","0.0-2.0-2.5","","<div style=""font-size:60px;"">+</div>","null","","","","","","",""
"null","","image-keyboard-response","20","240775","0.0-2.0-0.6","","img/test2.PNG","null","practice","null","true","","","",""
"null","","html-keyboard-response","21","241778","0.0-2.0-1.6","","<img src=""img/test2-reward.PNG"">","null","","","","","","",""
"null","","html-keyboard-response","22","242785","0.0-2.0-2.6","","<div style=""font-size:60px;"">+</div>","null","","","","","","",""
"499.87999998847954","","image-keyboard-response","23","243287","0.0-2.0-0.7","","img/test1.PNG","32","practice","32","true","","","",""
"null","","html-keyboard-response","24","244302","0.0-2.0-1.7","","<img src=""img/test1-reward.PNG"" border=""10px; grey"">","null","","","","","","",""
"null","","html-keyboard-response","25","245306","0.0-2.0-2.7","","<div style=""font-size:60px;"">+</div>","null","","","","","","",""
"null","","image-keyboard-response","26","246821","0.0-2.0-0.8","","img/test3.PNG","null","practice","null","true","","","",""
"null","","html-keyboard-response","27","247834","0.0-2.0-1.8","","<img src=""img/test3-reward.PNG"">","null","","","","","","",""
"null","","html-keyboard-response","28","248840","0.0-2.0-2.8","","<div style=""font-size:60px;"">+</div>","null","","","","","","",""
"null","","image-keyboard-response","29","250347","0.0-2.0-0.9","","img/test2.PNG","null","practice","null","true","","","",""
"null","","html-keyboard-response","30","251359","0.0-2.0-1.9","","<img src=""img/test2-reward.PNG"">","null","","","","","","",""
"null","","html-keyboard-response","31","252362","0.0-2.0-2.9","","<div style=""font-size:60px;"">+</div>","null","","","","","","",""
"null","","image-keyboard-response","32","253870","0.0-2.0-0.10","","img/test3.PNG","null","practice","null","true","","","",""
"null","","html-keyboard-response","33","254882","0.0-2.0-1.10","","<img src=""img/test3-reward.PNG"">","null","","","","","","",""
"null","","html-keyboard-response","34","255883","0.0-2.0-2.10","","<div style=""font-size:60px;"">+</div>","null","","","","","","",""
"464.0700000018114","","image-keyboard-response","35","256349","0.0-2.0-0.11","","img/test1.PNG","32","practice","32","true","","","",""
"null","","html-keyboard-response","36","257361","0.0-2.0-1.11","","<img src=""img/test1-reward.PNG"" border=""10px; grey"">","null","","","","","","",""
"null","","html-keyboard-response","37","258365","0.0-2.0-2.11","","<div style=""font-size:60px;"">+</div>","null","","","","","","",""
"3217.720000000554","","instructions","38","261584","0.0-3.0","[{""page_index"":0,""viewing_time"":3217.580000011367}]","","","","","","","","",""
"1189.4299999985378","","image-keyboard-response","39","262775","0.0-4.0-0.0","","img/blue.png","32","trial","32","true","0.8,0.2","1:go_a","",""
"null","","html-keyboard-response","40","263784","0.0-4.0-1.0","","<img src=""img/blue-r.png"" border=""10"">","null","trial","32","","0.8,0.2","1:go_a","1",""
"null","","html-keyboard-response","41","264795","0.0-4.0-2.0","","<div style=""font-size:60px;"">+</div>","null","","","","","","",""
"517.1100000006845","","image-keyboard-response","42","265313","0.0-4.0-0.1","","img/yellow.png","32","trial","null","false","0.2,0.8","2:nogo_b","",""
"null","","html-keyboard-response","43","266327","0.0-4.0-1.1","","<img src=""img/yellow-n.png"" border=""10"">","null","trial","null","","0.2,0.8","2:nogo_b","0",""
"null","","html-keyboard-response","44","267340","0.0-4.0-2.1","","<div style=""font-size:60px;"">+</div>","null","","","","","","",""
"null","","image-keyboard-response","45","268844","0.0-4.0-0.2","","img/yellow.png","null","trial","null","true","0.2,0.8","2:nogo_b","",""
"null","","html-keyboard-response","46","269859","0.0-4.0-1.2","","<img src=""img/yellow-r.png"">","null","trial","null","","0.2,0.8","2:nogo_b","1",""
"null","","html-keyboard-response","47","270876","0.0-4.0-2.2","","<div style=""font-size:60px;"">+</div>","null","","","","","","",""
"456.6800000029616","","image-keyboard-response","48","271334","0.0-4.0-0.3","","img/blue.png","32","trial","32","true","0.8,0.2","1:go_a","",""
"null","","html-keyboard-response","49","272347","0.0-4.0-1.3","","<img src=""img/blue-r.png"" border=""10"">","null","trial","32","","0.8,0.2","1:go_a","1",""
"null","","html-keyboard-response","50","273356","0.0-4.0-2.3","","<div style=""font-size:60px;"">+</div>","null","","","","","","",""
"null","","image-keyboard-response","51","274860","0.0-4.0-0.4","","img/yellow.png","null","trial","null","true","0.2,0.8","2:nogo_b","",""
"null","","html-keyboard-response","52","275865","0.0-4.0-1.4","","<img src=""img/yellow-n.png"">","null","trial","null","","0.2,0.8","2:nogo_b","0",""
"null","","html-keyboard-response","53","276872","0.0-4.0-2.4","","<div style=""font-size:60px;"">+</div>","null","","","","","","",""
"410.66500000306405","","image-keyboard-response","54","277284","0.0-4.0-0.5","","img/blue.png","32","trial","32","true","0.8,0.2","1:go_a","",""
"null","","html-keyboard-response","55","278289","0.0-4.0-1.5","","<img src=""img/blue-r.png"" border=""10"">","null","trial","32","","0.8,0.2","1:go_a","1",""
"null","","html-keyboard-response","56","279296","0.0-4.0-2.5","","<div style=""font-size:60px;"">+</div>","null","","","","","","",""
"null","","image-keyboard-response","57","280804","0.0-4.0-0.6","","img/yellow.png","null","trial","null","true","0.2,0.8","2:nogo_b","",""
"null","","html-keyboard-response","58","281819","0.0-4.0-1.6","","<img src=""img/yellow-r.png"">","null","trial","null","","0.2,0.8","2:nogo_b","1",""
"null","","html-keyboard-response","59","282835","0.0-4.0-2.6","","<div style=""font-size:60px;"">+</div>","null","","","","","","",""
"338.3650000032503","","image-keyboard-response","60","283175","0.0-4.0-0.7","","img/blue.png","32","trial","32","true","0.8,0.2","1:go_a","",""
"null","","html-keyboard-response","61","284189","0.0-4.0-1.7","","<img src=""img/blue-r.png"" border=""10"">","null","trial","32","","0.8,0.2","1:go_a","1",""
"null","","html-keyboard-response","62","285204","0.0-4.0-2.7","","<div style=""font-size:60px;"">+</div>","null","","","","","","",""
"540.065000008326","","image-keyboard-response","63","285746","0.0-4.0-0.8","","img/blue.png","32","trial","32","true","0.8,0.2","1:go_a","",""
"null","","html-keyboard-response","64","286760","0.0-4.0-1.8","","<img src=""img/blue-r.png"" border=""10"">","null","trial","32","","0.8,0.2","1:go_a","1",""
"null","","html-keyboard-response","65","287763","0.0-4.0-2.8","","<div style=""font-size:60px;"">+</div>","null","","","","","","",""
"null","","image-keyboard-response","66","289280","0.0-4.0-0.9","","img/yellow.png","null","trial","null","true","0.2,0.8","2:nogo_b","",""
"null","","html-keyboard-response","67","290286","0.0-4.0-1.9","","<img src=""img/yellow-r.png"">","null","trial","null","","0.2,0.8","2:nogo_b","1",""
"null","","html-keyboard-response","68","291289","0.0-4.0-2.9","","<div style=""font-size:60px;"">+</div>","null","","","","","","",""
"null","","image-keyboard-response","69","292804","0.0-4.0-0.10","","img/yellow.png","null","trial","null","true","0.2,0.8","2:nogo_b","",""
"null","","html-keyboard-response","70","293814","0.0-4.0-1.10","","<img src=""img/yellow-n.png"">","null","trial","null","","0.2,0.8","2:nogo_b","0",""
"null","","html-keyboard-response","71","294826","0.0-4.0-2.10","","<div style=""font-size:60px;"">+</div>","null","","","","","","",""
"391.4999999979045","","image-keyboard-response","72","295219","0.0-4.0-0.11","","img/blue.png","32","trial","32","true","0.8,0.2","1:go_a","",""
"null","","html-keyboard-response","73","296229","0.0-4.0-1.11","","<img src=""img/blue-r.png"" border=""10"">","null","trial","32","","0.8,0.2","1:go_a","1",""
"null","","html-keyboard-response","74","297242","0.0-4.0-2.11","","<div style=""font-size:60px;"">+</div>","null","","","","","","",""
"null","","image-keyboard-response","75","298757","0.0-4.0-0.12","","img/yellow.png","null","trial","null","true","0.2,0.8","2:nogo_b","",""
"null","","html-keyboard-response","76","299772","0.0-4.0-1.12","","<img src=""img/yellow-r.png"">","null","trial","null","","0.2,0.8","2:nogo_b","1",""
"null","","html-keyboard-response","77","300788","0.0-4.0-2.12","","<div style=""font-size:60px;"">+</div>","null","","","","","","",""
"343.1249999994179","","image-keyboard-response","78","301133","0.0-4.0-0.13","","img/blue.png","32","trial","32","true","0.8,0.2","1:go_a","",""
"null","","html-keyboard-response","79","302137","0.0-4.0-1.13","","<img src=""img/blue-r.png"" border=""10"">","null","trial","32","","0.8,0.2","1:go_a","1",""
"null","","html-keyboard-response","80","303141","0.0-4.0-2.13","","<div style=""font-size:60px;"">+</div>","null","","","","","","",""
"null","","image-keyboard-response","81","304648","0.0-4.0-0.14","","img/yellow.png","null","trial","null","true","0.2,0.8","2:nogo_b","",""
"null","","html-keyboard-response","82","305661","0.0-4.0-1.14","","<img src=""img/yellow-r.png"">","null","trial","null","","0.2,0.8","2:nogo_b","1",""
"null","","html-keyboard-response","83","306676","0.0-4.0-2.14","","<div style=""font-size:60px;"">+</div>","null","","","","","","",""
"368.9300000114599","","image-keyboard-response","84","307046","0.0-4.0-0.15","","img/blue.png","32","trial","32","true","0.8,0.2","1:go_a","",""
"null","","html-keyboard-response","85","308060","0.0-4.0-1.15","","<img src=""img/blue-r.png"" border=""10"">","null","trial","32","","0.8,0.2","1:go_a","1",""
"null","","html-keyboard-response","86","309063","0.0-4.0-2.15","","<div style=""font-size:60px;"">+</div>","null","","","","","","",""
"null","","image-keyboard-response","87","310565","0.0-4.0-0.16","","img/yellow.png","null","trial","null","true","0.2,0.8","2:nogo_b","",""
"null","","html-keyboard-response","88","311574","0.0-4.0-1.16","","<img src=""img/yellow-r.png"">","null","trial","null","","0.2,0.8","2:nogo_b","1",""
"null","","html-keyboard-response","89","312590","0.0-4.0-2.16","","<div style=""font-size:60px;"">+</div>","null","","","","","","",""
"513.9049999997951","","image-keyboard-response","90","313106","0.0-4.0-0.17","","img/blue.png","32","trial","32","true","0.8,0.2","1:go_a","",""
"null","","html-keyboard-response","91","314123","0.0-4.0-1.17","","<img src=""img/blue-r.png"" border=""10"">","null","trial","32","","0.8,0.2","1:go_a","1",""
"null","","html-keyboard-response","92","315133","0.0-4.0-2.17","","<div style=""font-size:60px;"">+</div>","null","","","","","","",""
"777.9000000009546","","image-keyboard-response","93","315912","0.0-4.0-0.18","","img/blue.png","32","trial","32","true","0.8,0.2","1:go_a","",""
"null","","html-keyboard-response","94","316926","0.0-4.0-1.18","","<img src=""img/blue-r.png"" border=""10"">","null","trial","32","","0.8,0.2","1:go_a","1",""
"null","","html-keyboard-response","95","317929","0.0-4.0-2.18","","<div style=""font-size:60px;"">+</div>","null","","","","","","",""
"null","","image-keyboard-response","96","319438","0.0-4.0-0.19","","img/yellow.png","null","trial","null","true","0.2,0.8","2:nogo_b","",""
"null","","html-keyboard-response","97","320441","0.0-4.0-1.19","","<img src=""img/yellow-r.png"">","null","trial","null","","0.2,0.8","2:nogo_b","1",""
"null","","html-keyboard-response","98","321458","0.0-4.0-2.19","","<div style=""font-size:60px;"">+</div>","null","","","","","","",""
"456.05999999679625","","image-keyboard-response","99","321916","0.0-4.0-0.20","","img/blue.png","32","trial","32","true","0.8,0.2","1:go_a","",""
"null","","html-keyboard-response","100","322933","0.0-4.0-1.20","","<img src=""img/blue-n.png"" border=""10"">","null","trial","32","","0.8,0.2","1:go_a","0",""
"null","","html-keyboard-response","101","323937","0.0-4.0-2.20","","<div style=""font-size:60px;"">+</div>","null","","","","","","",""
"374.6499999979278","","image-keyboard-response","102","324314","0.0-4.0-0.21","","img/yellow.png","32","trial","null","false","0.2,0.8","2:nogo_b","",""
"null","","html-keyboard-response","103","325327","0.0-4.0-1.21","","<img src=""img/yellow-n.png"" border=""10"">","null","trial","null","","0.2,0.8","2:nogo_b","0",""
"null","","html-keyboard-response","104","326331","0.0-4.0-2.21","","<div style=""font-size:60px;"">+</div>","null","","","","","","",""
"505.5699999938952","","image-keyboard-response","105","326838","0.0-4.0-0.22","","img/yellow.png","32","trial","null","false","0.2,0.8","2:nogo_b","",""
"null","","html-keyboard-response","106","327851","0.0-4.0-1.22","","<img src=""img/yellow-n.png"" border=""10"">","null","trial","null","","0.2,0.8","2:nogo_b","0",""
"null","","html-keyboard-response","107","328860","0.0-4.0-2.22","","<div style=""font-size:60px;"">+</div>","null","","","","","","",""
"428.14499999803957","","image-keyboard-response","108","329290","0.0-4.0-0.23","","img/blue.png","32","trial","32","true","0.8,0.2","1:go_a","",""
"null","","html-keyboard-response","109","330308","0.0-4.0-1.23","","<img src=""img/blue-r.png"" border=""10"">","null","trial","32","","0.8,0.2","1:go_a","1",""
"null","","html-keyboard-response","110","331323","0.0-4.0-2.23","","<div style=""font-size:60px;"">+</div>","null","","","","","","",""
"null","","image-keyboard-response","111","332828","0.0-4.0-0.24","","img/yellow.png","null","trial","null","true","0.2,0.8","2:nogo_b","",""
"null","","html-keyboard-response","112","333840","0.0-4.0-1.24","","<img src=""img/yellow-r.png"">","null","trial","null","","0.2,0.8","2:nogo_b","1",""
"null","","html-keyboard-response","113","334855","0.0-4.0-2.24","","<div style=""font-size:60px;"">+</div>","null","","","","","","",""
"460.9150000032969","","image-keyboard-response","114","335317","0.0-4.0-0.25","","img/blue.png","32","trial","32","true","0.8,0.2","1:go_a","",""
"null","","html-keyboard-response","115","336321","0.0-4.0-1.25","","<img src=""img/blue-n.png"" border=""10"">","null","trial","32","","0.8,0.2","1:go_a","0",""
"null","","html-keyboard-response","116","337328","0.0-4.0-2.25","","<div style=""font-size:60px;"">+</div>","null","","","","","","",""
"null","","image-keyboard-response","117","338830","0.0-4.0-0.26","","img/yellow.png","null","trial","null","true","0.2,0.8","2:nogo_b","",""
"null","","html-keyboard-response","118","339843","0.0-4.0-1.26","","<img src=""img/yellow-n.png"">","null","trial","null","","0.2,0.8","2:nogo_b","0",""
"null","","html-keyboard-response","119","340856","0.0-4.0-2.26","","<div style=""font-size:60px;"">+</div>","null","","","","","","",""
"368.1650000071386","","image-keyboard-response","120","341225","0.0-4.0-0.27","","img/blue.png","32","trial","32","true","0.8,0.2","1:go_a","",""
"null","","html-keyboard-response","121","342233","0.0-4.0-1.27","","<img src=""img/blue-r.png"" border=""10"">","null","trial","32","","0.8,0.2","1:go_a","1",""
"null","","html-keyboard-response","122","343247","0.0-4.0-2.27","","<div style=""font-size:60px;"">+</div>","null","","","","","","",""
"416.2099999957718","","image-keyboard-response","123","343665","0.0-4.0-0.28","","img/blue.png","32","trial","32","true","0.8,0.2","1:go_a","",""
"null","","html-keyboard-response","124","344679","0.0-4.0-1.28","","<img src=""img/blue-r.png"" border=""10"">","null","trial","32","","0.8,0.2","1:go_a","1",""
"null","","html-keyboard-response","125","345690","0.0-4.0-2.28","","<div style=""font-size:60px;"">+</div>","null","","","","","","",""
"497.52499999885913","","image-keyboard-response","126","346189","0.0-4.0-0.29","","img/yellow.png","32","trial","null","false","0.2,0.8","2:nogo_b","",""
"null","","html-keyboard-response","127","347202","0.0-4.0-1.29","","<img src=""img/yellow-n.png"" border=""10"">","null","trial","null","","0.2,0.8","2:nogo_b","0",""
"null","","html-keyboard-response","128","348219","0.0-4.0-2.29","","<div style=""font-size:60px;"">+</div>","null","","","","","","",""
"447.8850000014063","","image-keyboard-response","129","348668","0.0-4.0-0.30","","img/blue.png","32","trial","32","true","0.8,0.2","1:go_a","",""
"null","","html-keyboard-response","130","349673","0.0-4.0-1.30","","<img src=""img/blue-r.png"" border=""10"">","null","trial","32","","0.8,0.2","1:go_a","1",""
"null","","html-keyboard-response","131","350679","0.0-4.0-2.30","","<div style=""font-size:60px;"">+</div>","null","","","","","","",""
"null","","image-keyboard-response","132","352197","0.0-4.0-0.31","","img/yellow.png","null","trial","null","true","0.2,0.8","2:nogo_b","",""
"null","","html-keyboard-response","133","353201","0.0-4.0-1.31","","<img src=""img/yellow-r.png"">","null","trial","null","","0.2,0.8","2:nogo_b","1",""
"null","","html-keyboard-response","134","354202","0.0-4.0-2.31","","<div style=""font-size:60px;"">+</div>","null","","","","","","",""
"null","","image-keyboard-response","135","355706","0.0-4.0-0.32","","img/yellow.png","null","trial","null","true","0.2,0.8","2:nogo_b","",""
"null","","html-keyboard-response","136","356721","0.0-4.0-1.32","","<img src=""img/yellow-r.png"">","null","trial","null","","0.2,0.8","2:nogo_b","1",""
"null","","html-keyboard-response","137","357722","0.0-4.0-2.32","","<div style=""font-size:60px;"">+</div>","null","","","","","","",""
"433.84500000684056","","image-keyboard-response","138","358158","0.0-4.0-0.33","","img/blue.png","32","trial","32","true","0.8,0.2","1:go_a","",""
"null","","html-keyboard-response","139","359166","0.0-4.0-1.33","","<img src=""img/blue-r.png"" border=""10"">","null","trial","32","","0.8,0.2","1:go_a","1",""
"null","","html-keyboard-response","140","360176","0.0-4.0-2.33","","<div style=""font-size:60px;"">+</div>","null","","","","","","",""
"null","","image-keyboard-response","141","361679","0.0-4.0-0.34","","img/yellow.png","null","trial","null","true","0.2,0.8","2:nogo_b","",""
"null","","html-keyboard-response","142","362685","0.0-4.0-1.34","","<img src=""img/yellow-n.png"">","null","trial","null","","0.2,0.8","2:nogo_b","0",""
"null","","html-keyboard-response","143","363692","0.0-4.0-2.34","","<div style=""font-size:60px;"">+</div>","null","","","","","","",""
"463.1200000003446","","image-keyboard-response","144","364159","0.0-4.0-0.35","","img/blue.png","32","trial","32","true","0.8,0.2","1:go_a","",""
"null","","html-keyboard-response","145","365161","0.0-4.0-1.35","","<img src=""img/blue-r.png"" border=""10"">","null","trial","32","","0.8,0.2","1:go_a","1",""
"null","","html-keyboard-response","146","366173","0.0-4.0-2.35","","<div style=""font-size:60px;"">+</div>","null","","","","","","",""
"477.83000000345055","","image-keyboard-response","147","366653","0.0-4.0-0.36","","img/blue.png","32","trial","32","true","0.8,0.2","1:go_a","",""
"null","","html-keyboard-response","148","367662","0.0-4.0-1.36","","<img src=""img/blue-r.png"" border=""10"">","null","trial","32","","0.8,0.2","1:go_a","1",""
"null","","html-keyboard-response","149","368675","0.0-4.0-2.36","","<div style=""font-size:60px;"">+</div>","null","","","","","","",""
"null","","image-keyboard-response","150","370185","0.0-4.0-0.37","","img/yellow.png","null","trial","null","true","0.2,0.8","2:nogo_b","",""
"null","","html-keyboard-response","151","371202","0.0-4.0-1.37","","<img src=""img/yellow-r.png"">","null","trial","null","","0.2,0.8","2:nogo_b","1",""
"null","","html-keyboard-response","152","372218","0.0-4.0-2.37","","<div style=""font-size:60px;"">+</div>","null","","","","","","",""
"null","","image-keyboard-response","153","373726","0.0-4.0-0.38","","img/yellow.png","null","trial","null","true","0.2,0.8","2:nogo_b","",""
"null","","html-keyboard-response","154","374733","0.0-4.0-1.38","","<img src=""img/yellow-r.png"">","null","trial","null","","0.2,0.8","2:nogo_b","1",""
"null","","html-keyboard-response","155","375747","0.0-4.0-2.38","","<div style=""font-size:60px;"">+</div>","null","","","","","","",""
"477.08500000589993","","image-keyboard-response","156","376226","0.0-4.0-0.39","","img/blue.png","32","trial","32","true","0.8,0.2","1:go_a","",""
"null","","html-keyboard-response","157","377232","0.0-4.0-1.39","","<img src=""img/blue-r.png"" border=""10"">","null","trial","32","","0.8,0.2","1:go_a","1",""
"null","","html-keyboard-response","158","378241","0.0-4.0-2.39","","<div style=""font-size:60px;"">+</div>","null","","","","","","",""
"547.3050000000512","","image-keyboard-response","159","378789","0.0-4.0-0.40","","img/blue.png","32","trial","32","true","0.8,0.2","1:go_a","",""
"null","","html-keyboard-response","160","379793","0.0-4.0-1.40","","<img src=""img/blue-r.png"" border=""10"">","null","trial","32","","0.8,0.2","1:go_a","1",""
"null","","html-keyboard-response","161","380801","0.0-4.0-2.40","","<div style=""font-size:60px;"">+</div>","null","","","","","","",""
"null","","image-keyboard-response","162","382318","0.0-4.0-0.41","","img/yellow.png","null","trial","null","true","0.2,0.8","2:nogo_b","",""
"null","","html-keyboard-response","163","383336","0.0-4.0-1.41","","<img src=""img/yellow-r.png"">","null","trial","null","","0.2,0.8","2:nogo_b","1",""
"null","","html-keyboard-response","164","384347","0.0-4.0-2.41","","<div style=""font-size:60px;"">+</div>","null","","","","","","",""
"null","","image-keyboard-response","165","385851","0.0-4.0-0.42","","img/yellow.png","null","trial","null","true","0.2,0.8","2:nogo_b","",""
"null","","html-keyboard-response","166","386865","0.0-4.0-1.42","","<img src=""img/yellow-r.png"">","null","trial","null","","0.2,0.8","2:nogo_b","1",""
"null","","html-keyboard-response","167","387881","0.0-4.0-2.42","","<div style=""font-size:60px;"">+</div>","null","","","","","","",""
"475.23500000534113","","image-keyboard-response","168","388357","0.0-4.0-0.43","","img/blue.png","32","trial","32","true","0.8,0.2","1:go_a","",""
"null","","html-keyboard-response","169","389360","0.0-4.0-1.43","","<img src=""img/blue-r.png"" border=""10"">","null","trial","32","","0.8,0.2","1:go_a","1",""
"null","","html-keyboard-response","170","390372","0.0-4.0-2.43","","<div style=""font-size:60px;"">+</div>","null","","","","","","",""
"536.5250000031665","","image-keyboard-response","171","390910","0.0-4.0-0.44","","img/blue.png","32","trial","32","true","0.8,0.2","1:go_a","",""
"null","","html-keyboard-response","172","391914","0.0-4.0-1.44","","<img src=""img/blue-r.png"" border=""10"">","null","trial","32","","0.8,0.2","1:go_a","1",""
"null","","html-keyboard-response","173","392924","0.0-4.0-2.44","","<div style=""font-size:60px;"">+</div>","null","","","","","","",""
"null","","image-keyboard-response","174","394433","0.0-4.0-0.45","","img/yellow.png","null","trial","null","true","0.2,0.8","2:nogo_b","",""
"null","","html-keyboard-response","175","395440","0.0-4.0-1.45","","<img src=""img/yellow-r.png"">","null","trial","null","","0.2,0.8","2:nogo_b","1",""
"null","","html-keyboard-response","176","396448","0.0-4.0-2.45","","<div style=""font-size:60px;"">+</div>","null","","","","","","",""
"null","","image-keyboard-response","177","397954","0.0-4.0-0.46","","img/yellow.png","null","trial","null","true","0.2,0.8","2:nogo_b","",""
"null","","html-keyboard-response","178","398959","0.0-4.0-1.46","","<img src=""img/yellow-n.png"">","null","trial","null","","0.2,0.8","2:nogo_b","0",""
"null","","html-keyboard-response","179","399963","0.0-4.0-2.46","","<div style=""font-size:60px;"">+</div>","null","","","","","","",""
"472.6199999859091","","image-keyboard-response","180","400437","0.0-4.0-0.47","","img/blue.png","32","trial","32","true","0.8,0.2","1:go_a","",""
"null","","html-keyboard-response","181","401443","0.0-4.0-1.47","","<img src=""img/blue-r.png"" border=""10"">","null","trial","32","","0.8,0.2","1:go_a","1",""
"null","","html-keyboard-response","182","402451","0.0-4.0-2.47","","<div style=""font-size:60px;"">+</div>","null","","","","","","",""
"644.799999994575","","image-keyboard-response","183","403097","0.0-4.0-0.48","","img/yellow.png","32","trial","null","false","0.2,0.8","2:nogo_b","",""
"null","","html-keyboard-response","184","404104","0.0-4.0-1.48","","<img src=""img/yellow-n.png"" border=""10"">","null","trial","null","","0.2,0.8","2:nogo_b","0",""
"null","","html-keyboard-response","185","405107","0.0-4.0-2.48","","<div style=""font-size:60px;"">+</div>","null","","","","","","",""
"557.2399999946356","","image-keyboard-response","186","405666","0.0-4.0-0.49","","img/blue.png","32","trial","32","true","0.8,0.2","1:go_a","",""
"null","","html-keyboard-response","187","406675","0.0-4.0-1.49","","<img src=""img/blue-r.png"" border=""10"">","null","trial","32","","0.8,0.2","1:go_a","1",""
"null","","html-keyboard-response","188","407687","0.0-4.0-2.49","","<div style=""font-size:60px;"">+</div>","null","","","","","","",""
"590.2750000095693","","image-keyboard-response","189","408279","0.0-4.0-0.50","","img/blue.png","32","trial","32","true","0.8,0.2","1:go_a","",""
"null","","html-keyboard-response","190","409282","0.0-4.0-1.50","","<img src=""img/blue-r.png"" border=""10"">","null","trial","32","","0.8,0.2","1:go_a","1",""
"null","","html-keyboard-response","191","410297","0.0-4.0-2.50","","<div style=""font-size:60px;"">+</div>","null","","","","","","",""
"null","","image-keyboard-response","192","411809","0.0-4.0-0.51","","img/yellow.png","null","trial","null","true","0.2,0.8","2:nogo_b","",""
"null","","html-keyboard-response","193","412816","0.0-4.0-1.51","","<img src=""img/yellow-r.png"">","null","trial","null","","0.2,0.8","2:nogo_b","1",""
"null","","html-keyboard-response","194","413820","0.0-4.0-2.51","","<div style=""font-size:60px;"">+</div>","null","","","","","","",""
"759.7000000096159","","image-keyboard-response","195","414582","0.0-4.0-0.52","","img/blue.png","32","trial","32","true","0.8,0.2","1:go_a","",""
"null","","html-keyboard-response","196","415594","0.0-4.0-1.52","","<img src=""img/blue-r.png"" border=""10"">","null","trial","32","","0.8,0.2","1:go_a","1",""
"null","","html-keyboard-response","197","416620","0.0-4.0-2.52","","<div style=""font-size:60px;"">+</div>","null","","","","","","",""
"null","","image-keyboard-response","198","418125","0.0-4.0-0.53","","img/yellow.png","null","trial","null","true","0.2,0.8","2:nogo_b","",""
"null","","html-keyboard-response","199","419139","0.0-4.0-1.53","","<img src=""img/yellow-n.png"">","null","trial","null","","0.2,0.8","2:nogo_b","0",""
"null","","html-keyboard-response","200","420151","0.0-4.0-2.53","","<div style=""font-size:60px;"">+</div>","null","","","","","","",""
"493.51499999465887","","image-keyboard-response","201","420646","0.0-4.0-0.54","","img/blue.png","32","trial","32","true","0.8,0.2","1:go_a","",""
"null","","html-keyboard-response","202","421659","0.0-4.0-1.54","","<img src=""img/blue-r.png"" border=""10"">","null","trial","32","","0.8,0.2","1:go_a","1",""
"null","","html-keyboard-response","203","422669","0.0-4.0-2.54","","<div style=""font-size:60px;"">+</div>","null","","","","","","",""
"null","","image-keyboard-response","204","424181","0.0-4.0-0.55","","img/yellow.png","null","trial","null","true","0.2,0.8","2:nogo_b","",""
"null","","html-keyboard-response","205","425189","0.0-4.0-1.55","","<img src=""img/yellow-n.png"">","null","trial","null","","0.2,0.8","2:nogo_b","0",""
"null","","html-keyboard-response","206","426193","0.0-4.0-2.55","","<div style=""font-size:60px;"">+</div>","null","","","","","","",""
"null","","image-keyboard-response","207","427698","0.0-4.0-0.56","","img/yellow.png","null","trial","null","true","0.2,0.8","2:nogo_b","",""
"null","","html-keyboard-response","208","428713","0.0-4.0-1.56","","<img src=""img/yellow-r.png"">","null","trial","null","","0.2,0.8","2:nogo_b","1",""
"null","","html-keyboard-response","209","429714","0.0-4.0-2.56","","<div style=""font-size:60px;"">+</div>","null","","","","","","",""
"622.5700000068173","","image-keyboard-response","210","430338","0.0-4.0-0.57","","img/blue.png","32","trial","32","true","0.8,0.2","1:go_a","",""
"null","","html-keyboard-response","211","431352","0.0-4.0-1.57","","<img src=""img/blue-r.png"" border=""10"">","null","trial","32","","0.8,0.2","1:go_a","1",""
"null","","html-keyboard-response","212","432365","0.0-4.0-2.57","","<div style=""font-size:60px;"">+</div>","null","","","","","","",""
"null","","image-keyboard-response","213","433875","0.0-4.0-0.58","","img/yellow.png","null","trial","null","true","0.2,0.8","2:nogo_b","",""
"null","","html-keyboard-response","214","434885","0.0-4.0-1.58","","<img src=""img/yellow-n.png"">","null","trial","null","","0.2,0.8","2:nogo_b","0",""
"null","","html-keyboard-response","215","435898","0.0-4.0-2.58","","<div style=""font-size:60px;"">+</div>","null","","","","","","",""
"503.25499998871237","","image-keyboard-response","216","436403","0.0-4.0-0.59","","img/blue.png","32","trial","32","true","0.8,0.2","1:go_a","",""
"null","","html-keyboard-response","217","437410","0.0-4.0-1.59","","<img src=""img/blue-r.png"" border=""10"">","null","trial","32","","0.8,0.2","1:go_a","1",""
"null","","html-keyboard-response","218","438426","0.0-4.0-2.59","","<div style=""font-size:60px;"">+</div>","null","","","","","","",""
"5037.490000002435","","instructions","219","443464","0.0-5.0","[{""page_index"":0,""viewing_time"":5037.335000000894}]","","","","","","","","",""
"562.4550000065938","","image-keyboard-response","220","444027","0.0-6.0-0.0","","img/yellow.png","32","trial","32","true","0.8,0.2","1:go_a","",""
"null","","html-keyboard-response","221","445040","0.0-6.0-1.0","","<img src=""img/yellow-r.png"" border=""10"">","null","trial","32","","0.8,0.2","1:go_a","1",""
"null","","html-keyboard-response","222","446052","0.0-6.0-2.0","","<div style=""font-size:60px;"">+</div>","null","","","","","","",""
"600.7050000043819","","image-keyboard-response","223","446654","0.0-6.0-0.1","","img/pink.png","32","trial","null","false","0.4,0.6","4:nogo_d","",""
"null","","html-keyboard-response","224","447659","0.0-6.0-1.1","","<img src=""img/pink-n.png"" border=""10"">","null","trial","null","","0.4,0.6","4:nogo_d","0",""
"null","","html-keyboard-response","225","448675","0.0-6.0-2.1","","<div style=""font-size:60px;"">+</div>","null","","","","","","",""
"580.7949999871198","","image-keyboard-response","226","449260","0.0-6.0-0.2","","img/blue.png","32","trial","null","false","0.2,0.8","2:nogo_b","",""
"null","","html-keyboard-response","227","450262","0.0-6.0-1.2","","<img src=""img/blue-n.png"" border=""10"">","null","trial","null","","0.2,0.8","2:nogo_b","0",""
"null","","html-keyboard-response","228","451269","0.0-6.0-2.2","","<div style=""font-size:60px;"">+</div>","null","","","","","","",""
"546.9650000013644","","image-keyboard-response","229","451817","0.0-6.0-0.3","","img/purple.png","32","trial","32","true","0.6,0.4","3:go_c","",""
"null","","html-keyboard-response","230","452833","0.0-6.0-1.3","","<img src=""img/purple-n.png"" border=""10"">","null","trial","32","","0.6,0.4","3:go_c","0",""
"null","","html-keyboard-response","231","453843","0.0-6.0-2.3","","<div style=""font-size:60px;"">+</div>","null","","","","","","",""
"null","","image-keyboard-response","232","455355","0.0-6.0-0.4","","img/pink.png","null","trial","null","true","0.4,0.6","4:nogo_d","",""
"null","","html-keyboard-response","233","456363","0.0-6.0-1.4","","<img src=""img/pink-r.png"">","null","trial","null","","0.4,0.6","4:nogo_d","1",""
"null","","html-keyboard-response","234","457368","0.0-6.0-2.4","","<div style=""font-size:60px;"">+</div>","null","","","","","","",""
"576.2400000094203","","image-keyboard-response","235","457945","0.0-6.0-0.5","","img/yellow.png","32","trial","32","true","0.8,0.2","1:go_a","",""
"null","","html-keyboard-response","236","458950","0.0-6.0-1.5","","<img src=""img/yellow-r.png"" border=""10"">","null","trial","32","","0.8,0.2","1:go_a","1",""
"null","","html-keyboard-response","237","459958","0.0-6.0-2.5","","<div style=""font-size:60px;"">+</div>","null","","","","","","",""
"643.8699999998789","","image-keyboard-response","238","460592","0.0-6.0-0.6","","img/purple.png","32","trial","32","true","0.6,0.4","3:go_c","",""
"null","","html-keyboard-response","239","461613","0.0-6.0-1.6","","<img src=""img/purple-r.png"" border=""10"">","null","trial","32","","0.6,0.4","3:go_c","1",""
"null","","html-keyboard-response","240","462627","0.0-6.0-2.6","","<div style=""font-size:60px;"">+</div>","null","","","","","","",""
"null","","image-keyboard-response","241","464137","0.0-6.0-0.7","","img/blue.png","null","trial","null","true","0.2,0.8","2:nogo_b","",""
"null","","html-keyboard-response","242","465145","0.0-6.0-1.7","","<img src=""img/blue-r.png"">","null","trial","null","","0.2,0.8","2:nogo_b","1",""
"null","","html-keyboard-response","243","466149","0.0-6.0-2.7","","<div style=""font-size:60px;"">+</div>","null","","","","","","",""
"561.4900000073249","","image-keyboard-response","244","466712","0.0-6.0-0.8","","img/yellow.png","32","trial","32","true","0.8,0.2","1:go_a","",""
"null","","html-keyboard-response","245","467723","0.0-6.0-1.8","","<img src=""img/yellow-r.png"" border=""10"">","null","trial","32","","0.8,0.2","1:go_a","1",""
"null","","html-keyboard-response","246","468724","0.0-6.0-2.8","","<div style=""font-size:60px;"">+</div>","null","","","","","","",""
"null","","image-keyboard-response","247","470229","0.0-6.0-0.9","","img/pink.png","null","trial","null","true","0.4,0.6","4:nogo_d","",""
"null","","html-keyboard-response","248","471247","0.0-6.0-1.9","","<img src=""img/pink-n.png"">","null","trial","null","","0.4,0.6","4:nogo_d","0",""
"null","","html-keyboard-response","249","472259","0.0-6.0-2.9","","<div style=""font-size:60px;"">+</div>","null","","","","","","",""
"442.43000001006294","","image-keyboard-response","250","472703","0.0-6.0-0.10","","img/purple.png","32","trial","32","true","0.6,0.4","3:go_c","",""
"null","","html-keyboard-response","251","473711","0.0-6.0-1.10","","<img src=""img/purple-n.png"" border=""10"">","null","trial","32","","0.6,0.4","3:go_c","0",""
"null","","html-keyboard-response","252","474717","0.0-6.0-2.10","","<div style=""font-size:60px;"">+</div>","null","","","","","","",""
"491.51500000152737","","image-keyboard-response","253","475210","0.0-6.0-0.11","","img/blue.png","32","trial","null","false","0.2,0.8","2:nogo_b","",""
"null","","html-keyboard-response","254","476224","0.0-6.0-1.11","","<img src=""img/blue-n.png"" border=""10"">","null","trial","null","","0.2,0.8","2:nogo_b","0",""
"null","","html-keyboard-response","255","477228","0.0-6.0-2.11","","<div style=""font-size:60px;"">+</div>","null","","","","","","",""
"846.2699999945471","","image-keyboard-response","256","478076","0.0-6.0-0.12","","img/purple.png","32","trial","32","true","0.6,0.4","3:go_c","",""
"null","","html-keyboard-response","257","479081","0.0-6.0-1.12","","<img src=""img/purple-r.png"" border=""10"">","null","trial","32","","0.6,0.4","3:go_c","1",""
"null","","html-keyboard-response","258","480096","0.0-6.0-2.12","","<div style=""font-size:60px;"">+</div>","null","","","","","","",""
"960.0500000087777","","image-keyboard-response","259","481058","0.0-6.0-0.13","","img/pink.png","32","trial","null","false","0.4,0.6","4:nogo_d","",""
"null","","html-keyboard-response","260","482071","0.0-6.0-1.13","","<img src=""img/pink-n.png"" border=""10"">","null","trial","null","","0.4,0.6","4:nogo_d","0",""
"null","","html-keyboard-response","261","483073","0.0-6.0-2.13","","<div style=""font-size:60px;"">+</div>","null","","","","","","",""
"748.2000000018161","","image-keyboard-response","262","483823","0.0-6.0-0.14","","img/blue.png","32","trial","null","false","0.2,0.8","2:nogo_b","",""
"null","","html-keyboard-response","263","484837","0.0-6.0-1.14","","<img src=""img/blue-r.png"" border=""10"">","null","trial","null","","0.2,0.8","2:nogo_b","1",""
"null","","html-keyboard-response","264","485842","0.0-6.0-2.14","","<div style=""font-size:60px;"">+</div>","null","","","","","","",""
"733.9150000043446","","image-keyboard-response","265","486577","0.0-6.0-0.15","","img/yellow.png","32","trial","32","true","0.8,0.2","1:go_a","",""
"null","","html-keyboard-response","266","487583","0.0-6.0-1.15","","<img src=""img/yellow-r.png"" border=""10"">","null","trial","32","","0.8,0.2","1:go_a","1",""
"null","","html-keyboard-response","267","488603","0.0-6.0-2.15","","<div style=""font-size:60px;"">+</div>","null","","","","","","",""
"815.4699999868171","","image-keyboard-response","268","489420","0.0-6.0-0.16","","img/blue.png","32","trial","null","false","0.2,0.8","2:nogo_b","",""
"null","","html-keyboard-response","269","490429","0.0-6.0-1.16","","<img src=""img/blue-n.png"" border=""10"">","null","trial","null","","0.2,0.8","2:nogo_b","0",""
"null","","html-keyboard-response","270","491434","0.0-6.0-2.16","","<div style=""font-size:60px;"">+</div>","null","","","","","","",""
"null","","image-keyboard-response","271","492944","0.0-6.0-0.17","","img/purple.png","null","trial","32","false","0.6,0.4","3:go_c","",""
"null","","html-keyboard-response","272","493954","0.0-6.0-1.17","","<img src=""img/purple-r.png"">","null","trial","32","","0.6,0.4","3:go_c","1",""
"null","","html-keyboard-response","273","494962","0.0-6.0-2.17","","<div style=""font-size:60px;"">+</div>","null","","","","","","",""
"778.4250000113389","","image-keyboard-response","274","495742","0.0-6.0-0.18","","img/yellow.png","32","trial","32","true","0.8,0.2","1:go_a","",""
"null","","html-keyboard-response","275","496755","0.0-6.0-1.18","","<img src=""img/yellow-r.png"" border=""10"">","null","trial","32","","0.8,0.2","1:go_a","1",""
"null","","html-keyboard-response","276","497758","0.0-6.0-2.18","","<div style=""font-size:60px;"">+</div>","null","","","","","","",""
"null","","image-keyboard-response","277","499275","0.0-6.0-0.19","","img/pink.png","null","trial","null","true","0.4,0.6","4:nogo_d","",""
"null","","html-keyboard-response","278","500278","0.0-6.0-1.19","","<img src=""img/pink-r.png"">","null","trial","null","","0.4,0.6","4:nogo_d","1",""
"null","","html-keyboard-response","279","501294","0.0-6.0-2.19","","<div style=""font-size:60px;"">+</div>","null","","","","","","",""
"null","","image-keyboard-response","280","502809","0.0-6.0-0.20","","img/pink.png","null","trial","null","true","0.4,0.6","4:nogo_d","",""
"null","","html-keyboard-response","281","503816","0.0-6.0-1.20","","<img src=""img/pink-r.png"">","null","trial","null","","0.4,0.6","4:nogo_d","1",""
"null","","html-keyboard-response","282","504831","0.0-6.0-2.20","","<div style=""font-size:60px;"">+</div>","null","","","","","","",""
"499.1100000042934","","image-keyboard-response","283","505331","0.0-6.0-0.21","","img/blue.png","32","trial","null","false","0.2,0.8","2:nogo_b","",""
"null","","html-keyboard-response","284","506335","0.0-6.0-1.21","","<img src=""img/blue-n.png"" border=""10"">","null","trial","null","","0.2,0.8","2:nogo_b","0",""
"null","","html-keyboard-response","285","507345","0.0-6.0-2.21","","<div style=""font-size:60px;"">+</div>","null","","","","","","",""
"858.9350000111153","","image-keyboard-response","286","508206","0.0-6.0-0.22","","img/yellow.png","32","trial","32","true","0.8,0.2","1:go_a","",""
"null","","html-keyboard-response","287","509209","0.0-6.0-1.22","","<img src=""img/yellow-r.png"" border=""10"">","null","trial","32","","0.8,0.2","1:go_a","1",""
"null","","html-keyboard-response","288","510213","0.0-6.0-2.22","","<div style=""font-size:60px;"">+</div>","null","","","","","","",""
"null","","image-keyboard-response","289","511718","0.0-6.0-0.23","","img/purple.png","null","trial","32","false","0.6,0.4","3:go_c","",""
"null","","html-keyboard-response","290","512720","0.0-6.0-1.23","","<img src=""img/purple-n.png"">","null","trial","32","","0.6,0.4","3:go_c","0",""
"null","","html-keyboard-response","291","513731","0.0-6.0-2.23","","<div style=""font-size:60px;"">+</div>","null","","","","","","",""
"669.6450000017649","","image-keyboard-response","292","514401","0.0-6.0-0.24","","img/pink.png","32","trial","null","false","0.4,0.6","4:nogo_d","",""
"null","","html-keyboard-response","293","515407","0.0-6.0-1.24","","<img src=""img/pink-r.png"" border=""10"">","null","trial","null","","0.4,0.6","4:nogo_d","1",""
"null","","html-keyboard-response","294","516423","0.0-6.0-2.24","","<div style=""font-size:60px;"">+</div>","null","","","","","","",""
"null","","image-keyboard-response","295","517928","0.0-6.0-0.25","","img/purple.png","null","trial","32","false","0.6,0.4","3:go_c","",""
"null","","html-keyboard-response","296","518932","0.0-6.0-1.25","","<img src=""img/purple-r.png"">","null","trial","32","","0.6,0.4","3:go_c","1",""
"null","","html-keyboard-response","297","519948","0.0-6.0-2.25","","<div style=""font-size:60px;"">+</div>","null","","","","","","",""
"857.0599999948172","","image-keyboard-response","298","520807","0.0-6.0-0.26","","img/yellow.png","32","trial","32","true","0.8,0.2","1:go_a","",""
"null","","html-keyboard-response","299","521811","0.0-6.0-1.26","","<img src=""img/yellow-n.png"" border=""10"">","null","trial","32","","0.8,0.2","1:go_a","0",""
"null","","html-keyboard-response","300","522824","0.0-6.0-2.26","","<div style=""font-size:60px;"">+</div>","null","","","","","","",""
"633.9399999997113","","image-keyboard-response","301","523459","0.0-6.0-0.27","","img/blue.png","32","trial","null","false","0.2,0.8","2:nogo_b","",""
"null","","html-keyboard-response","302","524476","0.0-6.0-1.27","","<img src=""img/blue-n.png"" border=""10"">","null","trial","null","","0.2,0.8","2:nogo_b","0",""
"null","","html-keyboard-response","303","525478","0.0-6.0-2.27","","<div style=""font-size:60px;"">+</div>","null","","","","","","",""
"771.6599999985192","","image-keyboard-response","304","526251","0.0-6.0-0.28","","img/purple.png","32","trial","32","true","0.6,0.4","3:go_c","",""
"null","","html-keyboard-response","305","527257","0.0-6.0-1.28","","<img src=""img/purple-n.png"" border=""10"">","null","trial","32","","0.6,0.4","3:go_c","0",""
"null","","html-keyboard-response","306","528259","0.0-6.0-2.28","","<div style=""font-size:60px;"">+</div>","null","","","","","","",""
"null","","image-keyboard-response","307","529762","0.0-6.0-0.29","","img/blue.png","null","trial","null","true","0.2,0.8","2:nogo_b","",""
"null","","html-keyboard-response","308","530773","0.0-6.0-1.29","","<img src=""img/blue-r.png"">","null","trial","null","","0.2,0.8","2:nogo_b","1",""
"null","","html-keyboard-response","309","531776","0.0-6.0-2.29","","<div style=""font-size:60px;"">+</div>","null","","","","","","",""
"null","","image-keyboard-response","310","533289","0.0-6.0-0.30","","img/pink.png","null","trial","null","true","0.4,0.6","4:nogo_d","",""
"null","","html-keyboard-response","311","534307","0.0-6.0-1.30","","<img src=""img/pink-n.png"">","null","trial","null","","0.4,0.6","4:nogo_d","0",""
"null","","html-keyboard-response","312","535316","0.0-6.0-2.30","","<div style=""font-size:60px;"">+</div>","null","","","","","","",""
"728.5499999998137","","image-keyboard-response","313","536046","0.0-6.0-0.31","","img/yellow.png","32","trial","32","true","0.8,0.2","1:go_a","",""
"null","","html-keyboard-response","314","537060","0.0-6.0-1.31","","<img src=""img/yellow-n.png"" border=""10"">","null","trial","32","","0.8,0.2","1:go_a","0",""
"null","","html-keyboard-response","315","538074","0.0-6.0-2.31","","<div style=""font-size:60px;"">+</div>","null","","","","","","",""
"null","","image-keyboard-response","316","539585","0.0-6.0-0.32","","img/pink.png","null","trial","null","true","0.4,0.6","4:nogo_d","",""
"null","","html-keyboard-response","317","540587","0.0-6.0-1.32","","<img src=""img/pink-n.png"">","null","trial","null","","0.4,0.6","4:nogo_d","0",""
"null","","html-keyboard-response","318","541594","0.0-6.0-2.32","","<div style=""font-size:60px;"">+</div>","null","","","","","","",""
"682.9799999977695","","image-keyboard-response","319","542279","0.0-6.0-0.33","","img/purple.png","32","trial","32","true","0.6,0.4","3:go_c","",""
"null","","html-keyboard-response","320","543296","0.0-6.0-1.33","","<img src=""img/purple-r.png"" border=""10"">","null","trial","32","","0.6,0.4","3:go_c","1",""
"null","","html-keyboard-response","321","544308","0.0-6.0-2.33","","<div style=""font-size:60px;"">+</div>","null","","","","","","",""
"581.1499999981606","","image-keyboard-response","322","544890","0.0-6.0-0.34","","img/yellow.png","32","trial","32","true","0.8,0.2","1:go_a","",""
"null","","html-keyboard-response","323","545904","0.0-6.0-1.34","","<img src=""img/yellow-n.png"" border=""10"">","null","trial","32","","0.8,0.2","1:go_a","0",""
"null","","html-keyboard-response","324","546905","0.0-6.0-2.34","","<div style=""font-size:60px;"">+</div>","null","","","","","","",""
"621.1900000052992","","image-keyboard-response","325","547527","0.0-6.0-0.35","","img/blue.png","32","trial","null","false","0.2,0.8","2:nogo_b","",""
"null","","html-keyboard-response","326","548542","0.0-6.0-1.35","","<img src=""img/blue-n.png"" border=""10"">","null","trial","null","","0.2,0.8","2:nogo_b","0",""
"null","","html-keyboard-response","327","549549","0.0-6.0-2.35","","<div style=""font-size:60px;"">+</div>","null","","","","","","",""
"null","","image-keyboard-response","328","551051","0.0-6.0-0.36","","img/purple.png","null","trial","32","false","0.6,0.4","3:go_c","",""
"null","","html-keyboard-response","329","552057","0.0-6.0-1.36","","<img src=""img/purple-r.png"">","null","trial","32","","0.6,0.4","3:go_c","1",""
"null","","html-keyboard-response","330","553072","0.0-6.0-2.36","","<div style=""font-size:60px;"">+</div>","null","","","","","","",""
"null","","image-keyboard-response","331","554597","0.0-6.0-0.37","","img/blue.png","null","trial","null","true","0.2,0.8","2:nogo_b","",""
"null","","html-keyboard-response","332","555613","0.0-6.0-1.37","","<img src=""img/blue-r.png"">","null","trial","null","","0.2,0.8","2:nogo_b","1",""
"null","","html-keyboard-response","333","556628","0.0-6.0-2.37","","<div style=""font-size:60px;"">+</div>","null","","","","","","",""
"null","","image-keyboard-response","334","558134","0.0-6.0-0.38","","img/yellow.png","null","trial","32","false","0.8,0.2","1:go_a","",""
"null","","html-keyboard-response","335","559147","0.0-6.0-1.38","","<img src=""img/yellow-n.png"">","null","trial","32","","0.8,0.2","1:go_a","0",""
"null","","html-keyboard-response","336","560155","0.0-6.0-2.38","","<div style=""font-size:60px;"">+</div>","null","","","","","","",""
"null","","image-keyboard-response","337","561673","0.0-6.0-0.39","","img/pink.png","null","trial","null","true","0.4,0.6","4:nogo_d","",""
"null","","html-keyboard-response","338","562688","0.0-6.0-1.39","","<img src=""img/pink-r.png"">","null","trial","null","","0.4,0.6","4:nogo_d","1",""
"null","","html-keyboard-response","339","563701","0.0-6.0-2.39","","<div style=""font-size:60px;"">+</div>","null","","","","","","",""
"678.5049999889452","","image-keyboard-response","340","564381","0.0-6.0-0.40","","img/purple.png","32","trial","32","true","0.6,0.4","3:go_c","",""
"null","","html-keyboard-response","341","565406","0.0-6.0-1.40","","<img src=""img/purple-r.png"" border=""10"">","null","trial","32","","0.6,0.4","3:go_c","1",""
"null","","html-keyboard-response","342","566421","0.0-6.0-2.40","","<div style=""font-size:60px;"">+</div>","null","","","","","","",""
"null","","image-keyboard-response","343","567924","0.0-6.0-0.41","","img/pink.png","null","trial","null","true","0.4,0.6","4:nogo_d","",""
"null","","html-keyboard-response","344","568937","0.0-6.0-1.41","","<img src=""img/pink-n.png"">","null","trial","null","","0.4,0.6","4:nogo_d","0",""
"null","","html-keyboard-response","345","569944","0.0-6.0-2.41","","<div style=""font-size:60px;"">+</div>","null","","","","","","",""
"586.8649999902118","","image-keyboard-response","346","570533","0.0-6.0-0.42","","img/blue.png","32","trial","null","false","0.2,0.8","2:nogo_b","",""
"null","","html-keyboard-response","347","571543","0.0-6.0-1.42","","<img src=""img/blue-n.png"" border=""10"">","null","trial","null","","0.2,0.8","2:nogo_b","0",""
"null","","html-keyboard-response","348","572545","0.0-6.0-2.42","","<div style=""font-size:60px;"">+</div>","null","","","","","","",""
"null","","image-keyboard-response","349","574062","0.0-6.0-0.43","","img/yellow.png","null","trial","32","false","0.8,0.2","1:go_a","",""
"null","","html-keyboard-response","350","575067","0.0-6.0-1.43","","<img src=""img/yellow-n.png"">","null","trial","32","","0.8,0.2","1:go_a","0",""
"null","","html-keyboard-response","351","576078","0.0-6.0-2.43","","<div style=""font-size:60px;"">+</div>","null","","","","","","",""
"587.8850000008242","","image-keyboard-response","352","576667","0.0-6.0-0.44","","img/pink.png","32","trial","null","false","0.4,0.6","4:nogo_d","",""
"null","","html-keyboard-response","353","577679","0.0-6.0-1.44","","<img src=""img/pink-r.png"" border=""10"">","null","trial","null","","0.4,0.6","4:nogo_d","1",""
"null","","html-keyboard-response","354","578683","0.0-6.0-2.44","","<div style=""font-size:60px;"">+</div>","null","","","","","","",""
"830.8350000006612","","image-keyboard-response","355","579515","0.0-6.0-0.45","","img/purple.png","32","trial","32","true","0.6,0.4","3:go_c","",""
"null","","html-keyboard-response","356","580524","0.0-6.0-1.45","","<img src=""img/purple-n.png"" border=""10"">","null","trial","32","","0.6,0.4","3:go_c","0",""
"null","","html-keyboard-response","357","581549","0.0-6.0-2.45","","<div style=""font-size:60px;"">+</div>","null","","","","","","",""
"null","","image-keyboard-response","358","583066","0.0-6.0-0.46","","img/blue.png","null","trial","null","true","0.2,0.8","2:nogo_b","",""
"null","","html-keyboard-response","359","584082","0.0-6.0-1.46","","<img src=""img/blue-n.png"">","null","trial","null","","0.2,0.8","2:nogo_b","0",""
"null","","html-keyboard-response","360","585084","0.0-6.0-2.46","","<div style=""font-size:60px;"">+</div>","null","","","","","","",""
"597.0300000044517","","image-keyboard-response","361","585682","0.0-6.0-0.47","","img/yellow.png","32","trial","32","true","0.8,0.2","1:go_a","",""
"null","","html-keyboard-response","362","586696","0.0-6.0-1.47","","<img src=""img/yellow-r.png"" border=""10"">","null","trial","32","","0.8,0.2","1:go_a","1",""
"null","","html-keyboard-response","363","587707","0.0-6.0-2.47","","<div style=""font-size:60px;"">+</div>","null","","","","","","",""
"649.9349999940023","","image-keyboard-response","364","588358","0.0-6.0-0.48","","img/blue.png","32","trial","null","false","0.2,0.8","2:nogo_b","",""
"null","","html-keyboard-response","365","589362","0.0-6.0-1.48","","<img src=""img/blue-n.png"" border=""10"">","null","trial","null","","0.2,0.8","2:nogo_b","0",""
"null","","html-keyboard-response","366","590377","0.0-6.0-2.48","","<div style=""font-size:60px;"">+</div>","null","","","","","","",""
"null","","image-keyboard-response","367","591892","0.0-6.0-0.49","","img/pink.png","null","trial","null","true","0.4,0.6","4:nogo_d","",""
"null","","html-keyboard-response","368","592894","0.0-6.0-1.49","","<img src=""img/pink-r.png"">","null","trial","null","","0.4,0.6","4:nogo_d","1",""
"null","","html-keyboard-response","369","593900","0.0-6.0-2.49","","<div style=""font-size:60px;"">+</div>","null","","","","","","",""
"869.5600000064587","","image-keyboard-response","370","594771","0.0-6.0-0.50","","img/yellow.png","32","trial","32","true","0.8,0.2","1:go_a","",""
"null","","html-keyboard-response","371","595789","0.0-6.0-1.50","","<img src=""img/yellow-n.png"" border=""10"">","null","trial","32","","0.8,0.2","1:go_a","0",""
"null","","html-keyboard-response","372","596799","0.0-6.0-2.50","","<div style=""font-size:60px;"">+</div>","null","","","","","","",""
"null","","image-keyboard-response","373","598315","0.0-6.0-0.51","","img/purple.png","null","trial","32","false","0.6,0.4","3:go_c","",""
"null","","html-keyboard-response","374","599320","0.0-6.0-1.51","","<img src=""img/purple-r.png"">","null","trial","32","","0.6,0.4","3:go_c","1",""
"null","","html-keyboard-response","375","600326","0.0-6.0-2.51","","<div style=""font-size:60px;"">+</div>","null","","","","","","",""
"null","","image-keyboard-response","376","601843","0.0-6.0-0.52","","img/purple.png","null","trial","32","false","0.6,0.4","3:go_c","",""
"null","","html-keyboard-response","377","602851","0.0-6.0-1.52","","<img src=""img/purple-r.png"">","null","trial","32","","0.6,0.4","3:go_c","1",""
"null","","html-keyboard-response","378","603866","0.0-6.0-2.52","","<div style=""font-size:60px;"">+</div>","null","","","","","","",""
"811.760000011418","","image-keyboard-response","379","604680","0.0-6.0-0.53","","img/yellow.png","32","trial","32","true","0.8,0.2","1:go_a","",""
"null","","html-keyboard-response","380","605685","0.0-6.0-1.53","","<img src=""img/yellow-n.png"" border=""10"">","null","trial","32","","0.8,0.2","1:go_a","0",""
"null","","html-keyboard-response","381","606702","0.0-6.0-2.53","","<div style=""font-size:60px;"">+</div>","null","","","","","","",""
"null","","image-keyboard-response","382","608218","0.0-6.0-0.54","","img/blue.png","null","trial","null","true","0.2,0.8","2:nogo_b","",""
"null","","html-keyboard-response","383","609223","0.0-6.0-1.54","","<img src=""img/blue-r.png"">","null","trial","null","","0.2,0.8","2:nogo_b","1",""
"null","","html-keyboard-response","384","610231","0.0-6.0-2.54","","<div style=""font-size:60px;"">+</div>","null","","","","","","",""
"null","","image-keyboard-response","385","611738","0.0-6.0-0.55","","img/pink.png","null","trial","null","true","0.4,0.6","4:nogo_d","",""
"null","","html-keyboard-response","386","612741","0.0-6.0-1.55","","<img src=""img/pink-r.png"">","null","trial","null","","0.4,0.6","4:nogo_d","1",""
"null","","html-keyboard-response","387","613757","0.0-6.0-2.55","","<div style=""font-size:60px;"">+</div>","null","","","","","","",""
"null","","image-keyboard-response","388","615273","0.0-6.0-0.56","","img/pink.png","null","trial","null","true","0.4,0.6","4:nogo_d","",""
"null","","html-keyboard-response","389","616284","0.0-6.0-1.56","","<img src=""img/pink-r.png"">","null","trial","null","","0.4,0.6","4:nogo_d","1",""
"null","","html-keyboard-response","390","617295","0.0-6.0-2.56","","<div style=""font-size:60px;"">+</div>","null","","","","","","",""
"null","","image-keyboard-response","391","618801","0.0-6.0-0.57","","img/purple.png","null","trial","32","false","0.6,0.4","3:go_c","",""
"null","","html-keyboard-response","392","619805","0.0-6.0-1.57","","<img src=""img/purple-n.png"">","null","trial","32","","0.6,0.4","3:go_c","0",""
"null","","html-keyboard-response","393","620808","0.0-6.0-2.57","","<div style=""font-size:60px;"">+</div>","null","","","","","","",""
"509.3250000063563","","image-keyboard-response","394","621319","0.0-6.0-0.58","","img/blue.png","32","trial","null","false","0.2,0.8","2:nogo_b","",""
"null","","html-keyboard-response","395","622336","0.0-6.0-1.58","","<img src=""img/blue-n.png"" border=""10"">","null","trial","null","","0.2,0.8","2:nogo_b","0",""
"null","","html-keyboard-response","396","623347","0.0-6.0-2.58","","<div style=""font-size:60px;"">+</div>","null","","","","","","",""
"510.89499999943655","","image-keyboard-response","397","623860","0.0-6.0-0.59","","img/yellow.png","32","trial","32","true","0.8,0.2","1:go_a","",""
"null","","html-keyboard-response","398","624866","0.0-6.0-1.59","","<img src=""img/yellow-r.png"" border=""10"">","null","trial","32","","0.8,0.2","1:go_a","1",""
"null","","html-keyboard-response","399","625882","0.0-6.0-2.59","","<div style=""font-size:60px;"">+</div>","null","","","","","","",""
"551.5949999971781","","image-keyboard-response","400","626435","0.0-6.0-0.60","","img/pink.png","32","trial","null","false","0.4,0.6","4:nogo_d","",""
"null","","html-keyboard-response","401","627441","0.0-6.0-1.60","","<img src=""img/pink-r.png"" border=""10"">","null","trial","null","","0.4,0.6","4:nogo_d","1",""
"null","","html-keyboard-response","402","628456","0.0-6.0-2.60","","<div style=""font-size:60px;"">+</div>","null","","","","","","",""
"null","","image-keyboard-response","403","629972","0.0-6.0-0.61","","img/yellow.png","null","trial","32","false","0.8,0.2","1:go_a","",""
"null","","html-keyboard-response","404","630986","0.0-6.0-1.61","","<img src=""img/yellow-n.png"">","null","trial","32","","0.8,0.2","1:go_a","0",""
"null","","html-keyboard-response","405","632003","0.0-6.0-2.61","","<div style=""font-size:60px;"">+</div>","null","","","","","","",""
"427.464999986114","","image-keyboard-response","406","632432","0.0-6.0-0.62","","img/purple.png","32","trial","32","true","0.6,0.4","3:go_c","",""
"null","","html-keyboard-response","407","633436","0.0-6.0-1.62","","<img src=""img/purple-n.png"" border=""10"">","null","trial","32","","0.6,0.4","3:go_c","0",""
"null","","html-keyboard-response","408","634447","0.0-6.0-2.62","","<div style=""font-size:60px;"">+</div>","null","","","","","","",""
"588.949999990291","","image-keyboard-response","409","635037","0.0-6.0-0.63","","img/blue.png","32","trial","null","false","0.2,0.8","2:nogo_b","",""
"null","","html-keyboard-response","410","636050","0.0-6.0-1.63","","<img src=""img/blue-n.png"" border=""10"">","null","trial","null","","0.2,0.8","2:nogo_b","0",""
"null","","html-keyboard-response","411","637065","0.0-6.0-2.63","","<div style=""font-size:60px;"">+</div>","null","","","","","","",""
"null","","image-keyboard-response","412","638569","0.0-6.0-0.64","","img/blue.png","null","trial","null","true","0.2,0.8","2:nogo_b","",""
"null","","html-keyboard-response","413","639594","0.0-6.0-1.64","","<img src=""img/blue-r.png"">","null","trial","null","","0.2,0.8","2:nogo_b","1",""
"null","","html-keyboard-response","414","640597","0.0-6.0-2.64","","<div style=""font-size:60px;"">+</div>","null","","","","","","",""
"779.1500000021188","","image-keyboard-response","415","641378","0.0-6.0-0.65","","img/purple.png","32","trial","32","true","0.6,0.4","3:go_c","",""
"null","","html-keyboard-response","416","642391","0.0-6.0-1.65","","<img src=""img/purple-r.png"" border=""10"">","null","trial","32","","0.6,0.4","3:go_c","1",""
"null","","html-keyboard-response","417","643396","0.0-6.0-2.65","","<div style=""font-size:60px;"">+</div>","null","","","","","","",""
"null","","image-keyboard-response","418","644912","0.0-6.0-0.66","","img/yellow.png","null","trial","32","false","0.8,0.2","1:go_a","",""
"null","","html-keyboard-response","419","645918","0.0-6.0-1.66","","<img src=""img/yellow-n.png"">","null","trial","32","","0.8,0.2","1:go_a","0",""
"null","","html-keyboard-response","420","646927","0.0-6.0-2.66","","<div style=""font-size:60px;"">+</div>","null","","","","","","",""
"578.5150000010617","","image-keyboard-response","421","647507","0.0-6.0-0.67","","img/pink.png","32","trial","null","false","0.4,0.6","4:nogo_d","",""
"null","","html-keyboard-response","422","648522","0.0-6.0-1.67","","<img src=""img/pink-n.png"" border=""10"">","null","trial","null","","0.4,0.6","4:nogo_d","0",""
"null","","html-keyboard-response","423","649530","0.0-6.0-2.67","","<div style=""font-size:60px;"">+</div>","null","","","","","","",""
"810.4149999999208","","image-keyboard-response","424","650342","0.0-6.0-0.68","","img/purple.png","32","trial","32","true","0.6,0.4","3:go_c","",""
"null","","html-keyboard-response","425","651347","0.0-6.0-1.68","","<img src=""img/purple-r.png"" border=""10"">","null","trial","32","","0.6,0.4","3:go_c","1",""
"null","","html-keyboard-response","426","652360","0.0-6.0-2.68","","<div style=""font-size:60px;"">+</div>","null","","","","","","",""
"null","","image-keyboard-response","427","653869","0.0-6.0-0.69","","img/pink.png","null","trial","null","true","0.4,0.6","4:nogo_d","",""
"null","","html-keyboard-response","428","654875","0.0-6.0-1.69","","<img src=""img/pink-r.png"">","null","trial","null","","0.4,0.6","4:nogo_d","1",""
"null","","html-keyboard-response","429","655882","0.0-6.0-2.69","","<div style=""font-size:60px;"">+</div>","null","","","","","","",""
"510.7600000046659","","image-keyboard-response","430","656394","0.0-6.0-0.70","","img/blue.png","32","trial","null","false","0.2,0.8","2:nogo_b","",""
"null","","html-keyboard-response","431","657407","0.0-6.0-1.70","","<img src=""img/blue-r.png"" border=""10"">","null","trial","null","","0.2,0.8","2:nogo_b","1",""
"null","","html-keyboard-response","432","658409","0.0-6.0-2.70","","<div style=""font-size:60px;"">+</div>","null","","","","","","",""
"739.9900000018533","","image-keyboard-response","433","659151","0.0-6.0-0.71","","img/yellow.png","32","trial","32","true","0.8,0.2","1:go_a","",""
"null","","html-keyboard-response","434","660168","0.0-6.0-1.71","","<img src=""img/yellow-r.png"" border=""10"">","null","trial","32","","0.8,0.2","1:go_a","1",""
"null","","html-keyboard-response","435","661173","0.0-6.0-2.71","","<div style=""font-size:60px;"">+</div>","null","","","","","","",""
"677.6100000133738","","image-keyboard-response","436","661852","0.0-6.0-0.72","","img/purple.png","32","trial","32","true","0.6,0.4","3:go_c","",""
"null","","html-keyboard-response","437","662869","0.0-6.0-1.72","","<img src=""img/purple-n.png"" border=""10"">","null","trial","32","","0.6,0.4","3:go_c","0",""
"null","","html-keyboard-response","438","663875","0.0-6.0-2.72","","<div style=""font-size:60px;"">+</div>","null","","","","","","",""
"null","","image-keyboard-response","439","665383","0.0-6.0-0.73","","img/blue.png","null","trial","null","true","0.2,0.8","2:nogo_b","",""
"null","","html-keyboard-response","440","666394","0.0-6.0-1.73","","<img src=""img/blue-n.png"">","null","trial","null","","0.2,0.8","2:nogo_b","0",""
"null","","html-keyboard-response","441","667403","0.0-6.0-2.73","","<div style=""font-size:60px;"">+</div>","null","","","","","","",""
"558.1499999971129","","image-keyboard-response","442","667962","0.0-6.0-0.74","","img/pink.png","32","trial","null","false","0.4,0.6","4:nogo_d","",""
"null","","html-keyboard-response","443","668970","0.0-6.0-1.74","","<img src=""img/pink-n.png"" border=""10"">","null","trial","null","","0.4,0.6","4:nogo_d","0",""
"null","","html-keyboard-response","444","669984","0.0-6.0-2.74","","<div style=""font-size:60px;"">+</div>","null","","","","","","",""
"null","","image-keyboard-response","445","671500","0.0-6.0-0.75","","img/yellow.png","null","trial","32","false","0.8,0.2","1:go_a","",""
"null","","html-keyboard-response","446","672503","0.0-6.0-1.75","","<img src=""img/yellow-n.png"">","null","trial","32","","0.8,0.2","1:go_a","0",""
"null","","html-keyboard-response","447","673513","0.0-6.0-2.75","","<div style=""font-size:60px;"">+</div>","null","","","","","","",""
"486.7099999974016","","image-keyboard-response","448","674001","0.0-6.0-0.76","","img/purple.png","32","trial","32","true","0.6,0.4","3:go_c","",""
"null","","html-keyboard-response","449","675013","0.0-6.0-1.76","","<img src=""img/purple-r.png"" border=""10"">","null","trial","32","","0.6,0.4","3:go_c","1",""
"null","","html-keyboard-response","450","676021","0.0-6.0-2.76","","<div style=""font-size:60px;"">+</div>","null","","","","","","",""
"null","","image-keyboard-response","451","677534","0.0-6.0-0.77","","img/yellow.png","null","trial","32","false","0.8,0.2","1:go_a","",""
"null","","html-keyboard-response","452","678546","0.0-6.0-1.77","","<img src=""img/yellow-r.png"">","null","trial","32","","0.8,0.2","1:go_a","1",""
"null","","html-keyboard-response","453","679548","0.0-6.0-2.77","","<div style=""font-size:60px;"">+</div>","null","","","","","","",""
"null","","image-keyboard-response","454","681050","0.0-6.0-0.78","","img/blue.png","null","trial","null","true","0.2,0.8","2:nogo_b","",""
"null","","html-keyboard-response","455","682055","0.0-6.0-1.78","","<img src=""img/blue-n.png"">","null","trial","null","","0.2,0.8","2:nogo_b","0",""
"null","","html-keyboard-response","456","683064","0.0-6.0-2.78","","<div style=""font-size:60px;"">+</div>","null","","","","","","",""
"799.6500000008382","","image-keyboard-response","457","683865","0.0-6.0-0.79","","img/pink.png","32","trial","null","false","0.4,0.6","4:nogo_d","",""
"null","","html-keyboard-response","458","684880","0.0-6.0-1.79","","<img src=""img/pink-n.png"" border=""10"">","null","trial","null","","0.4,0.6","4:nogo_d","0",""
"null","","html-keyboard-response","459","685895","0.0-6.0-2.79","","<div style=""font-size:60px;"">+</div>","null","","","","","","",""
"593.2900000043446","","image-keyboard-response","460","686490","0.0-6.0-0.80","","img/blue.png","32","trial","null","false","0.2,0.8","2:nogo_b","",""
"null","","html-keyboard-response","461","687503","0.0-6.0-1.80","","<img src=""img/blue-n.png"" border=""10"">","null","trial","null","","0.2,0.8","2:nogo_b","0",""
"null","","html-keyboard-response","462","688519","0.0-6.0-2.80","","<div style=""font-size:60px;"">+</div>","null","","","","","","",""
"null","","image-keyboard-response","463","690027","0.0-6.0-0.81","","img/pink.png","null","trial","null","true","0.4,0.6","4:nogo_d","",""
"null","","html-keyboard-response","464","691036","0.0-6.0-1.81","","<img src=""img/pink-r.png"">","null","trial","null","","0.4,0.6","4:nogo_d","1",""
"null","","html-keyboard-response","465","692041","0.0-6.0-2.81","","<div style=""font-size:60px;"">+</div>","null","","","","","","",""
"769.7100000077626","","image-keyboard-response","466","692812","0.0-6.0-0.82","","img/purple.png","32","trial","32","true","0.6,0.4","3:go_c","",""
"null","","html-keyboard-response","467","693825","0.0-6.0-1.82","","<img src=""img/purple-r.png"" border=""10"">","null","trial","32","","0.6,0.4","3:go_c","1",""
"null","","html-keyboard-response","468","694827","0.0-6.0-2.82","","<div style=""font-size:60px;"">+</div>","null","","","","","","",""
"968.074999997043","","image-keyboard-response","469","695796","0.0-6.0-0.83","","img/yellow.png","32","trial","32","true","0.8,0.2","1:go_a","",""
"null","","html-keyboard-response","470","696805","0.0-6.0-1.83","","<img src=""img/yellow-n.png"" border=""10"">","null","trial","32","","0.8,0.2","1:go_a","0",""
"null","","html-keyboard-response","471","697812","0.0-6.0-2.83","","<div style=""font-size:60px;"">+</div>","null","","","","","","",""
"null","","image-keyboard-response","472","699321","0.0-6.0-0.84","","img/pink.png","null","trial","null","true","0.4,0.6","4:nogo_d","",""
"null","","html-keyboard-response","473","700329","0.0-6.0-1.84","","<img src=""img/pink-r.png"">","null","trial","null","","0.4,0.6","4:nogo_d","1",""
"null","","html-keyboard-response","474","701335","0.0-6.0-2.84","","<div style=""font-size:60px;"">+</div>","null","","","","","","",""
"null","","image-keyboard-response","475","702845","0.0-6.0-0.85","","img/purple.png","null","trial","32","false","0.6,0.4","3:go_c","",""
"null","","html-keyboard-response","476","703856","0.0-6.0-1.85","","<img src=""img/purple-r.png"">","null","trial","32","","0.6,0.4","3:go_c","1",""
"null","","html-keyboard-response","477","704871","0.0-6.0-2.85","","<div style=""font-size:60px;"">+</div>","null","","","","","","",""
"898.5699999902863","","image-keyboard-response","478","705771","0.0-6.0-0.86","","img/yellow.png","32","trial","32","true","0.8,0.2","1:go_a","",""
"null","","html-keyboard-response","479","706776","0.0-6.0-1.86","","<img src=""img/yellow-r.png"" border=""10"">","null","trial","32","","0.8,0.2","1:go_a","1",""
"null","","html-keyboard-response","480","707792","0.0-6.0-2.86","","<div style=""font-size:60px;"">+</div>","null","","","","","","",""
"634.7700000042096","","image-keyboard-response","481","708428","0.0-6.0-0.87","","img/blue.png","32","trial","null","false","0.2,0.8","2:nogo_b","",""
"null","","html-keyboard-response","482","709433","0.0-6.0-1.87","","<img src=""img/blue-r.png"" border=""10"">","null","trial","null","","0.2,0.8","2:nogo_b","1",""
"null","","html-keyboard-response","483","710446","0.0-6.0-2.87","","<div style=""font-size:60px;"">+</div>","null","","","","","","",""
"null","","image-keyboard-response","484","711947","0.0-6.0-0.88","","img/yellow.png","null","trial","32","false","0.8,0.2","1:go_a","",""
"null","","html-keyboard-response","485","712954","0.0-6.0-1.88","","<img src=""img/yellow-n.png"">","null","trial","32","","0.8,0.2","1:go_a","0",""
"null","","html-keyboard-response","486","713969","0.0-6.0-2.88","","<div style=""font-size:60px;"">+</div>","null","","","","","","",""
"null","","image-keyboard-response","487","715478","0.0-6.0-0.89","","img/purple.png","null","trial","32","false","0.6,0.4","3:go_c","",""
"null","","html-keyboard-response","488","716487","0.0-6.0-1.89","","<img src=""img/purple-n.png"">","null","trial","32","","0.6,0.4","3:go_c","0",""
"null","","html-keyboard-response","489","717491","0.0-6.0-2.89","","<div style=""font-size:60px;"">+</div>","null","","","","","","",""
"504.2049999901792","","image-keyboard-response","490","717996","0.0-6.0-0.90","","img/blue.png","32","trial","null","false","0.2,0.8","2:nogo_b","",""
"null","","html-keyboard-response","491","719007","0.0-6.0-1.90","","<img src=""img/blue-n.png"" border=""10"">","null","trial","null","","0.2,0.8","2:nogo_b","0",""
"null","","html-keyboard-response","492","720013","0.0-6.0-2.90","","<div style=""font-size:60px;"">+</div>","null","","","","","","",""
"693.9649999985704","","image-keyboard-response","493","720708","0.0-6.0-0.91","","img/pink.png","32","trial","null","false","0.4,0.6","4:nogo_d","",""
"null","","html-keyboard-response","494","721722","0.0-6.0-1.91","","<img src=""img/pink-n.png"" border=""10"">","null","trial","null","","0.4,0.6","4:nogo_d","0",""
"null","","html-keyboard-response","495","722727","0.0-6.0-2.91","","<div style=""font-size:60px;"">+</div>","null","","","","","","",""
"1433.7349999987055","","image-keyboard-response","496","724162","0.0-6.0-0.92","","img/yellow.png","32","trial","32","true","0.8,0.2","1:go_a","",""
"null","","html-keyboard-response","497","725169","0.0-6.0-1.92","","<img src=""img/yellow-r.png"" border=""10"">","null","trial","32","","0.8,0.2","1:go_a","1",""
"null","","html-keyboard-response","498","726181","0.0-6.0-2.92","","<div style=""font-size:60px;"">+</div>","null","","","","","","",""
"522.8550000028918","","image-keyboard-response","499","726706","0.0-6.0-0.93","","img/purple.png","32","trial","32","true","0.6,0.4","3:go_c","",""
"null","","html-keyboard-response","500","727721","0.0-6.0-1.93","","<img src=""img/purple-n.png"" border=""10"">","null","trial","32","","0.6,0.4","3:go_c","0",""
"null","","html-keyboard-response","501","728727","0.0-6.0-2.93","","<div style=""font-size:60px;"">+</div>","null","","","","","","",""
"826.4999999955762","","image-keyboard-response","502","729555","0.0-6.0-0.94","","img/pink.png","32","trial","null","false","0.4,0.6","4:nogo_d","",""
"null","","html-keyboard-response","503","730563","0.0-6.0-1.94","","<img src=""img/pink-n.png"" border=""10"">","null","trial","null","","0.4,0.6","4:nogo_d","0",""
"null","","html-keyboard-response","504","731565","0.0-6.0-2.94","","<div style=""font-size:60px;"">+</div>","null","","","","","","",""
"null","","image-keyboard-response","505","733068","0.0-6.0-0.95","","img/blue.png","null","trial","null","true","0.2,0.8","2:nogo_b","",""
"null","","html-keyboard-response","506","734081","0.0-6.0-1.95","","<img src=""img/blue-r.png"">","null","trial","null","","0.2,0.8","2:nogo_b","1",""
"null","","html-keyboard-response","507","735094","0.0-6.0-2.95","","<div style=""font-size:60px;"">+</div>","null","","","","","","",""
"null","","image-keyboard-response","508","736608","0.0-6.0-0.96","","img/pink.png","null","trial","null","true","0.4,0.6","4:nogo_d","",""
"null","","html-keyboard-response","509","737625","0.0-6.0-1.96","","<img src=""img/pink-r.png"">","null","trial","null","","0.4,0.6","4:nogo_d","1",""
"null","","html-keyboard-response","510","738629","0.0-6.0-2.96","","<div style=""font-size:60px;"">+</div>","null","","","","","","",""
"null","","image-keyboard-response","511","740133","0.0-6.0-0.97","","img/blue.png","null","trial","null","true","0.2,0.8","2:nogo_b","",""
"null","","html-keyboard-response","512","741146","0.0-6.0-1.97","","<img src=""img/blue-r.png"">","null","trial","null","","0.2,0.8","2:nogo_b","1",""
"null","","html-keyboard-response","513","742161","0.0-6.0-2.97","","<div style=""font-size:60px;"">+</div>","null","","","","","","",""
"null","","image-keyboard-response","514","743673","0.0-6.0-0.98","","img/yellow.png","null","trial","32","false","0.8,0.2","1:go_a","",""
"null","","html-keyboard-response","515","744679","0.0-6.0-1.98","","<img src=""img/yellow-n.png"">","null","trial","32","","0.8,0.2","1:go_a","0",""
"null","","html-keyboard-response","516","745685","0.0-6.0-2.98","","<div style=""font-size:60px;"">+</div>","null","","","","","","",""
"419.0299999900162","","image-keyboard-response","517","746105","0.0-6.0-0.99","","img/purple.png","32","trial","32","true","0.6,0.4","3:go_c","",""
"null","","html-keyboard-response","518","747116","0.0-6.0-1.99","","<img src=""img/purple-r.png"" border=""10"">","null","trial","32","","0.6,0.4","3:go_c","1",""
"null","","html-keyboard-response","519","748121","0.0-6.0-2.99","","<div style=""font-size:60px;"">+</div>","null","","","","","","",""
"411.33499999705236","","image-keyboard-response","520","748534","0.0-6.0-0.100","","img/blue.png","32","trial","null","false","0.2,0.8","2:nogo_b","",""
"null","","html-keyboard-response","521","749550","0.0-6.0-1.100","","<img src=""img/blue-n.png"" border=""10"">","null","trial","null","","0.2,0.8","2:nogo_b","0",""
"null","","html-keyboard-response","522","750563","0.0-6.0-2.100","","<div style=""font-size:60px;"">+</div>","null","","","","","","",""
"439.2250000091735","","image-keyboard-response","523","751004","0.0-6.0-0.101","","img/yellow.png","32","trial","32","true","0.8,0.2","1:go_a","",""
"null","","html-keyboard-response","524","752020","0.0-6.0-1.101","","<img src=""img/yellow-r.png"" border=""10"">","null","trial","32","","0.8,0.2","1:go_a","1",""
"null","","html-keyboard-response","525","753030","0.0-6.0-2.101","","<div style=""font-size:60px;"">+</div>","null","","","","","","",""
"655.4200000100536","","image-keyboard-response","526","753687","0.0-6.0-0.102","","img/pink.png","32","trial","null","false","0.4,0.6","4:nogo_d","",""
"null","","html-keyboard-response","527","754701","0.0-6.0-1.102","","<img src=""img/pink-n.png"" border=""10"">","null","trial","null","","0.4,0.6","4:nogo_d","0",""
"null","","html-keyboard-response","528","755707","0.0-6.0-2.102","","<div style=""font-size:60px;"">+</div>","null","","","","","","",""
"399.33500000915956","","image-keyboard-response","529","756108","0.0-6.0-0.103","","img/purple.png","32","trial","32","true","0.6,0.4","3:go_c","",""
"null","","html-keyboard-response","530","757122","0.0-6.0-1.103","","<img src=""img/purple-n.png"" border=""10"">","null","trial","32","","0.6,0.4","3:go_c","0",""
"null","","html-keyboard-response","531","758133","0.0-6.0-2.103","","<div style=""font-size:60px;"">+</div>","null","","","","","","",""
"null","","image-keyboard-response","532","759649","0.0-6.0-0.104","","img/pink.png","null","trial","null","true","0.4,0.6","4:nogo_d","",""
"null","","html-keyboard-response","533","760652","0.0-6.0-1.104","","<img src=""img/pink-n.png"">","null","trial","null","","0.4,0.6","4:nogo_d","0",""
"null","","html-keyboard-response","534","761664","0.0-6.0-2.104","","<div style=""font-size:60px;"">+</div>","null","","","","","","",""
"null","","image-keyboard-response","535","763169","0.0-6.0-0.105","","img/yellow.png","null","trial","32","false","0.8,0.2","1:go_a","",""
"null","","html-keyboard-response","536","764180","0.0-6.0-1.105","","<img src=""img/yellow-r.png"">","null","trial","32","","0.8,0.2","1:go_a","1",""
"null","","html-keyboard-response","537","765194","0.0-6.0-2.105","","<div style=""font-size:60px;"">+</div>","null","","","","","","",""
"null","","image-keyboard-response","538","766702","0.0-6.0-0.106","","img/purple.png","null","trial","32","false","0.6,0.4","3:go_c","",""
"null","","html-keyboard-response","539","767710","0.0-6.0-1.106","","<img src=""img/purple-r.png"">","null","trial","32","","0.6,0.4","3:go_c","1",""
"null","","html-keyboard-response","540","768726","0.0-6.0-2.106","","<div style=""font-size:60px;"">+</div>","null","","","","","","",""
"null","","image-keyboard-response","541","770229","0.0-6.0-0.107","","img/blue.png","null","trial","null","true","0.2,0.8","2:nogo_b","",""
"null","","html-keyboard-response","542","771244","0.0-6.0-1.107","","<img src=""img/blue-r.png"">","null","trial","null","","0.2,0.8","2:nogo_b","1",""
"null","","html-keyboard-response","543","772247","0.0-6.0-2.107","","<div style=""font-size:60px;"">+</div>","null","","","","","","",""
"null","","image-keyboard-response","544","773750","0.0-6.0-0.108","","img/pink.png","null","trial","null","true","0.4,0.6","4:nogo_d","",""
"null","","html-keyboard-response","545","774757","0.0-6.0-1.108","","<img src=""img/pink-n.png"">","null","trial","null","","0.4,0.6","4:nogo_d","0",""
"null","","html-keyboard-response","546","775767","0.0-6.0-2.108","","<div style=""font-size:60px;"">+</div>","null","","","","","","",""
"297.55499999737367","","image-keyboard-response","547","776067","0.0-6.0-0.109","","img/blue.png","32","trial","null","false","0.2,0.8","2:nogo_b","",""
"null","","html-keyboard-response","548","777070","0.0-6.0-1.109","","<img src=""img/blue-n.png"" border=""10"">","null","trial","null","","0.2,0.8","2:nogo_b","0",""
"null","","html-keyboard-response","549","778078","0.0-6.0-2.109","","<div style=""font-size:60px;"">+</div>","null","","","","","","",""
"482.3599999945145","","image-keyboard-response","550","778563","0.0-6.0-0.110","","img/yellow.png","32","trial","32","true","0.8,0.2","1:go_a","",""
"null","","html-keyboard-response","551","779575","0.0-6.0-1.110","","<img src=""img/yellow-n.png"" border=""10"">","null","trial","32","","0.8,0.2","1:go_a","0",""
"null","","html-keyboard-response","552","780590","0.0-6.0-2.110","","<div style=""font-size:60px;"">+</div>","null","","","","","","",""
"null","","image-keyboard-response","553","782095","0.0-6.0-0.111","","img/purple.png","null","trial","32","false","0.6,0.4","3:go_c","",""
"null","","html-keyboard-response","554","783100","0.0-6.0-1.111","","<img src=""img/purple-r.png"">","null","trial","32","","0.6,0.4","3:go_c","1",""
"null","","html-keyboard-response","555","784106","0.0-6.0-2.111","","<div style=""font-size:60px;"">+</div>","null","","","","","","",""
"null","","image-keyboard-response","556","785618","0.0-6.0-0.112","","img/blue.png","null","trial","null","true","0.2,0.8","2:nogo_b","",""
"null","","html-keyboard-response","557","786635","0.0-6.0-1.112","","<img src=""img/blue-r.png"">","null","trial","null","","0.2,0.8","2:nogo_b","1",""
"null","","html-keyboard-response","558","787637","0.0-6.0-2.112","","<div style=""font-size:60px;"">+</div>","null","","","","","","",""
"null","","image-keyboard-response","559","789140","0.0-6.0-0.113","","img/yellow.png","null","trial","32","false","0.8,0.2","1:go_a","",""
"null","","html-keyboard-response","560","790143","0.0-6.0-1.113","","<img src=""img/yellow-n.png"">","null","trial","32","","0.8,0.2","1:go_a","0",""
"null","","html-keyboard-response","561","791149","0.0-6.0-2.113","","<div style=""font-size:60px;"">+</div>","null","","","","","","",""
"363.630000007106","","image-keyboard-response","562","791514","0.0-6.0-0.114","","img/pink.png","32","trial","null","false","0.4,0.6","4:nogo_d","",""
"null","","html-keyboard-response","563","792518","0.0-6.0-1.114","","<img src=""img/pink-n.png"" border=""10"">","null","trial","null","","0.4,0.6","4:nogo_d","0",""
"null","","html-keyboard-response","564","793534","0.0-6.0-2.114","","<div style=""font-size:60px;"">+</div>","null","","","","","","",""
"null","","image-keyboard-response","565","795043","0.0-6.0-0.115","","img/purple.png","null","trial","32","false","0.6,0.4","3:go_c","",""
"null","","html-keyboard-response","566","796048","0.0-6.0-1.115","","<img src=""img/purple-r.png"">","null","trial","32","","0.6,0.4","3:go_c","1",""
"null","","html-keyboard-response","567","797056","0.0-6.0-2.115","","<div style=""font-size:60px;"">+</div>","null","","","","","","",""
"739.9349999905098","","image-keyboard-response","568","797797","0.0-6.0-0.116","","img/yellow.png","32","trial","32","true","0.8,0.2","1:go_a","",""
"null","","html-keyboard-response","569","798813","0.0-6.0-1.116","","<img src=""img/yellow-r.png"" border=""10"">","null","trial","32","","0.8,0.2","1:go_a","1",""
"null","","html-keyboard-response","570","799815","0.0-6.0-2.116","","<div style=""font-size:60px;"">+</div>","null","","","","","","",""
"null","","image-keyboard-response","571","801323","0.0-6.0-0.117","","img/blue.png","null","trial","null","true","0.2,0.8","2:nogo_b","",""
"null","","html-keyboard-response","572","802329","0.0-6.0-1.117","","<img src=""img/blue-r.png"">","null","trial","null","","0.2,0.8","2:nogo_b","1",""
"null","","html-keyboard-response","573","803339","0.0-6.0-2.117","","<div style=""font-size:60px;"">+</div>","null","","","","","","",""
"622.044999996433","","image-keyboard-response","574","803963","0.0-6.0-0.118","","img/purple.png","32","trial","32","true","0.6,0.4","3:go_c","",""
"null","","html-keyboard-response","575","804981","0.0-6.0-1.118","","<img src=""img/purple-n.png"" border=""10"">","null","trial","32","","0.6,0.4","3:go_c","0",""
"null","","html-keyboard-response","576","805991","0.0-6.0-2.118","","<div style=""font-size:60px;"">+</div>","null","","","","","","",""
"542.4950000015087","","image-keyboard-response","577","806535","0.0-6.0-0.119","","img/pink.png","32","trial","null","false","0.4,0.6","4:nogo_d","",""
"null","","html-keyboard-response","578","807545","0.0-6.0-1.119","","<img src=""img/pink-n.png"" border=""10"">","null","trial","null","","0.4,0.6","4:nogo_d","0",""
"null","","html-keyboard-response","579","808551","0.0-6.0-2.119","","<div style=""font-size:60px;"">+</div>","null","","","","","","",""
"4826.29499999166","","instructions","580","813378","0.0-7.0","[{""page_index"":0,""viewing_time"":4826.129999986733}]","","","","","","","","",""
"820.1850000041304","","image-keyboard-response","581","814200","0.0-8.0-0.0","","img/orange.png","32","trial","32","true","0.8,0.2","3:go_c","",""
"null","","html-keyboard-response","582","815202","0.0-8.0-1.0","","<img src=""img/orange-r.png"" border=""10"">","null","trial","32","","0.8,0.2","3:go_c","1",""
"null","","html-keyboard-response","583","816207","0.0-8.0-2.0","","<div style=""font-size:60px;"">+</div>","null","","","","","","",""
"526.6350000019884","","image-keyboard-response","584","816736","0.0-8.0-0.1","","img/red.png","32","trial","32","true","0.8,0.2","1:go_a","",""
"null","","html-keyboard-response","585","817739","0.0-8.0-1.1","","<img src=""img/red-n.png"" border=""10"">","null","trial","32","","0.8,0.2","1:go_a","0",""
"null","","html-keyboard-response","586","818740","0.0-8.0-2.1","","<div style=""font-size:60px;"">+</div>","null","","","","","","",""
"630.4800000070827","","image-keyboard-response","587","819372","0.0-8.0-0.2","","img/green.png","32","trial","null","false","0.2,0.8","2:nogo_b","",""
"null","","html-keyboard-response","588","820387","0.0-8.0-1.2","","<img src=""img/green-n.png"" border=""10"">","null","trial","null","","0.2,0.8","2:nogo_b","0",""
"null","","html-keyboard-response","589","821394","0.0-8.0-2.2","","<div style=""font-size:60px;"">+</div>","null","","","","","","",""
"579.34500000556","","image-keyboard-response","590","821975","0.0-8.0-0.3","","img/purple.png","32","trial","null","false","0.2,0.8","4:nogo_d","",""
"null","","html-keyboard-response","591","822992","0.0-8.0-1.3","","<img src=""img/purple-n.png"" border=""10"">","null","trial","null","","0.2,0.8","4:nogo_d","0",""
"null","","html-keyboard-response","592","824001","0.0-8.0-2.3","","<div style=""font-size:60px;"">+</div>","null","","","","","","",""
"null","","image-keyboard-response","593","825508","0.0-8.0-0.4","","img/purple.png","null","trial","null","true","0.2,0.8","4:nogo_d","",""
"null","","html-keyboard-response","594","826511","0.0-8.0-1.4","","<img src=""img/purple-r.png"">","null","trial","null","","0.2,0.8","4:nogo_d","1",""
"null","","html-keyboard-response","595","827519","0.0-8.0-2.4","","<div style=""font-size:60px;"">+</div>","null","","","","","","",""
"null","","image-keyboard-response","596","829035","0.0-8.0-0.5","","img/green.png","null","trial","null","true","0.2,0.8","2:nogo_b","",""
"null","","html-keyboard-response","597","830050","0.0-8.0-1.5","","<img src=""img/green-r.png"">","null","trial","null","","0.2,0.8","2:nogo_b","1",""
"null","","html-keyboard-response","598","831062","0.0-8.0-2.5","","<div style=""font-size:60px;"">+</div>","null","","","","","","",""
"711.5149999881396","","image-keyboard-response","599","831775","0.0-8.0-0.6","","img/orange.png","32","trial","32","true","0.8,0.2","3:go_c","",""
"null","","html-keyboard-response","600","832786","0.0-8.0-1.6","","<img src=""img/orange-r.png"" border=""10"">","null","trial","32","","0.8,0.2","3:go_c","1",""
"null","","html-keyboard-response","601","833795","0.0-8.0-2.6","","<div style=""font-size:60px;"">+</div>","null","","","","","","",""
"null","","image-keyboard-response","602","835306","0.0-8.0-0.7","","img/red.png","null","trial","32","false","0.8,0.2","1:go_a","",""
"null","","html-keyboard-response","603","836312","0.0-8.0-1.7","","<img src=""img/red-n.png"">","null","trial","32","","0.8,0.2","1:go_a","0",""
"null","","html-keyboard-response","604","837315","0.0-8.0-2.7","","<div style=""font-size:60px;"">+</div>","null","","","","","","",""
"942.2449999983655","","image-keyboard-response","605","838258","0.0-8.0-0.8","","img/red.png","32","trial","32","true","0.8,0.2","1:go_a","",""
"null","","html-keyboard-response","606","839273","0.0-8.0-1.8","","<img src=""img/red-r.png"" border=""10"">","null","trial","32","","0.8,0.2","1:go_a","1",""
"null","","html-keyboard-response","607","840289","0.0-8.0-2.8","","<div style=""font-size:60px;"">+</div>","null","","","","","","",""
"754.7600000107195","","image-keyboard-response","608","841045","0.0-8.0-0.9","","img/orange.png","32","trial","32","true","0.8,0.2","3:go_c","",""
"null","","html-keyboard-response","609","842054","0.0-8.0-1.9","","<img src=""img/orange-r.png"" border=""10"">","null","trial","32","","0.8,0.2","3:go_c","1",""
"null","","html-keyboard-response","610","843071","0.0-8.0-2.9","","<div style=""font-size:60px;"">+</div>","null","","","","","","",""
"null","","image-keyboard-response","611","844586","0.0-8.0-0.10","","img/green.png","null","trial","null","true","0.2,0.8","2:nogo_b","",""
"null","","html-keyboard-response","612","845601","0.0-8.0-1.10","","<img src=""img/green-n.png"">","null","trial","null","","0.2,0.8","2:nogo_b","0",""
"null","","html-keyboard-response","613","846617","0.0-8.0-2.10","","<div style=""font-size:60px;"">+</div>","null","","","","","","",""
"null","","image-keyboard-response","614","848119","0.0-8.0-0.11","","img/purple.png","null","trial","null","true","0.2,0.8","4:nogo_d","",""
"null","","html-keyboard-response","615","849129","0.0-8.0-1.11","","<img src=""img/purple-r.png"">","null","trial","null","","0.2,0.8","4:nogo_d","1",""
"null","","html-keyboard-response","616","850143","0.0-8.0-2.11","","<div style=""font-size:60px;"">+</div>","null","","","","","","",""
"699.8350000067148","","image-keyboard-response","617","850844","0.0-8.0-0.12","","img/purple.png","32","trial","null","false","0.2,0.8","4:nogo_d","",""
"null","","html-keyboard-response","618","851856","0.0-8.0-1.12","","<img src=""img/purple-n.png"" border=""10"">","null","trial","null","","0.2,0.8","4:nogo_d","0",""
"null","","html-keyboard-response","619","852872","0.0-8.0-2.12","","<div style=""font-size:60px;"">+</div>","null","","","","","","",""
"492.0249999995576","","image-keyboard-response","620","853366","0.0-8.0-0.13","","img/orange.png","32","trial","32","true","0.8,0.2","3:go_c","",""
"null","","html-keyboard-response","621","854368","0.0-8.0-1.13","","<img src=""img/orange-r.png"" border=""10"">","null","trial","32","","0.8,0.2","3:go_c","1",""
"null","","html-keyboard-response","622","855377","0.0-8.0-2.13","","<div style=""font-size:60px;"">+</div>","null","","","","","","",""
"773.3349999907659","","image-keyboard-response","623","856152","0.0-8.0-0.14","","img/red.png","32","trial","32","true","0.8,0.2","1:go_a","",""
"null","","html-keyboard-response","624","857160","0.0-8.0-1.14","","<img src=""img/red-r.png"" border=""10"">","null","trial","32","","0.8,0.2","1:go_a","1",""
"null","","html-keyboard-response","625","858171","0.0-8.0-2.14","","<div style=""font-size:60px;"">+</div>","null","","","","","","",""
"487.62499999429565","","image-keyboard-response","626","858661","0.0-8.0-0.15","","img/green.png","32","trial","null","false","0.2,0.8","2:nogo_b","",""
"null","","html-keyboard-response","627","859677","0.0-8.0-1.15","","<img src=""img/green-n.png"" border=""10"">","null","trial","null","","0.2,0.8","2:nogo_b","0",""
"null","","html-keyboard-response","628","860689","0.0-8.0-2.15","","<div style=""font-size:60px;"">+</div>","null","","","","","","",""
"703.3999999985099","","image-keyboard-response","629","861394","0.0-8.0-0.16","","img/orange.png","32","trial","32","true","0.8,0.2","3:go_c","",""
"null","","html-keyboard-response","630","862409","0.0-8.0-1.16","","<img src=""img/orange-r.png"" border=""10"">","null","trial","32","","0.8,0.2","3:go_c","1",""
"null","","html-keyboard-response","631","863434","0.0-8.0-2.16","","<div style=""font-size:60px;"">+</div>","null","","","","","","",""
"526.2149999907706","","image-keyboard-response","632","863961","0.0-8.0-0.17","","img/red.png","32","trial","32","true","0.8,0.2","1:go_a","",""
"null","","html-keyboard-response","633","864969","0.0-8.0-1.17","","<img src=""img/red-r.png"" border=""10"">","null","trial","32","","0.8,0.2","1:go_a","1",""
"null","","html-keyboard-response","634","865977","0.0-8.0-2.17","","<div style=""font-size:60px;"">+</div>","null","","","","","","",""
"null","","image-keyboard-response","635","867480","0.0-8.0-0.18","","img/purple.png","null","trial","null","true","0.2,0.8","4:nogo_d","",""
"null","","html-keyboard-response","636","868497","0.0-8.0-1.18","","<img src=""img/purple-r.png"">","null","trial","null","","0.2,0.8","4:nogo_d","1",""
"null","","html-keyboard-response","637","869502","0.0-8.0-2.18","","<div style=""font-size:60px;"">+</div>","null","","","","","","",""
"null","","image-keyboard-response","638","871010","0.0-8.0-0.19","","img/green.png","null","trial","null","true","0.2,0.8","2:nogo_b","",""
"null","","html-keyboard-response","639","872023","0.0-8.0-1.19","","<img src=""img/green-n.png"">","null","trial","null","","0.2,0.8","2:nogo_b","0",""
"null","","html-keyboard-response","640","873034","0.0-8.0-2.19","","<div style=""font-size:60px;"">+</div>","null","","","","","","",""
"611.8299999943702","","image-keyboard-response","641","873647","0.0-8.0-0.20","","img/purple.png","32","trial","null","false","0.2,0.8","4:nogo_d","",""
"null","","html-keyboard-response","642","874658","0.0-8.0-1.20","","<img src=""img/purple-n.png"" border=""10"">","null","trial","null","","0.2,0.8","4:nogo_d","0",""
"null","","html-keyboard-response","643","875668","0.0-8.0-2.20","","<div style=""font-size:60px;"">+</div>","null","","","","","","",""
"695.6550000031712","","image-keyboard-response","644","876365","0.0-8.0-0.21","","img/orange.png","32","trial","32","true","0.8,0.2","3:go_c","",""
"null","","html-keyboard-response","645","877378","0.0-8.0-1.21","","<img src=""img/orange-r.png"" border=""10"">","null","trial","32","","0.8,0.2","3:go_c","1",""
"null","","html-keyboard-response","646","878390","0.0-8.0-2.21","","<div style=""font-size:60px;"">+</div>","null","","","","","","",""
"null","","image-keyboard-response","647","879894","0.0-8.0-0.22","","img/green.png","null","trial","null","true","0.2,0.8","2:nogo_b","",""
"null","","html-keyboard-response","648","880903","0.0-8.0-1.22","","<img src=""img/green-r.png"">","null","trial","null","","0.2,0.8","2:nogo_b","1",""
"null","","html-keyboard-response","649","881919","0.0-8.0-2.22","","<div style=""font-size:60px;"">+</div>","null","","","","","","",""
"658.2349999953294","","image-keyboard-response","650","882579","0.0-8.0-0.23","","img/red.png","32","trial","32","true","0.8,0.2","1:go_a","",""
"null","","html-keyboard-response","651","883596","0.0-8.0-1.23","","<img src=""img/red-n.png"" border=""10"">","null","trial","32","","0.8,0.2","1:go_a","0",""
"null","","html-keyboard-response","652","884602","0.0-8.0-2.23","","<div style=""font-size:60px;"">+</div>","null","","","","","","",""
"null","","image-keyboard-response","653","886112","0.0-8.0-0.24","","img/red.png","null","trial","32","false","0.8,0.2","1:go_a","",""
"null","","html-keyboard-response","654","887127","0.0-8.0-1.24","","<img src=""img/red-n.png"">","null","trial","32","","0.8,0.2","1:go_a","0",""
"null","","html-keyboard-response","655","888134","0.0-8.0-2.24","","<div style=""font-size:60px;"">+</div>","null","","","","","","",""
"824.0249999944353","","image-keyboard-response","656","888959","0.0-8.0-0.25","","img/orange.png","32","trial","32","true","0.8,0.2","3:go_c","",""
"null","","html-keyboard-response","657","889966","0.0-8.0-1.25","","<img src=""img/orange-r.png"" border=""10"">","null","trial","32","","0.8,0.2","3:go_c","1",""
"null","","html-keyboard-response","658","890973","0.0-8.0-2.25","","<div style=""font-size:60px;"">+</div>","null","","","","","","",""
"null","","image-keyboard-response","659","892482","0.0-8.0-0.26","","img/green.png","null","trial","null","true","0.2,0.8","2:nogo_b","",""
"null","","html-keyboard-response","660","893500","0.0-8.0-1.26","","<img src=""img/green-r.png"">","null","trial","null","","0.2,0.8","2:nogo_b","1",""
"null","","html-keyboard-response","661","894511","0.0-8.0-2.26","","<div style=""font-size:60px;"">+</div>","null","","","","","","",""
"null","","image-keyboard-response","662","896027","0.0-8.0-0.27","","img/purple.png","null","trial","null","true","0.2,0.8","4:nogo_d","",""
"null","","html-keyboard-response","663","897039","0.0-8.0-1.27","","<img src=""img/purple-r.png"">","null","trial","null","","0.2,0.8","4:nogo_d","1",""
"null","","html-keyboard-response","664","898050","0.0-8.0-2.27","","<div style=""font-size:60px;"">+</div>","null","","","","","","",""
"null","","image-keyboard-response","665","899566","0.0-8.0-0.28","","img/green.png","null","trial","null","true","0.2,0.8","2:nogo_b","",""
"null","","html-keyboard-response","666","900581","0.0-8.0-1.28","","<img src=""img/green-n.png"">","null","trial","null","","0.2,0.8","2:nogo_b","0",""
"null","","html-keyboard-response","667","901593","0.0-8.0-2.28","","<div style=""font-size:60px;"">+</div>","null","","","","","","",""
"757.4549999990268","","image-keyboard-response","668","902352","0.0-8.0-0.29","","img/purple.png","32","trial","null","false","0.2,0.8","4:nogo_d","",""
"null","","html-keyboard-response","669","903365","0.0-8.0-1.29","","<img src=""img/purple-r.png"" border=""10"">","null","trial","null","","0.2,0.8","4:nogo_d","1",""
"null","","html-keyboard-response","670","904378","0.0-8.0-2.29","","<div style=""font-size:60px;"">+</div>","null","","","","","","",""
"null","","image-keyboard-response","671","905882","0.0-8.0-0.30","","img/red.png","null","trial","32","false","0.8,0.2","1:go_a","",""
"null","","html-keyboard-response","672","906895","0.0-8.0-1.30","","<img src=""img/red-n.png"">","null","trial","32","","0.8,0.2","1:go_a","0",""
"null","","html-keyboard-response","673","907905","0.0-8.0-2.30","","<div style=""font-size:60px;"">+</div>","null","","","","","","",""
"540.6099999963772","","image-keyboard-response","674","908447","0.0-8.0-0.31","","img/orange.png","32","trial","32","true","0.8,0.2","3:go_c","",""
"null","","html-keyboard-response","675","909462","0.0-8.0-1.31","","<img src=""img/orange-r.png"" border=""10"">","null","trial","32","","0.8,0.2","3:go_c","1",""
"null","","html-keyboard-response","676","910472","0.0-8.0-2.31","","<div style=""font-size:60px;"">+</div>","null","","","","","","",""
"750.7150000019465","","image-keyboard-response","677","911224","0.0-8.0-0.32","","img/purple.png","32","trial","null","false","0.2,0.8","4:nogo_d","",""
"null","","html-keyboard-response","678","912234","0.0-8.0-1.32","","<img src=""img/purple-r.png"" border=""10"">","null","trial","null","","0.2,0.8","4:nogo_d","1",""
