"rt","url","trial_type","trial_index","time_elapsed","internal_node_id","view_history","stimulus","key_press","test_part","correct_response","correct","use_rew","which_stim","reward","responses"
"26799","consent.html","external-html","0","27470","0.0-0.0","","","","","","","","","",""
"490294","","instructions","1","517767","0.0-1.0","[{""page_index"":0,""viewing_time"":82318},{""page_index"":1,""viewing_time"":10714},{""page_index"":2,""viewing_time"":354576},{""page_index"":3,""viewing_time"":3319},{""page_index"":4,""viewing_time"":6616},{""page_index"":5,""viewing_time"":26667},{""page_index"":6,""viewing_time"":6084}]","","","","","","","","",""
"479","","image-keyboard-response","2","518254","0.0-2.0-0.0","","img/test1.PNG","32","practice","32","true","","","",""
"null","","html-keyboard-response","3","519270","0.0-2.0-1.0","","<img src=""img/test1-reward.PNG"" border=""10px; grey"">","null","","","","","","",""
"null","","html-keyboard-response","4","520284","0.0-2.0-2.0","","<div style=""font-size:60px;"">+</div>","null","","","","","","",""
"null","","image-keyboard-response","5","521796","0.0-2.0-0.1","","img/test3.PNG","null","practice","null","true","","","",""
"null","","html-keyboard-response","6","522801","0.0-2.0-1.1","","<img src=""img/test3-reward.PNG"">","null","","","","","","",""
"null","","html-keyboard-response","7","523801","0.0-2.0-2.1","","<div style=""font-size:60px;"">+</div>","null","","","","","","",""
"null","","image-keyboard-response","8","525304","0.0-2.0-0.2","","img/test2.PNG","null","practice","null","true","","","",""
"null","","html-keyboard-response","9","526305","0.0-2.0-1.2","","<img src=""img/test2-reward.PNG"">","null","","","","","","",""
"null","","html-keyboard-response","10","527322","0.0-2.0-2.2","","<div style=""font-size:60px;"">+</div>","null","","","","","","",""
"308","","image-keyboard-response","11","527646","0.0-2.0-0.3","","img/test1.PNG","32","practice","32","true","","","",""
"null","","html-keyboard-response","12","528654","0.0-2.0-1.3","","<img src=""img/test1-reward.PNG"" border=""10px; grey"">","null","","","","","","",""
"null","","html-keyboard-response","13","529657","0.0-2.0-2.3","","<div style=""font-size:60px;"">+</div>","null","","","","","","",""
"null","","image-keyboard-response","14","531163","0.0-2.0-0.4","","img/test2.PNG","null","practice","null","true","","","",""
"null","","html-keyboard-response","15","532170","0.0-2.0-1.4","","<img src=""img/test2-reward.PNG"">","null","","","","","","",""
"null","","html-keyboard-response","16","533173","0.0-2.0-2.4","","<div style=""font-size:60px;"">+</div>","null","","","","","","",""
"null","","image-keyboard-response","17","534685","0.0-2.0-0.5","","img/test3.PNG","null","practice","null","true","","","",""
"null","","html-keyboard-response","18","535695","0.0-2.0-1.5","","<img src=""img/test3-reward.PNG"">","null","","","","","","",""
"null","","html-keyboard-response","19","536706","0.0-2.0-2.5","","<div style=""font-size:60px;"">+</div>","null","","","","","","",""
"328","","image-keyboard-response","20","537035","0.0-2.0-0.6","","img/test1.PNG","32","practice","32","true","","","",""
"null","","html-keyboard-response","21","538067","0.0-2.0-1.6","","<img src=""img/test1-reward.PNG"" border=""10px; grey"">","null","","","","","","",""
"null","","html-keyboard-response","22","539078","0.0-2.0-2.6","","<div style=""font-size:60px;"">+</div>","null","","","","","","",""
"null","","image-keyboard-response","23","540581","0.0-2.0-0.7","","img/test2.PNG","null","practice","null","true","","","",""
"null","","html-keyboard-response","24","541590","0.0-2.0-1.7","","<img src=""img/test2-reward.PNG"">","null","","","","","","",""
"null","","html-keyboard-response","25","542593","0.0-2.0-2.7","","<div style=""font-size:60px;"">+</div>","null","","","","","","",""
"null","","image-keyboard-response","26","544097","0.0-2.0-0.8","","img/test3.PNG","null","practice","null","true","","","",""
"null","","html-keyboard-response","27","545104","0.0-2.0-1.8","","<img src=""img/test3-reward.PNG"">","null","","","","","","",""
"null","","html-keyboard-response","28","546131","0.0-2.0-2.8","","<div style=""font-size:60px;"">+</div>","null","","","","","","",""
"null","","image-keyboard-response","29","547643","0.0-2.0-0.9","","img/test3.PNG","null","practice","null","true","","","",""
"null","","html-keyboard-response","30","548660","0.0-2.0-1.9","","<img src=""img/test3-reward.PNG"">","null","","","","","","",""
"null","","html-keyboard-response","31","549668","0.0-2.0-2.9","","<div style=""font-size:60px;"">+</div>","null","","","","","","",""
"332","","image-keyboard-response","32","550001","0.0-2.0-0.10","","img/test1.PNG","32","practice","32","true","","","",""
"null","","html-keyboard-response","33","551017","0.0-2.0-1.10","","<img src=""img/test1-reward.PNG"" border=""10px; grey"">","null","","","","","","",""
"null","","html-keyboard-response","34","552018","0.0-2.0-2.10","","<div style=""font-size:60px;"">+</div>","null","","","","","","",""
"null","","image-keyboard-response","35","553537","0.0-2.0-0.11","","img/test2.PNG","null","practice","null","true","","","",""
"null","","html-keyboard-response","36","554549","0.0-2.0-1.11","","<img src=""img/test2-reward.PNG"">","null","","","","","","",""
"null","","html-keyboard-response","37","555593","0.0-2.0-2.11","","<div style=""font-size:60px;"">+</div>","null","","","","","","",""
"248918","","instructions","38","804513","0.0-3.0","[{""page_index"":0,""viewing_time"":248917}]","","","","","","","","",""
"null","","image-keyboard-response","39","806022","0.0-4.0-0.0","","img/yellow.png","null","trial","32","false","0.8,0.2","1:go_a","",""
"null","","html-keyboard-response","40","807032","0.0-4.0-1.0","","<img src=""img/yellow-n.png"">","null","trial","32","","0.8,0.2","1:go_a","0",""
"null","","html-keyboard-response","41","808036","0.0-4.0-2.0","","<div style=""font-size:60px;"">+</div>","null","","","","","","",""
"null","","image-keyboard-response","42","809547","0.0-4.0-0.1","","img/purple.png","null","trial","null","true","0.2,0.8","2:nogo_b","",""
"null","","html-keyboard-response","43","810560","0.0-4.0-1.1","","<img src=""img/purple-n.png"">","null","trial","null","","0.2,0.8","2:nogo_b","0",""
"null","","html-keyboard-response","44","811576","0.0-4.0-2.1","","<div style=""font-size:60px;"">+</div>","null","","","","","","",""
"null","","image-keyboard-response","45","813087","0.0-4.0-0.2","","img/yellow.png","null","trial","32","false","0.8,0.2","1:go_a","",""
"null","","html-keyboard-response","46","814096","0.0-4.0-1.2","","<img src=""img/yellow-n.png"">","null","trial","32","","0.8,0.2","1:go_a","0",""
"null","","html-keyboard-response","47","815109","0.0-4.0-2.2","","<div style=""font-size:60px;"">+</div>","null","","","","","","",""
"null","","image-keyboard-response","48","816616","0.0-4.0-0.3","","img/purple.png","null","trial","null","true","0.2,0.8","2:nogo_b","",""
"null","","html-keyboard-response","49","817628","0.0-4.0-1.3","","<img src=""img/purple-r.png"">","null","trial","null","","0.2,0.8","2:nogo_b","1",""
"null","","html-keyboard-response","50","818638","0.0-4.0-2.3","","<div style=""font-size:60px;"">+</div>","null","","","","","","",""
"null","","image-keyboard-response","51","820160","0.0-4.0-0.4","","img/yellow.png","null","trial","32","false","0.8,0.2","1:go_a","",""
"null","","html-keyboard-response","52","821176","0.0-4.0-1.4","","<img src=""img/yellow-n.png"">","null","trial","32","","0.8,0.2","1:go_a","0",""
"null","","html-keyboard-response","53","822189","0.0-4.0-2.4","","<div style=""font-size:60px;"">+</div>","null","","","","","","",""
"851","","image-keyboard-response","54","823056","0.0-4.0-0.5","","img/purple.png","32","trial","null","false","0.2,0.8","2:nogo_b","",""
"null","","html-keyboard-response","55","824070","0.0-4.0-1.5","","<img src=""img/purple-n.png"" border=""10"">","null","trial","null","","0.2,0.8","2:nogo_b","0",""
"null","","html-keyboard-response","56","825071","0.0-4.0-2.5","","<div style=""font-size:60px;"">+</div>","null","","","","","","",""
"null","","image-keyboard-response","57","826579","0.0-4.0-0.6","","img/yellow.png","null","trial","32","false","0.8,0.2","1:go_a","",""
"null","","html-keyboard-response","58","827594","0.0-4.0-1.6","","<img src=""img/yellow-n.png"">","null","trial","32","","0.8,0.2","1:go_a","0",""
"null","","html-keyboard-response","59","828602","0.0-4.0-2.6","","<div style=""font-size:60px;"">+</div>","null","","","","","","",""
"437","","image-keyboard-response","60","829040","0.0-4.0-0.7","","img/purple.png","32","trial","null","false","0.2,0.8","2:nogo_b","",""
"null","","html-keyboard-response","61","830070","0.0-4.0-1.7","","<img src=""img/purple-n.png"" border=""10"">","null","trial","null","","0.2,0.8","2:nogo_b","0",""
"null","","html-keyboard-response","62","831074","0.0-4.0-2.7","","<div style=""font-size:60px;"">+</div>","null","","","","","","",""
"557","","image-keyboard-response","63","831631","0.0-4.0-0.8","","img/purple.png","32","trial","null","false","0.2,0.8","2:nogo_b","",""
"null","","html-keyboard-response","64","832655","0.0-4.0-1.8","","<img src=""img/purple-n.png"" border=""10"">","null","trial","null","","0.2,0.8","2:nogo_b","0",""
"null","","html-keyboard-response","65","833666","0.0-4.0-2.8","","<div style=""font-size:60px;"">+</div>","null","","","","","","",""
"null","","image-keyboard-response","66","835167","0.0-4.0-0.9","","img/yellow.png","null","trial","32","false","0.8,0.2","1:go_a","",""
"null","","html-keyboard-response","67","836196","0.0-4.0-1.9","","<img src=""img/yellow-n.png"">","null","trial","32","","0.8,0.2","1:go_a","0",""
"null","","html-keyboard-response","68","837215","0.0-4.0-2.9","","<div style=""font-size:60px;"">+</div>","null","","","","","","",""
"null","","image-keyboard-response","69","838759","0.0-4.0-0.10","","img/yellow.png","null","trial","32","false","0.8,0.2","1:go_a","",""
"null","","html-keyboard-response","70","839795","0.0-4.0-1.10","","<img src=""img/yellow-r.png"">","null","trial","32","","0.8,0.2","1:go_a","1",""
"null","","html-keyboard-response","71","840802","0.0-4.0-2.10","","<div style=""font-size:60px;"">+</div>","null","","","","","","",""
"439","","image-keyboard-response","72","841242","0.0-4.0-0.11","","img/purple.png","32","trial","null","false","0.2,0.8","2:nogo_b","",""
"null","","html-keyboard-response","73","842259","0.0-4.0-1.11","","<img src=""img/purple-n.png"" border=""10"">","null","trial","null","","0.2,0.8","2:nogo_b","0",""
"null","","html-keyboard-response","74","843266","0.0-4.0-2.11","","<div style=""font-size:60px;"">+</div>","null","","","","","","",""
"518","","image-keyboard-response","75","843785","0.0-4.0-0.12","","img/purple.png","32","trial","null","false","0.2,0.8","2:nogo_b","",""
"null","","html-keyboard-response","76","844795","0.0-4.0-1.12","","<img src=""img/purple-r.png"" border=""10"">","null","trial","null","","0.2,0.8","2:nogo_b","1",""
"null","","html-keyboard-response","77","845803","0.0-4.0-2.12","","<div style=""font-size:60px;"">+</div>","null","","","","","","",""
"null","","image-keyboard-response","78","847309","0.0-4.0-0.13","","img/yellow.png","null","trial","32","false","0.8,0.2","1:go_a","",""
"null","","html-keyboard-response","79","848318","0.0-4.0-1.13","","<img src=""img/yellow-n.png"">","null","trial","32","","0.8,0.2","1:go_a","0",""
"null","","html-keyboard-response","80","849331","0.0-4.0-2.13","","<div style=""font-size:60px;"">+</div>","null","","","","","","",""
"null","","image-keyboard-response","81","850845","0.0-4.0-0.14","","img/yellow.png","null","trial","32","false","0.8,0.2","1:go_a","",""
"null","","html-keyboard-response","82","851868","0.0-4.0-1.14","","<img src=""img/yellow-n.png"">","null","trial","32","","0.8,0.2","1:go_a","0",""
"null","","html-keyboard-response","83","852882","0.0-4.0-2.14","","<div style=""font-size:60px;"">+</div>","null","","","","","","",""
"359","","image-keyboard-response","84","853261","0.0-4.0-0.15","","img/purple.png","32","trial","null","false","0.2,0.8","2:nogo_b","",""
"null","","html-keyboard-response","85","854287","0.0-4.0-1.15","","<img src=""img/purple-n.png"" border=""10"">","null","trial","null","","0.2,0.8","2:nogo_b","0",""
"null","","html-keyboard-response","86","855293","0.0-4.0-2.15","","<div style=""font-size:60px;"">+</div>","null","","","","","","",""
"null","","image-keyboard-response","87","856797","0.0-4.0-0.16","","img/yellow.png","null","trial","32","false","0.8,0.2","1:go_a","",""
"null","","html-keyboard-response","88","857807","0.0-4.0-1.16","","<img src=""img/yellow-n.png"">","null","trial","32","","0.8,0.2","1:go_a","0",""
"null","","html-keyboard-response","89","858810","0.0-4.0-2.16","","<div style=""font-size:60px;"">+</div>","null","","","","","","",""
"372","","image-keyboard-response","90","859184","0.0-4.0-0.17","","img/purple.png","32","trial","null","false","0.2,0.8","2:nogo_b","",""
"null","","html-keyboard-response","91","860209","0.0-4.0-1.17","","<img src=""img/purple-r.png"" border=""10"">","null","trial","null","","0.2,0.8","2:nogo_b","1",""
"null","","html-keyboard-response","92","861210","0.0-4.0-2.17","","<div style=""font-size:60px;"">+</div>","null","","","","","","",""
"null","","image-keyboard-response","93","862724","0.0-4.0-0.18","","img/yellow.png","null","trial","32","false","0.8,0.2","1:go_a","",""
"null","","html-keyboard-response","94","863734","0.0-4.0-1.18","","<img src=""img/yellow-n.png"">","null","trial","32","","0.8,0.2","1:go_a","0",""
"null","","html-keyboard-response","95","864738","0.0-4.0-2.18","","<div style=""font-size:60px;"">+</div>","null","","","","","","",""
"327","","image-keyboard-response","96","865065","0.0-4.0-0.19","","img/purple.png","32","trial","null","false","0.2,0.8","2:nogo_b","",""
"null","","html-keyboard-response","97","866100","0.0-4.0-1.19","","<img src=""img/purple-n.png"" border=""10"">","null","trial","null","","0.2,0.8","2:nogo_b","0",""
"null","","html-keyboard-response","98","867109","0.0-4.0-2.19","","<div style=""font-size:60px;"">+</div>","null","","","","","","",""
"591","","image-keyboard-response","99","867701","0.0-4.0-0.20","","img/purple.png","32","trial","null","false","0.2,0.8","2:nogo_b","",""
"null","","html-keyboard-response","100","868719","0.0-4.0-1.20","","<img src=""img/purple-n.png"" border=""10"">","null","trial","null","","0.2,0.8","2:nogo_b","0",""
"null","","html-keyboard-response","101","869733","0.0-4.0-2.20","","<div style=""font-size:60px;"">+</div>","null","","","","","","",""
"null","","image-keyboard-response","102","871244","0.0-4.0-0.21","","img/yellow.png","null","trial","32","false","0.8,0.2","1:go_a","",""
"null","","html-keyboard-response","103","872262","0.0-4.0-1.21","","<img src=""img/yellow-n.png"">","null","trial","32","","0.8,0.2","1:go_a","0",""
"null","","html-keyboard-response","104","873280","0.0-4.0-2.21","","<div style=""font-size:60px;"">+</div>","null","","","","","","",""
"null","","image-keyboard-response","105","874785","0.0-4.0-0.22","","img/yellow.png","null","trial","32","false","0.8,0.2","1:go_a","",""
"null","","html-keyboard-response","106","875789","0.0-4.0-1.22","","<img src=""img/yellow-n.png"">","null","trial","32","","0.8,0.2","1:go_a","0",""
"null","","html-keyboard-response","107","876791","0.0-4.0-2.22","","<div style=""font-size:60px;"">+</div>","null","","","","","","",""
"453","","image-keyboard-response","108","877245","0.0-4.0-0.23","","img/purple.png","32","trial","null","false","0.2,0.8","2:nogo_b","",""
"null","","html-keyboard-response","109","878247","0.0-4.0-1.23","","<img src=""img/purple-n.png"" border=""10"">","null","trial","null","","0.2,0.8","2:nogo_b","0",""
"null","","html-keyboard-response","110","879257","0.0-4.0-2.23","","<div style=""font-size:60px;"">+</div>","null","","","","","","",""
"395","","image-keyboard-response","111","879653","0.0-4.0-0.24","","img/purple.png","32","trial","null","false","0.2,0.8","2:nogo_b","",""
"null","","html-keyboard-response","112","880673","0.0-4.0-1.24","","<img src=""img/purple-n.png"" border=""10"">","null","trial","null","","0.2,0.8","2:nogo_b","0",""
"null","","html-keyboard-response","113","881682","0.0-4.0-2.24","","<div style=""font-size:60px;"">+</div>","null","","","","","","",""
"null","","image-keyboard-response","114","883196","0.0-4.0-0.25","","img/yellow.png","null","trial","32","false","0.8,0.2","1:go_a","",""
"null","","html-keyboard-response","115","884202","0.0-4.0-1.25","","<img src=""img/yellow-n.png"">","null","trial","32","","0.8,0.2","1:go_a","0",""
"null","","html-keyboard-response","116","885215","0.0-4.0-2.25","","<div style=""font-size:60px;"">+</div>","null","","","","","","",""
"null","","image-keyboard-response","117","886742","0.0-4.0-0.26","","img/yellow.png","null","trial","32","false","0.8,0.2","1:go_a","",""
"null","","html-keyboard-response","118","887757","0.0-4.0-1.26","","<img src=""img/yellow-n.png"">","null","trial","32","","0.8,0.2","1:go_a","0",""
"null","","html-keyboard-response","119","888760","0.0-4.0-2.26","","<div style=""font-size:60px;"">+</div>","null","","","","","","",""
"648","","image-keyboard-response","120","889409","0.0-4.0-0.27","","img/purple.png","32","trial","null","false","0.2,0.8","2:nogo_b","",""
"null","","html-keyboard-response","121","890418","0.0-4.0-1.27","","<img src=""img/purple-n.png"" border=""10"">","null","trial","null","","0.2,0.8","2:nogo_b","0",""
"null","","html-keyboard-response","122","891444","0.0-4.0-2.27","","<div style=""font-size:60px;"">+</div>","null","","","","","","",""
"662","","image-keyboard-response","123","892107","0.0-4.0-0.28","","img/purple.png","32","trial","null","false","0.2,0.8","2:nogo_b","",""
"null","","html-keyboard-response","124","893120","0.0-4.0-1.28","","<img src=""img/purple-r.png"" border=""10"">","null","trial","null","","0.2,0.8","2:nogo_b","1",""
"null","","html-keyboard-response","125","894121","0.0-4.0-2.28","","<div style=""font-size:60px;"">+</div>","null","","","","","","",""
"null","","image-keyboard-response","126","895626","0.0-4.0-0.29","","img/yellow.png","null","trial","32","false","0.8,0.2","1:go_a","",""
"null","","html-keyboard-response","127","896629","0.0-4.0-1.29","","<img src=""img/yellow-n.png"">","null","trial","32","","0.8,0.2","1:go_a","0",""
"null","","html-keyboard-response","128","897632","0.0-4.0-2.29","","<div style=""font-size:60px;"">+</div>","null","","","","","","",""
"646","","image-keyboard-response","129","898280","0.0-4.0-0.30","","img/purple.png","32","trial","null","false","0.2,0.8","2:nogo_b","",""
"null","","html-keyboard-response","130","899290","0.0-4.0-1.30","","<img src=""img/purple-n.png"" border=""10"">","null","trial","null","","0.2,0.8","2:nogo_b","0",""
"null","","html-keyboard-response","131","900342","0.0-4.0-2.30","","<div style=""font-size:60px;"">+</div>","null","","","","","","",""
"null","","image-keyboard-response","132","901858","0.0-4.0-0.31","","img/yellow.png","null","trial","32","false","0.8,0.2","1:go_a","",""
"null","","html-keyboard-response","133","902868","0.0-4.0-1.31","","<img src=""img/yellow-n.png"">","null","trial","32","","0.8,0.2","1:go_a","0",""
"null","","html-keyboard-response","134","903884","0.0-4.0-2.31","","<div style=""font-size:60px;"">+</div>","null","","","","","","",""
"457","","image-keyboard-response","135","904343","0.0-4.0-0.32","","img/purple.png","32","trial","null","false","0.2,0.8","2:nogo_b","",""
"null","","html-keyboard-response","136","905358","0.0-4.0-1.32","","<img src=""img/purple-n.png"" border=""10"">","null","trial","null","","0.2,0.8","2:nogo_b","0",""
"null","","html-keyboard-response","137","906375","0.0-4.0-2.32","","<div style=""font-size:60px;"">+</div>","null","","","","","","",""
"null","","image-keyboard-response","138","907882","0.0-4.0-0.33","","img/yellow.png","null","trial","32","false","0.8,0.2","1:go_a","",""
"null","","html-keyboard-response","139","908893","0.0-4.0-1.33","","<img src=""img/yellow-n.png"">","null","trial","32","","0.8,0.2","1:go_a","0",""
"null","","html-keyboard-response","140","909908","0.0-4.0-2.33","","<div style=""font-size:60px;"">+</div>","null","","","","","","",""
"415","","image-keyboard-response","141","910331","0.0-4.0-0.34","","img/purple.png","32","trial","null","false","0.2,0.8","2:nogo_b","",""
"null","","html-keyboard-response","142","911340","0.0-4.0-1.34","","<img src=""img/purple-n.png"" border=""10"">","null","trial","null","","0.2,0.8","2:nogo_b","0",""
"null","","html-keyboard-response","143","912354","0.0-4.0-2.34","","<div style=""font-size:60px;"">+</div>","null","","","","","","",""
"null","","image-keyboard-response","144","913866","0.0-4.0-0.35","","img/yellow.png","null","trial","32","false","0.8,0.2","1:go_a","",""
"null","","html-keyboard-response","145","914867","0.0-4.0-1.35","","<img src=""img/yellow-r.png"">","null","trial","32","","0.8,0.2","1:go_a","1",""
"null","","html-keyboard-response","146","915877","0.0-4.0-2.35","","<div style=""font-size:60px;"">+</div>","null","","","","","","",""
"441","","image-keyboard-response","147","916319","0.0-4.0-0.36","","img/purple.png","32","trial","null","false","0.2,0.8","2:nogo_b","",""
"null","","html-keyboard-response","148","917415","0.0-4.0-1.36","","<img src=""img/purple-r.png"" border=""10"">","null","trial","null","","0.2,0.8","2:nogo_b","1",""
"null","","html-keyboard-response","149","918419","0.0-4.0-2.36","","<div style=""font-size:60px;"">+</div>","null","","","","","","",""
"null","","image-keyboard-response","150","919935","0.0-4.0-0.37","","img/yellow.png","null","trial","32","false","0.8,0.2","1:go_a","",""
"null","","html-keyboard-response","151","920952","0.0-4.0-1.37","","<img src=""img/yellow-r.png"">","null","trial","32","","0.8,0.2","1:go_a","1",""
"null","","html-keyboard-response","152","922032","0.0-4.0-2.37","","<div style=""font-size:60px;"">+</div>","null","","","","","","",""
"null","","image-keyboard-response","153","923558","0.0-4.0-0.38","","img/yellow.png","null","trial","32","false","0.8,0.2","1:go_a","",""
"null","","html-keyboard-response","154","924607","0.0-4.0-1.38","","<img src=""img/yellow-n.png"">","null","trial","32","","0.8,0.2","1:go_a","0",""
"null","","html-keyboard-response","155","925663","0.0-4.0-2.38","","<div style=""font-size:60px;"">+</div>","null","","","","","","",""
"765","","image-keyboard-response","156","926428","0.0-4.0-0.39","","img/purple.png","32","trial","null","false","0.2,0.8","2:nogo_b","",""
"null","","html-keyboard-response","157","927455","0.0-4.0-1.39","","<img src=""img/purple-n.png"" border=""10"">","null","trial","null","","0.2,0.8","2:nogo_b","0",""
"null","","html-keyboard-response","158","928516","0.0-4.0-2.39","","<div style=""font-size:60px;"">+</div>","null","","","","","","",""
"304","","image-keyboard-response","159","928837","0.0-4.0-0.40","","img/purple.png","32","trial","null","false","0.2,0.8","2:nogo_b","",""
"null","","html-keyboard-response","160","929854","0.0-4.0-1.40","","<img src=""img/purple-n.png"" border=""10"">","null","trial","null","","0.2,0.8","2:nogo_b","0",""
"null","","html-keyboard-response","161","930883","0.0-4.0-2.40","","<div style=""font-size:60px;"">+</div>","null","","","","","","",""
"null","","image-keyboard-response","162","932394","0.0-4.0-0.41","","img/yellow.png","null","trial","32","false","0.8,0.2","1:go_a","",""
"null","","html-keyboard-response","163","933408","0.0-4.0-1.41","","<img src=""img/yellow-n.png"">","null","trial","32","","0.8,0.2","1:go_a","0",""
"null","","html-keyboard-response","164","934418","0.0-4.0-2.41","","<div style=""font-size:60px;"">+</div>","null","","","","","","",""
"498","","image-keyboard-response","165","934930","0.0-4.0-0.42","","img/purple.png","32","trial","null","false","0.2,0.8","2:nogo_b","",""
"null","","html-keyboard-response","166","935971","0.0-4.0-1.42","","<img src=""img/purple-r.png"" border=""10"">","null","trial","null","","0.2,0.8","2:nogo_b","1",""
"null","","html-keyboard-response","167","936972","0.0-4.0-2.42","","<div style=""font-size:60px;"">+</div>","null","","","","","","",""
"null","","image-keyboard-response","168","938474","0.0-4.0-0.43","","img/yellow.png","null","trial","32","false","0.8,0.2","1:go_a","",""
"null","","html-keyboard-response","169","939490","0.0-4.0-1.43","","<img src=""img/yellow-r.png"">","null","trial","32","","0.8,0.2","1:go_a","1",""
"null","","html-keyboard-response","170","940496","0.0-4.0-2.43","","<div style=""font-size:60px;"">+</div>","null","","","","","","",""
"450","","image-keyboard-response","171","940958","0.0-4.0-0.44","","img/purple.png","32","trial","null","false","0.2,0.8","2:nogo_b","",""
"null","","html-keyboard-response","172","941961","0.0-4.0-1.44","","<img src=""img/purple-n.png"" border=""10"">","null","trial","null","","0.2,0.8","2:nogo_b","0",""
"null","","html-keyboard-response","173","942979","0.0-4.0-2.44","","<div style=""font-size:60px;"">+</div>","null","","","","","","",""
"null","","image-keyboard-response","174","944495","0.0-4.0-0.45","","img/yellow.png","null","trial","32","false","0.8,0.2","1:go_a","",""
"null","","html-keyboard-response","175","945505","0.0-4.0-1.45","","<img src=""img/yellow-n.png"">","null","trial","32","","0.8,0.2","1:go_a","0",""
"null","","html-keyboard-response","176","946519","0.0-4.0-2.45","","<div style=""font-size:60px;"">+</div>","null","","","","","","",""
"null","","image-keyboard-response","177","948021","0.0-4.0-0.46","","img/yellow.png","null","trial","32","false","0.8,0.2","1:go_a","",""
"null","","html-keyboard-response","178","949035","0.0-4.0-1.46","","<img src=""img/yellow-n.png"">","null","trial","32","","0.8,0.2","1:go_a","0",""
"null","","html-keyboard-response","179","950055","0.0-4.0-2.46","","<div style=""font-size:60px;"">+</div>","null","","","","","","",""
"439","","image-keyboard-response","180","950495","0.0-4.0-0.47","","img/purple.png","32","trial","null","false","0.2,0.8","2:nogo_b","",""
"null","","html-keyboard-response","181","951510","0.0-4.0-1.47","","<img src=""img/purple-r.png"" border=""10"">","null","trial","null","","0.2,0.8","2:nogo_b","1",""
"null","","html-keyboard-response","182","952534","0.0-4.0-2.47","","<div style=""font-size:60px;"">+</div>","null","","","","","","",""
"null","","image-keyboard-response","183","954040","0.0-4.0-0.48","","img/yellow.png","null","trial","32","false","0.8,0.2","1:go_a","",""
"null","","html-keyboard-response","184","955072","0.0-4.0-1.48","","<img src=""img/yellow-r.png"">","null","trial","32","","0.8,0.2","1:go_a","1",""
"null","","html-keyboard-response","185","956073","0.0-4.0-2.48","","<div style=""font-size:60px;"">+</div>","null","","","","","","",""
"400","","image-keyboard-response","186","956482","0.0-4.0-0.49","","img/purple.png","32","trial","null","false","0.2,0.8","2:nogo_b","",""
"null","","html-keyboard-response","187","957492","0.0-4.0-1.49","","<img src=""img/purple-r.png"" border=""10"">","null","trial","null","","0.2,0.8","2:nogo_b","1",""
"null","","html-keyboard-response","188","958495","0.0-4.0-2.49","","<div style=""font-size:60px;"">+</div>","null","","","","","","",""
"617","","image-keyboard-response","189","959113","0.0-4.0-0.50","","img/purple.png","32","trial","null","false","0.2,0.8","2:nogo_b","",""
"null","","html-keyboard-response","190","960143","0.0-4.0-1.50","","<img src=""img/purple-n.png"" border=""10"">","null","trial","null","","0.2,0.8","2:nogo_b","0",""
"null","","html-keyboard-response","191","961146","0.0-4.0-2.50","","<div style=""font-size:60px;"">+</div>","null","","","","","","",""
"null","","image-keyboard-response","192","962650","0.0-4.0-0.51","","img/yellow.png","null","trial","32","false","0.8,0.2","1:go_a","",""
"null","","html-keyboard-response","193","963663","0.0-4.0-1.51","","<img src=""img/yellow-n.png"">","null","trial","32","","0.8,0.2","1:go_a","0",""
"null","","html-keyboard-response","194","964665","0.0-4.0-2.51","","<div style=""font-size:60px;"">+</div>","null","","","","","","",""
"null","","image-keyboard-response","195","966170","0.0-4.0-0.52","","img/yellow.png","null","trial","32","false","0.8,0.2","1:go_a","",""
"null","","html-keyboard-response","196","967184","0.0-4.0-1.52","","<img src=""img/yellow-r.png"">","null","trial","32","","0.8,0.2","1:go_a","1",""
"null","","html-keyboard-response","197","968188","0.0-4.0-2.52","","<div style=""font-size:60px;"">+</div>","null","","","","","","",""
"632","","image-keyboard-response","198","968831","0.0-4.0-0.53","","img/purple.png","32","trial","null","false","0.2,0.8","2:nogo_b","",""
"null","","html-keyboard-response","199","969845","0.0-4.0-1.53","","<img src=""img/purple-n.png"" border=""10"">","null","trial","null","","0.2,0.8","2:nogo_b","0",""
"null","","html-keyboard-response","200","970872","0.0-4.0-2.53","","<div style=""font-size:60px;"">+</div>","null","","","","","","",""
"324","","image-keyboard-response","201","971198","0.0-4.0-0.54","","img/purple.png","32","trial","null","false","0.2,0.8","2:nogo_b","",""
"null","","html-keyboard-response","202","972210","0.0-4.0-1.54","","<img src=""img/purple-n.png"" border=""10"">","null","trial","null","","0.2,0.8","2:nogo_b","0",""
"null","","html-keyboard-response","203","973210","0.0-4.0-2.54","","<div style=""font-size:60px;"">+</div>","null","","","","","","",""
"null","","image-keyboard-response","204","974711","0.0-4.0-0.55","","img/yellow.png","null","trial","32","false","0.8,0.2","1:go_a","",""
"null","","html-keyboard-response","205","975719","0.0-4.0-1.55","","<img src=""img/yellow-n.png"">","null","trial","32","","0.8,0.2","1:go_a","0",""
"null","","html-keyboard-response","206","976750","0.0-4.0-2.55","","<div style=""font-size:60px;"">+</div>","null","","","","","","",""
"628","","image-keyboard-response","207","977378","0.0-4.0-0.56","","img/purple.png","32","trial","null","false","0.2,0.8","2:nogo_b","",""
"null","","html-keyboard-response","208","978398","0.0-4.0-1.56","","<img src=""img/purple-r.png"" border=""10"">","null","trial","null","","0.2,0.8","2:nogo_b","1",""
"null","","html-keyboard-response","209","979401","0.0-4.0-2.56","","<div style=""font-size:60px;"">+</div>","null","","","","","","",""
"null","","image-keyboard-response","210","980924","0.0-4.0-0.57","","img/yellow.png","null","trial","32","false","0.8,0.2","1:go_a","",""
"null","","html-keyboard-response","211","981931","0.0-4.0-1.57","","<img src=""img/yellow-n.png"">","null","trial","32","","0.8,0.2","1:go_a","0",""
"null","","html-keyboard-response","212","982932","0.0-4.0-2.57","","<div style=""font-size:60px;"">+</div>","null","","","","","","",""
"465","","image-keyboard-response","213","983398","0.0-4.0-0.58","","img/purple.png","32","trial","null","false","0.2,0.8","2:nogo_b","",""
"null","","html-keyboard-response","214","984420","0.0-4.0-1.58","","<img src=""img/purple-n.png"" border=""10"">","null","trial","null","","0.2,0.8","2:nogo_b","0",""
"null","","html-keyboard-response","215","985434","0.0-4.0-2.58","","<div style=""font-size:60px;"">+</div>","null","","","","","","",""
"null","","image-keyboard-response","216","986945","0.0-4.0-0.59","","img/yellow.png","null","trial","32","false","0.8,0.2","1:go_a","",""
"null","","html-keyboard-response","217","987959","0.0-4.0-1.59","","<img src=""img/yellow-n.png"">","null","trial","32","","0.8,0.2","1:go_a","0",""
"null","","html-keyboard-response","218","988975","0.0-4.0-2.59","","<div style=""font-size:60px;"">+</div>","null","","","","","","",""
"30384","","instructions","219","1019359","0.0-5.0","[{""page_index"":0,""viewing_time"":30384}]","","","","","","","","",""
"null","","image-keyboard-response","220","1020879","0.0-6.0-0.0","","img/green.png","null","trial","null","true","0.2,0.8","2:nogo_b","",""
"null","","html-keyboard-response","221","1021893","0.0-6.0-1.0","","<img src=""img/green-r.png"">","null","trial","null","","0.2,0.8","2:nogo_b","1",""
"null","","html-keyboard-response","222","1022895","0.0-6.0-2.0","","<div style=""font-size:60px;"">+</div>","null","","","","","","",""
"335","","image-keyboard-response","223","1023232","0.0-6.0-0.1","","img/purple.png","32","trial","32","true","0.8,0.2","1:go_a","",""
"null","","html-keyboard-response","224","1024257","0.0-6.0-1.1","","<img src=""img/purple-r.png"" border=""10"">","null","trial","32","","0.8,0.2","1:go_a","1",""
"null","","html-keyboard-response","225","1025258","0.0-6.0-2.1","","<div style=""font-size:60px;"">+</div>","null","","","","","","",""
"395","","image-keyboard-response","226","1025664","0.0-6.0-0.2","","img/grey.png","32","trial","32","true","0.8,0.2","3:go_c","",""
"null","","html-keyboard-response","227","1026675","0.0-6.0-1.2","","<img src=""img/grey-r.png"" border=""10"">","null","trial","32","","0.8,0.2","3:go_c","1",""
"null","","html-keyboard-response","228","1027681","0.0-6.0-2.2","","<div style=""font-size:60px;"">+</div>","null","","","","","","",""
"345","","image-keyboard-response","229","1028030","0.0-6.0-0.3","","img/orange.png","32","trial","null","false","0.2,0.8","4:nogo_d","",""
"null","","html-keyboard-response","230","1029040","0.0-6.0-1.3","","<img src=""img/orange-n.png"" border=""10"">","null","trial","null","","0.2,0.8","4:nogo_d","0",""
"null","","html-keyboard-response","231","1030054","0.0-6.0-2.3","","<div style=""font-size:60px;"">+</div>","null","","","","","","",""
"374","","image-keyboard-response","232","1030428","0.0-6.0-0.4","","img/green.png","32","trial","null","false","0.2,0.8","2:nogo_b","",""
"null","","html-keyboard-response","233","1031431","0.0-6.0-1.4","","<img src=""img/green-n.png"" border=""10"">","null","trial","null","","0.2,0.8","2:nogo_b","0",""
"null","","html-keyboard-response","234","1032450","0.0-6.0-2.4","","<div style=""font-size:60px;"">+</div>","null","","","","","","",""
"492","","image-keyboard-response","235","1032943","0.0-6.0-0.5","","img/purple.png","32","trial","32","true","0.8,0.2","1:go_a","",""
"null","","html-keyboard-response","236","1033964","0.0-6.0-1.5","","<img src=""img/purple-r.png"" border=""10"">","null","trial","32","","0.8,0.2","1:go_a","1",""
"null","","html-keyboard-response","237","1034982","0.0-6.0-2.5","","<div style=""font-size:60px;"">+</div>","null","","","","","","",""
"471","","image-keyboard-response","238","1035454","0.0-6.0-0.6","","img/orange.png","32","trial","null","false","0.2,0.8","4:nogo_d","",""
"null","","html-keyboard-response","239","1036480","0.0-6.0-1.6","","<img src=""img/orange-n.png"" border=""10"">","null","trial","null","","0.2,0.8","4:nogo_d","0",""
"null","","html-keyboard-response","240","1037481","0.0-6.0-2.6","","<div style=""font-size:60px;"">+</div>","null","","","","","","",""
"515","","image-keyboard-response","241","1037998","0.0-6.0-0.7","","img/grey.png","32","trial","32","true","0.8,0.2","3:go_c","",""
"null","","html-keyboard-response","242","1039010","0.0-6.0-1.7","","<img src=""img/grey-r.png"" border=""10"">","null","trial","32","","0.8,0.2","3:go_c","1",""
"null","","html-keyboard-response","243","1040024","0.0-6.0-2.7","","<div style=""font-size:60px;"">+</div>","null","","","","","","",""
"545","","image-keyboard-response","244","1040581","0.0-6.0-0.8","","img/orange.png","32","trial","null","false","0.2,0.8","4:nogo_d","",""
"null","","html-keyboard-response","245","1041583","0.0-6.0-1.8","","<img src=""img/orange-r.png"" border=""10"">","null","trial","null","","0.2,0.8","4:nogo_d","1",""
"null","","html-keyboard-response","246","1042589","0.0-6.0-2.8","","<div style=""font-size:60px;"">+</div>","null","","","","","","",""
"668","","image-keyboard-response","247","1043258","0.0-6.0-0.9","","img/grey.png","32","trial","32","true","0.8,0.2","3:go_c","",""
"null","","html-keyboard-response","248","1044270","0.0-6.0-1.9","","<img src=""img/grey-r.png"" border=""10"">","null","trial","32","","0.8,0.2","3:go_c","1",""
"null","","html-keyboard-response","249","1045277","0.0-6.0-2.9","","<div style=""font-size:60px;"">+</div>","null","","","","","","",""
"358","","image-keyboard-response","250","1045647","0.0-6.0-0.10","","img/purple.png","32","trial","32","true","0.8,0.2","1:go_a","",""
"null","","html-keyboard-response","251","1046650","0.0-6.0-1.10","","<img src=""img/purple-r.png"" border=""10"">","null","trial","32","","0.8,0.2","1:go_a","1",""
"null","","html-keyboard-response","252","1047656","0.0-6.0-2.10","","<div style=""font-size:60px;"">+</div>","null","","","","","","",""
"428","","image-keyboard-response","253","1048085","0.0-6.0-0.11","","img/green.png","32","trial","null","false","0.2,0.8","2:nogo_b","",""
"null","","html-keyboard-response","254","1049102","0.0-6.0-1.11","","<img src=""img/green-n.png"" border=""10"">","null","trial","null","","0.2,0.8","2:nogo_b","0",""
"null","","html-keyboard-response","255","1050119","0.0-6.0-2.11","","<div style=""font-size:60px;"">+</div>","null","","","","","","",""
"308","","image-keyboard-response","256","1050428","0.0-6.0-0.12","","img/orange.png","32","trial","null","false","0.2,0.8","4:nogo_d","",""
"null","","html-keyboard-response","257","1051443","0.0-6.0-1.12","","<img src=""img/orange-n.png"" border=""10"">","null","trial","null","","0.2,0.8","4:nogo_d","0",""
"null","","html-keyboard-response","258","1052459","0.0-6.0-2.12","","<div style=""font-size:60px;"">+</div>","null","","","","","","",""
"298","","image-keyboard-response","259","1052759","0.0-6.0-0.13","","img/green.png","32","trial","null","false","0.2,0.8","2:nogo_b","",""
"null","","html-keyboard-response","260","1053782","0.0-6.0-1.13","","<img src=""img/green-n.png"" border=""10"">","null","trial","null","","0.2,0.8","2:nogo_b","0",""
"null","","html-keyboard-response","261","1054808","0.0-6.0-2.13","","<div style=""font-size:60px;"">+</div>","null","","","","","","",""
"356","","image-keyboard-response","262","1055181","0.0-6.0-0.14","","img/purple.png","32","trial","32","true","0.8,0.2","1:go_a","",""
"null","","html-keyboard-response","263","1056196","0.0-6.0-1.14","","<img src=""img/purple-r.png"" border=""10"">","null","trial","32","","0.8,0.2","1:go_a","1",""
"null","","html-keyboard-response","264","1057200","0.0-6.0-2.14","","<div style=""font-size:60px;"">+</div>","null","","","","","","",""
"375","","image-keyboard-response","265","1057576","0.0-6.0-0.15","","img/grey.png","32","trial","32","true","0.8,0.2","3:go_c","",""
"null","","html-keyboard-response","266","1058585","0.0-6.0-1.15","","<img src=""img/grey-r.png"" border=""10"">","null","trial","32","","0.8,0.2","3:go_c","1",""
"null","","html-keyboard-response","267","1059586","0.0-6.0-2.15","","<div style=""font-size:60px;"">+</div>","null","","","","","","",""
"345","","image-keyboard-response","268","1059933","0.0-6.0-0.16","","img/grey.png","32","trial","32","true","0.8,0.2","3:go_c","",""
"null","","html-keyboard-response","269","1060951","0.0-6.0-1.16","","<img src=""img/grey-n.png"" border=""10"">","null","trial","32","","0.8,0.2","3:go_c","0",""
"null","","html-keyboard-response","270","1061958","0.0-6.0-2.16","","<div style=""font-size:60px;"">+</div>","null","","","","","","",""
"344","","image-keyboard-response","271","1062304","0.0-6.0-0.17","","img/purple.png","32","trial","32","true","0.8,0.2","1:go_a","",""
"null","","html-keyboard-response","272","1063324","0.0-6.0-1.17","","<img src=""img/purple-r.png"" border=""10"">","null","trial","32","","0.8,0.2","1:go_a","1",""
"null","","html-keyboard-response","273","1064343","0.0-6.0-2.17","","<div style=""font-size:60px;"">+</div>","null","","","","","","",""
"332","","image-keyboard-response","274","1064676","0.0-6.0-0.18","","img/orange.png","32","trial","null","false","0.2,0.8","4:nogo_d","",""
"null","","html-keyboard-response","275","1065704","0.0-6.0-1.18","","<img src=""img/orange-n.png"" border=""10"">","null","trial","null","","0.2,0.8","4:nogo_d","0",""
"null","","html-keyboard-response","276","1066717","0.0-6.0-2.18","","<div style=""font-size:60px;"">+</div>","null","","","","","","",""
"459","","image-keyboard-response","277","1067182","0.0-6.0-0.19","","img/green.png","32","trial","null","false","0.2,0.8","2:nogo_b","",""
"null","","html-keyboard-response","278","1068194","0.0-6.0-1.19","","<img src=""img/green-n.png"" border=""10"">","null","trial","null","","0.2,0.8","2:nogo_b","0",""
"null","","html-keyboard-response","279","1069201","0.0-6.0-2.19","","<div style=""font-size:60px;"">+</div>","null","","","","","","",""
"407","","image-keyboard-response","280","1069622","0.0-6.0-0.20","","img/green.png","32","trial","null","false","0.2,0.8","2:nogo_b","",""
"null","","html-keyboard-response","281","1070641","0.0-6.0-1.20","","<img src=""img/green-r.png"" border=""10"">","null","trial","null","","0.2,0.8","2:nogo_b","1",""
"null","","html-keyboard-response","282","1071670","0.0-6.0-2.20","","<div style=""font-size:60px;"">+</div>","null","","","","","","",""
"307","","image-keyboard-response","283","1071982","0.0-6.0-0.21","","img/orange.png","32","trial","null","false","0.2,0.8","4:nogo_d","",""
"null","","html-keyboard-response","284","1072999","0.0-6.0-1.21","","<img src=""img/orange-n.png"" border=""10"">","null","trial","null","","0.2,0.8","4:nogo_d","0",""
"null","","html-keyboard-response","285","1074016","0.0-6.0-2.21","","<div style=""font-size:60px;"">+</div>","null","","","","","","",""
"410","","image-keyboard-response","286","1074427","0.0-6.0-0.22","","img/grey.png","32","trial","32","true","0.8,0.2","3:go_c","",""
"null","","html-keyboard-response","287","1075434","0.0-6.0-1.22","","<img src=""img/grey-r.png"" border=""10"">","null","trial","32","","0.8,0.2","3:go_c","1",""
"null","","html-keyboard-response","288","1076435","0.0-6.0-2.22","","<div style=""font-size:60px;"">+</div>","null","","","","","","",""
"450","","image-keyboard-response","289","1076888","0.0-6.0-0.23","","img/purple.png","32","trial","32","true","0.8,0.2","1:go_a","",""
"null","","html-keyboard-response","290","1077912","0.0-6.0-1.23","","<img src=""img/purple-n.png"" border=""10"">","null","trial","32","","0.8,0.2","1:go_a","0",""
"null","","html-keyboard-response","291","1078913","0.0-6.0-2.23","","<div style=""font-size:60px;"">+</div>","null","","","","","","",""
"634","","image-keyboard-response","292","1079549","0.0-6.0-0.24","","img/green.png","32","trial","null","false","0.2,0.8","2:nogo_b","",""
"null","","html-keyboard-response","293","1080567","0.0-6.0-1.24","","<img src=""img/green-n.png"" border=""10"">","null","trial","null","","0.2,0.8","2:nogo_b","0",""
"null","","html-keyboard-response","294","1081585","0.0-6.0-2.24","","<div style=""font-size:60px;"">+</div>","null","","","","","","",""
"342","","image-keyboard-response","295","1081929","0.0-6.0-0.25","","img/purple.png","32","trial","32","true","0.8,0.2","1:go_a","",""
"null","","html-keyboard-response","296","1082944","0.0-6.0-1.25","","<img src=""img/purple-n.png"" border=""10"">","null","trial","32","","0.8,0.2","1:go_a","0",""
"null","","html-keyboard-response","297","1083961","0.0-6.0-2.25","","<div style=""font-size:60px;"">+</div>","null","","","","","","",""
"244","","image-keyboard-response","298","1084206","0.0-6.0-0.26","","img/orange.png","32","trial","null","false","0.2,0.8","4:nogo_d","",""
"null","","html-keyboard-response","299","1085232","0.0-6.0-1.26","","<img src=""img/orange-n.png"" border=""10"">","null","trial","null","","0.2,0.8","4:nogo_d","0",""
"null","","html-keyboard-response","300","1086238","0.0-6.0-2.26","","<div style=""font-size:60px;"">+</div>","null","","","","","","",""
"312","","image-keyboard-response","301","1086550","0.0-6.0-0.27","","img/grey.png","32","trial","32","true","0.8,0.2","3:go_c","",""
"null","","html-keyboard-response","302","1087576","0.0-6.0-1.27","","<img src=""img/grey-r.png"" border=""10"">","null","trial","32","","0.8,0.2","3:go_c","1",""
"null","","html-keyboard-response","303","1088585","0.0-6.0-2.27","","<div style=""font-size:60px;"">+</div>","null","","","","","","",""
"309","","image-keyboard-response","304","1088894","0.0-6.0-0.28","","img/grey.png","32","trial","32","true","0.8,0.2","3:go_c","",""
"null","","html-keyboard-response","305","1089911","0.0-6.0-1.28","","<img src=""img/grey-r.png"" border=""10"">","null","trial","32","","0.8,0.2","3:go_c","1",""
"null","","html-keyboard-response","306","1090962","0.0-6.0-2.28","","<div style=""font-size:60px;"">+</div>","null","","","","","","",""
"336","","image-keyboard-response","307","1091303","0.0-6.0-0.29","","img/orange.png","32","trial","null","false","0.2,0.8","4:nogo_d","",""
"null","","html-keyboard-response","308","1092346","0.0-6.0-1.29","","<img src=""img/orange-n.png"" border=""10"">","null","trial","null","","0.2,0.8","4:nogo_d","0",""
"null","","html-keyboard-response","309","1093371","0.0-6.0-2.29","","<div style=""font-size:60px;"">+</div>","null","","","","","","",""
"384","","image-keyboard-response","310","1093756","0.0-6.0-0.30","","img/green.png","32","trial","null","false","0.2,0.8","2:nogo_b","",""
"null","","html-keyboard-response","311","1094763","0.0-6.0-1.30","","<img src=""img/green-n.png"" border=""10"">","null","trial","null","","0.2,0.8","2:nogo_b","0",""
"null","","html-keyboard-response","312","1095823","0.0-6.0-2.30","","<div style=""font-size:60px;"">+</div>","null","","","","","","",""
"599","","image-keyboard-response","313","1096423","0.0-6.0-0.31","","img/purple.png","32","trial","32","true","0.8,0.2","1:go_a","",""
"null","","html-keyboard-response","314","1097440","0.0-6.0-1.31","","<img src=""img/purple-r.png"" border=""10"">","null","trial","32","","0.8,0.2","1:go_a","1",""
"null","","html-keyboard-response","315","1098463","0.0-6.0-2.31","","<div style=""font-size:60px;"">+</div>","null","","","","","","",""
"345","","image-keyboard-response","316","1098809","0.0-6.0-0.32","","img/purple.png","32","trial","32","true","0.8,0.2","1:go_a","",""
"null","","html-keyboard-response","317","1099841","0.0-6.0-1.32","","<img src=""img/purple-r.png"" border=""10"">","null","trial","32","","0.8,0.2","1:go_a","1",""
"null","","html-keyboard-response","318","1100893","0.0-6.0-2.32","","<div style=""font-size:60px;"">+</div>","null","","","","","","",""
"283","","image-keyboard-response","319","1101197","0.0-6.0-0.33","","img/orange.png","32","trial","null","false","0.2,0.8","4:nogo_d","",""
"null","","html-keyboard-response","320","1102205","0.0-6.0-1.33","","<img src=""img/orange-r.png"" border=""10"">","null","trial","null","","0.2,0.8","4:nogo_d","1",""
"null","","html-keyboard-response","321","1103206","0.0-6.0-2.33","","<div style=""font-size:60px;"">+</div>","null","","","","","","",""
"501","","image-keyboard-response","322","1103712","0.0-6.0-0.34","","img/green.png","32","trial","null","false","0.2,0.8","2:nogo_b","",""
"null","","html-keyboard-response","323","1104732","0.0-6.0-1.34","","<img src=""img/green-n.png"" border=""10"">","null","trial","null","","0.2,0.8","2:nogo_b","0",""
"null","","html-keyboard-response","324","1105736","0.0-6.0-2.34","","<div style=""font-size:60px;"">+</div>","null","","","","","","",""
"381","","image-keyboard-response","325","1106117","0.0-6.0-0.35","","img/grey.png","32","trial","32","true","0.8,0.2","3:go_c","",""
"null","","html-keyboard-response","326","1107128","0.0-6.0-1.35","","<img src=""img/grey-n.png"" border=""10"">","null","trial","32","","0.8,0.2","3:go_c","0",""
"null","","html-keyboard-response","327","1108132","0.0-6.0-2.35","","<div style=""font-size:60px;"">+</div>","null","","","","","","",""
"452","","image-keyboard-response","328","1108585","0.0-6.0-0.36","","img/grey.png","32","trial","32","true","0.8,0.2","3:go_c","",""
"null","","html-keyboard-response","329","1109604","0.0-6.0-1.36","","<img src=""img/grey-r.png"" border=""10"">","null","trial","32","","0.8,0.2","3:go_c","1",""
"null","","html-keyboard-response","330","1110622","0.0-6.0-2.36","","<div style=""font-size:60px;"">+</div>","null","","","","","","",""
"503","","image-keyboard-response","331","1111125","0.0-6.0-0.37","","img/green.png","32","trial","null","false","0.2,0.8","2:nogo_b","",""
"null","","html-keyboard-response","332","1112127","0.0-6.0-1.37","","<img src=""img/green-n.png"" border=""10"">","null","trial","null","","0.2,0.8","2:nogo_b","0",""
"null","","html-keyboard-response","333","1113127","0.0-6.0-2.37","","<div style=""font-size:60px;"">+</div>","null","","","","","","",""
"500","","image-keyboard-response","334","1113628","0.0-6.0-0.38","","img/purple.png","32","trial","32","true","0.8,0.2","1:go_a","",""
"null","","html-keyboard-response","335","1114658","0.0-6.0-1.38","","<img src=""img/purple-r.png"" border=""10"">","null","trial","32","","0.8,0.2","1:go_a","1",""
"null","","html-keyboard-response","336","1115670","0.0-6.0-2.38","","<div style=""font-size:60px;"">+</div>","null","","","","","","",""
"459","","image-keyboard-response","337","1116129","0.0-6.0-0.39","","img/orange.png","32","trial","null","false","0.2,0.8","4:nogo_d","",""
"null","","html-keyboard-response","338","1117152","0.0-6.0-1.39","","<img src=""img/orange-n.png"" border=""10"">","null","trial","null","","0.2,0.8","4:nogo_d","0",""
"null","","html-keyboard-response","339","1118153","0.0-6.0-2.39","","<div style=""font-size:60px;"">+</div>","null","","","","","","",""
"460","","image-keyboard-response","340","1118614","0.0-6.0-0.40","","img/purple.png","32","trial","32","true","0.8,0.2","1:go_a","",""
"null","","html-keyboard-response","341","1119628","0.0-6.0-1.40","","<img src=""img/purple-r.png"" border=""10"">","null","trial","32","","0.8,0.2","1:go_a","1",""
"null","","html-keyboard-response","342","1120632","0.0-6.0-2.40","","<div style=""font-size:60px;"">+</div>","null","","","","","","",""
"515","","image-keyboard-response","343","1121148","0.0-6.0-0.41","","img/green.png","32","trial","null","false","0.2,0.8","2:nogo_b","",""
"null","","html-keyboard-response","344","1122167","0.0-6.0-1.41","","<img src=""img/green-n.png"" border=""10"">","null","trial","null","","0.2,0.8","2:nogo_b","0",""
"null","","html-keyboard-response","345","1123168","0.0-6.0-2.41","","<div style=""font-size:60px;"">+</div>","null","","","","","","",""
"380","","image-keyboard-response","346","1123549","0.0-6.0-0.42","","img/grey.png","32","trial","32","true","0.8,0.2","3:go_c","",""
"null","","html-keyboard-response","347","1124552","0.0-6.0-1.42","","<img src=""img/grey-r.png"" border=""10"">","null","trial","32","","0.8,0.2","3:go_c","1",""
"null","","html-keyboard-response","348","1125565","0.0-6.0-2.42","","<div style=""font-size:60px;"">+</div>","null","","","","","","",""
"533","","image-keyboard-response","349","1126101","0.0-6.0-0.43","","img/orange.png","32","trial","null","false","0.2,0.8","4:nogo_d","",""
"null","","html-keyboard-response","350","1127104","0.0-6.0-1.43","","<img src=""img/orange-n.png"" border=""10"">","null","trial","null","","0.2,0.8","4:nogo_d","0",""
"null","","html-keyboard-response","351","1128119","0.0-6.0-2.43","","<div style=""font-size:60px;"">+</div>","null","","","","","","",""
"391","","image-keyboard-response","352","1128516","0.0-6.0-0.44","","img/green.png","32","trial","null","false","0.2,0.8","2:nogo_b","",""
"null","","html-keyboard-response","353","1129520","0.0-6.0-1.44","","<img src=""img/green-r.png"" border=""10"">","null","trial","null","","0.2,0.8","2:nogo_b","1",""
"null","","html-keyboard-response","354","1130533","0.0-6.0-2.44","","<div style=""font-size:60px;"">+</div>","null","","","","","","",""
"428","","image-keyboard-response","355","1130966","0.0-6.0-0.45","","img/grey.png","32","trial","32","true","0.8,0.2","3:go_c","",""
"null","","html-keyboard-response","356","1131980","0.0-6.0-1.45","","<img src=""img/grey-r.png"" border=""10"">","null","trial","32","","0.8,0.2","3:go_c","1",""
"null","","html-keyboard-response","357","1132986","0.0-6.0-2.45","","<div style=""font-size:60px;"">+</div>","null","","","","","","",""
"586","","image-keyboard-response","358","1133572","0.0-6.0-0.46","","img/purple.png","32","trial","32","true","0.8,0.2","1:go_a","",""
"null","","html-keyboard-response","359","1134587","0.0-6.0-1.46","","<img src=""img/purple-r.png"" border=""10"">","null","trial","32","","0.8,0.2","1:go_a","1",""
"null","","html-keyboard-response","360","1135590","0.0-6.0-2.46","","<div style=""font-size:60px;"">+</div>","null","","","","","","",""
"356","","image-keyboard-response","361","1135947","0.0-6.0-0.47","","img/orange.png","32","trial","null","false","0.2,0.8","4:nogo_d","",""
"null","","html-keyboard-response","362","1136976","0.0-6.0-1.47","","<img src=""img/orange-n.png"" border=""10"">","null","trial","null","","0.2,0.8","4:nogo_d","0",""
"null","","html-keyboard-response","363","1137977","0.0-6.0-2.47","","<div style=""font-size:60px;"">+</div>","null","","","","","","",""
"608","","image-keyboard-response","364","1138590","0.0-6.0-0.48","","img/green.png","32","trial","null","false","0.2,0.8","2:nogo_b","",""
"null","","html-keyboard-response","365","1139592","0.0-6.0-1.48","","<img src=""img/green-n.png"" border=""10"">","null","trial","null","","0.2,0.8","2:nogo_b","0",""
"null","","html-keyboard-response","366","1140599","0.0-6.0-2.48","","<div style=""font-size:60px;"">+</div>","null","","","","","","",""
"367","","image-keyboard-response","367","1140976","0.0-6.0-0.49","","img/orange.png","32","trial","null","false","0.2,0.8","4:nogo_d","",""
"null","","html-keyboard-response","368","1141989","0.0-6.0-1.49","","<img src=""img/orange-n.png"" border=""10"">","null","trial","null","","0.2,0.8","4:nogo_d","0",""
"null","","html-keyboard-response","369","1142993","0.0-6.0-2.49","","<div style=""font-size:60px;"">+</div>","null","","","","","","",""
"419","","image-keyboard-response","370","1143413","0.0-6.0-0.50","","img/grey.png","32","trial","32","true","0.8,0.2","3:go_c","",""
"null","","html-keyboard-response","371","1144419","0.0-6.0-1.50","","<img src=""img/grey-r.png"" border=""10"">","null","trial","32","","0.8,0.2","3:go_c","1",""
"null","","html-keyboard-response","372","1145422","0.0-6.0-2.50","","<div style=""font-size:60px;"">+</div>","null","","","","","","",""
"432","","image-keyboard-response","373","1145870","0.0-6.0-0.51","","img/purple.png","32","trial","32","true","0.8,0.2","1:go_a","",""
"null","","html-keyboard-response","374","1146874","0.0-6.0-1.51","","<img src=""img/purple-r.png"" border=""10"">","null","trial","32","","0.8,0.2","1:go_a","1",""
"null","","html-keyboard-response","375","1147876","0.0-6.0-2.51","","<div style=""font-size:60px;"">+</div>","null","","","","","","",""
"444","","image-keyboard-response","376","1148341","0.0-6.0-0.52","","img/grey.png","32","trial","32","true","0.8,0.2","3:go_c","",""
"null","","html-keyboard-response","377","1149346","0.0-6.0-1.52","","<img src=""img/grey-r.png"" border=""10"">","null","trial","32","","0.8,0.2","3:go_c","1",""
"null","","html-keyboard-response","378","1150364","0.0-6.0-2.52","","<div style=""font-size:60px;"">+</div>","null","","","","","","",""
"345","","image-keyboard-response","379","1150726","0.0-6.0-0.53","","img/green.png","32","trial","null","false","0.2,0.8","2:nogo_b","",""
"null","","html-keyboard-response","380","1151741","0.0-6.0-1.53","","<img src=""img/green-r.png"" border=""10"">","null","trial","null","","0.2,0.8","2:nogo_b","1",""
"null","","html-keyboard-response","381","1152743","0.0-6.0-2.53","","<div style=""font-size:60px;"">+</div>","null","","","","","","",""
"366","","image-keyboard-response","382","1153109","0.0-6.0-0.54","","img/orange.png","32","trial","null","false","0.2,0.8","4:nogo_d","",""
"null","","html-keyboard-response","383","1154135","0.0-6.0-1.54","","<img src=""img/orange-n.png"" border=""10"">","null","trial","null","","0.2,0.8","4:nogo_d","0",""
"null","","html-keyboard-response","384","1155150","0.0-6.0-2.54","","<div style=""font-size:60px;"">+</div>","null","","","","","","",""
"373","","image-keyboard-response","385","1155523","0.0-6.0-0.55","","img/purple.png","32","trial","32","true","0.8,0.2","1:go_a","",""
"null","","html-keyboard-response","386","1156543","0.0-6.0-1.55","","<img src=""img/purple-n.png"" border=""10"">","null","trial","32","","0.8,0.2","1:go_a","0",""
"null","","html-keyboard-response","387","1157555","0.0-6.0-2.55","","<div style=""font-size:60px;"">+</div>","null","","","","","","",""
"482","","image-keyboard-response","388","1158040","0.0-6.0-0.56","","img/grey.png","32","trial","32","true","0.8,0.2","3:go_c","",""
"null","","html-keyboard-response","389","1159059","0.0-6.0-1.56","","<img src=""img/grey-n.png"" border=""10"">","null","trial","32","","0.8,0.2","3:go_c","0",""
"null","","html-keyboard-response","390","1160070","0.0-6.0-2.56","","<div style=""font-size:60px;"">+</div>","null","","","","","","",""
"687","","image-keyboard-response","391","1160761","0.0-6.0-0.57","","img/purple.png","32","trial","32","true","0.8,0.2","1:go_a","",""
"null","","html-keyboard-response","392","1161765","0.0-6.0-1.57","","<img src=""img/purple-r.png"" border=""10"">","null","trial","32","","0.8,0.2","1:go_a","1",""
"null","","html-keyboard-response","393","1162777","0.0-6.0-2.57","","<div style=""font-size:60px;"">+</div>","null","","","","","","",""
"792","","image-keyboard-response","394","1163573","0.0-6.0-0.58","","img/orange.png","32","trial","null","false","0.2,0.8","4:nogo_d","",""
"null","","html-keyboard-response","395","1164586","0.0-6.0-1.58","","<img src=""img/orange-n.png"" border=""10"">","null","trial","null","","0.2,0.8","4:nogo_d","0",""
"null","","html-keyboard-response","396","1165602","0.0-6.0-2.58","","<div style=""font-size:60px;"">+</div>","null","","","","","","",""
"403","","image-keyboard-response","397","1166008","0.0-6.0-0.59","","img/green.png","32","trial","null","false","0.2,0.8","2:nogo_b","",""
"null","","html-keyboard-response","398","1167024","0.0-6.0-1.59","","<img src=""img/green-n.png"" border=""10"">","null","trial","null","","0.2,0.8","2:nogo_b","0",""
"null","","html-keyboard-response","399","1168072","0.0-6.0-2.59","","<div style=""font-size:60px;"">+</div>","null","","","","","","",""
"444","","image-keyboard-response","400","1168516","0.0-6.0-0.60","","img/orange.png","32","trial","null","false","0.2,0.8","4:nogo_d","",""
"null","","html-keyboard-response","401","1169528","0.0-6.0-1.60","","<img src=""img/orange-n.png"" border=""10"">","null","trial","null","","0.2,0.8","4:nogo_d","0",""
"null","","html-keyboard-response","402","1170530","0.0-6.0-2.60","","<div style=""font-size:60px;"">+</div>","null","","","","","","",""
"385","","image-keyboard-response","403","1170916","0.0-6.0-0.61","","img/green.png","32","trial","null","false","0.2,0.8","2:nogo_b","",""
"null","","html-keyboard-response","404","1171917","0.0-6.0-1.61","","<img src=""img/green-r.png"" border=""10"">","null","trial","null","","0.2,0.8","2:nogo_b","1",""
"null","","html-keyboard-response","405","1172920","0.0-6.0-2.61","","<div style=""font-size:60px;"">+</div>","null","","","","","","",""
"363","","image-keyboard-response","406","1173296","0.0-6.0-0.62","","img/purple.png","32","trial","32","true","0.8,0.2","1:go_a","",""
"null","","html-keyboard-response","407","1174300","0.0-6.0-1.62","","<img src=""img/purple-r.png"" border=""10"">","null","trial","32","","0.8,0.2","1:go_a","1",""
"null","","html-keyboard-response","408","1175301","0.0-6.0-2.62","","<div style=""font-size:60px;"">+</div>","null","","","","","","",""
"488","","image-keyboard-response","409","1175792","0.0-6.0-0.63","","img/grey.png","32","trial","32","true","0.8,0.2","3:go_c","",""
"null","","html-keyboard-response","410","1176796","0.0-6.0-1.63","","<img src=""img/grey-r.png"" border=""10"">","null","trial","32","","0.8,0.2","3:go_c","1",""
"null","","html-keyboard-response","411","1177798","0.0-6.0-2.63","","<div style=""font-size:60px;"">+</div>","null","","","","","","",""
"413","","image-keyboard-response","412","1178213","0.0-6.0-0.64","","img/purple.png","32","trial","32","true","0.8,0.2","1:go_a","",""
"null","","html-keyboard-response","413","1179215","0.0-6.0-1.64","","<img src=""img/purple-r.png"" border=""10"">","null","trial","32","","0.8,0.2","1:go_a","1",""
"null","","html-keyboard-response","414","1180231","0.0-6.0-2.64","","<div style=""font-size:60px;"">+</div>","null","","","","","","",""
"412","","image-keyboard-response","415","1180644","0.0-6.0-0.65","","img/orange.png","32","trial","null","false","0.2,0.8","4:nogo_d","",""
"null","","html-keyboard-response","416","1181646","0.0-6.0-1.65","","<img src=""img/orange-n.png"" border=""10"">","null","trial","null","","0.2,0.8","4:nogo_d","0",""
"null","","html-keyboard-response","417","1182657","0.0-6.0-2.65","","<div style=""font-size:60px;"">+</div>","null","","","","","","",""
"460","","image-keyboard-response","418","1183119","0.0-6.0-0.66","","img/green.png","32","trial","null","false","0.2,0.8","2:nogo_b","",""
"null","","html-keyboard-response","419","1184122","0.0-6.0-1.66","","<img src=""img/green-n.png"" border=""10"">","null","trial","null","","0.2,0.8","2:nogo_b","0",""
"null","","html-keyboard-response","420","1185130","0.0-6.0-2.66","","<div style=""font-size:60px;"">+</div>","null","","","","","","",""
"341","","image-keyboard-response","421","1185477","0.0-6.0-0.67","","img/grey.png","32","trial","32","true","0.8,0.2","3:go_c","",""
"null","","html-keyboard-response","422","1186496","0.0-6.0-1.67","","<img src=""img/grey-r.png"" border=""10"">","null","trial","32","","0.8,0.2","3:go_c","1",""
"null","","html-keyboard-response","423","1187505","0.0-6.0-2.67","","<div style=""font-size:60px;"">+</div>","null","","","","","","",""
"668","","image-keyboard-response","424","1188175","0.0-6.0-0.68","","img/orange.png","32","trial","null","false","0.2,0.8","4:nogo_d","",""
"null","","html-keyboard-response","425","1189179","0.0-6.0-1.68","","<img src=""img/orange-n.png"" border=""10"">","null","trial","null","","0.2,0.8","4:nogo_d","0",""
"null","","html-keyboard-response","426","1190180","0.0-6.0-2.68","","<div style=""font-size:60px;"">+</div>","null","","","","","","",""
"307","","image-keyboard-response","427","1190504","0.0-6.0-0.69","","img/grey.png","32","trial","32","true","0.8,0.2","3:go_c","",""
"null","","html-keyboard-response","428","1191515","0.0-6.0-1.69","","<img src=""img/grey-r.png"" border=""10"">","null","trial","32","","0.8,0.2","3:go_c","1",""
"null","","html-keyboard-response","429","1192519","0.0-6.0-2.69","","<div style=""font-size:60px;"">+</div>","null","","","","","","",""
"281","","image-keyboard-response","430","1192814","0.0-6.0-0.70","","img/purple.png","32","trial","32","true","0.8,0.2","1:go_a","",""
"null","","html-keyboard-response","431","1193826","0.0-6.0-1.70","","<img src=""img/purple-r.png"" border=""10"">","null","trial","32","","0.8,0.2","1:go_a","1",""
"null","","html-keyboard-response","432","1194827","0.0-6.0-2.70","","<div style=""font-size:60px;"">+</div>","null","","","","","","",""
"316","","image-keyboard-response","433","1195145","0.0-6.0-0.71","","img/green.png","32","trial","null","false","0.2,0.8","2:nogo_b","",""
"null","","html-keyboard-response","434","1196154","0.0-6.0-1.71","","<img src=""img/green-n.png"" border=""10"">","null","trial","null","","0.2,0.8","2:nogo_b","0",""
"null","","html-keyboard-response","435","1197174","0.0-6.0-2.71","","<div style=""font-size:60px;"">+</div>","null","","","","","","",""
"345","","image-keyboard-response","436","1197519","0.0-6.0-0.72","","img/grey.png","32","trial","32","true","0.8,0.2","3:go_c","",""
"null","","html-keyboard-response","437","1198535","0.0-6.0-1.72","","<img src=""img/grey-r.png"" border=""10"">","null","trial","32","","0.8,0.2","3:go_c","1",""
"null","","html-keyboard-response","438","1199679","0.0-6.0-2.72","","<div style=""font-size:60px;"">+</div>","null","","","","","","",""
"384","","image-keyboard-response","439","1200064","0.0-6.0-0.73","","img/purple.png","32","trial","32","true","0.8,0.2","1:go_a","",""
"null","","html-keyboard-response","440","1201127","0.0-6.0-1.73","","<img src=""img/purple-r.png"" border=""10"">","null","trial","32","","0.8,0.2","1:go_a","1",""
"null","","html-keyboard-response","441","1202142","0.0-6.0-2.73","","<div style=""font-size:60px;"">+</div>","null","","","","","","",""
"395","","image-keyboard-response","442","1202550","0.0-6.0-0.74","","img/green.png","32","trial","null","false","0.2,0.8","2:nogo_b","",""
"null","","html-keyboard-response","443","1203556","0.0-6.0-1.74","","<img src=""img/green-n.png"" border=""10"">","null","trial","null","","0.2,0.8","2:nogo_b","0",""
"null","","html-keyboard-response","444","1204595","0.0-6.0-2.74","","<div style=""font-size:60px;"">+</div>","null","","","","","","",""
"299","","image-keyboard-response","445","1204895","0.0-6.0-0.75","","img/orange.png","32","trial","null","false","0.2,0.8","4:nogo_d","",""
"null","","html-keyboard-response","446","1205988","0.0-6.0-1.75","","<img src=""img/orange-n.png"" border=""10"">","null","trial","null","","0.2,0.8","4:nogo_d","0",""
"null","","html-keyboard-response","447","1207008","0.0-6.0-2.75","","<div style=""font-size:60px;"">+</div>","null","","","","","","",""
"402","","image-keyboard-response","448","1207415","0.0-6.0-0.76","","img/grey.png","32","trial","32","true","0.8,0.2","3:go_c","",""
"null","","html-keyboard-response","449","1208448","0.0-6.0-1.76","","<img src=""img/grey-r.png"" border=""10"">","null","trial","32","","0.8,0.2","3:go_c","1",""
"null","","html-keyboard-response","450","1209490","0.0-6.0-2.76","","<div style=""font-size:60px;"">+</div>","null","","","","","","",""
"365","","image-keyboard-response","451","1209859","0.0-6.0-0.77","","img/purple.png","32","trial","32","true","0.8,0.2","1:go_a","",""
"null","","html-keyboard-response","452","1210872","0.0-6.0-1.77","","<img src=""img/purple-r.png"" border=""10"">","null","trial","32","","0.8,0.2","1:go_a","1",""
"null","","html-keyboard-response","453","1211894","0.0-6.0-2.77","","<div style=""font-size:60px;"">+</div>","null","","","","","","",""
"316","","image-keyboard-response","454","1212214","0.0-6.0-0.78","","img/green.png","32","trial","null","false","0.2,0.8","2:nogo_b","",""
"null","","html-keyboard-response","455","1213218","0.0-6.0-1.78","","<img src=""img/green-n.png"" border=""10"">","null","trial","null","","0.2,0.8","2:nogo_b","0",""
"null","","html-keyboard-response","456","1214230","0.0-6.0-2.78","","<div style=""font-size:60px;"">+</div>","null","","","","","","",""
"368","","image-keyboard-response","457","1214601","0.0-6.0-0.79","","img/orange.png","32","trial","null","false","0.2,0.8","4:nogo_d","",""
"null","","html-keyboard-response","458","1215616","0.0-6.0-1.79","","<img src=""img/orange-r.png"" border=""10"">","null","trial","null","","0.2,0.8","4:nogo_d","1",""
"null","","html-keyboard-response","459","1216632","0.0-6.0-2.79","","<div style=""font-size:60px;"">+</div>","null","","","","","","",""
"339","","image-keyboard-response","460","1216973","0.0-6.0-0.80","","img/purple.png","32","trial","32","true","0.8,0.2","1:go_a","",""
"null","","html-keyboard-response","461","1218003","0.0-6.0-1.80","","<img src=""img/purple-r.png"" border=""10"">","null","trial","32","","0.8,0.2","1:go_a","1",""
"null","","html-keyboard-response","462","1219034","0.0-6.0-2.80","","<div style=""font-size:60px;"">+</div>","null","","","","","","",""
"498","","image-keyboard-response","463","1219534","0.0-6.0-0.81","","img/grey.png","32","trial","32","true","0.8,0.2","3:go_c","",""
"null","","html-keyboard-response","464","1220539","0.0-6.0-1.81","","<img src=""img/grey-r.png"" border=""10"">","null","trial","32","","0.8,0.2","3:go_c","1",""
"null","","html-keyboard-response","465","1221545","0.0-6.0-2.81","","<div style=""font-size:60px;"">+</div>","null","","","","","","",""
"347","","image-keyboard-response","466","1221900","0.0-6.0-0.82","","img/orange.png","32","trial","null","false","0.2,0.8","4:nogo_d","",""
"null","","html-keyboard-response","467","1222918","0.0-6.0-1.82","","<img src=""img/orange-n.png"" border=""10"">","null","trial","null","","0.2,0.8","4:nogo_d","0",""
"null","","html-keyboard-response","468","1223925","0.0-6.0-2.82","","<div style=""font-size:60px;"">+</div>","null","","","","","","",""
"382","","image-keyboard-response","469","1224312","0.0-6.0-0.83","","img/green.png","32","trial","null","false","0.2,0.8","2:nogo_b","",""
"null","","html-keyboard-response","470","1225329","0.0-6.0-1.83","","<img src=""img/green-n.png"" border=""10"">","null","trial","null","","0.2,0.8","2:nogo_b","0",""
"null","","html-keyboard-response","471","1226335","0.0-6.0-2.83","","<div style=""font-size:60px;"">+</div>","null","","","","","","",""
"371","","image-keyboard-response","472","1226710","0.0-6.0-0.84","","img/green.png","32","trial","null","false","0.2,0.8","2:nogo_b","",""
"null","","html-keyboard-response","473","1227718","0.0-6.0-1.84","","<img src=""img/green-n.png"" border=""10"">","null","trial","null","","0.2,0.8","2:nogo_b","0",""
"null","","html-keyboard-response","474","1228722","0.0-6.0-2.84","","<div style=""font-size:60px;"">+</div>","null","","","","","","",""
"442","","image-keyboard-response","475","1229164","0.0-6.0-0.85","","img/orange.png","32","trial","null","false","0.2,0.8","4:nogo_d","",""
"null","","html-keyboard-response","476","1230185","0.0-6.0-1.85","","<img src=""img/orange-n.png"" border=""10"">","null","trial","null","","0.2,0.8","4:nogo_d","0",""
"null","","html-keyboard-response","477","1231201","0.0-6.0-2.85","","<div style=""font-size:60px;"">+</div>","null","","","","","","",""
"384","","image-keyboard-response","478","1231587","0.0-6.0-0.86","","img/purple.png","32","trial","32","true","0.8,0.2","1:go_a","",""
"null","","html-keyboard-response","479","1232597","0.0-6.0-1.86","","<img src=""img/purple-r.png"" border=""10"">","null","trial","32","","0.8,0.2","1:go_a","1",""
"null","","html-keyboard-response","480","1233609","0.0-6.0-2.86","","<div style=""font-size:60px;"">+</div>","null","","","","","","",""
"416","","image-keyboard-response","481","1234026","0.0-6.0-0.87","","img/grey.png","32","trial","32","true","0.8,0.2","3:go_c","",""
"null","","html-keyboard-response","482","1235049","0.0-6.0-1.87","","<img src=""img/grey-r.png"" border=""10"">","null","trial","32","","0.8,0.2","3:go_c","1",""
"null","","html-keyboard-response","483","1236057","0.0-6.0-2.87","","<div style=""font-size:60px;"">+</div>","null","","","","","","",""
"514","","image-keyboard-response","484","1236571","0.0-6.0-0.88","","img/purple.png","32","trial","32","true","0.8,0.2","1:go_a","",""
"null","","html-keyboard-response","485","1237574","0.0-6.0-1.88","","<img src=""img/purple-n.png"" border=""10"">","null","trial","32","","0.8,0.2","1:go_a","0",""
"null","","html-keyboard-response","486","1238613","0.0-6.0-2.88","","<div style=""font-size:60px;"">+</div>","null","","","","","","",""
"407","","image-keyboard-response","487","1239022","0.0-6.0-0.89","","img/orange.png","32","trial","null","false","0.2,0.8","4:nogo_d","",""
"null","","html-keyboard-response","488","1240025","0.0-6.0-1.89","","<img src=""img/orange-r.png"" border=""10"">","null","trial","null","","0.2,0.8","4:nogo_d","1",""
"null","","html-keyboard-response","489","1241027","0.0-6.0-2.89","","<div style=""font-size:60px;"">+</div>","null","","","","","","",""
"462","","image-keyboard-response","490","1241492","0.0-6.0-0.90","","img/green.png","32","trial","null","false","0.2,0.8","2:nogo_b","",""
"null","","html-keyboard-response","491","1242500","0.0-6.0-1.90","","<img src=""img/green-n.png"" border=""10"">","null","trial","null","","0.2,0.8","2:nogo_b","0",""
"null","","html-keyboard-response","492","1243514","0.0-6.0-2.90","","<div style=""font-size:60px;"">+</div>","null","","","","","","",""
"684","","image-keyboard-response","493","1244207","0.0-6.0-0.91","","img/grey.png","32","trial","32","true","0.8,0.2","3:go_c","",""
"null","","html-keyboard-response","494","1245212","0.0-6.0-1.91","","<img src=""img/grey-r.png"" border=""10"">","null","trial","32","","0.8,0.2","3:go_c","1",""
"null","","html-keyboard-response","495","1246228","0.0-6.0-2.91","","<div style=""font-size:60px;"">+</div>","null","","","","","","",""
"764","","image-keyboard-response","496","1246992","0.0-6.0-0.92","","img/grey.png","32","trial","32","true","0.8,0.2","3:go_c","",""
"null","","html-keyboard-response","497","1248018","0.0-6.0-1.92","","<img src=""img/grey-r.png"" border=""10"">","null","trial","32","","0.8,0.2","3:go_c","1",""
"null","","html-keyboard-response","498","1249032","0.0-6.0-2.92","","<div style=""font-size:60px;"">+</div>","null","","","","","","",""
"508","","image-keyboard-response","499","1249542","0.0-6.0-0.93","","img/green.png","32","trial","null","false","0.2,0.8","2:nogo_b","",""
"null","","html-keyboard-response","500","1250560","0.0-6.0-1.93","","<img src=""img/green-n.png"" border=""10"">","null","trial","null","","0.2,0.8","2:nogo_b","0",""
"null","","html-keyboard-response","501","1251578","0.0-6.0-2.93","","<div style=""font-size:60px;"">+</div>","null","","","","","","",""
"420","","image-keyboard-response","502","1251998","0.0-6.0-0.94","","img/orange.png","32","trial","null","false","0.2,0.8","4:nogo_d","",""
"null","","html-keyboard-response","503","1253006","0.0-6.0-1.94","","<img src=""img/orange-r.png"" border=""10"">","null","trial","null","","0.2,0.8","4:nogo_d","1",""
"null","","html-keyboard-response","504","1254009","0.0-6.0-2.94","","<div style=""font-size:60px;"">+</div>","null","","","","","","",""
"357","","image-keyboard-response","505","1254367","0.0-6.0-0.95","","img/purple.png","32","trial","32","true","0.8,0.2","1:go_a","",""
"null","","html-keyboard-response","506","1255383","0.0-6.0-1.95","","<img src=""img/purple-r.png"" border=""10"">","null","trial","32","","0.8,0.2","1:go_a","1",""
"null","","html-keyboard-response","507","1256412","0.0-6.0-2.95","","<div style=""font-size:60px;"">+</div>","null","","","","","","",""
"540","","image-keyboard-response","508","1256966","0.0-6.0-0.96","","img/purple.png","32","trial","32","true","0.8,0.2","1:go_a","",""
"null","","html-keyboard-response","509","1257977","0.0-6.0-1.96","","<img src=""img/purple-r.png"" border=""10"">","null","trial","32","","0.8,0.2","1:go_a","1",""
"null","","html-keyboard-response","510","1258980","0.0-6.0-2.96","","<div style=""font-size:60px;"">+</div>","null","","","","","","",""
"356","","image-keyboard-response","511","1259350","0.0-6.0-0.97","","img/green.png","32","trial","null","false","0.2,0.8","2:nogo_b","",""
"null","","html-keyboard-response","512","1260362","0.0-6.0-1.97","","<img src=""img/green-n.png"" border=""10"">","null","trial","null","","0.2,0.8","2:nogo_b","0",""
"null","","html-keyboard-response","513","1261365","0.0-6.0-2.97","","<div style=""font-size:60px;"">+</div>","null","","","","","","",""
"356","","image-keyboard-response","514","1261721","0.0-6.0-0.98","","img/grey.png","32","trial","32","true","0.8,0.2","3:go_c","",""
"null","","html-keyboard-response","515","1262740","0.0-6.0-1.98","","<img src=""img/grey-r.png"" border=""10"">","null","trial","32","","0.8,0.2","3:go_c","1",""
"null","","html-keyboard-response","516","1263746","0.0-6.0-2.98","","<div style=""font-size:60px;"">+</div>","null","","","","","","",""
"514","","image-keyboard-response","517","1264262","0.0-6.0-0.99","","img/orange.png","32","trial","null","false","0.2,0.8","4:nogo_d","",""
"null","","html-keyboard-response","518","1265272","0.0-6.0-1.99","","<img src=""img/orange-n.png"" border=""10"">","null","trial","null","","0.2,0.8","4:nogo_d","0",""
"null","","html-keyboard-response","519","1266283","0.0-6.0-2.99","","<div style=""font-size:60px;"">+</div>","null","","","","","","",""
"433","","image-keyboard-response","520","1266725","0.0-6.0-0.100","","img/green.png","32","trial","null","false","0.2,0.8","2:nogo_b","",""
"null","","html-keyboard-response","521","1267736","0.0-6.0-1.100","","<img src=""img/green-n.png"" border=""10"">","null","trial","null","","0.2,0.8","2:nogo_b","0",""
"null","","html-keyboard-response","522","1268744","0.0-6.0-2.100","","<div style=""font-size:60px;"">+</div>","null","","","","","","",""
"399","","image-keyboard-response","523","1269144","0.0-6.0-0.101","","img/grey.png","32","trial","32","true","0.8,0.2","3:go_c","",""
"null","","html-keyboard-response","524","1270168","0.0-6.0-1.101","","<img src=""img/grey-r.png"" border=""10"">","null","trial","32","","0.8,0.2","3:go_c","1",""
"null","","html-keyboard-response","525","1271184","0.0-6.0-2.101","","<div style=""font-size:60px;"">+</div>","null","","","","","","",""
"412","","image-keyboard-response","526","1271599","0.0-6.0-0.102","","img/orange.png","32","trial","null","false","0.2,0.8","4:nogo_d","",""
"null","","html-keyboard-response","527","1272682","0.0-6.0-1.102","","<img src=""img/orange-n.png"" border=""10"">","null","trial","null","","0.2,0.8","4:nogo_d","0",""
"null","","html-keyboard-response","528","1273693","0.0-6.0-2.102","","<div style=""font-size:60px;"">+</div>","null","","","","","","",""
"348","","image-keyboard-response","529","1274041","0.0-6.0-0.103","","img/purple.png","32","trial","32","true","0.8,0.2","1:go_a","",""
"null","","html-keyboard-response","530","1275050","0.0-6.0-1.103","","<img src=""img/purple-r.png"" border=""10"">","null","trial","32","","0.8,0.2","1:go_a","1",""
"null","","html-keyboard-response","531","1276064","0.0-6.0-2.103","","<div style=""font-size:60px;"">+</div>","null","","","","","","",""
"346","","image-keyboard-response","532","1276412","0.0-6.0-0.104","","img/purple.png","32","trial","32","true","0.8,0.2","1:go_a","",""
"null","","html-keyboard-response","533","1277426","0.0-6.0-1.104","","<img src=""img/purple-n.png"" border=""10"">","null","trial","32","","0.8,0.2","1:go_a","0",""
"null","","html-keyboard-response","534","1278436","0.0-6.0-2.104","","<div style=""font-size:60px;"">+</div>","null","","","","","","",""
"306","","image-keyboard-response","535","1278744","0.0-6.0-0.105","","img/green.png","32","trial","null","false","0.2,0.8","2:nogo_b","",""
"null","","html-keyboard-response","536","1279767","0.0-6.0-1.105","","<img src=""img/green-n.png"" border=""10"">","null","trial","null","","0.2,0.8","2:nogo_b","0",""
"null","","html-keyboard-response","537","1280776","0.0-6.0-2.105","","<div style=""font-size:60px;"">+</div>","null","","","","","","",""
"364","","image-keyboard-response","538","1281141","0.0-6.0-0.106","","img/orange.png","32","trial","null","false","0.2,0.8","4:nogo_d","",""
"null","","html-keyboard-response","539","1282142","0.0-6.0-1.106","","<img src=""img/orange-r.png"" border=""10"">","null","trial","null","","0.2,0.8","4:nogo_d","1",""
"null","","html-keyboard-response","540","1283148","0.0-6.0-2.106","","<div style=""font-size:60px;"">+</div>","null","","","","","","",""
"377","","image-keyboard-response","541","1283543","0.0-6.0-0.107","","img/grey.png","32","trial","32","true","0.8,0.2","3:go_c","",""
"null","","html-keyboard-response","542","1284551","0.0-6.0-1.107","","<img src=""img/grey-r.png"" border=""10"">","null","trial","32","","0.8,0.2","3:go_c","1",""
"null","","html-keyboard-response","543","1285570","0.0-6.0-2.107","","<div style=""font-size:60px;"">+</div>","null","","","","","","",""
"340","","image-keyboard-response","544","1285912","0.0-6.0-0.108","","img/green.png","32","trial","null","false","0.2,0.8","2:nogo_b","",""
"null","","html-keyboard-response","545","1286915","0.0-6.0-1.108","","<img src=""img/green-n.png"" border=""10"">","null","trial","null","","0.2,0.8","2:nogo_b","0",""
"null","","html-keyboard-response","546","1287924","0.0-6.0-2.108","","<div style=""font-size:60px;"">+</div>","null","","","","","","",""
"371","","image-keyboard-response","547","1288303","0.0-6.0-0.109","","img/purple.png","32","trial","32","true","0.8,0.2","1:go_a","",""
"null","","html-keyboard-response","548","1289320","0.0-6.0-1.109","","<img src=""img/purple-r.png"" border=""10"">","null","trial","32","","0.8,0.2","1:go_a","1",""
"null","","html-keyboard-response","549","1290321","0.0-6.0-2.109","","<div style=""font-size:60px;"">+</div>","null","","","","","","",""
"391","","image-keyboard-response","550","1290727","0.0-6.0-0.110","","img/orange.png","32","trial","null","false","0.2,0.8","4:nogo_d","",""
"null","","html-keyboard-response","551","1291736","0.0-6.0-1.110","","<img src=""img/orange-r.png"" border=""10"">","null","trial","null","","0.2,0.8","4:nogo_d","1",""
"null","","html-keyboard-response","552","1292745","0.0-6.0-2.110","","<div style=""font-size:60px;"">+</div>","null","","","","","","",""
"372","","image-keyboard-response","553","1293134","0.0-6.0-0.111","","img/grey.png","32","trial","32","true","0.8,0.2","3:go_c","",""
"null","","html-keyboard-response","554","1294148","0.0-6.0-1.111","","<img src=""img/grey-r.png"" border=""10"">","null","trial","32","","0.8,0.2","3:go_c","1",""
"null","","html-keyboard-response","555","1295156","0.0-6.0-2.111","","<div style=""font-size:60px;"">+</div>","null","","","","","","",""
"419","","image-keyboard-response","556","1295575","0.0-6.0-0.112","","img/purple.png","32","trial","32","true","0.8,0.2","1:go_a","",""
"null","","html-keyboard-response","557","1296588","0.0-6.0-1.112","","<img src=""img/purple-r.png"" border=""10"">","null","trial","32","","0.8,0.2","1:go_a","1",""
"null","","html-keyboard-response","558","1297597","0.0-6.0-2.112","","<div style=""font-size:60px;"">+</div>","null","","","","","","",""
"520","","image-keyboard-response","559","1298130","0.0-6.0-0.113","","img/green.png","32","trial","null","false","0.2,0.8","2:nogo_b","",""
"null","","html-keyboard-response","560","1299141","0.0-6.0-1.113","","<img src=""img/green-r.png"" border=""10"">","null","trial","null","","0.2,0.8","2:nogo_b","1",""
"null","","html-keyboard-response","561","1300141","0.0-6.0-2.113","","<div style=""font-size:60px;"">+</div>","null","","","","","","",""
"417","","image-keyboard-response","562","1300559","0.0-6.0-0.114","","img/grey.png","32","trial","32","true","0.8,0.2","3:go_c","",""
"null","","html-keyboard-response","563","1301592","0.0-6.0-1.114","","<img src=""img/grey-r.png"" border=""10"">","null","trial","32","","0.8,0.2","3:go_c","1",""
"null","","html-keyboard-response","564","1302606","0.0-6.0-2.114","","<div style=""font-size:60px;"">+</div>","null","","","","","","",""
"320","","image-keyboard-response","565","1302934","0.0-6.0-0.115","","img/orange.png","32","trial","null","false","0.2,0.8","4:nogo_d","",""
"null","","html-keyboard-response","566","1303942","0.0-6.0-1.115","","<img src=""img/orange-n.png"" border=""10"">","null","trial","null","","0.2,0.8","4:nogo_d","0",""
"null","","html-keyboard-response","567","1304944","0.0-6.0-2.115","","<div style=""font-size:60px;"">+</div>","null","","","","","","",""
"471","","image-keyboard-response","568","1305415","0.0-6.0-0.116","","img/green.png","32","trial","null","false","0.2,0.8","2:nogo_b","",""
"null","","html-keyboard-response","569","1306418","0.0-6.0-1.116","","<img src=""img/green-n.png"" border=""10"">","null","trial","null","","0.2,0.8","2:nogo_b","0",""
"null","","html-keyboard-response","570","1307444","0.0-6.0-2.116","","<div style=""font-size:60px;"">+</div>","null","","","","","","",""
"331","","image-keyboard-response","571","1307790","0.0-6.0-0.117","","img/purple.png","32","trial","32","true","0.8,0.2","1:go_a","",""
"null","","html-keyboard-response","572","1308793","0.0-6.0-1.117","","<img src=""img/purple-r.png"" border=""10"">","null","trial","32","","0.8,0.2","1:go_a","1",""
"null","","html-keyboard-response","573","1309800","0.0-6.0-2.117","","<div style=""font-size:60px;"">+</div>","null","","","","","","",""
"406","","image-keyboard-response","574","1310207","0.0-6.0-0.118","","img/orange.png","32","trial","null","false","0.2,0.8","4:nogo_d","",""
"null","","html-keyboard-response","575","1311217","0.0-6.0-1.118","","<img src=""img/orange-n.png"" border=""10"">","null","trial","null","","0.2,0.8","4:nogo_d","0",""
"null","","html-keyboard-response","576","1312219","0.0-6.0-2.118","","<div style=""font-size:60px;"">+</div>","null","","","","","","",""
"363","","image-keyboard-response","577","1312597","0.0-6.0-0.119","","img/grey.png","32","trial","32","true","0.8,0.2","3:go_c","",""
"null","","html-keyboard-response","578","1313610","0.0-6.0-1.119","","<img src=""img/grey-r.png"" border=""10"">","null","trial","32","","0.8,0.2","3:go_c","1",""
"null","","html-keyboard-response","579","1314613","0.0-6.0-2.119","","<div style=""font-size:60px;"">+</div>","null","","","","","","",""
"127717","","instructions","580","1442330","0.0-7.0","[{""page_index"":0,""viewing_time"":127716}]","","","","","","","","",""
"1333","","image-keyboard-response","581","1443677","0.0-8.0-0.0","","img/green.png","32","trial","null","false","0.4,0.6","4:nogo_d","",""
"null","","html-keyboard-response","582","1444699","0.0-8.0-1.0","","<img src=""img/green-r.png"" border=""10"">","null","trial","null","","0.4,0.6","4:nogo_d","1",""
"null","","html-keyboard-response","583","1445701","0.0-8.0-2.0","","<div style=""font-size:60px;"">+</div>","null","","","","","","",""
"412","","image-keyboard-response","584","1446115","0.0-8.0-0.1","","img/blue.png","32","trial","32","true","0.8,0.2","1:go_a","",""
"null","","html-keyboard-response","585","1447122","0.0-8.0-1.1","","<img src=""img/blue-r.png"" border=""10"">","null","trial","32","","0.8,0.2","1:go_a","1",""
"null","","html-keyboard-response","586","1448125","0.0-8.0-2.1","","<div style=""font-size:60px;"">+</div>","null","","","","","","",""
"733","","image-keyboard-response","587","1448859","0.0-8.0-0.2","","img/orange.png","32","trial","32","true","0.6,0.4","3:go_c","",""
"null","","html-keyboard-response","588","1449869","0.0-8.0-1.2","","<img src=""img/orange-n.png"" border=""10"">","null","trial","32","","0.6,0.4","3:go_c","0",""
"null","","html-keyboard-response","589","1450884","0.0-8.0-2.2","","<div style=""font-size:60px;"">+</div>","null","","","","","","",""
"725","","image-keyboard-response","590","1451622","0.0-8.0-0.3","","img/grey.png","32","trial","null","false","0.2,0.8","2:nogo_b","",""
"null","","html-keyboard-response","591","1452626","0.0-8.0-1.3","","<img src=""img/grey-n.png"" border=""10"">","null","trial","null","","0.2,0.8","2:nogo_b","0",""
"null","","html-keyboard-response","592","1453638","0.0-8.0-2.3","","<div style=""font-size:60px;"">+</div>","null","","","","","","",""
"491","","image-keyboard-response","593","1454142","0.0-8.0-0.4","","img/blue.png","32","trial","32","true","0.8,0.2","1:go_a","",""
"null","","html-keyboard-response","594","1455169","0.0-8.0-1.4","","<img src=""img/blue-r.png"" border=""10"">","null","trial","32","","0.8,0.2","1:go_a","1",""
"null","","html-keyboard-response","595","1456177","0.0-8.0-2.4","","<div style=""font-size:60px;"">+</div>","null","","","","","","",""
"489","","image-keyboard-response","596","1456668","0.0-8.0-0.5","","img/green.png","32","trial","null","false","0.4,0.6","4:nogo_d","",""
"null","","html-keyboard-response","597","1457670","0.0-8.0-1.5","","<img src=""img/green-r.png"" border=""10"">","null","trial","null","","0.4,0.6","4:nogo_d","1",""
"null","","html-keyboard-response","598","1458687","0.0-8.0-2.5","","<div style=""font-size:60px;"">+</div>","null","","","","","","",""
"395","","image-keyboard-response","599","1459083","0.0-8.0-0.6","","img/orange.png","32","trial","32","true","0.6,0.4","3:go_c","",""
"null","","html-keyboard-response","600","1460092","0.0-8.0-1.6","","<img src=""img/orange-n.png"" border=""10"">","null","trial","32","","0.6,0.4","3:go_c","0",""
"null","","html-keyboard-response","601","1461109","0.0-8.0-2.6","","<div style=""font-size:60px;"">+</div>","null","","","","","","",""
"430","","image-keyboard-response","602","1461540","0.0-8.0-0.7","","img/grey.png","32","trial","null","false","0.2,0.8","2:nogo_b","",""
"null","","html-keyboard-response","603","1462556","0.0-8.0-1.7","","<img src=""img/grey-n.png"" border=""10"">","null","trial","null","","0.2,0.8","2:nogo_b","0",""
"null","","html-keyboard-response","604","1463567","0.0-8.0-2.7","","<div style=""font-size:60px;"">+</div>","null","","","","","","",""
"430","","image-keyboard-response","605","1464000","0.0-8.0-0.8","","img/grey.png","32","trial","null","false","0.2,0.8","2:nogo_b","",""
"null","","html-keyboard-response","606","1465062","0.0-8.0-1.8","","<img src=""img/grey-r.png"" border=""10"">","null","trial","null","","0.2,0.8","2:nogo_b","1",""
"null","","html-keyboard-response","607","1466072","0.0-8.0-2.8","","<div style=""font-size:60px;"">+</div>","null","","","","","","",""
"315","","image-keyboard-response","608","1466392","0.0-8.0-0.9","","img/orange.png","32","trial","32","true","0.6,0.4","3:go_c","",""
"null","","html-keyboard-response","609","1467401","0.0-8.0-1.9","","<img src=""img/orange-r.png"" border=""10"">","null","trial","32","","0.6,0.4","3:go_c","1",""
"null","","html-keyboard-response","610","1468412","0.0-8.0-2.9","","<div style=""font-size:60px;"">+</div>","null","","","","","","",""
"483","","image-keyboard-response","611","1468895","0.0-8.0-0.10","","img/green.png","32","trial","null","false","0.4,0.6","4:nogo_d","",""
"null","","html-keyboard-response","612","1469903","0.0-8.0-1.10","","<img src=""img/green-n.png"" border=""10"">","null","trial","null","","0.4,0.6","4:nogo_d","0",""
"null","","html-keyboard-response","613","1470918","0.0-8.0-2.10","","<div style=""font-size:60px;"">+</div>","null","","","","","","",""
"302","","image-keyboard-response","614","1471220","0.0-8.0-0.11","","img/blue.png","32","trial","32","true","0.8,0.2","1:go_a","",""
"null","","html-keyboard-response","615","1472228","0.0-8.0-1.11","","<img src=""img/blue-r.png"" border=""10"">","null","trial","32","","0.8,0.2","1:go_a","1",""
"null","","html-keyboard-response","616","1473234","0.0-8.0-2.11","","<div style=""font-size:60px;"">+</div>","null","","","","","","",""
"582","","image-keyboard-response","617","1473816","0.0-8.0-0.12","","img/green.png","32","trial","null","false","0.4,0.6","4:nogo_d","",""
"null","","html-keyboard-response","618","1474827","0.0-8.0-1.12","","<img src=""img/green-n.png"" border=""10"">","null","trial","null","","0.4,0.6","4:nogo_d","0",""
"null","","html-keyboard-response","619","1475829","0.0-8.0-2.12","","<div style=""font-size:60px;"">+</div>","null","","","","","","",""
"366","","image-keyboard-response","620","1476196","0.0-8.0-0.13","","img/blue.png","32","trial","32","true","0.8,0.2","1:go_a","",""
"null","","html-keyboard-response","621","1477199","0.0-8.0-1.13","","<img src=""img/blue-r.png"" border=""10"">","null","trial","32","","0.8,0.2","1:go_a","1",""
"null","","html-keyboard-response","622","1478207","0.0-8.0-2.13","","<div style=""font-size:60px;"">+</div>","null","","","","","","",""
"442","","image-keyboard-response","623","1478649","0.0-8.0-0.14","","img/orange.png","32","trial","32","true","0.6,0.4","3:go_c","",""
"null","","html-keyboard-response","624","1479676","0.0-8.0-1.14","","<img src=""img/orange-n.png"" border=""10"">","null","trial","32","","0.6,0.4","3:go_c","0",""
"null","","html-keyboard-response","625","1480687","0.0-8.0-2.14","","<div style=""font-size:60px;"">+</div>","null","","","","","","",""
"381","","image-keyboard-response","626","1481078","0.0-8.0-0.15","","img/grey.png","32","trial","null","false","0.2,0.8","2:nogo_b","",""
"null","","html-keyboard-response","627","1482095","0.0-8.0-1.15","","<img src=""img/grey-n.png"" border=""10"">","null","trial","null","","0.2,0.8","2:nogo_b","0",""
"null","","html-keyboard-response","628","1483117","0.0-8.0-2.15","","<div style=""font-size:60px;"">+</div>","null","","","","","","",""
"336","","image-keyboard-response","629","1483462","0.0-8.0-0.16","","img/green.png","32","trial","null","false","0.4,0.6","4:nogo_d","",""
"null","","html-keyboard-response","630","1484468","0.0-8.0-1.16","","<img src=""img/green-r.png"" border=""10"">","null","trial","null","","0.4,0.6","4:nogo_d","1",""
"null","","html-keyboard-response","631","1485477","0.0-8.0-2.16","","<div style=""font-size:60px;"">+</div>","null","","","","","","",""
"120","","image-keyboard-response","632","1485613","0.0-8.0-0.17","","img/grey.png","32","trial","null","false","0.2,0.8","2:nogo_b","",""
"null","","html-keyboard-response","633","1486625","0.0-8.0-1.17","","<img src=""img/grey-n.png"" border=""10"">","null","trial","null","","0.2,0.8","2:nogo_b","0",""
"null","","html-keyboard-response","634","1487627","0.0-8.0-2.17","","<div style=""font-size:60px;"">+</div>","null","","","","","","",""
"357","","image-keyboard-response","635","1487984","0.0-8.0-0.18","","img/blue.png","32","trial","32","true","0.8,0.2","1:go_a","",""
"null","","html-keyboard-response","636","1489015","0.0-8.0-1.18","","<img src=""img/blue-n.png"" border=""10"">","null","trial","32","","0.8,0.2","1:go_a","0",""
"null","","html-keyboard-response","637","1490024","0.0-8.0-2.18","","<div style=""font-size:60px;"">+</div>","null","","","","","","",""
"470","","image-keyboard-response","638","1490494","0.0-8.0-0.19","","img/orange.png","32","trial","32","true","0.6,0.4","3:go_c","",""
"null","","html-keyboard-response","639","1491524","0.0-8.0-1.19","","<img src=""img/orange-r.png"" border=""10"">","null","trial","32","","0.6,0.4","3:go_c","1",""
"null","","html-keyboard-response","640","1492533","0.0-8.0-2.19","","<div style=""font-size:60px;"">+</div>","null","","","","","","",""
"399","","image-keyboard-response","641","1492933","0.0-8.0-0.20","","img/orange.png","32","trial","32","true","0.6,0.4","3:go_c","",""
"null","","html-keyboard-response","642","1493944","0.0-8.0-1.20","","<img src=""img/orange-r.png"" border=""10"">","null","trial","32","","0.6,0.4","3:go_c","1",""
"null","","html-keyboard-response","643","1494950","0.0-8.0-2.20","","<div style=""font-size:60px;"">+</div>","null","","","","","","",""
"553","","image-keyboard-response","644","1495518","0.0-8.0-0.21","","img/grey.png","32","trial","null","false","0.2,0.8","2:nogo_b","",""
"null","","html-keyboard-response","645","1496524","0.0-8.0-1.21","","<img src=""img/grey-n.png"" border=""10"">","null","trial","null","","0.2,0.8","2:nogo_b","0",""
"null","","html-keyboard-response","646","1497532","0.0-8.0-2.21","","<div style=""font-size:60px;"">+</div>","null","","","","","","",""
"324","","image-keyboard-response","647","1497875","0.0-8.0-0.22","","img/blue.png","32","trial","32","true","0.8,0.2","1:go_a","",""
"null","","html-keyboard-response","648","1498883","0.0-8.0-1.22","","<img src=""img/blue-n.png"" border=""10"">","null","trial","32","","0.8,0.2","1:go_a","0",""
"null","","html-keyboard-response","649","1499890","0.0-8.0-2.22","","<div style=""font-size:60px;"">+</div>","null","","","","","","",""
"394","","image-keyboard-response","650","1500284","0.0-8.0-0.23","","img/green.png","32","trial","null","false","0.4,0.6","4:nogo_d","",""
"null","","html-keyboard-response","651","1501297","0.0-8.0-1.23","","<img src=""img/green-n.png"" border=""10"">","null","trial","null","","0.4,0.6","4:nogo_d","0",""
"null","","html-keyboard-response","652","1502304","0.0-8.0-2.23","","<div style=""font-size:60px;"">+</div>","null","","","","","","",""
"347","","image-keyboard-response","653","1502657","0.0-8.0-0.24","","img/orange.png","32","trial","32","true","0.6,0.4","3:go_c","",""
"null","","html-keyboard-response","654","1503660","0.0-8.0-1.24","","<img src=""img/orange-n.png"" border=""10"">","null","trial","32","","0.6,0.4","3:go_c","0",""
"null","","html-keyboard-response","655","1504662","0.0-8.0-2.24","","<div style=""font-size:60px;"">+</div>","null","","","","","","",""
"233","","image-keyboard-response","656","1504897","0.0-8.0-0.25","","img/green.png","32","trial","null","false","0.4,0.6","4:nogo_d","",""
"null","","html-keyboard-response","657","1505905","0.0-8.0-1.25","","<img src=""img/green-n.png"" border=""10"">","null","trial","null","","0.4,0.6","4:nogo_d","0",""
"null","","html-keyboard-response","658","1506920","0.0-8.0-2.25","","<div style=""font-size:60px;"">+</div>","null","","","","","","",""
"466","","image-keyboard-response","659","1507394","0.0-8.0-0.26","","img/blue.png","32","trial","32","true","0.8,0.2","1:go_a","",""
"null","","html-keyboard-response","660","1508408","0.0-8.0-1.26","","<img src=""img/blue-r.png"" border=""10"">","null","trial","32","","0.8,0.2","1:go_a","1",""
"null","","html-keyboard-response","661","1509422","0.0-8.0-2.26","","<div style=""font-size:60px;"">+</div>","null","","","","","","",""
"493","","image-keyboard-response","662","1509917","0.0-8.0-0.27","","img/grey.png","32","trial","null","false","0.2,0.8","2:nogo_b","",""
"null","","html-keyboard-response","663","1510923","0.0-8.0-1.27","","<img src=""img/grey-n.png"" border=""10"">","null","trial","null","","0.2,0.8","2:nogo_b","0",""
"null","","html-keyboard-response","664","1511940","0.0-8.0-2.27","","<div style=""font-size:60px;"">+</div>","null","","","","","","",""
"111","","image-keyboard-response","665","1512053","0.0-8.0-0.28","","img/grey.png","32","trial","null","false","0.2,0.8","2:nogo_b","",""
"null","","html-keyboard-response","666","1513059","0.0-8.0-1.28","","<img src=""img/grey-n.png"" border=""10"">","null","trial","null","","0.2,0.8","2:nogo_b","0",""
"null","","html-keyboard-response","667","1514078","0.0-8.0-2.28","","<div style=""font-size:60px;"">+</div>","null","","","","","","",""
"335","","image-keyboard-response","668","1514413","0.0-8.0-0.29","","img/orange.png","32","trial","32","true","0.6,0.4","3:go_c","",""
"null","","html-keyboard-response","669","1515442","0.0-8.0-1.29","","<img src=""img/orange-r.png"" border=""10"">","null","trial","32","","0.6,0.4","3:go_c","1",""
"null","","html-keyboard-response","670","1516470","0.0-8.0-2.29","","<div style=""font-size:60px;"">+</div>","null","","","","","","",""
"288","","image-keyboard-response","671","1516760","0.0-8.0-0.30","","img/green.png","32","trial","null","false","0.4,0.6","4:nogo_d","",""
"null","","html-keyboard-response","672","1517792","0.0-8.0-1.30","","<img src=""img/green-n.png"" border=""10"">","null","trial","null","","0.4,0.6","4:nogo_d","0",""
"null","","html-keyboard-response","673","1518803","0.0-8.0-2.30","","<div style=""font-size:60px;"">+</div>","null","","","","","","",""
"416","","image-keyboard-response","674","1519230","0.0-8.0-0.31","","img/blue.png","32","trial","32","true","0.8,0.2","1:go_a","",""
"null","","html-keyboard-response","675","1520234","0.0-8.0-1.31","","<img src=""img/blue-r.png"" border=""10"">","null","trial","32","","0.8,0.2","1:go_a","1",""
"null","","html-keyboard-response","676","1521250","0.0-8.0-2.31","","<div style=""font-size:60px;"">+</div>","null","","","","","","",""
"296","","image-keyboard-response","677","1521546","0.0-8.0-0.32","","img/grey.png","32","trial","null","false","0.2,0.8","2:nogo_b","",""
"null","","html-keyboard-response","678","1522554","0.0-8.0-1.32","","<img src=""img/grey-n.png"" border=""10"">","null","trial","null","","0.2,0.8","2:nogo_b","0",""
"null","","html-keyboard-response","679","1523572","0.0-8.0-2.32","","<div style=""font-size:60px;"">+</div>","null","","","","","","",""
"373","","image-keyboard-response","680","1523950","0.0-8.0-0.33","","img/orange.png","32","trial","32","true","0.6,0.4","3:go_c","",""
"null","","html-keyboard-response","681","1524965","0.0-8.0-1.33","","<img src=""img/orange-r.png"" border=""10"">","null","trial","32","","0.6,0.4","3:go_c","1",""
"null","","html-keyboard-response","682","1525973","0.0-8.0-2.33","","<div style=""font-size:60px;"">+</div>","null","","","","","","",""
"306","","image-keyboard-response","683","1526285","0.0-8.0-0.34","","img/green.png","32","trial","null","false","0.4,0.6","4:nogo_d","",""
