"rt","url","trial_type","trial_index","time_elapsed","internal_node_id","view_history","stimulus","key_press","test_part","correct_response","correct","use_rew","which_stim","reward","responses"
"4087962.1049994603","consent.html","external-html","0","4089173","0.0-0.0","","","","","","","","","",""
"64779.95999995619","","instructions","1","4153964","0.0-1.0","[{""page_index"":0,""viewing_time"":2912.4249992892146},{""page_index"":1,""viewing_time"":14345.690000802279},{""page_index"":2,""viewing_time"":4632.93999992311},{""page_index"":3,""viewing_time"":16796.109999530017},{""page_index"":4,""viewing_time"":8645.585000514984},{""page_index"":5,""viewing_time"":7105.9699999168515},{""page_index"":6,""viewing_time"":10339.674999937415}]","","","","","","","","",""
"650.2299997955561","","image-keyboard-response","2","4154617","0.0-2.0-0.0","","img/test1.PNG","32","practice","32","true","","","",""
"null","","html-keyboard-response","3","4155619","0.0-2.0-1.0","","<img src=""img/test1-reward.PNG"" border=""10px; grey"">","null","","","","","","",""
"null","","html-keyboard-response","4","4156620","0.0-2.0-2.0","","<div style=""font-size:60px;"">+</div>","null","","","","","","",""
"null","","image-keyboard-response","5","4158122","0.0-2.0-0.1","","img/test3.PNG","null","practice","null","true","","","",""
"null","","html-keyboard-response","6","4159123","0.0-2.0-1.1","","<img src=""img/test3-reward.PNG"">","null","","","","","","",""
"null","","html-keyboard-response","7","4160124","0.0-2.0-2.1","","<div style=""font-size:60px;"">+</div>","null","","","","","","",""
"null","","image-keyboard-response","8","4161626","0.0-2.0-0.2","","img/test2.PNG","null","practice","null","true","","","",""
"null","","html-keyboard-response","9","4162627","0.0-2.0-1.2","","<img src=""img/test2-reward.PNG"">","null","","","","","","",""
"null","","html-keyboard-response","10","4163628","0.0-2.0-2.2","","<div style=""font-size:60px;"">+</div>","null","","","","","","",""
"null","","image-keyboard-response","11","4165130","0.0-2.0-0.3","","img/test3.PNG","null","practice","null","true","","","",""
"null","","html-keyboard-response","12","4166131","0.0-2.0-1.3","","<img src=""img/test3-reward.PNG"">","null","","","","","","",""
"null","","html-keyboard-response","13","4167132","0.0-2.0-2.3","","<div style=""font-size:60px;"">+</div>","null","","","","","","",""
"362.724999897182","","image-keyboard-response","14","4167496","0.0-2.0-0.4","","img/test1.PNG","32","practice","32","true","","","",""
"null","","html-keyboard-response","15","4168497","0.0-2.0-1.4","","<img src=""img/test1-reward.PNG"" border=""10px; grey"">","null","","","","","","",""
"null","","html-keyboard-response","16","4169498","0.0-2.0-2.4","","<div style=""font-size:60px;"">+</div>","null","","","","","","",""
"null","","image-keyboard-response","17","4171000","0.0-2.0-0.5","","img/test2.PNG","null","practice","null","true","","","",""
"null","","html-keyboard-response","18","4172002","0.0-2.0-1.5","","<img src=""img/test2-reward.PNG"">","null","","","","","","",""
"null","","html-keyboard-response","19","4173003","0.0-2.0-2.5","","<div style=""font-size:60px;"">+</div>","null","","","","","","",""
"null","","image-keyboard-response","20","4174505","0.0-2.0-0.6","","img/test2.PNG","null","practice","null","true","","","",""
"null","","html-keyboard-response","21","4175506","0.0-2.0-1.6","","<img src=""img/test2-reward.PNG"">","null","","","","","","",""
"null","","html-keyboard-response","22","4176507","0.0-2.0-2.6","","<div style=""font-size:60px;"">+</div>","null","","","","","","",""
"null","","image-keyboard-response","23","4178009","0.0-2.0-0.7","","img/test3.PNG","null","practice","null","true","","","",""
"null","","html-keyboard-response","24","4179030","0.0-2.0-1.7","","<img src=""img/test3-reward.PNG"">","null","","","","","","",""
"null","","html-keyboard-response","25","4180031","0.0-2.0-2.7","","<div style=""font-size:60px;"">+</div>","null","","","","","","",""
"543.0800002068281","","image-keyboard-response","26","4180576","0.0-2.0-0.8","","img/test1.PNG","32","practice","32","true","","","",""
"null","","html-keyboard-response","27","4181578","0.0-2.0-1.8","","<img src=""img/test1-reward.PNG"" border=""10px; grey"">","null","","","","","","",""
"null","","html-keyboard-response","28","4182578","0.0-2.0-2.8","","<div style=""font-size:60px;"">+</div>","null","","","","","","",""
"null","","image-keyboard-response","29","4184080","0.0-2.0-0.9","","img/test3.PNG","null","practice","null","true","","","",""
"null","","html-keyboard-response","30","4185082","0.0-2.0-1.9","","<img src=""img/test3-reward.PNG"">","null","","","","","","",""
"null","","html-keyboard-response","31","4186083","0.0-2.0-2.9","","<div style=""font-size:60px;"">+</div>","null","","","","","","",""
"null","","image-keyboard-response","32","4187585","0.0-2.0-0.10","","img/test2.PNG","null","practice","null","true","","","",""
"null","","html-keyboard-response","33","4188586","0.0-2.0-1.10","","<img src=""img/test2-reward.PNG"">","null","","","","","","",""
"null","","html-keyboard-response","34","4189587","0.0-2.0-2.10","","<div style=""font-size:60px;"">+</div>","null","","","","","","",""
"585.89500002563","","image-keyboard-response","35","4190177","0.0-2.0-0.11","","img/test1.PNG","32","practice","32","true","","","",""
"null","","html-keyboard-response","36","4191178","0.0-2.0-1.11","","<img src=""img/test1-reward.PNG"" border=""10px; grey"">","null","","","","","","",""
"null","","html-keyboard-response","37","4192179","0.0-2.0-2.11","","<div style=""font-size:60px;"">+</div>","null","","","","","","",""
"5848.849999718368","","instructions","38","4198028","0.0-3.0","[{""page_index"":0,""viewing_time"":5848.694999702275}]","","","","","","","","",""
"483.63499995321035","","image-keyboard-response","39","4198513","0.0-4.0-0.0","","img/green.png","32","trial","32","true","0.8,0.2","1:go_a","",""
"null","","html-keyboard-response","40","4199514","0.0-4.0-1.0","","<img src=""img/green-r.png"" border=""10"">","null","trial","32","","0.8,0.2","1:go_a","1",""
"null","","html-keyboard-response","41","4200516","0.0-4.0-2.0","","<div style=""font-size:60px;"">+</div>","null","","","","","","",""
"803.6650000140071","","image-keyboard-response","42","4201320","0.0-4.0-0.1","","img/blue.png","32","trial","null","false","0.2,0.8","2:nogo_b","",""
"null","","html-keyboard-response","43","4202322","0.0-4.0-1.1","","<img src=""img/blue-n.png"" border=""10"">","null","trial","null","","0.2,0.8","2:nogo_b","0",""
"null","","html-keyboard-response","44","4203323","0.0-4.0-2.1","","<div style=""font-size:60px;"">+</div>","null","","","","","","",""
"476.05499997735023","","image-keyboard-response","45","4203800","0.0-4.0-0.2","","img/green.png","32","trial","32","true","0.8,0.2","1:go_a","",""
"null","","html-keyboard-response","46","4204801","0.0-4.0-1.2","","<img src=""img/green-r.png"" border=""10"">","null","trial","32","","0.8,0.2","1:go_a","1",""
"null","","html-keyboard-response","47","4205802","0.0-4.0-2.2","","<div style=""font-size:60px;"">+</div>","null","","","","","","",""
"604.8750001937151","","image-keyboard-response","48","4206408","0.0-4.0-0.3","","img/blue.png","32","trial","null","false","0.2,0.8","2:nogo_b","",""
"null","","html-keyboard-response","49","4207410","0.0-4.0-1.3","","<img src=""img/blue-r.png"" border=""10"">","null","trial","null","","0.2,0.8","2:nogo_b","1",""
"null","","html-keyboard-response","50","4208411","0.0-4.0-2.3","","<div style=""font-size:60px;"">+</div>","null","","","","","","",""
"796.875","","image-keyboard-response","51","4209209","0.0-4.0-0.4","","img/blue.png","32","trial","null","false","0.2,0.8","2:nogo_b","",""
"null","","html-keyboard-response","52","4210211","0.0-4.0-1.4","","<img src=""img/blue-r.png"" border=""10"">","null","trial","null","","0.2,0.8","2:nogo_b","1",""
"null","","html-keyboard-response","53","4211213","0.0-4.0-2.4","","<div style=""font-size:60px;"">+</div>","null","","","","","","",""
"497.5650003179908","","image-keyboard-response","54","4211713","0.0-4.0-0.5","","img/green.png","32","trial","32","true","0.8,0.2","1:go_a","",""
"null","","html-keyboard-response","55","4212715","0.0-4.0-1.5","","<img src=""img/green-r.png"" border=""10"">","null","trial","32","","0.8,0.2","1:go_a","1",""
"null","","html-keyboard-response","56","4213716","0.0-4.0-2.5","","<div style=""font-size:60px;"">+</div>","null","","","","","","",""
"547.0999991521239","","image-keyboard-response","57","4214264","0.0-4.0-0.6","","img/blue.png","32","trial","null","false","0.2,0.8","2:nogo_b","",""
"null","","html-keyboard-response","58","4215266","0.0-4.0-1.6","","<img src=""img/blue-n.png"" border=""10"">","null","trial","null","","0.2,0.8","2:nogo_b","0",""
"null","","html-keyboard-response","59","4216268","0.0-4.0-2.6","","<div style=""font-size:60px;"">+</div>","null","","","","","","",""
"619.1850006580353","","image-keyboard-response","60","4216888","0.0-4.0-0.7","","img/green.png","32","trial","32","true","0.8,0.2","1:go_a","",""
"null","","html-keyboard-response","61","4217890","0.0-4.0-1.7","","<img src=""img/green-r.png"" border=""10"">","null","trial","32","","0.8,0.2","1:go_a","1",""
"null","","html-keyboard-response","62","4218891","0.0-4.0-2.7","","<div style=""font-size:60px;"">+</div>","null","","","","","","",""
"null","","image-keyboard-response","63","4220392","0.0-4.0-0.8","","img/blue.png","null","trial","null","true","0.2,0.8","2:nogo_b","",""
"null","","html-keyboard-response","64","4221395","0.0-4.0-1.8","","<img src=""img/blue-r.png"">","null","trial","null","","0.2,0.8","2:nogo_b","1",""
"null","","html-keyboard-response","65","4222396","0.0-4.0-2.8","","<div style=""font-size:60px;"">+</div>","null","","","","","","",""
"474.56999961286783","","image-keyboard-response","66","4222872","0.0-4.0-0.9","","img/green.png","32","trial","32","true","0.8,0.2","1:go_a","",""
"null","","html-keyboard-response","67","4223873","0.0-4.0-1.9","","<img src=""img/green-n.png"" border=""10"">","null","trial","32","","0.8,0.2","1:go_a","0",""
"null","","html-keyboard-response","68","4224874","0.0-4.0-2.9","","<div style=""font-size:60px;"">+</div>","null","","","","","","",""
"452.6649992913008","","image-keyboard-response","69","4225328","0.0-4.0-0.10","","img/blue.png","32","trial","null","false","0.2,0.8","2:nogo_b","",""
"null","","html-keyboard-response","70","4226333","0.0-4.0-1.10","","<img src=""img/blue-n.png"" border=""10"">","null","trial","null","","0.2,0.8","2:nogo_b","0",""
"null","","html-keyboard-response","71","4227334","0.0-4.0-2.10","","<div style=""font-size:60px;"">+</div>","null","","","","","","",""
"664.2700005322695","","image-keyboard-response","72","4227999","0.0-4.0-0.11","","img/green.png","32","trial","32","true","0.8,0.2","1:go_a","",""
"null","","html-keyboard-response","73","4229002","0.0-4.0-1.11","","<img src=""img/green-n.png"" border=""10"">","null","trial","32","","0.8,0.2","1:go_a","0",""
"null","","html-keyboard-response","74","4230003","0.0-4.0-2.11","","<div style=""font-size:60px;"">+</div>","null","","","","","","",""
"null","","image-keyboard-response","75","4231505","0.0-4.0-0.12","","img/green.png","null","trial","32","false","0.8,0.2","1:go_a","",""
"null","","html-keyboard-response","76","4232507","0.0-4.0-1.12","","<img src=""img/green-n.png"">","null","trial","32","","0.8,0.2","1:go_a","0",""
"null","","html-keyboard-response","77","4233508","0.0-4.0-2.12","","<div style=""font-size:60px;"">+</div>","null","","","","","","",""
"1131.8199997767806","","image-keyboard-response","78","4234642","0.0-4.0-0.13","","img/blue.png","32","trial","null","false","0.2,0.8","2:nogo_b","",""
"null","","html-keyboard-response","79","4235644","0.0-4.0-1.13","","<img src=""img/blue-r.png"" border=""10"">","null","trial","null","","0.2,0.8","2:nogo_b","1",""
"null","","html-keyboard-response","80","4236645","0.0-4.0-2.13","","<div style=""font-size:60px;"">+</div>","null","","","","","","",""
"544.7550006210804","","image-keyboard-response","81","4237190","0.0-4.0-0.14","","img/blue.png","32","trial","null","false","0.2,0.8","2:nogo_b","",""
"null","","html-keyboard-response","82","4238200","0.0-4.0-1.14","","<img src=""img/blue-n.png"" border=""10"">","null","trial","null","","0.2,0.8","2:nogo_b","0",""
"null","","html-keyboard-response","83","4239200","0.0-4.0-2.14","","<div style=""font-size:60px;"">+</div>","null","","","","","","",""
"989.1200000420213","","image-keyboard-response","84","4240190","0.0-4.0-0.15","","img/green.png","32","trial","32","true","0.8,0.2","1:go_a","",""
"null","","html-keyboard-response","85","4241192","0.0-4.0-1.15","","<img src=""img/green-r.png"" border=""10"">","null","trial","32","","0.8,0.2","1:go_a","1",""
"null","","html-keyboard-response","86","4242193","0.0-4.0-2.15","","<div style=""font-size:60px;"">+</div>","null","","","","","","",""
"548.2199992984533","","image-keyboard-response","87","4242742","0.0-4.0-0.16","","img/blue.png","32","trial","null","false","0.2,0.8","2:nogo_b","",""
"null","","html-keyboard-response","88","4243743","0.0-4.0-1.16","","<img src=""img/blue-n.png"" border=""10"">","null","trial","null","","0.2,0.8","2:nogo_b","0",""
"null","","html-keyboard-response","89","4244744","0.0-4.0-2.16","","<div style=""font-size:60px;"">+</div>","null","","","","","","",""
"743.0050000548363","","image-keyboard-response","90","4245488","0.0-4.0-0.17","","img/green.png","32","trial","32","true","0.8,0.2","1:go_a","",""
"null","","html-keyboard-response","91","4246490","0.0-4.0-1.17","","<img src=""img/green-r.png"" border=""10"">","null","trial","32","","0.8,0.2","1:go_a","1",""
"null","","html-keyboard-response","92","4247491","0.0-4.0-2.17","","<div style=""font-size:60px;"">+</div>","null","","","","","","",""
"570.1050003990531","","image-keyboard-response","93","4248061","0.0-4.0-0.18","","img/green.png","32","trial","32","true","0.8,0.2","1:go_a","",""
"null","","html-keyboard-response","94","4249063","0.0-4.0-1.18","","<img src=""img/green-n.png"" border=""10"">","null","trial","32","","0.8,0.2","1:go_a","0",""
"null","","html-keyboard-response","95","4250065","0.0-4.0-2.18","","<div style=""font-size:60px;"">+</div>","null","","","","","","",""
"867.7049996331334","","image-keyboard-response","96","4250937","0.0-4.0-0.19","","img/blue.png","32","trial","null","false","0.2,0.8","2:nogo_b","",""
"null","","html-keyboard-response","97","4251938","0.0-4.0-1.19","","<img src=""img/blue-n.png"" border=""10"">","null","trial","null","","0.2,0.8","2:nogo_b","0",""
"null","","html-keyboard-response","98","4252965","0.0-4.0-2.19","","<div style=""font-size:60px;"">+</div>","null","","","","","","",""
"null","","image-keyboard-response","99","4254469","0.0-4.0-0.20","","img/blue.png","null","trial","null","true","0.2,0.8","2:nogo_b","",""
"null","","html-keyboard-response","100","4255471","0.0-4.0-1.20","","<img src=""img/blue-r.png"">","null","trial","null","","0.2,0.8","2:nogo_b","1",""
"null","","html-keyboard-response","101","4256473","0.0-4.0-2.20","","<div style=""font-size:60px;"">+</div>","null","","","","","","",""
"1195.0050005689263","","image-keyboard-response","102","4257668","0.0-4.0-0.21","","img/green.png","32","trial","32","true","0.8,0.2","1:go_a","",""
"null","","html-keyboard-response","103","4258670","0.0-4.0-1.21","","<img src=""img/green-r.png"" border=""10"">","null","trial","32","","0.8,0.2","1:go_a","1",""
"null","","html-keyboard-response","104","4259671","0.0-4.0-2.21","","<div style=""font-size:60px;"">+</div>","null","","","","","","",""
"706.0750005766749","","image-keyboard-response","105","4260378","0.0-4.0-0.22","","img/green.png","32","trial","32","true","0.8,0.2","1:go_a","",""
"null","","html-keyboard-response","106","4261379","0.0-4.0-1.22","","<img src=""img/green-r.png"" border=""10"">","null","trial","32","","0.8,0.2","1:go_a","1",""
"null","","html-keyboard-response","107","4262382","0.0-4.0-2.22","","<div style=""font-size:60px;"">+</div>","null","","","","","","",""
"null","","image-keyboard-response","108","4263883","0.0-4.0-0.23","","img/blue.png","null","trial","null","true","0.2,0.8","2:nogo_b","",""
"null","","html-keyboard-response","109","4264885","0.0-4.0-1.23","","<img src=""img/blue-r.png"">","null","trial","null","","0.2,0.8","2:nogo_b","1",""
"null","","html-keyboard-response","110","4265886","0.0-4.0-2.23","","<div style=""font-size:60px;"">+</div>","null","","","","","","",""
"null","","image-keyboard-response","111","4267389","0.0-4.0-0.24","","img/blue.png","null","trial","null","true","0.2,0.8","2:nogo_b","",""
"null","","html-keyboard-response","112","4268393","0.0-4.0-1.24","","<img src=""img/blue-r.png"">","null","trial","null","","0.2,0.8","2:nogo_b","1",""
"null","","html-keyboard-response","113","4269394","0.0-4.0-2.24","","<div style=""font-size:60px;"">+</div>","null","","","","","","",""
"662.3550001531839","","image-keyboard-response","114","4270058","0.0-4.0-0.25","","img/green.png","32","trial","32","true","0.8,0.2","1:go_a","",""
"null","","html-keyboard-response","115","4271062","0.0-4.0-1.25","","<img src=""img/green-r.png"" border=""10"">","null","trial","32","","0.8,0.2","1:go_a","1",""
"null","","html-keyboard-response","116","4272063","0.0-4.0-2.25","","<div style=""font-size:60px;"">+</div>","null","","","","","","",""
"594.1799990832806","","image-keyboard-response","117","4272658","0.0-4.0-0.26","","img/green.png","32","trial","32","true","0.8,0.2","1:go_a","",""
"null","","html-keyboard-response","118","4273660","0.0-4.0-1.26","","<img src=""img/green-r.png"" border=""10"">","null","trial","32","","0.8,0.2","1:go_a","1",""
"null","","html-keyboard-response","119","4274661","0.0-4.0-2.26","","<div style=""font-size:60px;"">+</div>","null","","","","","","",""
"729.5800000429153","","image-keyboard-response","120","4275391","0.0-4.0-0.27","","img/blue.png","32","trial","null","false","0.2,0.8","2:nogo_b","",""
"null","","html-keyboard-response","121","4276394","0.0-4.0-1.27","","<img src=""img/blue-n.png"" border=""10"">","null","trial","null","","0.2,0.8","2:nogo_b","0",""
"null","","html-keyboard-response","122","4277394","0.0-4.0-2.27","","<div style=""font-size:60px;"">+</div>","null","","","","","","",""
"476.0150006040931","","image-keyboard-response","123","4277871","0.0-4.0-0.28","","img/green.png","32","trial","32","true","0.8,0.2","1:go_a","",""
"null","","html-keyboard-response","124","4278873","0.0-4.0-1.28","","<img src=""img/green-r.png"" border=""10"">","null","trial","32","","0.8,0.2","1:go_a","1",""
"null","","html-keyboard-response","125","4279873","0.0-4.0-2.28","","<div style=""font-size:60px;"">+</div>","null","","","","","","",""
"null","","image-keyboard-response","126","4281374","0.0-4.0-0.29","","img/blue.png","null","trial","null","true","0.2,0.8","2:nogo_b","",""
"null","","html-keyboard-response","127","4282379","0.0-4.0-1.29","","<img src=""img/blue-n.png"">","null","trial","null","","0.2,0.8","2:nogo_b","0",""
"null","","html-keyboard-response","128","4283396","0.0-4.0-2.29","","<div style=""font-size:60px;"">+</div>","null","","","","","","",""
"516.2550006061792","","image-keyboard-response","129","4283913","0.0-4.0-0.30","","img/green.png","32","trial","32","true","0.8,0.2","1:go_a","",""
"null","","html-keyboard-response","130","4284915","0.0-4.0-1.30","","<img src=""img/green-r.png"" border=""10"">","null","trial","32","","0.8,0.2","1:go_a","1",""
"null","","html-keyboard-response","131","4285916","0.0-4.0-2.30","","<div style=""font-size:60px;"">+</div>","null","","","","","","",""
"null","","image-keyboard-response","132","4287417","0.0-4.0-0.31","","img/blue.png","null","trial","null","true","0.2,0.8","2:nogo_b","",""
"null","","html-keyboard-response","133","4288418","0.0-4.0-1.31","","<img src=""img/blue-r.png"">","null","trial","null","","0.2,0.8","2:nogo_b","1",""
"null","","html-keyboard-response","134","4289419","0.0-4.0-2.31","","<div style=""font-size:60px;"">+</div>","null","","","","","","",""
"null","","image-keyboard-response","135","4290921","0.0-4.0-0.32","","img/blue.png","null","trial","null","true","0.2,0.8","2:nogo_b","",""
"null","","html-keyboard-response","136","4291923","0.0-4.0-1.32","","<img src=""img/blue-r.png"">","null","trial","null","","0.2,0.8","2:nogo_b","1",""
"null","","html-keyboard-response","137","4292924","0.0-4.0-2.32","","<div style=""font-size:60px;"">+</div>","null","","","","","","",""
"706.3650004565716","","image-keyboard-response","138","4293631","0.0-4.0-0.33","","img/green.png","32","trial","32","true","0.8,0.2","1:go_a","",""
"null","","html-keyboard-response","139","4294633","0.0-4.0-1.33","","<img src=""img/green-r.png"" border=""10"">","null","trial","32","","0.8,0.2","1:go_a","1",""
"null","","html-keyboard-response","140","4295634","0.0-4.0-2.33","","<div style=""font-size:60px;"">+</div>","null","","","","","","",""
"null","","image-keyboard-response","141","4297136","0.0-4.0-0.34","","img/blue.png","null","trial","null","true","0.2,0.8","2:nogo_b","",""
"null","","html-keyboard-response","142","4298136","0.0-4.0-1.34","","<img src=""img/blue-n.png"">","null","trial","null","","0.2,0.8","2:nogo_b","0",""
"null","","html-keyboard-response","143","4299137","0.0-4.0-2.34","","<div style=""font-size:60px;"">+</div>","null","","","","","","",""
"604.6850001439452","","image-keyboard-response","144","4299743","0.0-4.0-0.35","","img/green.png","32","trial","32","true","0.8,0.2","1:go_a","",""
"null","","html-keyboard-response","145","4300744","0.0-4.0-1.35","","<img src=""img/green-r.png"" border=""10"">","null","trial","32","","0.8,0.2","1:go_a","1",""
"null","","html-keyboard-response","146","4301747","0.0-4.0-2.35","","<div style=""font-size:60px;"">+</div>","null","","","","","","",""
"640.9199992194772","","image-keyboard-response","147","4302389","0.0-4.0-0.36","","img/green.png","32","trial","32","true","0.8,0.2","1:go_a","",""
"null","","html-keyboard-response","148","4303391","0.0-4.0-1.36","","<img src=""img/green-r.png"" border=""10"">","null","trial","32","","0.8,0.2","1:go_a","1",""
"null","","html-keyboard-response","149","4304392","0.0-4.0-2.36","","<div style=""font-size:60px;"">+</div>","null","","","","","","",""
"null","","image-keyboard-response","150","4305894","0.0-4.0-0.37","","img/blue.png","null","trial","null","true","0.2,0.8","2:nogo_b","",""
"null","","html-keyboard-response","151","4306896","0.0-4.0-1.37","","<img src=""img/blue-r.png"">","null","trial","null","","0.2,0.8","2:nogo_b","1",""
"null","","html-keyboard-response","152","4307897","0.0-4.0-2.37","","<div style=""font-size:60px;"">+</div>","null","","","","","","",""
"null","","image-keyboard-response","153","4309398","0.0-4.0-0.38","","img/blue.png","null","trial","null","true","0.2,0.8","2:nogo_b","",""
"null","","html-keyboard-response","154","4310400","0.0-4.0-1.38","","<img src=""img/blue-r.png"">","null","trial","null","","0.2,0.8","2:nogo_b","1",""
"null","","html-keyboard-response","155","4311414","0.0-4.0-2.38","","<div style=""font-size:60px;"">+</div>","null","","","","","","",""
"1085.1000007241964","","image-keyboard-response","156","4312500","0.0-4.0-0.39","","img/green.png","32","trial","32","true","0.8,0.2","1:go_a","",""
"null","","html-keyboard-response","157","4313501","0.0-4.0-1.39","","<img src=""img/green-r.png"" border=""10"">","null","trial","32","","0.8,0.2","1:go_a","1",""
"null","","html-keyboard-response","158","4314504","0.0-4.0-2.39","","<div style=""font-size:60px;"">+</div>","null","","","","","","",""
"null","","image-keyboard-response","159","4316004","0.0-4.0-0.40","","img/blue.png","null","trial","null","true","0.2,0.8","2:nogo_b","",""
"null","","html-keyboard-response","160","4317010","0.0-4.0-1.40","","<img src=""img/blue-r.png"">","null","trial","null","","0.2,0.8","2:nogo_b","1",""
"null","","html-keyboard-response","161","4318012","0.0-4.0-2.40","","<div style=""font-size:60px;"">+</div>","null","","","","","","",""
"660.2999996393919","","image-keyboard-response","162","4318673","0.0-4.0-0.41","","img/green.png","32","trial","32","true","0.8,0.2","1:go_a","",""
"null","","html-keyboard-response","163","4319675","0.0-4.0-1.41","","<img src=""img/green-r.png"" border=""10"">","null","trial","32","","0.8,0.2","1:go_a","1",""
"null","","html-keyboard-response","164","4320676","0.0-4.0-2.41","","<div style=""font-size:60px;"">+</div>","null","","","","","","",""
"875.730000436306","","image-keyboard-response","165","4321553","0.0-4.0-0.42","","img/green.png","32","trial","32","true","0.8,0.2","1:go_a","",""
"null","","html-keyboard-response","166","4322554","0.0-4.0-1.42","","<img src=""img/green-r.png"" border=""10"">","null","trial","32","","0.8,0.2","1:go_a","1",""
"null","","html-keyboard-response","167","4323555","0.0-4.0-2.42","","<div style=""font-size:60px;"">+</div>","null","","","","","","",""
"null","","image-keyboard-response","168","4325056","0.0-4.0-0.43","","img/blue.png","null","trial","null","true","0.2,0.8","2:nogo_b","",""
"null","","html-keyboard-response","169","4326058","0.0-4.0-1.43","","<img src=""img/blue-r.png"">","null","trial","null","","0.2,0.8","2:nogo_b","1",""
"null","","html-keyboard-response","170","4327059","0.0-4.0-2.43","","<div style=""font-size:60px;"">+</div>","null","","","","","","",""
"null","","image-keyboard-response","171","4328560","0.0-4.0-0.44","","img/blue.png","null","trial","null","true","0.2,0.8","2:nogo_b","",""
"null","","html-keyboard-response","172","4329562","0.0-4.0-1.44","","<img src=""img/blue-r.png"">","null","trial","null","","0.2,0.8","2:nogo_b","1",""
"null","","html-keyboard-response","173","4330563","0.0-4.0-2.44","","<div style=""font-size:60px;"">+</div>","null","","","","","","",""
"null","","image-keyboard-response","174","4332064","0.0-4.0-0.45","","img/green.png","null","trial","32","false","0.8,0.2","1:go_a","",""
"null","","html-keyboard-response","175","4333066","0.0-4.0-1.45","","<img src=""img/green-r.png"">","null","trial","32","","0.8,0.2","1:go_a","1",""
"null","","html-keyboard-response","176","4334067","0.0-4.0-2.45","","<div style=""font-size:60px;"">+</div>","null","","","","","","",""
"603.8949992507696","","image-keyboard-response","177","4334672","0.0-4.0-0.46","","img/green.png","32","trial","32","true","0.8,0.2","1:go_a","",""
"null","","html-keyboard-response","178","4335674","0.0-4.0-1.46","","<img src=""img/green-r.png"" border=""10"">","null","trial","32","","0.8,0.2","1:go_a","1",""
"null","","html-keyboard-response","179","4336675","0.0-4.0-2.46","","<div style=""font-size:60px;"">+</div>","null","","","","","","",""
"369.6100004017353","","image-keyboard-response","180","4337045","0.0-4.0-0.47","","img/blue.png","32","trial","null","false","0.2,0.8","2:nogo_b","",""
"null","","html-keyboard-response","181","4338049","0.0-4.0-1.47","","<img src=""img/blue-n.png"" border=""10"">","null","trial","null","","0.2,0.8","2:nogo_b","0",""
"null","","html-keyboard-response","182","4339050","0.0-4.0-2.47","","<div style=""font-size:60px;"">+</div>","null","","","","","","",""
"397.18500059098005","","image-keyboard-response","183","4339448","0.0-4.0-0.48","","img/blue.png","32","trial","null","false","0.2,0.8","2:nogo_b","",""
"null","","html-keyboard-response","184","4340450","0.0-4.0-1.48","","<img src=""img/blue-n.png"" border=""10"">","null","trial","null","","0.2,0.8","2:nogo_b","0",""
"null","","html-keyboard-response","185","4341451","0.0-4.0-2.48","","<div style=""font-size:60px;"">+</div>","null","","","","","","",""
"539.640000090003","","image-keyboard-response","186","4341992","0.0-4.0-0.49","","img/green.png","32","trial","32","true","0.8,0.2","1:go_a","",""
"null","","html-keyboard-response","187","4342994","0.0-4.0-1.49","","<img src=""img/green-r.png"" border=""10"">","null","trial","32","","0.8,0.2","1:go_a","1",""
"null","","html-keyboard-response","188","4343995","0.0-4.0-2.49","","<div style=""font-size:60px;"">+</div>","null","","","","","","",""
"498.87500051409006","","image-keyboard-response","189","4344494","0.0-4.0-0.50","","img/green.png","32","trial","32","true","0.8,0.2","1:go_a","",""
"null","","html-keyboard-response","190","4345496","0.0-4.0-1.50","","<img src=""img/green-n.png"" border=""10"">","null","trial","32","","0.8,0.2","1:go_a","0",""
"null","","html-keyboard-response","191","4346497","0.0-4.0-2.50","","<div style=""font-size:60px;"">+</div>","null","","","","","","",""
"431.43999949097633","","image-keyboard-response","192","4346930","0.0-4.0-0.51","","img/blue.png","32","trial","null","false","0.2,0.8","2:nogo_b","",""
"null","","html-keyboard-response","193","4347932","0.0-4.0-1.51","","<img src=""img/blue-n.png"" border=""10"">","null","trial","null","","0.2,0.8","2:nogo_b","0",""
"null","","html-keyboard-response","194","4348933","0.0-4.0-2.51","","<div style=""font-size:60px;"">+</div>","null","","","","","","",""
"546.0649998858571","","image-keyboard-response","195","4349480","0.0-4.0-0.52","","img/blue.png","32","trial","null","false","0.2,0.8","2:nogo_b","",""
"null","","html-keyboard-response","196","4350481","0.0-4.0-1.52","","<img src=""img/blue-n.png"" border=""10"">","null","trial","null","","0.2,0.8","2:nogo_b","0",""
"null","","html-keyboard-response","197","4351483","0.0-4.0-2.52","","<div style=""font-size:60px;"">+</div>","null","","","","","","",""
"555.3150000050664","","image-keyboard-response","198","4352039","0.0-4.0-0.53","","img/green.png","32","trial","32","true","0.8,0.2","1:go_a","",""
"null","","html-keyboard-response","199","4353041","0.0-4.0-1.53","","<img src=""img/green-r.png"" border=""10"">","null","trial","32","","0.8,0.2","1:go_a","1",""
"null","","html-keyboard-response","200","4354042","0.0-4.0-2.53","","<div style=""font-size:60px;"">+</div>","null","","","","","","",""
"387.2949993237853","","image-keyboard-response","201","4354431","0.0-4.0-0.54","","img/green.png","32","trial","32","true","0.8,0.2","1:go_a","",""
"null","","html-keyboard-response","202","4355432","0.0-4.0-1.54","","<img src=""img/green-n.png"" border=""10"">","null","trial","32","","0.8,0.2","1:go_a","0",""
"null","","html-keyboard-response","203","4356434","0.0-4.0-2.54","","<div style=""font-size:60px;"">+</div>","null","","","","","","",""
"356.6100001335144","","image-keyboard-response","204","4356792","0.0-4.0-0.55","","img/blue.png","32","trial","null","false","0.2,0.8","2:nogo_b","",""
"null","","html-keyboard-response","205","4357794","0.0-4.0-1.55","","<img src=""img/blue-n.png"" border=""10"">","null","trial","null","","0.2,0.8","2:nogo_b","0",""
"null","","html-keyboard-response","206","4358795","0.0-4.0-2.55","","<div style=""font-size:60px;"">+</div>","null","","","","","","",""
"451.44000090658665","","image-keyboard-response","207","4359248","0.0-4.0-0.56","","img/green.png","32","trial","32","true","0.8,0.2","1:go_a","",""
"null","","html-keyboard-response","208","4360251","0.0-4.0-1.56","","<img src=""img/green-r.png"" border=""10"">","null","trial","32","","0.8,0.2","1:go_a","1",""
"null","","html-keyboard-response","209","4361252","0.0-4.0-2.56","","<div style=""font-size:60px;"">+</div>","null","","","","","","",""
"null","","image-keyboard-response","210","4362754","0.0-4.0-0.57","","img/blue.png","null","trial","null","true","0.2,0.8","2:nogo_b","",""
"null","","html-keyboard-response","211","4363756","0.0-4.0-1.57","","<img src=""img/blue-n.png"">","null","trial","null","","0.2,0.8","2:nogo_b","0",""
"null","","html-keyboard-response","212","4364757","0.0-4.0-2.57","","<div style=""font-size:60px;"">+</div>","null","","","","","","",""
"530.3450003266335","","image-keyboard-response","213","4365288","0.0-4.0-0.58","","img/green.png","32","trial","32","true","0.8,0.2","1:go_a","",""
"null","","html-keyboard-response","214","4366290","0.0-4.0-1.58","","<img src=""img/green-n.png"" border=""10"">","null","trial","32","","0.8,0.2","1:go_a","0",""
"null","","html-keyboard-response","215","4367291","0.0-4.0-2.58","","<div style=""font-size:60px;"">+</div>","null","","","","","","",""
"null","","image-keyboard-response","216","4368792","0.0-4.0-0.59","","img/blue.png","null","trial","null","true","0.2,0.8","2:nogo_b","",""
"null","","html-keyboard-response","217","4369794","0.0-4.0-1.59","","<img src=""img/blue-r.png"">","null","trial","null","","0.2,0.8","2:nogo_b","1",""
"null","","html-keyboard-response","218","4370795","0.0-4.0-2.59","","<div style=""font-size:60px;"">+</div>","null","","","","","","",""
"9988.450000062585","","instructions","219","4380787","0.0-5.0","[{""page_index"":0,""viewing_time"":9988.135000690818}]","","","","","","","","",""
"1450.0099997967482","","image-keyboard-response","220","4382239","0.0-6.0-0.0","","img/orange.png","32","trial","null","false","0.4,0.6","4:nogo_d","",""
"null","","html-keyboard-response","221","4383264","0.0-6.0-1.0","","<img src=""img/orange-n.png"" border=""10"">","null","trial","null","","0.4,0.6","4:nogo_d","0",""
"null","","html-keyboard-response","222","4384267","0.0-6.0-2.0","","<div style=""font-size:60px;"">+</div>","null","","","","","","",""
"null","","image-keyboard-response","223","4385768","0.0-6.0-0.1","","img/yellow.png","null","trial","32","false","0.6,0.4","3:go_c","",""
"null","","html-keyboard-response","224","4386769","0.0-6.0-1.1","","<img src=""img/yellow-r.png"">","null","trial","32","","0.6,0.4","3:go_c","1",""
"null","","html-keyboard-response","225","4387771","0.0-6.0-2.1","","<div style=""font-size:60px;"">+</div>","null","","","","","","",""
"null","","image-keyboard-response","226","4389271","0.0-6.0-0.2","","img/blue.png","null","trial","null","true","0.4,0.6","2:nogo_b","",""
"null","","html-keyboard-response","227","4390273","0.0-6.0-1.2","","<img src=""img/blue-n.png"">","null","trial","null","","0.4,0.6","2:nogo_b","0",""
"null","","html-keyboard-response","228","4391275","0.0-6.0-2.2","","<div style=""font-size:60px;"">+</div>","null","","","","","","",""
"null","","image-keyboard-response","229","4392777","0.0-6.0-0.3","","img/red.png","null","trial","32","false","0.6,0.4","1:go_a","",""
"null","","html-keyboard-response","230","4393786","0.0-6.0-1.3","","<img src=""img/red-n.png"">","null","trial","32","","0.6,0.4","1:go_a","0",""
"null","","html-keyboard-response","231","4394787","0.0-6.0-2.3","","<div style=""font-size:60px;"">+</div>","null","","","","","","",""
"null","","image-keyboard-response","232","4396288","0.0-6.0-0.4","","img/yellow.png","null","trial","32","false","0.6,0.4","3:go_c","",""
"null","","html-keyboard-response","233","4397290","0.0-6.0-1.4","","<img src=""img/yellow-n.png"">","null","trial","32","","0.6,0.4","3:go_c","0",""
"null","","html-keyboard-response","234","4398291","0.0-6.0-2.4","","<div style=""font-size:60px;"">+</div>","null","","","","","","",""
"null","","image-keyboard-response","235","4399795","0.0-6.0-0.5","","img/blue.png","null","trial","null","true","0.4,0.6","2:nogo_b","",""
"null","","html-keyboard-response","236","4400798","0.0-6.0-1.5","","<img src=""img/blue-r.png"">","null","trial","null","","0.4,0.6","2:nogo_b","1",""
"null","","html-keyboard-response","237","4401800","0.0-6.0-2.5","","<div style=""font-size:60px;"">+</div>","null","","","","","","",""
"null","","image-keyboard-response","238","4403300","0.0-6.0-0.6","","img/orange.png","null","trial","null","true","0.4,0.6","4:nogo_d","",""
"null","","html-keyboard-response","239","4404303","0.0-6.0-1.6","","<img src=""img/orange-r.png"">","null","trial","null","","0.4,0.6","4:nogo_d","1",""
"null","","html-keyboard-response","240","4405304","0.0-6.0-2.6","","<div style=""font-size:60px;"">+</div>","null","","","","","","",""
"null","","image-keyboard-response","241","4406806","0.0-6.0-0.7","","img/red.png","null","trial","32","false","0.6,0.4","1:go_a","",""
"null","","html-keyboard-response","242","4407809","0.0-6.0-1.7","","<img src=""img/red-n.png"">","null","trial","32","","0.6,0.4","1:go_a","0",""
"null","","html-keyboard-response","243","4408809","0.0-6.0-2.7","","<div style=""font-size:60px;"">+</div>","null","","","","","","",""
"836.65999956429","","image-keyboard-response","244","4409647","0.0-6.0-0.8","","img/blue.png","32","trial","null","false","0.4,0.6","2:nogo_b","",""
"null","","html-keyboard-response","245","4410648","0.0-6.0-1.8","","<img src=""img/blue-r.png"" border=""10"">","null","trial","null","","0.4,0.6","2:nogo_b","1",""
"null","","html-keyboard-response","246","4411649","0.0-6.0-2.8","","<div style=""font-size:60px;"">+</div>","null","","","","","","",""
"null","","image-keyboard-response","247","4413150","0.0-6.0-0.9","","img/orange.png","null","trial","null","true","0.4,0.6","4:nogo_d","",""
"null","","html-keyboard-response","248","4414152","0.0-6.0-1.9","","<img src=""img/orange-r.png"">","null","trial","null","","0.4,0.6","4:nogo_d","1",""
"null","","html-keyboard-response","249","4415153","0.0-6.0-2.9","","<div style=""font-size:60px;"">+</div>","null","","","","","","",""
"null","","image-keyboard-response","250","4416655","0.0-6.0-0.10","","img/red.png","null","trial","32","false","0.6,0.4","1:go_a","",""
"null","","html-keyboard-response","251","4417656","0.0-6.0-1.10","","<img src=""img/red-n.png"">","null","trial","32","","0.6,0.4","1:go_a","0",""
"null","","html-keyboard-response","252","4418657","0.0-6.0-2.10","","<div style=""font-size:60px;"">+</div>","null","","","","","","",""
"null","","image-keyboard-response","253","4420159","0.0-6.0-0.11","","img/yellow.png","null","trial","32","false","0.6,0.4","3:go_c","",""
"null","","html-keyboard-response","254","4421161","0.0-6.0-1.11","","<img src=""img/yellow-r.png"">","null","trial","32","","0.6,0.4","3:go_c","1",""
"null","","html-keyboard-response","255","4422162","0.0-6.0-2.11","","<div style=""font-size:60px;"">+</div>","null","","","","","","",""
"901.2000001966953","","image-keyboard-response","256","4423064","0.0-6.0-0.12","","img/blue.png","32","trial","null","false","0.4,0.6","2:nogo_b","",""
"null","","html-keyboard-response","257","4424065","0.0-6.0-1.12","","<img src=""img/blue-r.png"" border=""10"">","null","trial","null","","0.4,0.6","2:nogo_b","1",""
"null","","html-keyboard-response","258","4425066","0.0-6.0-2.12","","<div style=""font-size:60px;"">+</div>","null","","","","","","",""
"null","","image-keyboard-response","259","4426568","0.0-6.0-0.13","","img/red.png","null","trial","32","false","0.6,0.4","1:go_a","",""
"null","","html-keyboard-response","260","4427571","0.0-6.0-1.13","","<img src=""img/red-n.png"">","null","trial","32","","0.6,0.4","1:go_a","0",""
"null","","html-keyboard-response","261","4428573","0.0-6.0-2.13","","<div style=""font-size:60px;"">+</div>","null","","","","","","",""
"881.0700001195073","","image-keyboard-response","262","4429455","0.0-6.0-0.14","","img/orange.png","32","trial","null","false","0.4,0.6","4:nogo_d","",""
"null","","html-keyboard-response","263","4430457","0.0-6.0-1.14","","<img src=""img/orange-r.png"" border=""10"">","null","trial","null","","0.4,0.6","4:nogo_d","1",""
"null","","html-keyboard-response","264","4431458","0.0-6.0-2.14","","<div style=""font-size:60px;"">+</div>","null","","","","","","",""
"null","","image-keyboard-response","265","4432963","0.0-6.0-0.15","","img/yellow.png","null","trial","32","false","0.6,0.4","3:go_c","",""
"null","","html-keyboard-response","266","4433966","0.0-6.0-1.15","","<img src=""img/yellow-r.png"">","null","trial","32","","0.6,0.4","3:go_c","1",""
"null","","html-keyboard-response","267","4434966","0.0-6.0-2.15","","<div style=""font-size:60px;"">+</div>","null","","","","","","",""
"null","","image-keyboard-response","268","4436467","0.0-6.0-0.16","","img/yellow.png","null","trial","32","false","0.6,0.4","3:go_c","",""
"null","","html-keyboard-response","269","4437468","0.0-6.0-1.16","","<img src=""img/yellow-n.png"">","null","trial","32","","0.6,0.4","3:go_c","0",""
"null","","html-keyboard-response","270","4438469","0.0-6.0-2.16","","<div style=""font-size:60px;"">+</div>","null","","","","","","",""
"null","","image-keyboard-response","271","4439970","0.0-6.0-0.17","","img/red.png","null","trial","32","false","0.6,0.4","1:go_a","",""
"null","","html-keyboard-response","272","4440972","0.0-6.0-1.17","","<img src=""img/red-n.png"">","null","trial","32","","0.6,0.4","1:go_a","0",""
"null","","html-keyboard-response","273","4441973","0.0-6.0-2.17","","<div style=""font-size:60px;"">+</div>","null","","","","","","",""
"null","","image-keyboard-response","274","4443475","0.0-6.0-0.18","","img/blue.png","null","trial","null","true","0.4,0.6","2:nogo_b","",""
"null","","html-keyboard-response","275","4444476","0.0-6.0-1.18","","<img src=""img/blue-n.png"">","null","trial","null","","0.4,0.6","2:nogo_b","0",""
"null","","html-keyboard-response","276","4445477","0.0-6.0-2.18","","<div style=""font-size:60px;"">+</div>","null","","","","","","",""
"819.2349998280406","","image-keyboard-response","277","4446297","0.0-6.0-0.19","","img/orange.png","32","trial","null","false","0.4,0.6","4:nogo_d","",""
"null","","html-keyboard-response","278","4447299","0.0-6.0-1.19","","<img src=""img/orange-n.png"" border=""10"">","null","trial","null","","0.4,0.6","4:nogo_d","0",""
"null","","html-keyboard-response","279","4448300","0.0-6.0-2.19","","<div style=""font-size:60px;"">+</div>","null","","","","","","",""
"724.2900002747774","","image-keyboard-response","280","4449025","0.0-6.0-0.20","","img/orange.png","32","trial","null","false","0.4,0.6","4:nogo_d","",""
"null","","html-keyboard-response","281","4450026","0.0-6.0-1.20","","<img src=""img/orange-r.png"" border=""10"">","null","trial","null","","0.4,0.6","4:nogo_d","1",""
"null","","html-keyboard-response","282","4451027","0.0-6.0-2.20","","<div style=""font-size:60px;"">+</div>","null","","","","","","",""
"804.81499992311","","image-keyboard-response","283","4451832","0.0-6.0-0.21","","img/blue.png","32","trial","null","false","0.4,0.6","2:nogo_b","",""
"null","","html-keyboard-response","284","4452834","0.0-6.0-1.21","","<img src=""img/blue-n.png"" border=""10"">","null","trial","null","","0.4,0.6","2:nogo_b","0",""
"null","","html-keyboard-response","285","4453836","0.0-6.0-2.21","","<div style=""font-size:60px;"">+</div>","null","","","","","","",""
"null","","image-keyboard-response","286","4455338","0.0-6.0-0.22","","img/yellow.png","null","trial","32","false","0.6,0.4","3:go_c","",""
"null","","html-keyboard-response","287","4456340","0.0-6.0-1.22","","<img src=""img/yellow-n.png"">","null","trial","32","","0.6,0.4","3:go_c","0",""
"null","","html-keyboard-response","288","4457341","0.0-6.0-2.22","","<div style=""font-size:60px;"">+</div>","null","","","","","","",""
"null","","image-keyboard-response","289","4458842","0.0-6.0-0.23","","img/red.png","null","trial","32","false","0.6,0.4","1:go_a","",""
"null","","html-keyboard-response","290","4459844","0.0-6.0-1.23","","<img src=""img/red-n.png"">","null","trial","32","","0.6,0.4","1:go_a","0",""
"null","","html-keyboard-response","291","4460845","0.0-6.0-2.23","","<div style=""font-size:60px;"">+</div>","null","","","","","","",""
"null","","image-keyboard-response","292","4462347","0.0-6.0-0.24","","img/red.png","null","trial","32","false","0.6,0.4","1:go_a","",""
"null","","html-keyboard-response","293","4463349","0.0-6.0-1.24","","<img src=""img/red-n.png"">","null","trial","32","","0.6,0.4","1:go_a","0",""
"null","","html-keyboard-response","294","4464350","0.0-6.0-2.24","","<div style=""font-size:60px;"">+</div>","null","","","","","","",""
"609.825000166893","","image-keyboard-response","295","4464960","0.0-6.0-0.25","","img/orange.png","32","trial","null","false","0.4,0.6","4:nogo_d","",""
"null","","html-keyboard-response","296","4465963","0.0-6.0-1.25","","<img src=""img/orange-r.png"" border=""10"">","null","trial","null","","0.4,0.6","4:nogo_d","1",""
"null","","html-keyboard-response","297","4466964","0.0-6.0-2.25","","<div style=""font-size:60px;"">+</div>","null","","","","","","",""
"923.7299999222159","","image-keyboard-response","298","4467888","0.0-6.0-0.26","","img/blue.png","32","trial","null","false","0.4,0.6","2:nogo_b","",""
"null","","html-keyboard-response","299","4468890","0.0-6.0-1.26","","<img src=""img/blue-n.png"" border=""10"">","null","trial","null","","0.4,0.6","2:nogo_b","0",""
"null","","html-keyboard-response","300","4469891","0.0-6.0-2.26","","<div style=""font-size:60px;"">+</div>","null","","","","","","",""
"null","","image-keyboard-response","301","4471391","0.0-6.0-0.27","","img/yellow.png","null","trial","32","false","0.6,0.4","3:go_c","",""
"null","","html-keyboard-response","302","4472394","0.0-6.0-1.27","","<img src=""img/yellow-n.png"">","null","trial","32","","0.6,0.4","3:go_c","0",""
"null","","html-keyboard-response","303","4473394","0.0-6.0-2.27","","<div style=""font-size:60px;"">+</div>","null","","","","","","",""
"null","","image-keyboard-response","304","4474900","0.0-6.0-0.28","","img/yellow.png","null","trial","32","false","0.6,0.4","3:go_c","",""
"null","","html-keyboard-response","305","4475902","0.0-6.0-1.28","","<img src=""img/yellow-n.png"">","null","trial","32","","0.6,0.4","3:go_c","0",""
"null","","html-keyboard-response","306","4476903","0.0-6.0-2.28","","<div style=""font-size:60px;"">+</div>","null","","","","","","",""
"null","","image-keyboard-response","307","4478405","0.0-6.0-0.29","","img/blue.png","null","trial","null","true","0.4,0.6","2:nogo_b","",""
"null","","html-keyboard-response","308","4479410","0.0-6.0-1.29","","<img src=""img/blue-r.png"">","null","trial","null","","0.4,0.6","2:nogo_b","1",""
"null","","html-keyboard-response","309","4480411","0.0-6.0-2.29","","<div style=""font-size:60px;"">+</div>","null","","","","","","",""
"556.140000000596","","image-keyboard-response","310","4480968","0.0-6.0-0.30","","img/orange.png","32","trial","null","false","0.4,0.6","4:nogo_d","",""
"null","","html-keyboard-response","311","4481970","0.0-6.0-1.30","","<img src=""img/orange-r.png"" border=""10"">","null","trial","null","","0.4,0.6","4:nogo_d","1",""
"null","","html-keyboard-response","312","4482971","0.0-6.0-2.30","","<div style=""font-size:60px;"">+</div>","null","","","","","","",""
"null","","image-keyboard-response","313","4484473","0.0-6.0-0.31","","img/red.png","null","trial","32","false","0.6,0.4","1:go_a","",""
"null","","html-keyboard-response","314","4485475","0.0-6.0-1.31","","<img src=""img/red-r.png"">","null","trial","32","","0.6,0.4","1:go_a","1",""
"null","","html-keyboard-response","315","4486476","0.0-6.0-2.31","","<div style=""font-size:60px;"">+</div>","null","","","","","","",""
"561.5950003266335","","image-keyboard-response","316","4487038","0.0-6.0-0.32","","img/orange.png","32","trial","null","false","0.4,0.6","4:nogo_d","",""
"null","","html-keyboard-response","317","4488040","0.0-6.0-1.32","","<img src=""img/orange-r.png"" border=""10"">","null","trial","null","","0.4,0.6","4:nogo_d","1",""
"null","","html-keyboard-response","318","4489040","0.0-6.0-2.32","","<div style=""font-size:60px;"">+</div>","null","","","","","","",""
"null","","image-keyboard-response","319","4490542","0.0-6.0-0.33","","img/red.png","null","trial","32","false","0.6,0.4","1:go_a","",""
"null","","html-keyboard-response","320","4491543","0.0-6.0-1.33","","<img src=""img/red-r.png"">","null","trial","32","","0.6,0.4","1:go_a","1",""
"null","","html-keyboard-response","321","4492543","0.0-6.0-2.33","","<div style=""font-size:60px;"">+</div>","null","","","","","","",""
"null","","image-keyboard-response","322","4494048","0.0-6.0-0.34","","img/blue.png","null","trial","null","true","0.4,0.6","2:nogo_b","",""
"null","","html-keyboard-response","323","4495065","0.0-6.0-1.34","","<img src=""img/blue-r.png"">","null","trial","null","","0.4,0.6","2:nogo_b","1",""
"null","","html-keyboard-response","324","4496066","0.0-6.0-2.34","","<div style=""font-size:60px;"">+</div>","null","","","","","","",""
"null","","image-keyboard-response","325","4497567","0.0-6.0-0.35","","img/yellow.png","null","trial","32","false","0.6,0.4","3:go_c","",""
"null","","html-keyboard-response","326","4498569","0.0-6.0-1.35","","<img src=""img/yellow-r.png"">","null","trial","32","","0.6,0.4","3:go_c","1",""
"null","","html-keyboard-response","327","4499571","0.0-6.0-2.35","","<div style=""font-size:60px;"">+</div>","null","","","","","","",""
"null","","image-keyboard-response","328","4501072","0.0-6.0-0.36","","img/blue.png","null","trial","null","true","0.4,0.6","2:nogo_b","",""
"null","","html-keyboard-response","329","4502074","0.0-6.0-1.36","","<img src=""img/blue-r.png"">","null","trial","null","","0.4,0.6","2:nogo_b","1",""
"null","","html-keyboard-response","330","4503075","0.0-6.0-2.36","","<div style=""font-size:60px;"">+</div>","null","","","","","","",""
"null","","image-keyboard-response","331","4504577","0.0-6.0-0.37","","img/yellow.png","null","trial","32","false","0.6,0.4","3:go_c","",""
"null","","html-keyboard-response","332","4505579","0.0-6.0-1.37","","<img src=""img/yellow-r.png"">","null","trial","32","","0.6,0.4","3:go_c","1",""
"null","","html-keyboard-response","333","4506580","0.0-6.0-2.37","","<div style=""font-size:60px;"">+</div>","null","","","","","","",""
"583.0049999058247","","image-keyboard-response","334","4507164","0.0-6.0-0.38","","img/orange.png","32","trial","null","false","0.4,0.6","4:nogo_d","",""
"null","","html-keyboard-response","335","4508181","0.0-6.0-1.38","","<img src=""img/orange-n.png"" border=""10"">","null","trial","null","","0.4,0.6","4:nogo_d","0",""
"null","","html-keyboard-response","336","4509182","0.0-6.0-2.38","","<div style=""font-size:60px;"">+</div>","null","","","","","","",""
"null","","image-keyboard-response","337","4510684","0.0-6.0-0.39","","img/red.png","null","trial","32","false","0.6,0.4","1:go_a","",""
"null","","html-keyboard-response","338","4511685","0.0-6.0-1.39","","<img src=""img/red-n.png"">","null","trial","32","","0.6,0.4","1:go_a","0",""
"null","","html-keyboard-response","339","4512687","0.0-6.0-2.39","","<div style=""font-size:60px;"">+</div>","null","","","","","","",""
"null","","image-keyboard-response","340","4514188","0.0-6.0-0.40","","img/red.png","null","trial","32","false","0.6,0.4","1:go_a","",""
"null","","html-keyboard-response","341","4515190","0.0-6.0-1.40","","<img src=""img/red-r.png"">","null","trial","32","","0.6,0.4","1:go_a","1",""
"null","","html-keyboard-response","342","4516191","0.0-6.0-2.40","","<div style=""font-size:60px;"">+</div>","null","","","","","","",""
"1175.7899997755885","","image-keyboard-response","343","4517368","0.0-6.0-0.41","","img/yellow.png","32","trial","32","true","0.6,0.4","3:go_c","",""
"null","","html-keyboard-response","344","4518370","0.0-6.0-1.41","","<img src=""img/yellow-r.png"" border=""10"">","null","trial","32","","0.6,0.4","3:go_c","1",""
"null","","html-keyboard-response","345","4519371","0.0-6.0-2.41","","<div style=""font-size:60px;"">+</div>","null","","","","","","",""
"676.575000397861","","image-keyboard-response","346","4520049","0.0-6.0-0.42","","img/orange.png","32","trial","null","false","0.4,0.6","4:nogo_d","",""
"null","","html-keyboard-response","347","4521051","0.0-6.0-1.42","","<img src=""img/orange-r.png"" border=""10"">","null","trial","null","","0.4,0.6","4:nogo_d","1",""
"null","","html-keyboard-response","348","4522053","0.0-6.0-2.42","","<div style=""font-size:60px;"">+</div>","null","","","","","","",""
"658.4900002926588","","image-keyboard-response","349","4522713","0.0-6.0-0.43","","img/blue.png","32","trial","null","false","0.4,0.6","2:nogo_b","",""
"null","","html-keyboard-response","350","4523714","0.0-6.0-1.43","","<img src=""img/blue-r.png"" border=""10"">","null","trial","null","","0.4,0.6","2:nogo_b","1",""
"null","","html-keyboard-response","351","4524715","0.0-6.0-2.43","","<div style=""font-size:60px;"">+</div>","null","","","","","","",""
"755.6250002235174","","image-keyboard-response","352","4525472","0.0-6.0-0.44","","img/orange.png","32","trial","null","false","0.4,0.6","4:nogo_d","",""
"null","","html-keyboard-response","353","4526474","0.0-6.0-1.44","","<img src=""img/orange-n.png"" border=""10"">","null","trial","null","","0.4,0.6","4:nogo_d","0",""
"null","","html-keyboard-response","354","4527475","0.0-6.0-2.44","","<div style=""font-size:60px;"">+</div>","null","","","","","","",""
"683.7050002068281","","image-keyboard-response","355","4528160","0.0-6.0-0.45","","img/blue.png","32","trial","null","false","0.4,0.6","2:nogo_b","",""
"null","","html-keyboard-response","356","4529161","0.0-6.0-1.45","","<img src=""img/blue-n.png"" border=""10"">","null","trial","null","","0.4,0.6","2:nogo_b","0",""
"null","","html-keyboard-response","357","4530162","0.0-6.0-2.45","","<div style=""font-size:60px;"">+</div>","null","","","","","","",""
"461.10500022768974","","image-keyboard-response","358","4530624","0.0-6.0-0.46","","img/yellow.png","32","trial","32","true","0.6,0.4","3:go_c","",""
"null","","html-keyboard-response","359","4531630","0.0-6.0-1.46","","<img src=""img/yellow-n.png"" border=""10"">","null","trial","32","","0.6,0.4","3:go_c","0",""
"null","","html-keyboard-response","360","4532631","0.0-6.0-2.46","","<div style=""font-size:60px;"">+</div>","null","","","","","","",""
"null","","image-keyboard-response","361","4534131","0.0-6.0-0.47","","img/red.png","null","trial","32","false","0.6,0.4","1:go_a","",""
"null","","html-keyboard-response","362","4535134","0.0-6.0-1.47","","<img src=""img/red-n.png"">","null","trial","32","","0.6,0.4","1:go_a","0",""
"null","","html-keyboard-response","363","4536135","0.0-6.0-2.47","","<div style=""font-size:60px;"">+</div>","null","","","","","","",""
"null","","image-keyboard-response","364","4537636","0.0-6.0-0.48","","img/red.png","null","trial","32","false","0.6,0.4","1:go_a","",""
"null","","html-keyboard-response","365","4538638","0.0-6.0-1.48","","<img src=""img/red-r.png"">","null","trial","32","","0.6,0.4","1:go_a","1",""
"null","","html-keyboard-response","366","4539639","0.0-6.0-2.48","","<div style=""font-size:60px;"">+</div>","null","","","","","","",""
"559.4150004908442","","image-keyboard-response","367","4540200","0.0-6.0-0.49","","img/orange.png","32","trial","null","false","0.4,0.6","4:nogo_d","",""
"null","","html-keyboard-response","368","4541201","0.0-6.0-1.49","","<img src=""img/orange-r.png"" border=""10"">","null","trial","null","","0.4,0.6","4:nogo_d","1",""
"null","","html-keyboard-response","369","4542207","0.0-6.0-2.49","","<div style=""font-size:60px;"">+</div>","null","","","","","","",""
"590.9700002521276","","image-keyboard-response","370","4542799","0.0-6.0-0.50","","img/blue.png","32","trial","null","false","0.4,0.6","2:nogo_b","",""
"null","","html-keyboard-response","371","4543801","0.0-6.0-1.50","","<img src=""img/blue-r.png"" border=""10"">","null","trial","null","","0.4,0.6","2:nogo_b","1",""
"null","","html-keyboard-response","372","4544802","0.0-6.0-2.50","","<div style=""font-size:60px;"">+</div>","null","","","","","","",""
"null","","image-keyboard-response","373","4546304","0.0-6.0-0.51","","img/yellow.png","null","trial","32","false","0.6,0.4","3:go_c","",""
"null","","html-keyboard-response","374","4547307","0.0-6.0-1.51","","<img src=""img/yellow-n.png"">","null","trial","32","","0.6,0.4","3:go_c","0",""
"null","","html-keyboard-response","375","4548310","0.0-6.0-2.51","","<div style=""font-size:60px;"">+</div>","null","","","","","","",""
"704.365000128746","","image-keyboard-response","376","4549015","0.0-6.0-0.52","","img/orange.png","32","trial","null","false","0.4,0.6","4:nogo_d","",""
"null","","html-keyboard-response","377","4550018","0.0-6.0-1.52","","<img src=""img/orange-r.png"" border=""10"">","null","trial","null","","0.4,0.6","4:nogo_d","1",""
"null","","html-keyboard-response","378","4551020","0.0-6.0-2.52","","<div style=""font-size:60px;"">+</div>","null","","","","","","",""
"null","","image-keyboard-response","379","4552521","0.0-6.0-0.53","","img/red.png","null","trial","32","false","0.6,0.4","1:go_a","",""
"null","","html-keyboard-response","380","4553522","0.0-6.0-1.53","","<img src=""img/red-n.png"">","null","trial","32","","0.6,0.4","1:go_a","0",""
"null","","html-keyboard-response","381","4554527","0.0-6.0-2.53","","<div style=""font-size:60px;"">+</div>","null","","","","","","",""
"578.5449994727969","","image-keyboard-response","382","4555106","0.0-6.0-0.54","","img/blue.png","32","trial","null","false","0.4,0.6","2:nogo_b","",""
"null","","html-keyboard-response","383","4556107","0.0-6.0-1.54","","<img src=""img/blue-n.png"" border=""10"">","null","trial","null","","0.4,0.6","2:nogo_b","0",""
"null","","html-keyboard-response","384","4557109","0.0-6.0-2.54","","<div style=""font-size:60px;"">+</div>","null","","","","","","",""
"891.7749999091029","","image-keyboard-response","385","4558001","0.0-6.0-0.55","","img/yellow.png","32","trial","32","true","0.6,0.4","3:go_c","",""
"null","","html-keyboard-response","386","4559002","0.0-6.0-1.55","","<img src=""img/yellow-r.png"" border=""10"">","null","trial","32","","0.6,0.4","3:go_c","1",""
"null","","html-keyboard-response","387","4560003","0.0-6.0-2.55","","<div style=""font-size:60px;"">+</div>","null","","","","","","",""
"437.1849996969104","","image-keyboard-response","388","4560442","0.0-6.0-0.56","","img/orange.png","32","trial","null","false","0.4,0.6","4:nogo_d","",""
"null","","html-keyboard-response","389","4561447","0.0-6.0-1.56","","<img src=""img/orange-n.png"" border=""10"">","null","trial","null","","0.4,0.6","4:nogo_d","0",""
"null","","html-keyboard-response","390","4562451","0.0-6.0-2.56","","<div style=""font-size:60px;"">+</div>","null","","","","","","",""
"845.0500005856156","","image-keyboard-response","391","4563298","0.0-6.0-0.57","","img/yellow.png","32","trial","32","true","0.6,0.4","3:go_c","",""
"null","","html-keyboard-response","392","4564299","0.0-6.0-1.57","","<img src=""img/yellow-n.png"" border=""10"">","null","trial","32","","0.6,0.4","3:go_c","0",""
"null","","html-keyboard-response","393","4565301","0.0-6.0-2.57","","<div style=""font-size:60px;"">+</div>","null","","","","","","",""
"null","","image-keyboard-response","394","4566802","0.0-6.0-0.58","","img/red.png","null","trial","32","false","0.6,0.4","1:go_a","",""
"null","","html-keyboard-response","395","4567804","0.0-6.0-1.58","","<img src=""img/red-r.png"">","null","trial","32","","0.6,0.4","1:go_a","1",""
"null","","html-keyboard-response","396","4568805","0.0-6.0-2.58","","<div style=""font-size:60px;"">+</div>","null","","","","","","",""
"null","","image-keyboard-response","397","4570308","0.0-6.0-0.59","","img/blue.png","null","trial","null","true","0.4,0.6","2:nogo_b","",""
"null","","html-keyboard-response","398","4571309","0.0-6.0-1.59","","<img src=""img/blue-n.png"">","null","trial","null","","0.4,0.6","2:nogo_b","0",""
"null","","html-keyboard-response","399","4572323","0.0-6.0-2.59","","<div style=""font-size:60px;"">+</div>","null","","","","","","",""
"613.4850000962615","","image-keyboard-response","400","4572937","0.0-6.0-0.60","","img/orange.png","32","trial","null","false","0.4,0.6","4:nogo_d","",""
"null","","html-keyboard-response","401","4573940","0.0-6.0-1.60","","<img src=""img/orange-r.png"" border=""10"">","null","trial","null","","0.4,0.6","4:nogo_d","1",""
"null","","html-keyboard-response","402","4574941","0.0-6.0-2.60","","<div style=""font-size:60px;"">+</div>","null","","","","","","",""
"null","","image-keyboard-response","403","4576442","0.0-6.0-0.61","","img/yellow.png","null","trial","32","false","0.6,0.4","3:go_c","",""
"null","","html-keyboard-response","404","4577445","0.0-6.0-1.61","","<img src=""img/yellow-r.png"">","null","trial","32","","0.6,0.4","3:go_c","1",""
"null","","html-keyboard-response","405","4578447","0.0-6.0-2.61","","<div style=""font-size:60px;"">+</div>","null","","","","","","",""
"null","","image-keyboard-response","406","4579948","0.0-6.0-0.62","","img/blue.png","null","trial","null","true","0.4,0.6","2:nogo_b","",""
"null","","html-keyboard-response","407","4580951","0.0-6.0-1.62","","<img src=""img/blue-r.png"">","null","trial","null","","0.4,0.6","2:nogo_b","1",""
"null","","html-keyboard-response","408","4581952","0.0-6.0-2.62","","<div style=""font-size:60px;"">+</div>","null","","","","","","",""
"null","","image-keyboard-response","409","4583454","0.0-6.0-0.63","","img/red.png","null","trial","32","false","0.6,0.4","1:go_a","",""
"null","","html-keyboard-response","410","4584455","0.0-6.0-1.63","","<img src=""img/red-n.png"">","null","trial","32","","0.6,0.4","1:go_a","0",""
"null","","html-keyboard-response","411","4585456","0.0-6.0-2.63","","<div style=""font-size:60px;"">+</div>","null","","","","","","",""
"495.23499980568886","","image-keyboard-response","412","4585952","0.0-6.0-0.64","","img/orange.png","32","trial","null","false","0.4,0.6","4:nogo_d","",""
"null","","html-keyboard-response","413","4586954","0.0-6.0-1.64","","<img src=""img/orange-r.png"" border=""10"">","null","trial","null","","0.4,0.6","4:nogo_d","1",""
"null","","html-keyboard-response","414","4587955","0.0-6.0-2.64","","<div style=""font-size:60px;"">+</div>","null","","","","","","",""
"null","","image-keyboard-response","415","4589460","0.0-6.0-0.65","","img/red.png","null","trial","32","false","0.6,0.4","1:go_a","",""
"null","","html-keyboard-response","416","4590464","0.0-6.0-1.65","","<img src=""img/red-n.png"">","null","trial","32","","0.6,0.4","1:go_a","0",""
"null","","html-keyboard-response","417","4591465","0.0-6.0-2.65","","<div style=""font-size:60px;"">+</div>","null","","","","","","",""
"614.0199992805719","","image-keyboard-response","418","4592079","0.0-6.0-0.66","","img/yellow.png","32","trial","32","true","0.6,0.4","3:go_c","",""
"null","","html-keyboard-response","419","4593082","0.0-6.0-1.66","","<img src=""img/yellow-r.png"" border=""10"">","null","trial","32","","0.6,0.4","3:go_c","1",""
"null","","html-keyboard-response","420","4594082","0.0-6.0-2.66","","<div style=""font-size:60px;"">+</div>","null","","","","","","",""
"null","","image-keyboard-response","421","4595583","0.0-6.0-0.67","","img/blue.png","null","trial","null","true","0.4,0.6","2:nogo_b","",""
"null","","html-keyboard-response","422","4596585","0.0-6.0-1.67","","<img src=""img/blue-n.png"">","null","trial","null","","0.4,0.6","2:nogo_b","0",""
"null","","html-keyboard-response","423","4597586","0.0-6.0-2.67","","<div style=""font-size:60px;"">+</div>","null","","","","","","",""
"893.4299992397428","","image-keyboard-response","424","4598480","0.0-6.0-0.68","","img/yellow.png","32","trial","32","true","0.6,0.4","3:go_c","",""
"null","","html-keyboard-response","425","4599482","0.0-6.0-1.68","","<img src=""img/yellow-r.png"" border=""10"">","null","trial","32","","0.6,0.4","3:go_c","1",""
"null","","html-keyboard-response","426","4600483","0.0-6.0-2.68","","<div style=""font-size:60px;"">+</div>","null","","","","","","",""
"null","","image-keyboard-response","427","4601985","0.0-6.0-0.69","","img/blue.png","null","trial","null","true","0.4,0.6","2:nogo_b","",""
"null","","html-keyboard-response","428","4602987","0.0-6.0-1.69","","<img src=""img/blue-r.png"">","null","trial","null","","0.4,0.6","2:nogo_b","1",""
"null","","html-keyboard-response","429","4603988","0.0-6.0-2.69","","<div style=""font-size:60px;"">+</div>","null","","","","","","",""
"601.885000243783","","image-keyboard-response","430","4604591","0.0-6.0-0.70","","img/orange.png","32","trial","null","false","0.4,0.6","4:nogo_d","",""
"null","","html-keyboard-response","431","4605593","0.0-6.0-1.70","","<img src=""img/orange-n.png"" border=""10"">","null","trial","null","","0.4,0.6","4:nogo_d","0",""
"null","","html-keyboard-response","432","4606594","0.0-6.0-2.70","","<div style=""font-size:60px;"">+</div>","null","","","","","","",""
"null","","image-keyboard-response","433","4608096","0.0-6.0-0.71","","img/red.png","null","trial","32","false","0.6,0.4","1:go_a","",""
"null","","html-keyboard-response","434","4609097","0.0-6.0-1.71","","<img src=""img/red-r.png"">","null","trial","32","","0.6,0.4","1:go_a","1",""
"null","","html-keyboard-response","435","4610098","0.0-6.0-2.71","","<div style=""font-size:60px;"">+</div>","null","","","","","","",""
"590.7100001350045","","image-keyboard-response","436","4610689","0.0-6.0-0.72","","img/orange.png","32","trial","null","false","0.4,0.6","4:nogo_d","",""
"null","","html-keyboard-response","437","4611690","0.0-6.0-1.72","","<img src=""img/orange-n.png"" border=""10"">","null","trial","null","","0.4,0.6","4:nogo_d","0",""
"null","","html-keyboard-response","438","4612692","0.0-6.0-2.72","","<div style=""font-size:60px;"">+</div>","null","","","","","","",""
"null","","image-keyboard-response","439","4614193","0.0-6.0-0.73","","img/blue.png","null","trial","null","true","0.4,0.6","2:nogo_b","",""
"null","","html-keyboard-response","440","4615199","0.0-6.0-1.73","","<img src=""img/blue-n.png"">","null","trial","null","","0.4,0.6","2:nogo_b","0",""
"null","","html-keyboard-response","441","4616200","0.0-6.0-2.73","","<div style=""font-size:60px;"">+</div>","null","","","","","","",""
"600.390000268817","","image-keyboard-response","442","4616802","0.0-6.0-0.74","","img/yellow.png","32","trial","32","true","0.6,0.4","3:go_c","",""
"null","","html-keyboard-response","443","4617803","0.0-6.0-1.74","","<img src=""img/yellow-r.png"" border=""10"">","null","trial","32","","0.6,0.4","3:go_c","1",""
"null","","html-keyboard-response","444","4618804","0.0-6.0-2.74","","<div style=""font-size:60px;"">+</div>","null","","","","","","",""
"null","","image-keyboard-response","445","4620321","0.0-6.0-0.75","","img/red.png","null","trial","32","false","0.6,0.4","1:go_a","",""
"null","","html-keyboard-response","446","4621322","0.0-6.0-1.75","","<img src=""img/red-r.png"">","null","trial","32","","0.6,0.4","1:go_a","1",""
"null","","html-keyboard-response","447","4622323","0.0-6.0-2.75","","<div style=""font-size:60px;"">+</div>","null","","","","","","",""
"621.4999994263053","","image-keyboard-response","448","4622945","0.0-6.0-0.76","","img/yellow.png","32","trial","32","true","0.6,0.4","3:go_c","",""
"null","","html-keyboard-response","449","4623947","0.0-6.0-1.76","","<img src=""img/yellow-r.png"" border=""10"">","null","trial","32","","0.6,0.4","3:go_c","1",""
"null","","html-keyboard-response","450","4624948","0.0-6.0-2.76","","<div style=""font-size:60px;"">+</div>","null","","","","","","",""
"null","","image-keyboard-response","451","4626449","0.0-6.0-0.77","","img/red.png","null","trial","32","false","0.6,0.4","1:go_a","",""
"null","","html-keyboard-response","452","4627451","0.0-6.0-1.77","","<img src=""img/red-r.png"">","null","trial","32","","0.6,0.4","1:go_a","1",""
"null","","html-keyboard-response","453","4628452","0.0-6.0-2.77","","<div style=""font-size:60px;"">+</div>","null","","","","","","",""
"null","","image-keyboard-response","454","4629953","0.0-6.0-0.78","","img/blue.png","null","trial","null","true","0.4,0.6","2:nogo_b","",""
"null","","html-keyboard-response","455","4630955","0.0-6.0-1.78","","<img src=""img/blue-n.png"">","null","trial","null","","0.4,0.6","2:nogo_b","0",""
"null","","html-keyboard-response","456","4631956","0.0-6.0-2.78","","<div style=""font-size:60px;"">+</div>","null","","","","","","",""
"451.65999978780746","","image-keyboard-response","457","4632408","0.0-6.0-0.79","","img/orange.png","32","trial","null","false","0.4,0.6","4:nogo_d","",""
"null","","html-keyboard-response","458","4633411","0.0-6.0-1.79","","<img src=""img/orange-n.png"" border=""10"">","null","trial","null","","0.4,0.6","4:nogo_d","0",""
"null","","html-keyboard-response","459","4634412","0.0-6.0-2.79","","<div style=""font-size:60px;"">+</div>","null","","","","","","",""
"499.20500069856644","","image-keyboard-response","460","4634913","0.0-6.0-0.80","","img/yellow.png","32","trial","32","true","0.6,0.4","3:go_c","",""
"null","","html-keyboard-response","461","4635915","0.0-6.0-1.80","","<img src=""img/yellow-n.png"" border=""10"">","null","trial","32","","0.6,0.4","3:go_c","0",""
"null","","html-keyboard-response","462","4636915","0.0-6.0-2.80","","<div style=""font-size:60px;"">+</div>","null","","","","","","",""
"492.32500046491623","","image-keyboard-response","463","4637408","0.0-6.0-0.81","","img/orange.png","32","trial","null","false","0.4,0.6","4:nogo_d","",""
"null","","html-keyboard-response","464","4638409","0.0-6.0-1.81","","<img src=""img/orange-r.png"" border=""10"">","null","trial","null","","0.4,0.6","4:nogo_d","1",""
"null","","html-keyboard-response","465","4639410","0.0-6.0-2.81","","<div style=""font-size:60px;"">+</div>","null","","","","","","",""
"null","","image-keyboard-response","466","4640913","0.0-6.0-0.82","","img/red.png","null","trial","32","false","0.6,0.4","1:go_a","",""
"null","","html-keyboard-response","467","4641915","0.0-6.0-1.82","","<img src=""img/red-n.png"">","null","trial","32","","0.6,0.4","1:go_a","0",""
"null","","html-keyboard-response","468","4642916","0.0-6.0-2.82","","<div style=""font-size:60px;"">+</div>","null","","","","","","",""
"null","","image-keyboard-response","469","4644417","0.0-6.0-0.83","","img/blue.png","null","trial","null","true","0.4,0.6","2:nogo_b","",""
"null","","html-keyboard-response","470","4645419","0.0-6.0-1.83","","<img src=""img/blue-r.png"">","null","trial","null","","0.4,0.6","2:nogo_b","1",""
"null","","html-keyboard-response","471","4646421","0.0-6.0-2.83","","<div style=""font-size:60px;"">+</div>","null","","","","","","",""
"null","","image-keyboard-response","472","4647923","0.0-6.0-0.84","","img/blue.png","null","trial","null","true","0.4,0.6","2:nogo_b","",""
"null","","html-keyboard-response","473","4648925","0.0-6.0-1.84","","<img src=""img/blue-n.png"">","null","trial","null","","0.4,0.6","2:nogo_b","0",""
"null","","html-keyboard-response","474","4649926","0.0-6.0-2.84","","<div style=""font-size:60px;"">+</div>","null","","","","","","",""
"545.3599998727441","","image-keyboard-response","475","4650472","0.0-6.0-0.85","","img/orange.png","32","trial","null","false","0.4,0.6","4:nogo_d","",""
"null","","html-keyboard-response","476","4651474","0.0-6.0-1.85","","<img src=""img/orange-n.png"" border=""10"">","null","trial","null","","0.4,0.6","4:nogo_d","0",""
"null","","html-keyboard-response","477","4652475","0.0-6.0-2.85","","<div style=""font-size:60px;"">+</div>","null","","","","","","",""
"475.9900001809001","","image-keyboard-response","478","4652951","0.0-6.0-0.86","","img/yellow.png","32","trial","32","true","0.6,0.4","3:go_c","",""
"null","","html-keyboard-response","479","4653953","0.0-6.0-1.86","","<img src=""img/yellow-r.png"" border=""10"">","null","trial","32","","0.6,0.4","3:go_c","1",""
"null","","html-keyboard-response","480","4654954","0.0-6.0-2.86","","<div style=""font-size:60px;"">+</div>","null","","","","","","",""
"null","","image-keyboard-response","481","4656455","0.0-6.0-0.87","","img/red.png","null","trial","32","false","0.6,0.4","1:go_a","",""
"null","","html-keyboard-response","482","4657457","0.0-6.0-1.87","","<img src=""img/red-r.png"">","null","trial","32","","0.6,0.4","1:go_a","1",""
"null","","html-keyboard-response","483","4658458","0.0-6.0-2.87","","<div style=""font-size:60px;"">+</div>","null","","","","","","",""
"691.809999756515","","image-keyboard-response","484","4659151","0.0-6.0-0.88","","img/orange.png","32","trial","null","false","0.4,0.6","4:nogo_d","",""
"null","","html-keyboard-response","485","4660153","0.0-6.0-1.88","","<img src=""img/orange-r.png"" border=""10"">","null","trial","null","","0.4,0.6","4:nogo_d","1",""
"null","","html-keyboard-response","486","4661154","0.0-6.0-2.88","","<div style=""font-size:60px;"">+</div>","null","","","","","","",""
"null","","image-keyboard-response","487","4662656","0.0-6.0-0.89","","img/blue.png","null","trial","null","true","0.4,0.6","2:nogo_b","",""
"null","","html-keyboard-response","488","4663658","0.0-6.0-1.89","","<img src=""img/blue-r.png"">","null","trial","null","","0.4,0.6","2:nogo_b","1",""
"null","","html-keyboard-response","489","4664659","0.0-6.0-2.89","","<div style=""font-size:60px;"">+</div>","null","","","","","","",""
"611.5899998694658","","image-keyboard-response","490","4665272","0.0-6.0-0.90","","img/yellow.png","32","trial","32","true","0.6,0.4","3:go_c","",""
"null","","html-keyboard-response","491","4666274","0.0-6.0-1.90","","<img src=""img/yellow-n.png"" border=""10"">","null","trial","32","","0.6,0.4","3:go_c","0",""
"null","","html-keyboard-response","492","4667275","0.0-6.0-2.90","","<div style=""font-size:60px;"">+</div>","null","","","","","","",""
"626.1250004172325","","image-keyboard-response","493","4667902","0.0-6.0-0.91","","img/red.png","32","trial","32","true","0.6,0.4","1:go_a","",""
"null","","html-keyboard-response","494","4668904","0.0-6.0-1.91","","<img src=""img/red-r.png"" border=""10"">","null","trial","32","","0.6,0.4","1:go_a","1",""
"null","","html-keyboard-response","495","4669905","0.0-6.0-2.91","","<div style=""font-size:60px;"">+</div>","null","","","","","","",""
"768.6000000685453","","image-keyboard-response","496","4670674","0.0-6.0-0.92","","img/yellow.png","32","trial","32","true","0.6,0.4","3:go_c","",""
"null","","html-keyboard-response","497","4671676","0.0-6.0-1.92","","<img src=""img/yellow-r.png"" border=""10"">","null","trial","32","","0.6,0.4","3:go_c","1",""
"null","","html-keyboard-response","498","4672677","0.0-6.0-2.92","","<div style=""font-size:60px;"">+</div>","null","","","","","","",""
"759.8500000312924","","image-keyboard-response","499","4673438","0.0-6.0-0.93","","img/orange.png","32","trial","null","false","0.4,0.6","4:nogo_d","",""
"null","","html-keyboard-response","500","4674441","0.0-6.0-1.93","","<img src=""img/orange-n.png"" border=""10"">","null","trial","null","","0.4,0.6","4:nogo_d","0",""
"null","","html-keyboard-response","501","4675451","0.0-6.0-2.93","","<div style=""font-size:60px;"">+</div>","null","","","","","","",""
"null","","image-keyboard-response","502","4676952","0.0-6.0-0.94","","img/blue.png","null","trial","null","true","0.4,0.6","2:nogo_b","",""
"null","","html-keyboard-response","503","4677954","0.0-6.0-1.94","","<img src=""img/blue-r.png"">","null","trial","null","","0.4,0.6","2:nogo_b","1",""
"null","","html-keyboard-response","504","4678955","0.0-6.0-2.94","","<div style=""font-size:60px;"">+</div>","null","","","","","","",""
"701.0800000280142","","image-keyboard-response","505","4679657","0.0-6.0-0.95","","img/red.png","32","trial","32","true","0.6,0.4","1:go_a","",""
"null","","html-keyboard-response","506","4680659","0.0-6.0-1.95","","<img src=""img/red-n.png"" border=""10"">","null","trial","32","","0.6,0.4","1:go_a","0",""
"null","","html-keyboard-response","507","4681661","0.0-6.0-2.95","","<div style=""font-size:60px;"">+</div>","null","","","","","","",""
"null","","image-keyboard-response","508","4683163","0.0-6.0-0.96","","img/blue.png","null","trial","null","true","0.4,0.6","2:nogo_b","",""
"null","","html-keyboard-response","509","4684165","0.0-6.0-1.96","","<img src=""img/blue-n.png"">","null","trial","null","","0.4,0.6","2:nogo_b","0",""
"null","","html-keyboard-response","510","4685166","0.0-6.0-2.96","","<div style=""font-size:60px;"">+</div>","null","","","","","","",""
"577.9099995270371","","image-keyboard-response","511","4685745","0.0-6.0-0.97","","img/yellow.png","32","trial","32","true","0.6,0.4","3:go_c","",""
"null","","html-keyboard-response","512","4686746","0.0-6.0-1.97","","<img src=""img/yellow-n.png"" border=""10"">","null","trial","32","","0.6,0.4","3:go_c","0",""
"null","","html-keyboard-response","513","4687747","0.0-6.0-2.97","","<div style=""font-size:60px;"">+</div>","null","","","","","","",""
"476.1550007387996","","image-keyboard-response","514","4688224","0.0-6.0-0.98","","img/orange.png","32","trial","null","false","0.4,0.6","4:nogo_d","",""
"null","","html-keyboard-response","515","4689226","0.0-6.0-1.98","","<img src=""img/orange-n.png"" border=""10"">","null","trial","null","","0.4,0.6","4:nogo_d","0",""
"null","","html-keyboard-response","516","4690227","0.0-6.0-2.98","","<div style=""font-size:60px;"">+</div>","null","","","","","","",""
"508.97499918937683","","image-keyboard-response","517","4690737","0.0-6.0-0.99","","img/red.png","32","trial","32","true","0.6,0.4","1:go_a","",""
"null","","html-keyboard-response","518","4691739","0.0-6.0-1.99","","<img src=""img/red-r.png"" border=""10"">","null","trial","32","","0.6,0.4","1:go_a","1",""
"null","","html-keyboard-response","519","4692740","0.0-6.0-2.99","","<div style=""font-size:60px;"">+</div>","null","","","","","","",""
"858.8100001215935","","image-keyboard-response","520","4693600","0.0-6.0-0.100","","img/yellow.png","32","trial","32","true","0.6,0.4","3:go_c","",""
"null","","html-keyboard-response","521","4694601","0.0-6.0-1.100","","<img src=""img/yellow-r.png"" border=""10"">","null","trial","32","","0.6,0.4","3:go_c","1",""
"null","","html-keyboard-response","522","4695602","0.0-6.0-2.100","","<div style=""font-size:60px;"">+</div>","null","","","","","","",""
"null","","image-keyboard-response","523","4697104","0.0-6.0-0.101","","img/orange.png","null","trial","null","true","0.4,0.6","4:nogo_d","",""
"null","","html-keyboard-response","524","4698105","0.0-6.0-1.101","","<img src=""img/orange-n.png"">","null","trial","null","","0.4,0.6","4:nogo_d","0",""
"null","","html-keyboard-response","525","4699106","0.0-6.0-2.101","","<div style=""font-size:60px;"">+</div>","null","","","","","","",""
"708.9150007814169","","image-keyboard-response","526","4699816","0.0-6.0-0.102","","img/red.png","32","trial","32","true","0.6,0.4","1:go_a","",""
"null","","html-keyboard-response","527","4700819","0.0-6.0-1.102","","<img src=""img/red-r.png"" border=""10"">","null","trial","32","","0.6,0.4","1:go_a","1",""
"null","","html-keyboard-response","528","4701820","0.0-6.0-2.102","","<div style=""font-size:60px;"">+</div>","null","","","","","","",""
"null","","image-keyboard-response","529","4703322","0.0-6.0-0.103","","img/blue.png","null","trial","null","true","0.4,0.6","2:nogo_b","",""
"null","","html-keyboard-response","530","4704324","0.0-6.0-1.103","","<img src=""img/blue-n.png"">","null","trial","null","","0.4,0.6","2:nogo_b","0",""
"null","","html-keyboard-response","531","4705325","0.0-6.0-2.103","","<div style=""font-size:60px;"">+</div>","null","","","","","","",""
"891.2499994039536","","image-keyboard-response","532","4706217","0.0-6.0-0.104","","img/yellow.png","32","trial","32","true","0.6,0.4","3:go_c","",""
"null","","html-keyboard-response","533","4707228","0.0-6.0-1.104","","<img src=""img/yellow-r.png"" border=""10"">","null","trial","32","","0.6,0.4","3:go_c","1",""
"null","","html-keyboard-response","534","4708229","0.0-6.0-2.104","","<div style=""font-size:60px;"">+</div>","null","","","","","","",""
"null","","image-keyboard-response","535","4709730","0.0-6.0-0.105","","img/orange.png","null","trial","null","true","0.4,0.6","4:nogo_d","",""
"null","","html-keyboard-response","536","4710732","0.0-6.0-1.105","","<img src=""img/orange-r.png"">","null","trial","null","","0.4,0.6","4:nogo_d","1",""
"null","","html-keyboard-response","537","4711733","0.0-6.0-2.105","","<div style=""font-size:60px;"">+</div>","null","","","","","","",""
"null","","image-keyboard-response","538","4713235","0.0-6.0-0.106","","img/blue.png","null","trial","null","true","0.4,0.6","2:nogo_b","",""
"null","","html-keyboard-response","539","4714237","0.0-6.0-1.106","","<img src=""img/blue-r.png"">","null","trial","null","","0.4,0.6","2:nogo_b","1",""
"null","","html-keyboard-response","540","4715238","0.0-6.0-2.106","","<div style=""font-size:60px;"">+</div>","null","","","","","","",""
"null","","image-keyboard-response","541","4716739","0.0-6.0-0.107","","img/red.png","null","trial","32","false","0.6,0.4","1:go_a","",""
"null","","html-keyboard-response","542","4717741","0.0-6.0-1.107","","<img src=""img/red-r.png"">","null","trial","32","","0.6,0.4","1:go_a","1",""
"null","","html-keyboard-response","543","4718742","0.0-6.0-2.107","","<div style=""font-size:60px;"">+</div>","null","","","","","","",""
"456.06999937444925","","image-keyboard-response","544","4719199","0.0-6.0-0.108","","img/red.png","32","trial","32","true","0.6,0.4","1:go_a","",""
"null","","html-keyboard-response","545","4720200","0.0-6.0-1.108","","<img src=""img/red-n.png"" border=""10"">","null","trial","32","","0.6,0.4","1:go_a","0",""
"null","","html-keyboard-response","546","4721201","0.0-6.0-2.108","","<div style=""font-size:60px;"">+</div>","null","","","","","","",""
"445.03500033169985","","image-keyboard-response","547","4721646","0.0-6.0-0.109","","img/yellow.png","32","trial","32","true","0.6,0.4","3:go_c","",""
"null","","html-keyboard-response","548","4722650","0.0-6.0-1.109","","<img src=""img/yellow-n.png"" border=""10"">","null","trial","32","","0.6,0.4","3:go_c","0",""
"null","","html-keyboard-response","549","4723651","0.0-6.0-2.109","","<div style=""font-size:60px;"">+</div>","null","","","","","","",""
"482.3549995198846","","image-keyboard-response","550","4724134","0.0-6.0-0.110","","img/orange.png","32","trial","null","false","0.4,0.6","4:nogo_d","",""
"null","","html-keyboard-response","551","4725137","0.0-6.0-1.110","","<img src=""img/orange-n.png"" border=""10"">","null","trial","null","","0.4,0.6","4:nogo_d","0",""
"null","","html-keyboard-response","552","4726138","0.0-6.0-2.110","","<div style=""font-size:60px;"">+</div>","null","","","","","","",""
"null","","image-keyboard-response","553","4727640","0.0-6.0-0.111","","img/blue.png","null","trial","null","true","0.4,0.6","2:nogo_b","",""
"null","","html-keyboard-response","554","4728642","0.0-6.0-1.111","","<img src=""img/blue-r.png"">","null","trial","null","","0.4,0.6","2:nogo_b","1",""
"null","","html-keyboard-response","555","4729643","0.0-6.0-2.111","","<div style=""font-size:60px;"">+</div>","null","","","","","","",""
"648.8100001588464","","image-keyboard-response","556","4730295","0.0-6.0-0.112","","img/yellow.png","32","trial","32","true","0.6,0.4","3:go_c","",""
"null","","html-keyboard-response","557","4731297","0.0-6.0-1.112","","<img src=""img/yellow-n.png"" border=""10"">","null","trial","32","","0.6,0.4","3:go_c","0",""
"null","","html-keyboard-response","558","4732298","0.0-6.0-2.112","","<div style=""font-size:60px;"">+</div>","null","","","","","","",""
"818.9699994400144","","image-keyboard-response","559","4733117","0.0-6.0-0.113","","img/red.png","32","trial","32","true","0.6,0.4","1:go_a","",""
"null","","html-keyboard-response","560","4734119","0.0-6.0-1.113","","<img src=""img/red-r.png"" border=""10"">","null","trial","32","","0.6,0.4","1:go_a","1",""
"null","","html-keyboard-response","561","4735120","0.0-6.0-2.113","","<div style=""font-size:60px;"">+</div>","null","","","","","","",""
"622.550000436604","","image-keyboard-response","562","4735747","0.0-6.0-0.114","","img/orange.png","32","trial","null","false","0.4,0.6","4:nogo_d","",""
"null","","html-keyboard-response","563","4736748","0.0-6.0-1.114","","<img src=""img/orange-n.png"" border=""10"">","null","trial","null","","0.4,0.6","4:nogo_d","0",""
"null","","html-keyboard-response","564","4737749","0.0-6.0-2.114","","<div style=""font-size:60px;"">+</div>","null","","","","","","",""
"null","","image-keyboard-response","565","4739251","0.0-6.0-0.115","","img/blue.png","null","trial","null","true","0.4,0.6","2:nogo_b","",""
"null","","html-keyboard-response","566","4740252","0.0-6.0-1.115","","<img src=""img/blue-r.png"">","null","trial","null","","0.4,0.6","2:nogo_b","1",""
"null","","html-keyboard-response","567","4741253","0.0-6.0-2.115","","<div style=""font-size:60px;"">+</div>","null","","","","","","",""
"532.0299994200468","","image-keyboard-response","568","4741786","0.0-6.0-0.116","","img/blue.png","32","trial","null","false","0.4,0.6","2:nogo_b","",""
"null","","html-keyboard-response","569","4742788","0.0-6.0-1.116","","<img src=""img/blue-n.png"" border=""10"">","null","trial","null","","0.4,0.6","2:nogo_b","0",""
"null","","html-keyboard-response","570","4743789","0.0-6.0-2.116","","<div style=""font-size:60px;"">+</div>","null","","","","","","",""
"571.5749999508262","","image-keyboard-response","571","4744361","0.0-6.0-0.117","","img/orange.png","32","trial","null","false","0.4,0.6","4:nogo_d","",""
"null","","html-keyboard-response","572","4745363","0.0-6.0-1.117","","<img src=""img/orange-n.png"" border=""10"">","null","trial","null","","0.4,0.6","4:nogo_d","0",""
"null","","html-keyboard-response","573","4746364","0.0-6.0-2.117","","<div style=""font-size:60px;"">+</div>","null","","","","","","",""
"434.6249997615814","","image-keyboard-response","574","4746800","0.0-6.0-0.118","","img/yellow.png","32","trial","32","true","0.6,0.4","3:go_c","",""
"null","","html-keyboard-response","575","4747802","0.0-6.0-1.118","","<img src=""img/yellow-r.png"" border=""10"">","null","trial","32","","0.6,0.4","3:go_c","1",""
"null","","html-keyboard-response","576","4748803","0.0-6.0-2.118","","<div style=""font-size:60px;"">+</div>","null","","","","","","",""
"444.5150000974536","","image-keyboard-response","577","4749248","0.0-6.0-0.119","","img/red.png","32","trial","32","true","0.6,0.4","1:go_a","",""
"null","","html-keyboard-response","578","4750250","0.0-6.0-1.119","","<img src=""img/red-r.png"" border=""10"">","null","trial","32","","0.6,0.4","1:go_a","1",""
"null","","html-keyboard-response","579","4751251","0.0-6.0-2.119","","<div style=""font-size:60px;"">+</div>","null","","","","","","",""
"2583.4150006994605","","instructions","580","4753834","0.0-7.0","[{""page_index"":0,""viewing_time"":2583.1200005486608}]","","","","","","","","",""
"null","","image-keyboard-response","581","4755337","0.0-8.0-0.0","","img/purple.png","null","trial","32","false","1,0","3:go_c","",""
"null","","html-keyboard-response","582","4756338","0.0-8.0-1.0","","<img src=""img/purple-n.png"">","null","trial","32","","1,0","3:go_c","0",""
"null","","html-keyboard-response","583","4757339","0.0-8.0-2.0","","<div style=""font-size:60px;"">+</div>","null","","","","","","",""
"null","","image-keyboard-response","584","4758841","0.0-8.0-0.1","","img/green.png","null","trial","null","true","0,1","4:nogo_d","",""
"null","","html-keyboard-response","585","4759844","0.0-8.0-1.1","","<img src=""img/green-r.png"">","null","trial","null","","0,1","4:nogo_d","1",""
"null","","html-keyboard-response","586","4760845","0.0-8.0-2.1","","<div style=""font-size:60px;"">+</div>","null","","","","","","",""
"null","","image-keyboard-response","587","4762347","0.0-8.0-0.2","","img/red.png","null","trial","32","false","0.8,0.2","1:go_a","",""
"null","","html-keyboard-response","588","4763348","0.0-8.0-1.2","","<img src=""img/red-n.png"">","null","trial","32","","0.8,0.2","1:go_a","0",""
"null","","html-keyboard-response","589","4764349","0.0-8.0-2.2","","<div style=""font-size:60px;"">+</div>","null","","","","","","",""
"null","","image-keyboard-response","590","4765851","0.0-8.0-0.3","","img/orange.png","null","trial","null","true","0.2,0.8","2:nogo_b","",""
"null","","html-keyboard-response","591","4766853","0.0-8.0-1.3","","<img src=""img/orange-r.png"">","null","trial","null","","0.2,0.8","2:nogo_b","1",""
"null","","html-keyboard-response","592","4767855","0.0-8.0-2.3","","<div style=""font-size:60px;"">+</div>","null","","","","","","",""
"null","","image-keyboard-response","593","4769356","0.0-8.0-0.4","","img/red.png","null","trial","32","false","0.8,0.2","1:go_a","",""
"null","","html-keyboard-response","594","4770358","0.0-8.0-1.4","","<img src=""img/red-n.png"">","null","trial","32","","0.8,0.2","1:go_a","0",""
"null","","html-keyboard-response","595","4771359","0.0-8.0-2.4","","<div style=""font-size:60px;"">+</div>","null","","","","","","",""
"688.120000064373","","image-keyboard-response","596","4772048","0.0-8.0-0.5","","img/orange.png","32","trial","null","false","0.2,0.8","2:nogo_b","",""
"null","","html-keyboard-response","597","4773050","0.0-8.0-1.5","","<img src=""img/orange-n.png"" border=""10"">","null","trial","null","","0.2,0.8","2:nogo_b","0",""
"null","","html-keyboard-response","598","4774051","0.0-8.0-2.5","","<div style=""font-size:60px;"">+</div>","null","","","","","","",""
"451.0249998420477","","image-keyboard-response","599","4774503","0.0-8.0-0.6","","img/green.png","32","trial","null","false","0,1","4:nogo_d","",""
"null","","html-keyboard-response","600","4775505","0.0-8.0-1.6","","<img src=""img/green-n.png"" border=""10"">","null","trial","null","","0,1","4:nogo_d","0",""
"null","","html-keyboard-response","601","4776506","0.0-8.0-2.6","","<div style=""font-size:60px;"">+</div>","null","","","","","","",""
"null","","image-keyboard-response","602","4778008","0.0-8.0-0.7","","img/purple.png","null","trial","32","false","1,0","3:go_c","",""
"null","","html-keyboard-response","603","4779010","0.0-8.0-1.7","","<img src=""img/purple-n.png"">","null","trial","32","","1,0","3:go_c","0",""
"null","","html-keyboard-response","604","4780011","0.0-8.0-2.7","","<div style=""font-size:60px;"">+</div>","null","","","","","","",""
"786.6099998354912","","image-keyboard-response","605","4780799","0.0-8.0-0.8","","img/green.png","32","trial","null","false","0,1","4:nogo_d","",""
"null","","html-keyboard-response","606","4781802","0.0-8.0-1.8","","<img src=""img/green-n.png"" border=""10"">","null","trial","null","","0,1","4:nogo_d","0",""
"null","","html-keyboard-response","607","4782803","0.0-8.0-2.8","","<div style=""font-size:60px;"">+</div>","null","","","","","","",""
"913.3649999275804","","image-keyboard-response","608","4783717","0.0-8.0-0.9","","img/orange.png","32","trial","null","false","0.2,0.8","2:nogo_b","",""
"null","","html-keyboard-response","609","4784719","0.0-8.0-1.9","","<img src=""img/orange-n.png"" border=""10"">","null","trial","null","","0.2,0.8","2:nogo_b","0",""
"null","","html-keyboard-response","610","4785720","0.0-8.0-2.9","","<div style=""font-size:60px;"">+</div>","null","","","","","","",""
"null","","image-keyboard-response","611","4787278","0.0-8.0-0.10","","img/purple.png","null","trial","32","false","1,0","3:go_c","",""
"null","","html-keyboard-response","612","4788280","0.0-8.0-1.10","","<img src=""img/purple-n.png"">","null","trial","32","","1,0","3:go_c","0",""
"null","","html-keyboard-response","613","4789281","0.0-8.0-2.10","","<div style=""font-size:60px;"">+</div>","null","","","","","","",""
"782.2899995371699","","image-keyboard-response","614","4790064","0.0-8.0-0.11","","img/red.png","32","trial","32","true","0.8,0.2","1:go_a","",""
"null","","html-keyboard-response","615","4791066","0.0-8.0-1.11","","<img src=""img/red-r.png"" border=""10"">","null","trial","32","","0.8,0.2","1:go_a","1",""
"null","","html-keyboard-response","616","4792067","0.0-8.0-2.11","","<div style=""font-size:60px;"">+</div>","null","","","","","","",""
"null","","image-keyboard-response","617","4793569","0.0-8.0-0.12","","img/purple.png","null","trial","32","false","1,0","3:go_c","",""
"null","","html-keyboard-response","618","4794571","0.0-8.0-1.12","","<img src=""img/purple-n.png"">","null","trial","32","","1,0","3:go_c","0",""
"null","","html-keyboard-response","619","4795572","0.0-8.0-2.12","","<div style=""font-size:60px;"">+</div>","null","","","","","","",""
"1025.1049995422363","","image-keyboard-response","620","4796602","0.0-8.0-0.13","","img/green.png","32","trial","null","false","0,1","4:nogo_d","",""
"null","","html-keyboard-response","621","4797604","0.0-8.0-1.13","","<img src=""img/green-n.png"" border=""10"">","null","trial","null","","0,1","4:nogo_d","0",""
"null","","html-keyboard-response","622","4798605","0.0-8.0-2.13","","<div style=""font-size:60px;"">+</div>","null","","","","","","",""
"null","","image-keyboard-response","623","4800106","0.0-8.0-0.14","","img/orange.png","null","trial","null","true","0.2,0.8","2:nogo_b","",""
"null","","html-keyboard-response","624","4801108","0.0-8.0-1.14","","<img src=""img/orange-r.png"">","null","trial","null","","0.2,0.8","2:nogo_b","1",""
"null","","html-keyboard-response","625","4802109","0.0-8.0-2.14","","<div style=""font-size:60px;"">+</div>","null","","","","","","",""
"514.2350001260638","","image-keyboard-response","626","4802625","0.0-8.0-0.15","","img/red.png","32","trial","32","true","0.8,0.2","1:go_a","",""
"null","","html-keyboard-response","627","4803627","0.0-8.0-1.15","","<img src=""img/red-r.png"" border=""10"">","null","trial","32","","0.8,0.2","1:go_a","1",""
"null","","html-keyboard-response","628","4804628","0.0-8.0-2.15","","<div style=""font-size:60px;"">+</div>","null","","","","","","",""
"476.29000060260296","","image-keyboard-response","629","4805105","0.0-8.0-0.16","","img/orange.png","32","trial","null","false","0.2,0.8","2:nogo_b","",""
"null","","html-keyboard-response","630","4806107","0.0-8.0-1.16","","<img src=""img/orange-n.png"" border=""10"">","null","trial","null","","0.2,0.8","2:nogo_b","0",""
"null","","html-keyboard-response","631","4807108","0.0-8.0-2.16","","<div style=""font-size:60px;"">+</div>","null","","","","","","",""
"null","","image-keyboard-response","632","4808610","0.0-8.0-0.17","","img/green.png","null","trial","null","true","0,1","4:nogo_d","",""
"null","","html-keyboard-response","633","4809613","0.0-8.0-1.17","","<img src=""img/green-r.png"">","null","trial","null","","0,1","4:nogo_d","1",""
"null","","html-keyboard-response","634","4810614","0.0-8.0-2.17","","<div style=""font-size:60px;"">+</div>","null","","","","","","",""
"null","","image-keyboard-response","635","4812115","0.0-8.0-0.18","","img/purple.png","null","trial","32","false","1,0","3:go_c","",""
"null","","html-keyboard-response","636","4813117","0.0-8.0-1.18","","<img src=""img/purple-n.png"">","null","trial","32","","1,0","3:go_c","0",""
"null","","html-keyboard-response","637","4814118","0.0-8.0-2.18","","<div style=""font-size:60px;"">+</div>","null","","","","","","",""
"626.5399996191263","","image-keyboard-response","638","4814745","0.0-8.0-0.19","","img/red.png","32","trial","32","true","0.8,0.2","1:go_a","",""
"null","","html-keyboard-response","639","4815747","0.0-8.0-1.19","","<img src=""img/red-r.png"" border=""10"">","null","trial","32","","0.8,0.2","1:go_a","1",""
"null","","html-keyboard-response","640","4816748","0.0-8.0-2.19","","<div style=""font-size:60px;"">+</div>","null","","","","","","",""
"null","","image-keyboard-response","641","4818249","0.0-8.0-0.20","","img/orange.png","null","trial","null","true","0.2,0.8","2:nogo_b","",""
"null","","html-keyboard-response","642","4819251","0.0-8.0-1.20","","<img src=""img/orange-r.png"">","null","trial","null","","0.2,0.8","2:nogo_b","1",""
"null","","html-keyboard-response","643","4820252","0.0-8.0-2.20","","<div style=""font-size:60px;"">+</div>","null","","","","","","",""
"683.3049999549985","","image-keyboard-response","644","4820937","0.0-8.0-0.21","","img/red.png","32","trial","32","true","0.8,0.2","1:go_a","",""
"null","","html-keyboard-response","645","4821938","0.0-8.0-1.21","","<img src=""img/red-r.png"" border=""10"">","null","trial","32","","0.8,0.2","1:go_a","1",""
"null","","html-keyboard-response","646","4822940","0.0-8.0-2.21","","<div style=""font-size:60px;"">+</div>","null","","","","","","",""
"null","","image-keyboard-response","647","4824442","0.0-8.0-0.22","","img/green.png","null","trial","null","true","0,1","4:nogo_d","",""
"null","","html-keyboard-response","648","4825445","0.0-8.0-1.22","","<img src=""img/green-r.png"">","null","trial","null","","0,1","4:nogo_d","1",""
"null","","html-keyboard-response","649","4826446","0.0-8.0-2.22","","<div style=""font-size:60px;"">+</div>","null","","","","","","",""
"null","","image-keyboard-response","650","4827948","0.0-8.0-0.23","","img/purple.png","null","trial","32","false","1,0","3:go_c","",""
"null","","html-keyboard-response","651","4828950","0.0-8.0-1.23","","<img src=""img/purple-n.png"">","null","trial","32","","1,0","3:go_c","0",""
"null","","html-keyboard-response","652","4829951","0.0-8.0-2.23","","<div style=""font-size:60px;"">+</div>","null","","","","","","",""
"null","","image-keyboard-response","653","4831452","0.0-8.0-0.24","","img/purple.png","null","trial","32","false","1,0","3:go_c","",""
"null","","html-keyboard-response","654","4832455","0.0-8.0-1.24","","<img src=""img/purple-n.png"">","null","trial","32","","1,0","3:go_c","0",""
"null","","html-keyboard-response","655","4833458","0.0-8.0-2.24","","<div style=""font-size:60px;"">+</div>","null","","","","","","",""
"478.0100006610155","","image-keyboard-response","656","4833937","0.0-8.0-0.25","","img/red.png","32","trial","32","true","0.8,0.2","1:go_a","",""
"null","","html-keyboard-response","657","4834940","0.0-8.0-1.25","","<img src=""img/red-r.png"" border=""10"">","null","trial","32","","0.8,0.2","1:go_a","1",""
"null","","html-keyboard-response","658","4835942","0.0-8.0-2.25","","<div style=""font-size:60px;"">+</div>","null","","","","","","",""
"928.2499998807907","","image-keyboard-response","659","4836871","0.0-8.0-0.26","","img/orange.png","32","trial","null","false","0.2,0.8","2:nogo_b","",""
"null","","html-keyboard-response","660","4837873","0.0-8.0-1.26","","<img src=""img/orange-n.png"" border=""10"">","null","trial","null","","0.2,0.8","2:nogo_b","0",""
"null","","html-keyboard-response","661","4838874","0.0-8.0-2.26","","<div style=""font-size:60px;"">+</div>","null","","","","","","",""
"null","","image-keyboard-response","662","4840376","0.0-8.0-0.27","","img/green.png","null","trial","null","true","0,1","4:nogo_d","",""
"null","","html-keyboard-response","663","4841378","0.0-8.0-1.27","","<img src=""img/green-r.png"">","null","trial","null","","0,1","4:nogo_d","1",""
"null","","html-keyboard-response","664","4842379","0.0-8.0-2.27","","<div style=""font-size:60px;"">+</div>","null","","","","","","",""
"482.9250006005168","","image-keyboard-response","665","4842863","0.0-8.0-0.28","","img/green.png","32","trial","null","false","0,1","4:nogo_d","",""
"null","","html-keyboard-response","666","4843864","0.0-8.0-1.28","","<img src=""img/green-n.png"" border=""10"">","null","trial","null","","0,1","4:nogo_d","0",""
"null","","html-keyboard-response","667","4844870","0.0-8.0-2.28","","<div style=""font-size:60px;"">+</div>","null","","","","","","",""
"530.6350002065301","","image-keyboard-response","668","4845401","0.0-8.0-0.29","","img/red.png","32","trial","32","true","0.8,0.2","1:go_a","",""
"null","","html-keyboard-response","669","4846404","0.0-8.0-1.29","","<img src=""img/red-n.png"" border=""10"">","null","trial","32","","0.8,0.2","1:go_a","0",""
"null","","html-keyboard-response","670","4847405","0.0-8.0-2.29","","<div style=""font-size:60px;"">+</div>","null","","","","","","",""
"991.3399992510676","","image-keyboard-response","671","4848397","0.0-8.0-0.30","","img/orange.png","32","trial","null","false","0.2,0.8","2:nogo_b","",""
"null","","html-keyboard-response","672","4849398","0.0-8.0-1.30","","<img src=""img/orange-n.png"" border=""10"">","null","trial","null","","0.2,0.8","2:nogo_b","0",""
"null","","html-keyboard-response","673","4850403","0.0-8.0-2.30","","<div style=""font-size:60px;"">+</div>","null","","","","","","",""
"null","","image-keyboard-response","674","4851904","0.0-8.0-0.31","","img/purple.png","null","trial","32","false","1,0","3:go_c","",""
"null","","html-keyboard-response","675","4852906","0.0-8.0-1.31","","<img src=""img/purple-n.png"">","null","trial","32","","1,0","3:go_c","0",""
"null","","html-keyboard-response","676","4853907","0.0-8.0-2.31","","<div style=""font-size:60px;"">+</div>","null","","","","","","",""
