"rt","url","trial_type","trial_index","time_elapsed","internal_node_id","view_history","stimulus","key_press","test_part","correct_response","correct","use_rew","which_stim","reward","responses"
"18390.535000013188","consent.html","external-html","0","18479","0.0-0.0","","","","","","","","","",""
"107798.50999999326","","instructions","1","126282","0.0-1.0","[{""page_index"":0,""viewing_time"":4629.225000011502},{""page_index"":1,""viewing_time"":29735.255000006873},{""page_index"":2,""viewing_time"":10799.39000000013},{""page_index"":3,""viewing_time"":29567.219999997178},{""page_index"":4,""viewing_time"":11264.005000004545},{""page_index"":5,""viewing_time"":8759.529999981169},{""page_index"":6,""viewing_time"":13042.835000000196}]","","","","","","","","",""
"null","","image-keyboard-response","2","127784","0.0-2.0-0.0","","img/test3.PNG","null","practice","null","true","","","",""
"null","","html-keyboard-response","3","128787","0.0-2.0-1.0","","<img src=""img/test3-reward.PNG"">","null","","","","","","",""
"null","","html-keyboard-response","4","129788","0.0-2.0-2.0","","<div style=""font-size:60px;"">+</div>","null","","","","","","",""
"null","","image-keyboard-response","5","131289","0.0-2.0-0.1","","img/test2.PNG","null","practice","null","true","","","",""
"null","","html-keyboard-response","6","132290","0.0-2.0-1.1","","<img src=""img/test2-reward.PNG"">","null","","","","","","",""
"null","","html-keyboard-response","7","133291","0.0-2.0-2.1","","<div style=""font-size:60px;"">+</div>","null","","","","","","",""
"409.5600000000559","","image-keyboard-response","8","133702","0.0-2.0-0.2","","img/test1.PNG","32","practice","32","true","","","",""
"null","","html-keyboard-response","9","134703","0.0-2.0-1.2","","<img src=""img/test1-reward.PNG"" border=""10px; grey"">","null","","","","","","",""
"null","","html-keyboard-response","10","135705","0.0-2.0-2.2","","<div style=""font-size:60px;"">+</div>","null","","","","","","",""
"436.199999996461","","image-keyboard-response","11","136141","0.0-2.0-0.3","","img/test1.PNG","32","practice","32","true","","","",""
"null","","html-keyboard-response","12","137142","0.0-2.0-1.3","","<img src=""img/test1-reward.PNG"" border=""10px; grey"">","null","","","","","","",""
"null","","html-keyboard-response","13","138143","0.0-2.0-2.3","","<div style=""font-size:60px;"">+</div>","null","","","","","","",""
"null","","image-keyboard-response","14","139645","0.0-2.0-0.4","","img/test2.PNG","null","practice","null","true","","","",""
"null","","html-keyboard-response","15","140646","0.0-2.0-1.4","","<img src=""img/test2-reward.PNG"">","null","","","","","","",""
"null","","html-keyboard-response","16","141647","0.0-2.0-2.4","","<div style=""font-size:60px;"">+</div>","null","","","","","","",""
"null","","image-keyboard-response","17","143149","0.0-2.0-0.5","","img/test3.PNG","null","practice","null","true","","","",""
"null","","html-keyboard-response","18","144150","0.0-2.0-1.5","","<img src=""img/test3-reward.PNG"">","null","","","","","","",""
"null","","html-keyboard-response","19","145151","0.0-2.0-2.5","","<div style=""font-size:60px;"">+</div>","null","","","","","","",""
"373.15500000840984","","image-keyboard-response","20","145525","0.0-2.0-0.6","","img/test1.PNG","32","practice","32","true","","","",""
"null","","html-keyboard-response","21","146527","0.0-2.0-1.6","","<img src=""img/test1-reward.PNG"" border=""10px; grey"">","null","","","","","","",""
"null","","html-keyboard-response","22","147528","0.0-2.0-2.6","","<div style=""font-size:60px;"">+</div>","null","","","","","","",""
"null","","image-keyboard-response","23","149030","0.0-2.0-0.7","","img/test2.PNG","null","practice","null","true","","","",""
"null","","html-keyboard-response","24","150032","0.0-2.0-1.7","","<img src=""img/test2-reward.PNG"">","null","","","","","","",""
"null","","html-keyboard-response","25","151034","0.0-2.0-2.7","","<div style=""font-size:60px;"">+</div>","null","","","","","","",""
"null","","image-keyboard-response","26","152535","0.0-2.0-0.8","","img/test3.PNG","null","practice","null","true","","","",""
"null","","html-keyboard-response","27","153536","0.0-2.0-1.8","","<img src=""img/test3-reward.PNG"">","null","","","","","","",""
"null","","html-keyboard-response","28","154537","0.0-2.0-2.8","","<div style=""font-size:60px;"">+</div>","null","","","","","","",""
"371.02500000037253","","image-keyboard-response","29","154909","0.0-2.0-0.9","","img/test1.PNG","32","practice","32","true","","","",""
"null","","html-keyboard-response","30","155910","0.0-2.0-1.9","","<img src=""img/test1-reward.PNG"" border=""10px; grey"">","null","","","","","","",""
"null","","html-keyboard-response","31","156911","0.0-2.0-2.9","","<div style=""font-size:60px;"">+</div>","null","","","","","","",""
"null","","image-keyboard-response","32","158412","0.0-2.0-0.10","","img/test2.PNG","null","practice","null","true","","","",""
"null","","html-keyboard-response","33","159413","0.0-2.0-1.10","","<img src=""img/test2-reward.PNG"">","null","","","","","","",""
"null","","html-keyboard-response","34","160414","0.0-2.0-2.10","","<div style=""font-size:60px;"">+</div>","null","","","","","","",""
"null","","image-keyboard-response","35","161915","0.0-2.0-0.11","","img/test3.PNG","null","practice","null","true","","","",""
"null","","html-keyboard-response","36","162916","0.0-2.0-1.11","","<img src=""img/test3-reward.PNG"">","null","","","","","","",""
"null","","html-keyboard-response","37","163917","0.0-2.0-2.11","","<div style=""font-size:60px;"">+</div>","null","","","","","","",""
"4726.935000013327","","instructions","38","168645","0.0-3.0","[{""page_index"":0,""viewing_time"":4726.789999986067}]","","","","","","","","",""
"951.4000000199303","","image-keyboard-response","39","169597","0.0-4.0-0.0","","img/pink.png","32","trial","32","true","0.8,0.2","1:go_a","",""
"null","","html-keyboard-response","40","170600","0.0-4.0-1.0","","<img src=""img/pink-r.png"" border=""10"">","null","trial","32","","0.8,0.2","1:go_a","1",""
"null","","html-keyboard-response","41","171650","0.0-4.0-2.0","","<div style=""font-size:60px;"">+</div>","null","","","","","","",""
"827.1749999839813","","image-keyboard-response","42","172478","0.0-4.0-0.1","","img/red.png","32","trial","null","false","0.2,0.8","2:nogo_b","",""
"null","","html-keyboard-response","43","173480","0.0-4.0-1.1","","<img src=""img/red-n.png"" border=""10"">","null","trial","null","","0.2,0.8","2:nogo_b","0",""
"null","","html-keyboard-response","44","174482","0.0-4.0-2.1","","<div style=""font-size:60px;"">+</div>","null","","","","","","",""
"null","","image-keyboard-response","45","175983","0.0-4.0-0.2","","img/red.png","null","trial","null","true","0.2,0.8","2:nogo_b","",""
"null","","html-keyboard-response","46","176985","0.0-4.0-1.2","","<img src=""img/red-r.png"">","null","trial","null","","0.2,0.8","2:nogo_b","1",""
"null","","html-keyboard-response","47","177987","0.0-4.0-2.2","","<div style=""font-size:60px;"">+</div>","null","","","","","","",""
"827.0350000238977","","image-keyboard-response","48","178815","0.0-4.0-0.3","","img/pink.png","32","trial","32","true","0.8,0.2","1:go_a","",""
"null","","html-keyboard-response","49","179817","0.0-4.0-1.3","","<img src=""img/pink-r.png"" border=""10"">","null","trial","32","","0.8,0.2","1:go_a","1",""
"null","","html-keyboard-response","50","180818","0.0-4.0-2.3","","<div style=""font-size:60px;"">+</div>","null","","","","","","",""
"667.6549999974668","","image-keyboard-response","51","181486","0.0-4.0-0.4","","img/pink.png","32","trial","32","true","0.8,0.2","1:go_a","",""
"null","","html-keyboard-response","52","182490","0.0-4.0-1.4","","<img src=""img/pink-r.png"" border=""10"">","null","trial","32","","0.8,0.2","1:go_a","1",""
"null","","html-keyboard-response","53","183491","0.0-4.0-2.4","","<div style=""font-size:60px;"">+</div>","null","","","","","","",""
"null","","image-keyboard-response","54","184992","0.0-4.0-0.5","","img/red.png","null","trial","null","true","0.2,0.8","2:nogo_b","",""
"null","","html-keyboard-response","55","185993","0.0-4.0-1.5","","<img src=""img/red-r.png"">","null","trial","null","","0.2,0.8","2:nogo_b","1",""
"null","","html-keyboard-response","56","186994","0.0-4.0-2.5","","<div style=""font-size:60px;"">+</div>","null","","","","","","",""
"null","","image-keyboard-response","57","188496","0.0-4.0-0.6","","img/red.png","null","trial","null","true","0.2,0.8","2:nogo_b","",""
"null","","html-keyboard-response","58","189497","0.0-4.0-1.6","","<img src=""img/red-r.png"">","null","trial","null","","0.2,0.8","2:nogo_b","1",""
"null","","html-keyboard-response","59","190498","0.0-4.0-2.6","","<div style=""font-size:60px;"">+</div>","null","","","","","","",""
"515.3599999903236","","image-keyboard-response","60","191014","0.0-4.0-0.7","","img/pink.png","32","trial","32","true","0.8,0.2","1:go_a","",""
"null","","html-keyboard-response","61","192016","0.0-4.0-1.7","","<img src=""img/pink-r.png"" border=""10"">","null","trial","32","","0.8,0.2","1:go_a","1",""
"null","","html-keyboard-response","62","193017","0.0-4.0-2.7","","<div style=""font-size:60px;"">+</div>","null","","","","","","",""
"580.1250000076834","","image-keyboard-response","63","193598","0.0-4.0-0.8","","img/pink.png","32","trial","32","true","0.8,0.2","1:go_a","",""
"null","","html-keyboard-response","64","194599","0.0-4.0-1.8","","<img src=""img/pink-r.png"" border=""10"">","null","trial","32","","0.8,0.2","1:go_a","1",""
"null","","html-keyboard-response","65","195600","0.0-4.0-2.8","","<div style=""font-size:60px;"">+</div>","null","","","","","","",""
"501.06499998946674","","image-keyboard-response","66","196102","0.0-4.0-0.9","","img/red.png","32","trial","null","false","0.2,0.8","2:nogo_b","",""
"null","","html-keyboard-response","67","197103","0.0-4.0-1.9","","<img src=""img/red-r.png"" border=""10"">","null","trial","null","","0.2,0.8","2:nogo_b","1",""
"null","","html-keyboard-response","68","198104","0.0-4.0-2.9","","<div style=""font-size:60px;"">+</div>","null","","","","","","",""
"573.3600000094157","","image-keyboard-response","69","198678","0.0-4.0-0.10","","img/pink.png","32","trial","32","true","0.8,0.2","1:go_a","",""
"null","","html-keyboard-response","70","199683","0.0-4.0-1.10","","<img src=""img/pink-n.png"" border=""10"">","null","trial","32","","0.8,0.2","1:go_a","0",""
"null","","html-keyboard-response","71","200683","0.0-4.0-2.10","","<div style=""font-size:60px;"">+</div>","null","","","","","","",""
"650.1050000078976","","image-keyboard-response","72","201334","0.0-4.0-0.11","","img/red.png","32","trial","null","false","0.2,0.8","2:nogo_b","",""
"null","","html-keyboard-response","73","202336","0.0-4.0-1.11","","<img src=""img/red-n.png"" border=""10"">","null","trial","null","","0.2,0.8","2:nogo_b","0",""
"null","","html-keyboard-response","74","203338","0.0-4.0-2.11","","<div style=""font-size:60px;"">+</div>","null","","","","","","",""
"675.7900000084192","","image-keyboard-response","75","204014","0.0-4.0-0.12","","img/red.png","32","trial","null","false","0.2,0.8","2:nogo_b","",""
"null","","html-keyboard-response","76","205016","0.0-4.0-1.12","","<img src=""img/red-n.png"" border=""10"">","null","trial","null","","0.2,0.8","2:nogo_b","0",""
"null","","html-keyboard-response","77","206017","0.0-4.0-2.12","","<div style=""font-size:60px;"">+</div>","null","","","","","","",""
"748.2850000087637","","image-keyboard-response","78","206766","0.0-4.0-0.13","","img/pink.png","32","trial","32","true","0.8,0.2","1:go_a","",""
"null","","html-keyboard-response","79","207769","0.0-4.0-1.13","","<img src=""img/pink-r.png"" border=""10"">","null","trial","32","","0.8,0.2","1:go_a","1",""
"null","","html-keyboard-response","80","208770","0.0-4.0-2.13","","<div style=""font-size:60px;"">+</div>","null","","","","","","",""
"546.6399999859277","","image-keyboard-response","81","209318","0.0-4.0-0.14","","img/red.png","32","trial","null","false","0.2,0.8","2:nogo_b","",""
"null","","html-keyboard-response","82","210320","0.0-4.0-1.14","","<img src=""img/red-n.png"" border=""10"">","null","trial","null","","0.2,0.8","2:nogo_b","0",""
"null","","html-keyboard-response","83","211321","0.0-4.0-2.14","","<div style=""font-size:60px;"">+</div>","null","","","","","","",""
"652.5900000124238","","image-keyboard-response","84","211974","0.0-4.0-0.15","","img/pink.png","32","trial","32","true","0.8,0.2","1:go_a","",""
"null","","html-keyboard-response","85","212976","0.0-4.0-1.15","","<img src=""img/pink-r.png"" border=""10"">","null","trial","32","","0.8,0.2","1:go_a","1",""
"null","","html-keyboard-response","86","213977","0.0-4.0-2.15","","<div style=""font-size:60px;"">+</div>","null","","","","","","",""
"null","","image-keyboard-response","87","215478","0.0-4.0-0.16","","img/red.png","null","trial","null","true","0.2,0.8","2:nogo_b","",""
"null","","html-keyboard-response","88","216479","0.0-4.0-1.16","","<img src=""img/red-r.png"">","null","trial","null","","0.2,0.8","2:nogo_b","1",""
"null","","html-keyboard-response","89","217480","0.0-4.0-2.16","","<div style=""font-size:60px;"">+</div>","null","","","","","","",""
"508.5949999920558","","image-keyboard-response","90","217989","0.0-4.0-0.17","","img/pink.png","32","trial","32","true","0.8,0.2","1:go_a","",""
"null","","html-keyboard-response","91","218991","0.0-4.0-1.17","","<img src=""img/pink-r.png"" border=""10"">","null","trial","32","","0.8,0.2","1:go_a","1",""
"null","","html-keyboard-response","92","219992","0.0-4.0-2.17","","<div style=""font-size:60px;"">+</div>","null","","","","","","",""
"460.5450000090059","","image-keyboard-response","93","220453","0.0-4.0-0.18","","img/pink.png","32","trial","32","true","0.8,0.2","1:go_a","",""
"null","","html-keyboard-response","94","221455","0.0-4.0-1.18","","<img src=""img/pink-r.png"" border=""10"">","null","trial","32","","0.8,0.2","1:go_a","1",""
"null","","html-keyboard-response","95","222457","0.0-4.0-2.18","","<div style=""font-size:60px;"">+</div>","null","","","","","","",""
"null","","image-keyboard-response","96","223958","0.0-4.0-0.19","","img/red.png","null","trial","null","true","0.2,0.8","2:nogo_b","",""
"null","","html-keyboard-response","97","224960","0.0-4.0-1.19","","<img src=""img/red-r.png"">","null","trial","null","","0.2,0.8","2:nogo_b","1",""
"null","","html-keyboard-response","98","225961","0.0-4.0-2.19","","<div style=""font-size:60px;"">+</div>","null","","","","","","",""
"403.93000000040047","","image-keyboard-response","99","226366","0.0-4.0-0.20","","img/pink.png","32","trial","32","true","0.8,0.2","1:go_a","",""
"null","","html-keyboard-response","100","227367","0.0-4.0-1.20","","<img src=""img/pink-r.png"" border=""10"">","null","trial","32","","0.8,0.2","1:go_a","1",""
"null","","html-keyboard-response","101","228368","0.0-4.0-2.20","","<div style=""font-size:60px;"">+</div>","null","","","","","","",""
"null","","image-keyboard-response","102","229875","0.0-4.0-0.21","","img/red.png","null","trial","null","true","0.2,0.8","2:nogo_b","",""
"null","","html-keyboard-response","103","230878","0.0-4.0-1.21","","<img src=""img/red-r.png"">","null","trial","null","","0.2,0.8","2:nogo_b","1",""
"null","","html-keyboard-response","104","231879","0.0-4.0-2.21","","<div style=""font-size:60px;"">+</div>","null","","","","","","",""
"534.6100000024308","","image-keyboard-response","105","232414","0.0-4.0-0.22","","img/pink.png","32","trial","32","true","0.8,0.2","1:go_a","",""
"null","","html-keyboard-response","106","233416","0.0-4.0-1.22","","<img src=""img/pink-r.png"" border=""10"">","null","trial","32","","0.8,0.2","1:go_a","1",""
"null","","html-keyboard-response","107","234417","0.0-4.0-2.22","","<div style=""font-size:60px;"">+</div>","null","","","","","","",""
"548.7700000230689","","image-keyboard-response","108","234966","0.0-4.0-0.23","","img/red.png","32","trial","null","false","0.2,0.8","2:nogo_b","",""
"null","","html-keyboard-response","109","235968","0.0-4.0-1.23","","<img src=""img/red-n.png"" border=""10"">","null","trial","null","","0.2,0.8","2:nogo_b","0",""
"null","","html-keyboard-response","110","236969","0.0-4.0-2.23","","<div style=""font-size:60px;"">+</div>","null","","","","","","",""
"532.7450000040699","","image-keyboard-response","111","237503","0.0-4.0-0.24","","img/pink.png","32","trial","32","true","0.8,0.2","1:go_a","",""
"null","","html-keyboard-response","112","238504","0.0-4.0-1.24","","<img src=""img/pink-r.png"" border=""10"">","null","trial","32","","0.8,0.2","1:go_a","1",""
"null","","html-keyboard-response","113","239505","0.0-4.0-2.24","","<div style=""font-size:60px;"">+</div>","null","","","","","","",""
"null","","image-keyboard-response","114","241006","0.0-4.0-0.25","","img/red.png","null","trial","null","true","0.2,0.8","2:nogo_b","",""
"null","","html-keyboard-response","115","242009","0.0-4.0-1.25","","<img src=""img/red-r.png"">","null","trial","null","","0.2,0.8","2:nogo_b","1",""
"null","","html-keyboard-response","116","243010","0.0-4.0-2.25","","<div style=""font-size:60px;"">+</div>","null","","","","","","",""
"715.3099999995902","","image-keyboard-response","117","243726","0.0-4.0-0.26","","img/red.png","32","trial","null","false","0.2,0.8","2:nogo_b","",""
"null","","html-keyboard-response","118","244727","0.0-4.0-1.26","","<img src=""img/red-r.png"" border=""10"">","null","trial","null","","0.2,0.8","2:nogo_b","1",""
"null","","html-keyboard-response","119","245729","0.0-4.0-2.26","","<div style=""font-size:60px;"">+</div>","null","","","","","","",""
"540.3099999821279","","image-keyboard-response","120","246270","0.0-4.0-0.27","","img/pink.png","32","trial","32","true","0.8,0.2","1:go_a","",""
"null","","html-keyboard-response","121","247274","0.0-4.0-1.27","","<img src=""img/pink-r.png"" border=""10"">","null","trial","32","","0.8,0.2","1:go_a","1",""
"null","","html-keyboard-response","122","248275","0.0-4.0-2.27","","<div style=""font-size:60px;"">+</div>","null","","","","","","",""
"574.2200000095181","","image-keyboard-response","123","248850","0.0-4.0-0.28","","img/pink.png","32","trial","32","true","0.8,0.2","1:go_a","",""
"null","","html-keyboard-response","124","249852","0.0-4.0-1.28","","<img src=""img/pink-n.png"" border=""10"">","null","trial","32","","0.8,0.2","1:go_a","0",""
"null","","html-keyboard-response","125","250854","0.0-4.0-2.28","","<div style=""font-size:60px;"">+</div>","null","","","","","","",""
"599.8449999897275","","image-keyboard-response","126","251454","0.0-4.0-0.29","","img/red.png","32","trial","null","false","0.2,0.8","2:nogo_b","",""
"null","","html-keyboard-response","127","252455","0.0-4.0-1.29","","<img src=""img/red-r.png"" border=""10"">","null","trial","null","","0.2,0.8","2:nogo_b","1",""
"null","","html-keyboard-response","128","253457","0.0-4.0-2.29","","<div style=""font-size:60px;"">+</div>","null","","","","","","",""
"null","","image-keyboard-response","129","254958","0.0-4.0-0.30","","img/pink.png","null","trial","32","false","0.8,0.2","1:go_a","",""
"null","","html-keyboard-response","130","255959","0.0-4.0-1.30","","<img src=""img/pink-r.png"">","null","trial","32","","0.8,0.2","1:go_a","1",""
"null","","html-keyboard-response","131","256960","0.0-4.0-2.30","","<div style=""font-size:60px;"">+</div>","null","","","","","","",""
"541.3849999895319","","image-keyboard-response","132","257502","0.0-4.0-0.31","","img/red.png","32","trial","null","false","0.2,0.8","2:nogo_b","",""
"null","","html-keyboard-response","133","258503","0.0-4.0-1.31","","<img src=""img/red-n.png"" border=""10"">","null","trial","null","","0.2,0.8","2:nogo_b","0",""
"null","","html-keyboard-response","134","259504","0.0-4.0-2.31","","<div style=""font-size:60px;"">+</div>","null","","","","","","",""
"469.3050000059884","","image-keyboard-response","135","259974","0.0-4.0-0.32","","img/pink.png","32","trial","32","true","0.8,0.2","1:go_a","",""
"null","","html-keyboard-response","136","260976","0.0-4.0-1.32","","<img src=""img/pink-r.png"" border=""10"">","null","trial","32","","0.8,0.2","1:go_a","1",""
"null","","html-keyboard-response","137","261977","0.0-4.0-2.32","","<div style=""font-size:60px;"">+</div>","null","","","","","","",""
"null","","image-keyboard-response","138","263478","0.0-4.0-0.33","","img/red.png","null","trial","null","true","0.2,0.8","2:nogo_b","",""
"null","","html-keyboard-response","139","264480","0.0-4.0-1.33","","<img src=""img/red-r.png"">","null","trial","null","","0.2,0.8","2:nogo_b","1",""
"null","","html-keyboard-response","140","265481","0.0-4.0-2.33","","<div style=""font-size:60px;"">+</div>","null","","","","","","",""
"500.4100000078324","","image-keyboard-response","141","265982","0.0-4.0-0.34","","img/pink.png","32","trial","32","true","0.8,0.2","1:go_a","",""
"null","","html-keyboard-response","142","266983","0.0-4.0-1.34","","<img src=""img/pink-r.png"" border=""10"">","null","trial","32","","0.8,0.2","1:go_a","1",""
"null","","html-keyboard-response","143","267984","0.0-4.0-2.34","","<div style=""font-size:60px;"">+</div>","null","","","","","","",""
"null","","image-keyboard-response","144","269485","0.0-4.0-0.35","","img/red.png","null","trial","null","true","0.2,0.8","2:nogo_b","",""
"null","","html-keyboard-response","145","270486","0.0-4.0-1.35","","<img src=""img/red-r.png"">","null","trial","null","","0.2,0.8","2:nogo_b","1",""
"null","","html-keyboard-response","146","271487","0.0-4.0-2.35","","<div style=""font-size:60px;"">+</div>","null","","","","","","",""
"469.94499998982064","","image-keyboard-response","147","271958","0.0-4.0-0.36","","img/pink.png","32","trial","32","true","0.8,0.2","1:go_a","",""
"null","","html-keyboard-response","148","272959","0.0-4.0-1.36","","<img src=""img/pink-r.png"" border=""10"">","null","trial","32","","0.8,0.2","1:go_a","1",""
"null","","html-keyboard-response","149","273960","0.0-4.0-2.36","","<div style=""font-size:60px;"">+</div>","null","","","","","","",""
"900.0499999965541","","image-keyboard-response","150","274861","0.0-4.0-0.37","","img/red.png","32","trial","null","false","0.2,0.8","2:nogo_b","",""
"null","","html-keyboard-response","151","275862","0.0-4.0-1.37","","<img src=""img/red-r.png"" border=""10"">","null","trial","null","","0.2,0.8","2:nogo_b","1",""
"null","","html-keyboard-response","152","276863","0.0-4.0-2.37","","<div style=""font-size:60px;"">+</div>","null","","","","","","",""
"643.580000003567","","image-keyboard-response","153","277509","0.0-4.0-0.38","","img/pink.png","32","trial","32","true","0.8,0.2","1:go_a","",""
"null","","html-keyboard-response","154","278510","0.0-4.0-1.38","","<img src=""img/pink-n.png"" border=""10"">","null","trial","32","","0.8,0.2","1:go_a","0",""
"null","","html-keyboard-response","155","279511","0.0-4.0-2.38","","<div style=""font-size:60px;"">+</div>","null","","","","","","",""
"741.6450000018813","","image-keyboard-response","156","280254","0.0-4.0-0.39","","img/red.png","32","trial","null","false","0.2,0.8","2:nogo_b","",""
"null","","html-keyboard-response","157","281255","0.0-4.0-1.39","","<img src=""img/red-r.png"" border=""10"">","null","trial","null","","0.2,0.8","2:nogo_b","1",""
"null","","html-keyboard-response","158","282257","0.0-4.0-2.39","","<div style=""font-size:60px;"">+</div>","null","","","","","","",""
"755.749999982072","","image-keyboard-response","159","283014","0.0-4.0-0.40","","img/red.png","32","trial","null","false","0.2,0.8","2:nogo_b","",""
"null","","html-keyboard-response","160","284016","0.0-4.0-1.40","","<img src=""img/red-n.png"" border=""10"">","null","trial","null","","0.2,0.8","2:nogo_b","0",""
"null","","html-keyboard-response","161","285017","0.0-4.0-2.40","","<div style=""font-size:60px;"">+</div>","null","","","","","","",""
"837.8950000042096","","image-keyboard-response","162","285855","0.0-4.0-0.41","","img/pink.png","32","trial","32","true","0.8,0.2","1:go_a","",""
"null","","html-keyboard-response","163","286859","0.0-4.0-1.41","","<img src=""img/pink-r.png"" border=""10"">","null","trial","32","","0.8,0.2","1:go_a","1",""
"null","","html-keyboard-response","164","287860","0.0-4.0-2.41","","<div style=""font-size:60px;"">+</div>","null","","","","","","",""
"null","","image-keyboard-response","165","289361","0.0-4.0-0.42","","img/red.png","null","trial","null","true","0.2,0.8","2:nogo_b","",""
"null","","html-keyboard-response","166","290362","0.0-4.0-1.42","","<img src=""img/red-r.png"">","null","trial","null","","0.2,0.8","2:nogo_b","1",""
"null","","html-keyboard-response","167","291364","0.0-4.0-2.42","","<div style=""font-size:60px;"">+</div>","null","","","","","","",""
"458.1000000180211","","image-keyboard-response","168","291823","0.0-4.0-0.43","","img/pink.png","32","trial","32","true","0.8,0.2","1:go_a","",""
"null","","html-keyboard-response","169","292824","0.0-4.0-1.43","","<img src=""img/pink-n.png"" border=""10"">","null","trial","32","","0.8,0.2","1:go_a","0",""
"null","","html-keyboard-response","170","293826","0.0-4.0-2.43","","<div style=""font-size:60px;"">+</div>","null","","","","","","",""
"788.4199999971315","","image-keyboard-response","171","294615","0.0-4.0-0.44","","img/red.png","32","trial","null","false","0.2,0.8","2:nogo_b","",""
"null","","html-keyboard-response","172","295616","0.0-4.0-1.44","","<img src=""img/red-n.png"" border=""10"">","null","trial","null","","0.2,0.8","2:nogo_b","0",""
"null","","html-keyboard-response","173","296618","0.0-4.0-2.44","","<div style=""font-size:60px;"">+</div>","null","","","","","","",""
"651.8250000081025","","image-keyboard-response","174","297271","0.0-4.0-0.45","","img/pink.png","32","trial","32","true","0.8,0.2","1:go_a","",""
"null","","html-keyboard-response","175","298272","0.0-4.0-1.45","","<img src=""img/pink-n.png"" border=""10"">","null","trial","32","","0.8,0.2","1:go_a","0",""
"null","","html-keyboard-response","176","299274","0.0-4.0-2.45","","<div style=""font-size:60px;"">+</div>","null","","","","","","",""
"835.2749999903608","","image-keyboard-response","177","300110","0.0-4.0-0.46","","img/pink.png","32","trial","32","true","0.8,0.2","1:go_a","",""
"null","","html-keyboard-response","178","301113","0.0-4.0-1.46","","<img src=""img/pink-n.png"" border=""10"">","null","trial","32","","0.8,0.2","1:go_a","0",""
"null","","html-keyboard-response","179","302114","0.0-4.0-2.46","","<div style=""font-size:60px;"">+</div>","null","","","","","","",""
"1027.8449999750592","","image-keyboard-response","180","303142","0.0-4.0-0.47","","img/red.png","32","trial","null","false","0.2,0.8","2:nogo_b","",""
"null","","html-keyboard-response","181","304144","0.0-4.0-1.47","","<img src=""img/red-r.png"" border=""10"">","null","trial","null","","0.2,0.8","2:nogo_b","1",""
"null","","html-keyboard-response","182","305145","0.0-4.0-2.47","","<div style=""font-size:60px;"">+</div>","null","","","","","","",""
"749.2050000000745","","image-keyboard-response","183","305895","0.0-4.0-0.48","","img/red.png","32","trial","null","false","0.2,0.8","2:nogo_b","",""
"null","","html-keyboard-response","184","306896","0.0-4.0-1.48","","<img src=""img/red-n.png"" border=""10"">","null","trial","null","","0.2,0.8","2:nogo_b","0",""
"null","","html-keyboard-response","185","307897","0.0-4.0-2.48","","<div style=""font-size:60px;"">+</div>","null","","","","","","",""
"756.5750000067055","","image-keyboard-response","186","308654","0.0-4.0-0.49","","img/pink.png","32","trial","32","true","0.8,0.2","1:go_a","",""
"null","","html-keyboard-response","187","309656","0.0-4.0-1.49","","<img src=""img/pink-r.png"" border=""10"">","null","trial","32","","0.8,0.2","1:go_a","1",""
"null","","html-keyboard-response","188","310657","0.0-4.0-2.49","","<div style=""font-size:60px;"">+</div>","null","","","","","","",""
"564.5249999943189","","image-keyboard-response","189","311222","0.0-4.0-0.50","","img/pink.png","32","trial","32","true","0.8,0.2","1:go_a","",""
"null","","html-keyboard-response","190","312224","0.0-4.0-1.50","","<img src=""img/pink-r.png"" border=""10"">","null","trial","32","","0.8,0.2","1:go_a","1",""
"null","","html-keyboard-response","191","313225","0.0-4.0-2.50","","<div style=""font-size:60px;"">+</div>","null","","","","","","",""
"null","","image-keyboard-response","192","314726","0.0-4.0-0.51","","img/red.png","null","trial","null","true","0.2,0.8","2:nogo_b","",""
"null","","html-keyboard-response","193","315727","0.0-4.0-1.51","","<img src=""img/red-r.png"">","null","trial","null","","0.2,0.8","2:nogo_b","1",""
"null","","html-keyboard-response","194","316728","0.0-4.0-2.51","","<div style=""font-size:60px;"">+</div>","null","","","","","","",""
"null","","image-keyboard-response","195","318229","0.0-4.0-0.52","","img/red.png","null","trial","null","true","0.2,0.8","2:nogo_b","",""
"null","","html-keyboard-response","196","319231","0.0-4.0-1.52","","<img src=""img/red-r.png"">","null","trial","null","","0.2,0.8","2:nogo_b","1",""
"null","","html-keyboard-response","197","320232","0.0-4.0-2.52","","<div style=""font-size:60px;"">+</div>","null","","","","","","",""
"573.2800000114366","","image-keyboard-response","198","320806","0.0-4.0-0.53","","img/pink.png","32","trial","32","true","0.8,0.2","1:go_a","",""
"null","","html-keyboard-response","199","321807","0.0-4.0-1.53","","<img src=""img/pink-r.png"" border=""10"">","null","trial","32","","0.8,0.2","1:go_a","1",""
"null","","html-keyboard-response","200","322808","0.0-4.0-2.53","","<div style=""font-size:60px;"">+</div>","null","","","","","","",""
"null","","image-keyboard-response","201","324310","0.0-4.0-0.54","","img/red.png","null","trial","null","true","0.2,0.8","2:nogo_b","",""
"null","","html-keyboard-response","202","325311","0.0-4.0-1.54","","<img src=""img/red-r.png"">","null","trial","null","","0.2,0.8","2:nogo_b","1",""
"null","","html-keyboard-response","203","326312","0.0-4.0-2.54","","<div style=""font-size:60px;"">+</div>","null","","","","","","",""
"628.805000014836","","image-keyboard-response","204","326942","0.0-4.0-0.55","","img/pink.png","32","trial","32","true","0.8,0.2","1:go_a","",""
"null","","html-keyboard-response","205","327943","0.0-4.0-1.55","","<img src=""img/pink-n.png"" border=""10"">","null","trial","32","","0.8,0.2","1:go_a","0",""
"null","","html-keyboard-response","206","328945","0.0-4.0-2.55","","<div style=""font-size:60px;"">+</div>","null","","","","","","",""
"948.4250000095926","","image-keyboard-response","207","329893","0.0-4.0-0.56","","img/pink.png","32","trial","32","true","0.8,0.2","1:go_a","",""
"null","","html-keyboard-response","208","330896","0.0-4.0-1.56","","<img src=""img/pink-r.png"" border=""10"">","null","trial","32","","0.8,0.2","1:go_a","1",""
"null","","html-keyboard-response","209","331897","0.0-4.0-2.56","","<div style=""font-size:60px;"">+</div>","null","","","","","","",""
"701.0799999989104","","image-keyboard-response","210","332598","0.0-4.0-0.57","","img/red.png","32","trial","null","false","0.2,0.8","2:nogo_b","",""
"null","","html-keyboard-response","211","333602","0.0-4.0-1.57","","<img src=""img/red-n.png"" border=""10"">","null","trial","null","","0.2,0.8","2:nogo_b","0",""
"null","","html-keyboard-response","212","334604","0.0-4.0-2.57","","<div style=""font-size:60px;"">+</div>","null","","","","","","",""
"760.920000000624","","image-keyboard-response","213","335365","0.0-4.0-0.58","","img/red.png","32","trial","null","false","0.2,0.8","2:nogo_b","",""
"null","","html-keyboard-response","214","336367","0.0-4.0-1.58","","<img src=""img/red-n.png"" border=""10"">","null","trial","null","","0.2,0.8","2:nogo_b","0",""
"null","","html-keyboard-response","215","337368","0.0-4.0-2.58","","<div style=""font-size:60px;"">+</div>","null","","","","","","",""
"852.7450000110548","","image-keyboard-response","216","338221","0.0-4.0-0.59","","img/pink.png","32","trial","32","true","0.8,0.2","1:go_a","",""
"null","","html-keyboard-response","217","339223","0.0-4.0-1.59","","<img src=""img/pink-n.png"" border=""10"">","null","trial","32","","0.8,0.2","1:go_a","0",""
"null","","html-keyboard-response","218","340224","0.0-4.0-2.59","","<div style=""font-size:60px;"">+</div>","null","","","","","","",""
"4333.904999977676","","instructions","219","344558","0.0-5.0","[{""page_index"":0,""viewing_time"":4333.779999986291}]","","","","","","","","",""
"null","","image-keyboard-response","220","346059","0.0-6.0-0.0","","img/orange.png","null","trial","32","false","1,0","3:go_c","",""
"null","","html-keyboard-response","221","347070","0.0-6.0-1.0","","<img src=""img/orange-n.png"">","null","trial","32","","1,0","3:go_c","0",""
"null","","html-keyboard-response","222","348070","0.0-6.0-2.0","","<div style=""font-size:60px;"">+</div>","null","","","","","","",""
"726.3800000073388","","image-keyboard-response","223","348797","0.0-6.0-0.1","","img/pink.png","32","trial","32","true","0.8,0.2","1:go_a","",""
"null","","html-keyboard-response","224","349798","0.0-6.0-1.1","","<img src=""img/pink-n.png"" border=""10"">","null","trial","32","","0.8,0.2","1:go_a","0",""
"null","","html-keyboard-response","225","350799","0.0-6.0-2.1","","<div style=""font-size:60px;"">+</div>","null","","","","","","",""
"677.1500000031665","","image-keyboard-response","226","351479","0.0-6.0-0.2","","img/red.png","32","trial","null","false","0.2,0.8","2:nogo_b","",""
"null","","html-keyboard-response","227","352488","0.0-6.0-1.2","","<img src=""img/red-n.png"" border=""10"">","null","trial","null","","0.2,0.8","2:nogo_b","0",""
"null","","html-keyboard-response","228","353489","0.0-6.0-2.2","","<div style=""font-size:60px;"">+</div>","null","","","","","","",""
"805.1550000091083","","image-keyboard-response","229","354295","0.0-6.0-0.3","","img/purple.png","32","trial","null","false","0,1","4:nogo_d","",""
"null","","html-keyboard-response","230","355296","0.0-6.0-1.3","","<img src=""img/purple-n.png"" border=""10"">","null","trial","null","","0,1","4:nogo_d","0",""
"null","","html-keyboard-response","231","356297","0.0-6.0-2.3","","<div style=""font-size:60px;"">+</div>","null","","","","","","",""
"909.4350000086706","","image-keyboard-response","232","357207","0.0-6.0-0.4","","img/red.png","32","trial","null","false","0.2,0.8","2:nogo_b","",""
"null","","html-keyboard-response","233","358209","0.0-6.0-1.4","","<img src=""img/red-n.png"" border=""10"">","null","trial","null","","0.2,0.8","2:nogo_b","0",""
"null","","html-keyboard-response","234","359210","0.0-6.0-2.4","","<div style=""font-size:60px;"">+</div>","null","","","","","","",""
"null","","image-keyboard-response","235","360711","0.0-6.0-0.5","","img/pink.png","null","trial","32","false","0.8,0.2","1:go_a","",""
"null","","html-keyboard-response","236","361760","0.0-6.0-1.5","","<img src=""img/pink-n.png"">","null","trial","32","","0.8,0.2","1:go_a","0",""
"null","","html-keyboard-response","237","362760","0.0-6.0-2.5","","<div style=""font-size:60px;"">+</div>","null","","","","","","",""
"null","","image-keyboard-response","238","364261","0.0-6.0-0.6","","img/purple.png","null","trial","null","true","0,1","4:nogo_d","",""
"null","","html-keyboard-response","239","365264","0.0-6.0-1.6","","<img src=""img/purple-r.png"">","null","trial","null","","0,1","4:nogo_d","1",""
"null","","html-keyboard-response","240","366264","0.0-6.0-2.6","","<div style=""font-size:60px;"">+</div>","null","","","","","","",""
"885.2750000078231","","image-keyboard-response","241","367150","0.0-6.0-0.7","","img/orange.png","32","trial","32","true","1,0","3:go_c","",""
"null","","html-keyboard-response","242","368151","0.0-6.0-1.7","","<img src=""img/orange-r.png"" border=""10"">","null","trial","32","","1,0","3:go_c","1",""
"null","","html-keyboard-response","243","369152","0.0-6.0-2.7","","<div style=""font-size:60px;"">+</div>","null","","","","","","",""
"null","","image-keyboard-response","244","370653","0.0-6.0-0.8","","img/red.png","null","trial","null","true","0.2,0.8","2:nogo_b","",""
"null","","html-keyboard-response","245","371656","0.0-6.0-1.8","","<img src=""img/red-r.png"">","null","trial","null","","0.2,0.8","2:nogo_b","1",""
"null","","html-keyboard-response","246","372657","0.0-6.0-2.8","","<div style=""font-size:60px;"">+</div>","null","","","","","","",""
"null","","image-keyboard-response","247","374158","0.0-6.0-0.9","","img/pink.png","null","trial","32","false","0.8,0.2","1:go_a","",""
"null","","html-keyboard-response","248","375160","0.0-6.0-1.9","","<img src=""img/pink-n.png"">","null","trial","32","","0.8,0.2","1:go_a","0",""
"null","","html-keyboard-response","249","376161","0.0-6.0-2.9","","<div style=""font-size:60px;"">+</div>","null","","","","","","",""
"549.2799999774434","","image-keyboard-response","250","376711","0.0-6.0-0.10","","img/purple.png","32","trial","null","false","0,1","4:nogo_d","",""
"null","","html-keyboard-response","251","377713","0.0-6.0-1.10","","<img src=""img/purple-n.png"" border=""10"">","null","trial","null","","0,1","4:nogo_d","0",""
"null","","html-keyboard-response","252","378714","0.0-6.0-2.10","","<div style=""font-size:60px;"">+</div>","null","","","","","","",""
"715.6700000050478","","image-keyboard-response","253","379430","0.0-6.0-0.11","","img/orange.png","32","trial","32","true","1,0","3:go_c","",""
"null","","html-keyboard-response","254","380432","0.0-6.0-1.11","","<img src=""img/orange-r.png"" border=""10"">","null","trial","32","","1,0","3:go_c","1",""
"null","","html-keyboard-response","255","381433","0.0-6.0-2.11","","<div style=""font-size:60px;"">+</div>","null","","","","","","",""
"868.1649999925867","","image-keyboard-response","256","382302","0.0-6.0-0.12","","img/red.png","32","trial","null","false","0.2,0.8","2:nogo_b","",""
"null","","html-keyboard-response","257","383304","0.0-6.0-1.12","","<img src=""img/red-n.png"" border=""10"">","null","trial","null","","0.2,0.8","2:nogo_b","0",""
"null","","html-keyboard-response","258","384304","0.0-6.0-2.12","","<div style=""font-size:60px;"">+</div>","null","","","","","","",""
"957.2299999999814","","image-keyboard-response","259","385262","0.0-6.0-0.13","","img/orange.png","32","trial","32","true","1,0","3:go_c","",""
"null","","html-keyboard-response","260","386264","0.0-6.0-1.13","","<img src=""img/orange-r.png"" border=""10"">","null","trial","32","","1,0","3:go_c","1",""
"null","","html-keyboard-response","261","387351","0.0-6.0-2.13","","<div style=""font-size:60px;"">+</div>","null","","","","","","",""
"null","","image-keyboard-response","262","388853","0.0-6.0-0.14","","img/pink.png","null","trial","32","false","0.8,0.2","1:go_a","",""
"null","","html-keyboard-response","263","389855","0.0-6.0-1.14","","<img src=""img/pink-n.png"">","null","trial","32","","0.8,0.2","1:go_a","0",""
"null","","html-keyboard-response","264","390856","0.0-6.0-2.14","","<div style=""font-size:60px;"">+</div>","null","","","","","","",""
"877.2699999972247","","image-keyboard-response","265","391734","0.0-6.0-0.15","","img/purple.png","32","trial","null","false","0,1","4:nogo_d","",""
"null","","html-keyboard-response","266","392736","0.0-6.0-1.15","","<img src=""img/purple-n.png"" border=""10"">","null","trial","null","","0,1","4:nogo_d","0",""
"null","","html-keyboard-response","267","393737","0.0-6.0-2.15","","<div style=""font-size:60px;"">+</div>","null","","","","","","",""
"null","","image-keyboard-response","268","395238","0.0-6.0-0.16","","img/pink.png","null","trial","32","false","0.8,0.2","1:go_a","",""
"null","","html-keyboard-response","269","396240","0.0-6.0-1.16","","<img src=""img/pink-r.png"">","null","trial","32","","0.8,0.2","1:go_a","1",""
"null","","html-keyboard-response","270","397240","0.0-6.0-2.16","","<div style=""font-size:60px;"">+</div>","null","","","","","","",""
"null","","image-keyboard-response","271","398741","0.0-6.0-0.17","","img/red.png","null","trial","null","true","0.2,0.8","2:nogo_b","",""
"null","","html-keyboard-response","272","399743","0.0-6.0-1.17","","<img src=""img/red-n.png"">","null","trial","null","","0.2,0.8","2:nogo_b","0",""
"null","","html-keyboard-response","273","400745","0.0-6.0-2.17","","<div style=""font-size:60px;"">+</div>","null","","","","","","",""
"571.7349999758881","","image-keyboard-response","274","401318","0.0-6.0-0.18","","img/orange.png","32","trial","32","true","1,0","3:go_c","",""
"null","","html-keyboard-response","275","402319","0.0-6.0-1.18","","<img src=""img/orange-r.png"" border=""10"">","null","trial","32","","1,0","3:go_c","1",""
"null","","html-keyboard-response","276","403320","0.0-6.0-2.18","","<div style=""font-size:60px;"">+</div>","null","","","","","","",""
"null","","image-keyboard-response","277","404821","0.0-6.0-0.19","","img/purple.png","null","trial","null","true","0,1","4:nogo_d","",""
"null","","html-keyboard-response","278","405822","0.0-6.0-1.19","","<img src=""img/purple-r.png"">","null","trial","null","","0,1","4:nogo_d","1",""
"null","","html-keyboard-response","279","406824","0.0-6.0-2.19","","<div style=""font-size:60px;"">+</div>","null","","","","","","",""
"845.5700000049546","","image-keyboard-response","280","407670","0.0-6.0-0.20","","img/red.png","32","trial","null","false","0.2,0.8","2:nogo_b","",""
"null","","html-keyboard-response","281","408672","0.0-6.0-1.20","","<img src=""img/red-n.png"" border=""10"">","null","trial","null","","0.2,0.8","2:nogo_b","0",""
"null","","html-keyboard-response","282","409673","0.0-6.0-2.20","","<div style=""font-size:60px;"">+</div>","null","","","","","","",""
"843.4499999857508","","image-keyboard-response","283","410517","0.0-6.0-0.21","","img/orange.png","32","trial","32","true","1,0","3:go_c","",""
"null","","html-keyboard-response","284","411520","0.0-6.0-1.21","","<img src=""img/orange-r.png"" border=""10"">","null","trial","32","","1,0","3:go_c","1",""
"null","","html-keyboard-response","285","412521","0.0-6.0-2.21","","<div style=""font-size:60px;"">+</div>","null","","","","","","",""
"1236.9799999869429","","image-keyboard-response","286","413759","0.0-6.0-0.22","","img/pink.png","32","trial","32","true","0.8,0.2","1:go_a","",""
"null","","html-keyboard-response","287","414760","0.0-6.0-1.22","","<img src=""img/pink-r.png"" border=""10"">","null","trial","32","","0.8,0.2","1:go_a","1",""
"null","","html-keyboard-response","288","415761","0.0-6.0-2.22","","<div style=""font-size:60px;"">+</div>","null","","","","","","",""
"null","","image-keyboard-response","289","417262","0.0-6.0-0.23","","img/purple.png","null","trial","null","true","0,1","4:nogo_d","",""
"null","","html-keyboard-response","290","418264","0.0-6.0-1.23","","<img src=""img/purple-r.png"">","null","trial","null","","0,1","4:nogo_d","1",""
"null","","html-keyboard-response","291","419265","0.0-6.0-2.23","","<div style=""font-size:60px;"">+</div>","null","","","","","","",""
"668.6549999867566","","image-keyboard-response","292","419935","0.0-6.0-0.24","","img/pink.png","32","trial","32","true","0.8,0.2","1:go_a","",""
"null","","html-keyboard-response","293","420936","0.0-6.0-1.24","","<img src=""img/pink-r.png"" border=""10"">","null","trial","32","","0.8,0.2","1:go_a","1",""
"null","","html-keyboard-response","294","421938","0.0-6.0-2.24","","<div style=""font-size:60px;"">+</div>","null","","","","","","",""
"null","","image-keyboard-response","295","423439","0.0-6.0-0.25","","img/red.png","null","trial","null","true","0.2,0.8","2:nogo_b","",""
"null","","html-keyboard-response","296","424441","0.0-6.0-1.25","","<img src=""img/red-n.png"">","null","trial","null","","0.2,0.8","2:nogo_b","0",""
"null","","html-keyboard-response","297","425441","0.0-6.0-2.25","","<div style=""font-size:60px;"">+</div>","null","","","","","","",""
"828.3949999895412","","image-keyboard-response","298","426270","0.0-6.0-0.26","","img/purple.png","32","trial","null","false","0,1","4:nogo_d","",""
"null","","html-keyboard-response","299","427272","0.0-6.0-1.26","","<img src=""img/purple-n.png"" border=""10"">","null","trial","null","","0,1","4:nogo_d","0",""
"null","","html-keyboard-response","300","428273","0.0-6.0-2.26","","<div style=""font-size:60px;"">+</div>","null","","","","","","",""
"676.3500000233762","","image-keyboard-response","301","428950","0.0-6.0-0.27","","img/orange.png","32","trial","32","true","1,0","3:go_c","",""
"null","","html-keyboard-response","302","429952","0.0-6.0-1.27","","<img src=""img/orange-r.png"" border=""10"">","null","trial","32","","1,0","3:go_c","1",""
"null","","html-keyboard-response","303","430954","0.0-6.0-2.27","","<div style=""font-size:60px;"">+</div>","null","","","","","","",""
"1107.9400000162423","","image-keyboard-response","304","432062","0.0-6.0-0.28","","img/purple.png","32","trial","null","false","0,1","4:nogo_d","",""
"null","","html-keyboard-response","305","433065","0.0-6.0-1.28","","<img src=""img/purple-n.png"" border=""10"">","null","trial","null","","0,1","4:nogo_d","0",""
"null","","html-keyboard-response","306","434069","0.0-6.0-2.28","","<div style=""font-size:60px;"">+</div>","null","","","","","","",""
"728.6700000113342","","image-keyboard-response","307","434798","0.0-6.0-0.29","","img/pink.png","32","trial","32","true","0.8,0.2","1:go_a","",""
"null","","html-keyboard-response","308","435800","0.0-6.0-1.29","","<img src=""img/pink-r.png"" border=""10"">","null","trial","32","","0.8,0.2","1:go_a","1",""
"null","","html-keyboard-response","309","436802","0.0-6.0-2.29","","<div style=""font-size:60px;"">+</div>","null","","","","","","",""
"699.4499999855179","","image-keyboard-response","310","437502","0.0-6.0-0.30","","img/orange.png","32","trial","32","true","1,0","3:go_c","",""
"null","","html-keyboard-response","311","438503","0.0-6.0-1.30","","<img src=""img/orange-r.png"" border=""10"">","null","trial","32","","1,0","3:go_c","1",""
"null","","html-keyboard-response","312","439504","0.0-6.0-2.30","","<div style=""font-size:60px;"">+</div>","null","","","","","","",""
"null","","image-keyboard-response","313","441005","0.0-6.0-0.31","","img/red.png","null","trial","null","true","0.2,0.8","2:nogo_b","",""
"null","","html-keyboard-response","314","442007","0.0-6.0-1.31","","<img src=""img/red-r.png"">","null","trial","null","","0.2,0.8","2:nogo_b","1",""
"null","","html-keyboard-response","315","443008","0.0-6.0-2.31","","<div style=""font-size:60px;"">+</div>","null","","","","","","",""
"725.1350000151433","","image-keyboard-response","316","443734","0.0-6.0-0.32","","img/orange.png","32","trial","32","true","1,0","3:go_c","",""
"null","","html-keyboard-response","317","444735","0.0-6.0-1.32","","<img src=""img/orange-r.png"" border=""10"">","null","trial","32","","1,0","3:go_c","1",""
"null","","html-keyboard-response","318","445736","0.0-6.0-2.32","","<div style=""font-size:60px;"">+</div>","null","","","","","","",""
"null","","image-keyboard-response","319","447238","0.0-6.0-0.33","","img/purple.png","null","trial","null","true","0,1","4:nogo_d","",""
"null","","html-keyboard-response","320","448240","0.0-6.0-1.33","","<img src=""img/purple-r.png"">","null","trial","null","","0,1","4:nogo_d","1",""
"null","","html-keyboard-response","321","449241","0.0-6.0-2.33","","<div style=""font-size:60px;"">+</div>","null","","","","","","",""
"771.5150000003632","","image-keyboard-response","322","450013","0.0-6.0-0.34","","img/pink.png","32","trial","32","true","0.8,0.2","1:go_a","",""
"null","","html-keyboard-response","323","451015","0.0-6.0-1.34","","<img src=""img/pink-r.png"" border=""10"">","null","trial","32","","0.8,0.2","1:go_a","1",""
"null","","html-keyboard-response","324","452016","0.0-6.0-2.34","","<div style=""font-size:60px;"">+</div>","null","","","","","","",""
"null","","image-keyboard-response","325","453517","0.0-6.0-0.35","","img/red.png","null","trial","null","true","0.2,0.8","2:nogo_b","",""
"null","","html-keyboard-response","326","454519","0.0-6.0-1.35","","<img src=""img/red-r.png"">","null","trial","null","","0.2,0.8","2:nogo_b","1",""
"null","","html-keyboard-response","327","455519","0.0-6.0-2.35","","<div style=""font-size:60px;"">+</div>","null","","","","","","",""
"837.9600000043865","","image-keyboard-response","328","456358","0.0-6.0-0.36","","img/purple.png","32","trial","null","false","0,1","4:nogo_d","",""
"null","","html-keyboard-response","329","457360","0.0-6.0-1.36","","<img src=""img/purple-n.png"" border=""10"">","null","trial","null","","0,1","4:nogo_d","0",""
"null","","html-keyboard-response","330","458362","0.0-6.0-2.36","","<div style=""font-size:60px;"">+</div>","null","","","","","","",""
"null","","image-keyboard-response","331","459863","0.0-6.0-0.37","","img/red.png","null","trial","null","true","0.2,0.8","2:nogo_b","",""
"null","","html-keyboard-response","332","460864","0.0-6.0-1.37","","<img src=""img/red-n.png"">","null","trial","null","","0.2,0.8","2:nogo_b","0",""
"null","","html-keyboard-response","333","461865","0.0-6.0-2.37","","<div style=""font-size:60px;"">+</div>","null","","","","","","",""
"596.1050000041723","","image-keyboard-response","334","462462","0.0-6.0-0.38","","img/pink.png","32","trial","32","true","0.8,0.2","1:go_a","",""
"null","","html-keyboard-response","335","463464","0.0-6.0-1.38","","<img src=""img/pink-r.png"" border=""10"">","null","trial","32","","0.8,0.2","1:go_a","1",""
"null","","html-keyboard-response","336","464465","0.0-6.0-2.38","","<div style=""font-size:60px;"">+</div>","null","","","","","","",""
"587.7999999793246","","image-keyboard-response","337","465053","0.0-6.0-0.39","","img/orange.png","32","trial","32","true","1,0","3:go_c","",""
"null","","html-keyboard-response","338","466055","0.0-6.0-1.39","","<img src=""img/orange-r.png"" border=""10"">","null","trial","32","","1,0","3:go_c","1",""
"null","","html-keyboard-response","339","467056","0.0-6.0-2.39","","<div style=""font-size:60px;"">+</div>","null","","","","","","",""
"692.7850000211038","","image-keyboard-response","340","467749","0.0-6.0-0.40","","img/orange.png","32","trial","32","true","1,0","3:go_c","",""
"null","","html-keyboard-response","341","468751","0.0-6.0-1.40","","<img src=""img/orange-r.png"" border=""10"">","null","trial","32","","1,0","3:go_c","1",""
"null","","html-keyboard-response","342","469752","0.0-6.0-2.40","","<div style=""font-size:60px;"">+</div>","null","","","","","","",""
"924.1749999928288","","image-keyboard-response","343","470677","0.0-6.0-0.41","","img/pink.png","32","trial","32","true","0.8,0.2","1:go_a","",""
"null","","html-keyboard-response","344","471680","0.0-6.0-1.41","","<img src=""img/pink-r.png"" border=""10"">","null","trial","32","","0.8,0.2","1:go_a","1",""
"null","","html-keyboard-response","345","472681","0.0-6.0-2.41","","<div style=""font-size:60px;"">+</div>","null","","","","","","",""
"null","","image-keyboard-response","346","474182","0.0-6.0-0.42","","img/red.png","null","trial","null","true","0.2,0.8","2:nogo_b","",""
"null","","html-keyboard-response","347","475184","0.0-6.0-1.42","","<img src=""img/red-r.png"">","null","trial","null","","0.2,0.8","2:nogo_b","1",""
"null","","html-keyboard-response","348","476185","0.0-6.0-2.42","","<div style=""font-size:60px;"">+</div>","null","","","","","","",""
"1013.1949999777135","","image-keyboard-response","349","477199","0.0-6.0-0.43","","img/purple.png","32","trial","null","false","0,1","4:nogo_d","",""
"null","","html-keyboard-response","350","478204","0.0-6.0-1.43","","<img src=""img/purple-n.png"" border=""10"">","null","trial","null","","0,1","4:nogo_d","0",""
"null","","html-keyboard-response","351","479204","0.0-6.0-2.43","","<div style=""font-size:60px;"">+</div>","null","","","","","","",""
"null","","image-keyboard-response","352","480705","0.0-6.0-0.44","","img/purple.png","null","trial","null","true","0,1","4:nogo_d","",""
"null","","html-keyboard-response","353","481706","0.0-6.0-1.44","","<img src=""img/purple-r.png"">","null","trial","null","","0,1","4:nogo_d","1",""
"null","","html-keyboard-response","354","482707","0.0-6.0-2.44","","<div style=""font-size:60px;"">+</div>","null","","","","","","",""
"651.2799999909475","","image-keyboard-response","355","483359","0.0-6.0-0.45","","img/pink.png","32","trial","32","true","0.8,0.2","1:go_a","",""
"null","","html-keyboard-response","356","484360","0.0-6.0-1.45","","<img src=""img/pink-r.png"" border=""10"">","null","trial","32","","0.8,0.2","1:go_a","1",""
"null","","html-keyboard-response","357","485361","0.0-6.0-2.45","","<div style=""font-size:60px;"">+</div>","null","","","","","","",""
"null","","image-keyboard-response","358","486862","0.0-6.0-0.46","","img/red.png","null","trial","null","true","0.2,0.8","2:nogo_b","",""
"null","","html-keyboard-response","359","487864","0.0-6.0-1.46","","<img src=""img/red-r.png"">","null","trial","null","","0.2,0.8","2:nogo_b","1",""
"null","","html-keyboard-response","360","488865","0.0-6.0-2.46","","<div style=""font-size:60px;"">+</div>","null","","","","","","",""
"716.7799999879207","","image-keyboard-response","361","489583","0.0-6.0-0.47","","img/orange.png","32","trial","32","true","1,0","3:go_c","",""
"null","","html-keyboard-response","362","490584","0.0-6.0-1.47","","<img src=""img/orange-r.png"" border=""10"">","null","trial","32","","1,0","3:go_c","1",""
"null","","html-keyboard-response","363","491585","0.0-6.0-2.47","","<div style=""font-size:60px;"">+</div>","null","","","","","","",""
"842.384999996284","","image-keyboard-response","364","492430","0.0-6.0-0.48","","img/orange.png","32","trial","32","true","1,0","3:go_c","",""
"null","","html-keyboard-response","365","493431","0.0-6.0-1.48","","<img src=""img/orange-r.png"" border=""10"">","null","trial","32","","1,0","3:go_c","1",""
"null","","html-keyboard-response","366","494432","0.0-6.0-2.48","","<div style=""font-size:60px;"">+</div>","null","","","","","","",""
"893.8300000154413","","image-keyboard-response","367","495327","0.0-6.0-0.49","","img/pink.png","32","trial","32","true","0.8,0.2","1:go_a","",""
"null","","html-keyboard-response","368","496329","0.0-6.0-1.49","","<img src=""img/pink-r.png"" border=""10"">","null","trial","32","","0.8,0.2","1:go_a","1",""
"null","","html-keyboard-response","369","497334","0.0-6.0-2.49","","<div style=""font-size:60px;"">+</div>","null","","","","","","",""
"null","","image-keyboard-response","370","498835","0.0-6.0-0.50","","img/red.png","null","trial","null","true","0.2,0.8","2:nogo_b","",""
"null","","html-keyboard-response","371","499836","0.0-6.0-1.50","","<img src=""img/red-n.png"">","null","trial","null","","0.2,0.8","2:nogo_b","0",""
"null","","html-keyboard-response","372","500837","0.0-6.0-2.50","","<div style=""font-size:60px;"">+</div>","null","","","","","","",""
"712.9450000065845","","image-keyboard-response","373","501550","0.0-6.0-0.51","","img/purple.png","32","trial","null","false","0,1","4:nogo_d","",""
"null","","html-keyboard-response","374","502552","0.0-6.0-1.51","","<img src=""img/purple-n.png"" border=""10"">","null","trial","null","","0,1","4:nogo_d","0",""
"null","","html-keyboard-response","375","503553","0.0-6.0-2.51","","<div style=""font-size:60px;"">+</div>","null","","","","","","",""
"652.4649999919347","","image-keyboard-response","376","504206","0.0-6.0-0.52","","img/orange.png","32","trial","32","true","1,0","3:go_c","",""
"null","","html-keyboard-response","377","505208","0.0-6.0-1.52","","<img src=""img/orange-r.png"" border=""10"">","null","trial","32","","1,0","3:go_c","1",""
"null","","html-keyboard-response","378","506209","0.0-6.0-2.52","","<div style=""font-size:60px;"">+</div>","null","","","","","","",""
"828.9299999887589","","image-keyboard-response","379","507038","0.0-6.0-0.53","","img/pink.png","32","trial","32","true","0.8,0.2","1:go_a","",""
"null","","html-keyboard-response","380","508040","0.0-6.0-1.53","","<img src=""img/pink-r.png"" border=""10"">","null","trial","32","","0.8,0.2","1:go_a","1",""
"null","","html-keyboard-response","381","509041","0.0-6.0-2.53","","<div style=""font-size:60px;"">+</div>","null","","","","","","",""
"null","","image-keyboard-response","382","510549","0.0-6.0-0.54","","img/red.png","null","trial","null","true","0.2,0.8","2:nogo_b","",""
"null","","html-keyboard-response","383","511551","0.0-6.0-1.54","","<img src=""img/red-r.png"">","null","trial","null","","0.2,0.8","2:nogo_b","1",""
"null","","html-keyboard-response","384","512552","0.0-6.0-2.54","","<div style=""font-size:60px;"">+</div>","null","","","","","","",""
"980.9450000175275","","image-keyboard-response","385","513534","0.0-6.0-0.55","","img/purple.png","32","trial","null","false","0,1","4:nogo_d","",""
"null","","html-keyboard-response","386","514535","0.0-6.0-1.55","","<img src=""img/purple-n.png"" border=""10"">","null","trial","null","","0,1","4:nogo_d","0",""
"null","","html-keyboard-response","387","515536","0.0-6.0-2.55","","<div style=""font-size:60px;"">+</div>","null","","","","","","",""
"652.6799999992363","","image-keyboard-response","388","516189","0.0-6.0-0.56","","img/pink.png","32","trial","32","true","0.8,0.2","1:go_a","",""
"null","","html-keyboard-response","389","517192","0.0-6.0-1.56","","<img src=""img/pink-r.png"" border=""10"">","null","trial","32","","0.8,0.2","1:go_a","1",""
"null","","html-keyboard-response","390","518193","0.0-6.0-2.56","","<div style=""font-size:60px;"">+</div>","null","","","","","","",""
"null","","image-keyboard-response","391","519694","0.0-6.0-0.57","","img/red.png","null","trial","null","true","0.2,0.8","2:nogo_b","",""
"null","","html-keyboard-response","392","520696","0.0-6.0-1.57","","<img src=""img/red-r.png"">","null","trial","null","","0.2,0.8","2:nogo_b","1",""
"null","","html-keyboard-response","393","521698","0.0-6.0-2.57","","<div style=""font-size:60px;"">+</div>","null","","","","","","",""
"null","","image-keyboard-response","394","523201","0.0-6.0-0.58","","img/purple.png","null","trial","null","true","0,1","4:nogo_d","",""
"null","","html-keyboard-response","395","524203","0.0-6.0-1.58","","<img src=""img/purple-r.png"">","null","trial","null","","0,1","4:nogo_d","1",""
"null","","html-keyboard-response","396","525205","0.0-6.0-2.58","","<div style=""font-size:60px;"">+</div>","null","","","","","","",""
"600.494999991497","","image-keyboard-response","397","525806","0.0-6.0-0.59","","img/orange.png","32","trial","32","true","1,0","3:go_c","",""
"null","","html-keyboard-response","398","526807","0.0-6.0-1.59","","<img src=""img/orange-r.png"" border=""10"">","null","trial","32","","1,0","3:go_c","1",""
"null","","html-keyboard-response","399","527808","0.0-6.0-2.59","","<div style=""font-size:60px;"">+</div>","null","","","","","","",""
"580.4649999772664","","image-keyboard-response","400","528390","0.0-6.0-0.60","","img/orange.png","32","trial","32","true","1,0","3:go_c","",""
"null","","html-keyboard-response","401","529392","0.0-6.0-1.60","","<img src=""img/orange-r.png"" border=""10"">","null","trial","32","","1,0","3:go_c","1",""
"null","","html-keyboard-response","402","530393","0.0-6.0-2.60","","<div style=""font-size:60px;"">+</div>","null","","","","","","",""
"1076.1099999945145","","image-keyboard-response","403","531469","0.0-6.0-0.61","","img/purple.png","32","trial","null","false","0,1","4:nogo_d","",""
"null","","html-keyboard-response","404","532472","0.0-6.0-1.61","","<img src=""img/purple-n.png"" border=""10"">","null","trial","null","","0,1","4:nogo_d","0",""
"null","","html-keyboard-response","405","533473","0.0-6.0-2.61","","<div style=""font-size:60px;"">+</div>","null","","","","","","",""
"null","","image-keyboard-response","406","534974","0.0-6.0-0.62","","img/red.png","null","trial","null","true","0.2,0.8","2:nogo_b","",""
"null","","html-keyboard-response","407","535975","0.0-6.0-1.62","","<img src=""img/red-r.png"">","null","trial","null","","0.2,0.8","2:nogo_b","1",""
"null","","html-keyboard-response","408","536976","0.0-6.0-2.62","","<div style=""font-size:60px;"">+</div>","null","","","","","","",""
"685.7350000063889","","image-keyboard-response","409","537663","0.0-6.0-0.63","","img/pink.png","32","trial","32","true","0.8,0.2","1:go_a","",""
"null","","html-keyboard-response","410","538664","0.0-6.0-1.63","","<img src=""img/pink-r.png"" border=""10"">","null","trial","32","","0.8,0.2","1:go_a","1",""
"null","","html-keyboard-response","411","539665","0.0-6.0-2.63","","<div style=""font-size:60px;"">+</div>","null","","","","","","",""
"1156.4849999849685","","image-keyboard-response","412","540823","0.0-6.0-0.64","","img/purple.png","32","trial","null","false","0,1","4:nogo_d","",""
"null","","html-keyboard-response","413","541824","0.0-6.0-1.64","","<img src=""img/purple-n.png"" border=""10"">","null","trial","null","","0,1","4:nogo_d","0",""
"null","","html-keyboard-response","414","542826","0.0-6.0-2.64","","<div style=""font-size:60px;"">+</div>","null","","","","","","",""
"740.365000005113","","image-keyboard-response","415","543566","0.0-6.0-0.65","","img/pink.png","32","trial","32","true","0.8,0.2","1:go_a","",""
"null","","html-keyboard-response","416","544568","0.0-6.0-1.65","","<img src=""img/pink-n.png"" border=""10"">","null","trial","32","","0.8,0.2","1:go_a","0",""
"null","","html-keyboard-response","417","545571","0.0-6.0-2.65","","<div style=""font-size:60px;"">+</div>","null","","","","","","",""
"null","","image-keyboard-response","418","547073","0.0-6.0-0.66","","img/red.png","null","trial","null","true","0.2,0.8","2:nogo_b","",""
"null","","html-keyboard-response","419","548075","0.0-6.0-1.66","","<img src=""img/red-n.png"">","null","trial","null","","0.2,0.8","2:nogo_b","0",""
"null","","html-keyboard-response","420","549076","0.0-6.0-2.66","","<div style=""font-size:60px;"">+</div>","null","","","","","","",""
"650.2049999835435","","image-keyboard-response","421","549727","0.0-6.0-0.67","","img/orange.png","32","trial","32","true","1,0","3:go_c","",""
"null","","html-keyboard-response","422","550728","0.0-6.0-1.67","","<img src=""img/orange-r.png"" border=""10"">","null","trial","32","","1,0","3:go_c","1",""
"null","","html-keyboard-response","423","551729","0.0-6.0-2.67","","<div style=""font-size:60px;"">+</div>","null","","","","","","",""
"796.8399999954272","","image-keyboard-response","424","552526","0.0-6.0-0.68","","img/orange.png","32","trial","32","true","1,0","3:go_c","",""
"null","","html-keyboard-response","425","553528","0.0-6.0-1.68","","<img src=""img/orange-r.png"" border=""10"">","null","trial","32","","1,0","3:go_c","1",""
"null","","html-keyboard-response","426","554530","0.0-6.0-2.68","","<div style=""font-size:60px;"">+</div>","null","","","","","","",""
"null","","image-keyboard-response","427","556033","0.0-6.0-0.69","","img/red.png","null","trial","null","true","0.2,0.8","2:nogo_b","",""
"null","","html-keyboard-response","428","557034","0.0-6.0-1.69","","<img src=""img/red-r.png"">","null","trial","null","","0.2,0.8","2:nogo_b","1",""
"null","","html-keyboard-response","429","558035","0.0-6.0-2.69","","<div style=""font-size:60px;"">+</div>","null","","","","","","",""
"834.1899999941234","","image-keyboard-response","430","558870","0.0-6.0-0.70","","img/purple.png","32","trial","null","false","0,1","4:nogo_d","",""
"null","","html-keyboard-response","431","559872","0.0-6.0-1.70","","<img src=""img/purple-n.png"" border=""10"">","null","trial","null","","0,1","4:nogo_d","0",""
"null","","html-keyboard-response","432","560873","0.0-6.0-2.70","","<div style=""font-size:60px;"">+</div>","null","","","","","","",""
"756.6499999957159","","image-keyboard-response","433","561630","0.0-6.0-0.71","","img/pink.png","32","trial","32","true","0.8,0.2","1:go_a","",""
"null","","html-keyboard-response","434","562632","0.0-6.0-1.71","","<img src=""img/pink-r.png"" border=""10"">","null","trial","32","","0.8,0.2","1:go_a","1",""
"null","","html-keyboard-response","435","563633","0.0-6.0-2.71","","<div style=""font-size:60px;"">+</div>","null","","","","","","",""
"null","","image-keyboard-response","436","565134","0.0-6.0-0.72","","img/red.png","null","trial","null","true","0.2,0.8","2:nogo_b","",""
"null","","html-keyboard-response","437","566138","0.0-6.0-1.72","","<img src=""img/red-n.png"">","null","trial","null","","0.2,0.8","2:nogo_b","0",""
"null","","html-keyboard-response","438","567141","0.0-6.0-2.72","","<div style=""font-size:60px;"">+</div>","null","","","","","","",""
"null","","image-keyboard-response","439","568642","0.0-6.0-0.73","","img/purple.png","null","trial","null","true","0,1","4:nogo_d","",""
"null","","html-keyboard-response","440","569644","0.0-6.0-1.73","","<img src=""img/purple-r.png"">","null","trial","null","","0,1","4:nogo_d","1",""
"null","","html-keyboard-response","441","570644","0.0-6.0-2.73","","<div style=""font-size:60px;"">+</div>","null","","","","","","",""
"464.750000013737","","image-keyboard-response","442","571110","0.0-6.0-0.74","","img/orange.png","32","trial","32","true","1,0","3:go_c","",""
"null","","html-keyboard-response","443","572111","0.0-6.0-1.74","","<img src=""img/orange-r.png"" border=""10"">","null","trial","32","","1,0","3:go_c","1",""
"null","","html-keyboard-response","444","573113","0.0-6.0-2.74","","<div style=""font-size:60px;"">+</div>","null","","","","","","",""
"653.024999977788","","image-keyboard-response","445","573766","0.0-6.0-0.75","","img/pink.png","32","trial","32","true","0.8,0.2","1:go_a","",""
"null","","html-keyboard-response","446","574768","0.0-6.0-1.75","","<img src=""img/pink-n.png"" border=""10"">","null","trial","32","","0.8,0.2","1:go_a","0",""
"null","","html-keyboard-response","447","575769","0.0-6.0-2.75","","<div style=""font-size:60px;"">+</div>","null","","","","","","",""
"null","","image-keyboard-response","448","577271","0.0-6.0-0.76","","img/red.png","null","trial","null","true","0.2,0.8","2:nogo_b","",""
"null","","html-keyboard-response","449","578273","0.0-6.0-1.76","","<img src=""img/red-n.png"">","null","trial","null","","0.2,0.8","2:nogo_b","0",""
"null","","html-keyboard-response","450","579274","0.0-6.0-2.76","","<div style=""font-size:60px;"">+</div>","null","","","","","","",""
"675.0999999931082","","image-keyboard-response","451","579950","0.0-6.0-0.77","","img/orange.png","32","trial","32","true","1,0","3:go_c","",""
"null","","html-keyboard-response","452","580952","0.0-6.0-1.77","","<img src=""img/orange-r.png"" border=""10"">","null","trial","32","","1,0","3:go_c","1",""
"null","","html-keyboard-response","453","581953","0.0-6.0-2.77","","<div style=""font-size:60px;"">+</div>","null","","","","","","",""
"779.7950000094716","","image-keyboard-response","454","582734","0.0-6.0-0.78","","img/purple.png","32","trial","null","false","0,1","4:nogo_d","",""
"null","","html-keyboard-response","455","583736","0.0-6.0-1.78","","<img src=""img/purple-n.png"" border=""10"">","null","trial","null","","0,1","4:nogo_d","0",""
"null","","html-keyboard-response","456","584738","0.0-6.0-2.78","","<div style=""font-size:60px;"">+</div>","null","","","","","","",""
"619.5900000166148","","image-keyboard-response","457","585358","0.0-6.0-0.79","","img/pink.png","32","trial","32","true","0.8,0.2","1:go_a","",""
"null","","html-keyboard-response","458","586359","0.0-6.0-1.79","","<img src=""img/pink-r.png"" border=""10"">","null","trial","32","","0.8,0.2","1:go_a","1",""
"null","","html-keyboard-response","459","587360","0.0-6.0-2.79","","<div style=""font-size:60px;"">+</div>","null","","","","","","",""
"1068.814999976894","","image-keyboard-response","460","588429","0.0-6.0-0.80","","img/pink.png","32","trial","32","true","0.8,0.2","1:go_a","",""
"null","","html-keyboard-response","461","589431","0.0-6.0-1.80","","<img src=""img/pink-n.png"" border=""10"">","null","trial","32","","0.8,0.2","1:go_a","0",""
"null","","html-keyboard-response","462","590432","0.0-6.0-2.80","","<div style=""font-size:60px;"">+</div>","null","","","","","","",""
"null","","image-keyboard-response","463","591935","0.0-6.0-0.81","","img/red.png","null","trial","null","true","0.2,0.8","2:nogo_b","",""
"null","","html-keyboard-response","464","592939","0.0-6.0-1.81","","<img src=""img/red-r.png"">","null","trial","null","","0.2,0.8","2:nogo_b","1",""
"null","","html-keyboard-response","465","593939","0.0-6.0-2.81","","<div style=""font-size:60px;"">+</div>","null","","","","","","",""
"null","","image-keyboard-response","466","595440","0.0-6.0-0.82","","img/purple.png","null","trial","null","true","0,1","4:nogo_d","",""
"null","","html-keyboard-response","467","596443","0.0-6.0-1.82","","<img src=""img/purple-r.png"">","null","trial","null","","0,1","4:nogo_d","1",""
"null","","html-keyboard-response","468","597444","0.0-6.0-2.82","","<div style=""font-size:60px;"">+</div>","null","","","","","","",""
"594.6549999935087","","image-keyboard-response","469","598039","0.0-6.0-0.83","","img/orange.png","32","trial","32","true","1,0","3:go_c","",""
"null","","html-keyboard-response","470","599041","0.0-6.0-1.83","","<img src=""img/orange-r.png"" border=""10"">","null","trial","32","","1,0","3:go_c","1",""
"null","","html-keyboard-response","471","600042","0.0-6.0-2.83","","<div style=""font-size:60px;"">+</div>","null","","","","","","",""
"732.4650000082329","","image-keyboard-response","472","600775","0.0-6.0-0.84","","img/orange.png","32","trial","32","true","1,0","3:go_c","",""
"null","","html-keyboard-response","473","601776","0.0-6.0-1.84","","<img src=""img/orange-r.png"" border=""10"">","null","trial","32","","1,0","3:go_c","1",""
"null","","html-keyboard-response","474","602777","0.0-6.0-2.84","","<div style=""font-size:60px;"">+</div>","null","","","","","","",""
"980.8399999747053","","image-keyboard-response","475","603758","0.0-6.0-0.85","","img/pink.png","32","trial","32","true","0.8,0.2","1:go_a","",""
"null","","html-keyboard-response","476","604760","0.0-6.0-1.85","","<img src=""img/pink-r.png"" border=""10"">","null","trial","32","","0.8,0.2","1:go_a","1",""
"null","","html-keyboard-response","477","605761","0.0-6.0-2.85","","<div style=""font-size:60px;"">+</div>","null","","","","","","",""
"null","","image-keyboard-response","478","607263","0.0-6.0-0.86","","img/red.png","null","trial","null","true","0.2,0.8","2:nogo_b","",""
"null","","html-keyboard-response","479","608265","0.0-6.0-1.86","","<img src=""img/red-r.png"">","null","trial","null","","0.2,0.8","2:nogo_b","1",""
"null","","html-keyboard-response","480","609266","0.0-6.0-2.86","","<div style=""font-size:60px;"">+</div>","null","","","","","","",""
"null","","image-keyboard-response","481","610767","0.0-6.0-0.87","","img/purple.png","null","trial","null","true","0,1","4:nogo_d","",""
"null","","html-keyboard-response","482","611768","0.0-6.0-1.87","","<img src=""img/purple-r.png"">","null","trial","null","","0,1","4:nogo_d","1",""
"null","","html-keyboard-response","483","612769","0.0-6.0-2.87","","<div style=""font-size:60px;"">+</div>","null","","","","","","",""
"965.2150000038091","","image-keyboard-response","484","613735","0.0-6.0-0.88","","img/purple.png","32","trial","null","false","0,1","4:nogo_d","",""
"null","","html-keyboard-response","485","614738","0.0-6.0-1.88","","<img src=""img/purple-n.png"" border=""10"">","null","trial","null","","0,1","4:nogo_d","0",""
"null","","html-keyboard-response","486","615738","0.0-6.0-2.88","","<div style=""font-size:60px;"">+</div>","null","","","","","","",""
"739.4250000070315","","image-keyboard-response","487","616478","0.0-6.0-0.89","","img/pink.png","32","trial","32","true","0.8,0.2","1:go_a","",""
"null","","html-keyboard-response","488","617480","0.0-6.0-1.89","","<img src=""img/pink-r.png"" border=""10"">","null","trial","32","","0.8,0.2","1:go_a","1",""
"null","","html-keyboard-response","489","618482","0.0-6.0-2.89","","<div style=""font-size:60px;"">+</div>","null","","","","","","",""
"643.2550000026822","","image-keyboard-response","490","619126","0.0-6.0-0.90","","img/orange.png","32","trial","32","true","1,0","3:go_c","",""
"null","","html-keyboard-response","491","620127","0.0-6.0-1.90","","<img src=""img/orange-r.png"" border=""10"">","null","trial","32","","1,0","3:go_c","1",""
"null","","html-keyboard-response","492","621129","0.0-6.0-2.90","","<div style=""font-size:60px;"">+</div>","null","","","","","","",""
"null","","image-keyboard-response","493","622629","0.0-6.0-0.91","","img/red.png","null","trial","null","true","0.2,0.8","2:nogo_b","",""
"null","","html-keyboard-response","494","623632","0.0-6.0-1.91","","<img src=""img/red-r.png"">","null","trial","null","","0.2,0.8","2:nogo_b","1",""
"null","","html-keyboard-response","495","624633","0.0-6.0-2.91","","<div style=""font-size:60px;"">+</div>","null","","","","","","",""
"null","","image-keyboard-response","496","626134","0.0-6.0-0.92","","img/pink.png","null","trial","32","false","0.8,0.2","1:go_a","",""
"null","","html-keyboard-response","497","627136","0.0-6.0-1.92","","<img src=""img/pink-r.png"">","null","trial","32","","0.8,0.2","1:go_a","1",""
"null","","html-keyboard-response","498","628137","0.0-6.0-2.92","","<div style=""font-size:60px;"">+</div>","null","","","","","","",""
"null","","image-keyboard-response","499","629638","0.0-6.0-0.93","","img/red.png","null","trial","null","true","0.2,0.8","2:nogo_b","",""
"null","","html-keyboard-response","500","630639","0.0-6.0-1.93","","<img src=""img/red-r.png"">","null","trial","null","","0.2,0.8","2:nogo_b","1",""
"null","","html-keyboard-response","501","631640","0.0-6.0-2.93","","<div style=""font-size:60px;"">+</div>","null","","","","","","",""
"1069.5600000035483","","image-keyboard-response","502","632710","0.0-6.0-0.94","","img/purple.png","32","trial","null","false","0,1","4:nogo_d","",""
"null","","html-keyboard-response","503","633711","0.0-6.0-1.94","","<img src=""img/purple-n.png"" border=""10"">","null","trial","null","","0,1","4:nogo_d","0",""
"null","","html-keyboard-response","504","634712","0.0-6.0-2.94","","<div style=""font-size:60px;"">+</div>","null","","","","","","",""
"885.2049999986775","","image-keyboard-response","505","635597","0.0-6.0-0.95","","img/orange.png","32","trial","32","true","1,0","3:go_c","",""
"null","","html-keyboard-response","506","636599","0.0-6.0-1.95","","<img src=""img/orange-r.png"" border=""10"">","null","trial","32","","1,0","3:go_c","1",""
"null","","html-keyboard-response","507","637601","0.0-6.0-2.95","","<div style=""font-size:60px;"">+</div>","null","","","","","","",""
"948.4250000095926","","image-keyboard-response","508","638550","0.0-6.0-0.96","","img/pink.png","32","trial","32","true","0.8,0.2","1:go_a","",""
"null","","html-keyboard-response","509","639552","0.0-6.0-1.96","","<img src=""img/pink-r.png"" border=""10"">","null","trial","32","","0.8,0.2","1:go_a","1",""
"null","","html-keyboard-response","510","640553","0.0-6.0-2.96","","<div style=""font-size:60px;"">+</div>","null","","","","","","",""
"1276.1849999951664","","image-keyboard-response","511","641830","0.0-6.0-0.97","","img/red.png","32","trial","null","false","0.2,0.8","2:nogo_b","",""
"null","","html-keyboard-response","512","642833","0.0-6.0-1.97","","<img src=""img/red-n.png"" border=""10"">","null","trial","null","","0.2,0.8","2:nogo_b","0",""
"null","","html-keyboard-response","513","643834","0.0-6.0-2.97","","<div style=""font-size:60px;"">+</div>","null","","","","","","",""
"707.1049999794923","","image-keyboard-response","514","644542","0.0-6.0-0.98","","img/orange.png","32","trial","32","true","1,0","3:go_c","",""
"null","","html-keyboard-response","515","645543","0.0-6.0-1.98","","<img src=""img/orange-r.png"" border=""10"">","null","trial","32","","1,0","3:go_c","1",""
"null","","html-keyboard-response","516","646544","0.0-6.0-2.98","","<div style=""font-size:60px;"">+</div>","null","","","","","","",""
"null","","image-keyboard-response","517","648045","0.0-6.0-0.99","","img/purple.png","null","trial","null","true","0,1","4:nogo_d","",""
"null","","html-keyboard-response","518","649046","0.0-6.0-1.99","","<img src=""img/purple-r.png"">","null","trial","null","","0,1","4:nogo_d","1",""
"null","","html-keyboard-response","519","650047","0.0-6.0-2.99","","<div style=""font-size:60px;"">+</div>","null","","","","","","",""
"573.2199999911245","","image-keyboard-response","520","650621","0.0-6.0-0.100","","img/pink.png","32","trial","32","true","0.8,0.2","1:go_a","",""
"null","","html-keyboard-response","521","651622","0.0-6.0-1.100","","<img src=""img/pink-r.png"" border=""10"">","null","trial","32","","0.8,0.2","1:go_a","1",""
"null","","html-keyboard-response","522","652623","0.0-6.0-2.100","","<div style=""font-size:60px;"">+</div>","null","","","","","","",""
"805.3999999829102","","image-keyboard-response","523","653431","0.0-6.0-0.101","","img/orange.png","32","trial","32","true","1,0","3:go_c","",""
"null","","html-keyboard-response","524","654432","0.0-6.0-1.101","","<img src=""img/orange-r.png"" border=""10"">","null","trial","32","","1,0","3:go_c","1",""
"null","","html-keyboard-response","525","655433","0.0-6.0-2.101","","<div style=""font-size:60px;"">+</div>","null","","","","","","",""
"null","","image-keyboard-response","526","656934","0.0-6.0-0.102","","img/purple.png","null","trial","null","true","0,1","4:nogo_d","",""
"null","","html-keyboard-response","527","657936","0.0-6.0-1.102","","<img src=""img/purple-r.png"">","null","trial","null","","0,1","4:nogo_d","1",""
"null","","html-keyboard-response","528","658937","0.0-6.0-2.102","","<div style=""font-size:60px;"">+</div>","null","","","","","","",""
"null","","image-keyboard-response","529","660438","0.0-6.0-0.103","","img/red.png","null","trial","null","true","0.2,0.8","2:nogo_b","",""
"null","","html-keyboard-response","530","661440","0.0-6.0-1.103","","<img src=""img/red-r.png"">","null","trial","null","","0.2,0.8","2:nogo_b","1",""
"null","","html-keyboard-response","531","662441","0.0-6.0-2.103","","<div style=""font-size:60px;"">+</div>","null","","","","","","",""
"620.9349999844562","","image-keyboard-response","532","663063","0.0-6.0-0.104","","img/pink.png","32","trial","32","true","0.8,0.2","1:go_a","",""
"null","","html-keyboard-response","533","664064","0.0-6.0-1.104","","<img src=""img/pink-r.png"" border=""10"">","null","trial","32","","0.8,0.2","1:go_a","1",""
"null","","html-keyboard-response","534","665066","0.0-6.0-2.104","","<div style=""font-size:60px;"">+</div>","null","","","","","","",""
"612.6050000020768","","image-keyboard-response","535","665679","0.0-6.0-0.105","","img/orange.png","32","trial","32","true","1,0","3:go_c","",""
"null","","html-keyboard-response","536","666680","0.0-6.0-1.105","","<img src=""img/orange-r.png"" border=""10"">","null","trial","32","","1,0","3:go_c","1",""
"null","","html-keyboard-response","537","667682","0.0-6.0-2.105","","<div style=""font-size:60px;"">+</div>","null","","","","","","",""
"null","","image-keyboard-response","538","669183","0.0-6.0-0.106","","img/purple.png","null","trial","null","true","0,1","4:nogo_d","",""
"null","","html-keyboard-response","539","670185","0.0-6.0-1.106","","<img src=""img/purple-r.png"">","null","trial","null","","0,1","4:nogo_d","1",""
"null","","html-keyboard-response","540","671186","0.0-6.0-2.106","","<div style=""font-size:60px;"">+</div>","null","","","","","","",""
"1027.9999999911524","","image-keyboard-response","541","672214","0.0-6.0-0.107","","img/red.png","32","trial","null","false","0.2,0.8","2:nogo_b","",""
"null","","html-keyboard-response","542","673217","0.0-6.0-1.107","","<img src=""img/red-n.png"" border=""10"">","null","trial","null","","0.2,0.8","2:nogo_b","0",""
"null","","html-keyboard-response","543","674218","0.0-6.0-2.107","","<div style=""font-size:60px;"">+</div>","null","","","","","","",""
"595.9449999791104","","image-keyboard-response","544","674814","0.0-6.0-0.108","","img/pink.png","32","trial","32","true","0.8,0.2","1:go_a","",""
"null","","html-keyboard-response","545","675817","0.0-6.0-1.108","","<img src=""img/pink-n.png"" border=""10"">","null","trial","32","","0.8,0.2","1:go_a","0",""
"null","","html-keyboard-response","546","676818","0.0-6.0-2.108","","<div style=""font-size:60px;"">+</div>","null","","","","","","",""
"null","","image-keyboard-response","547","678319","0.0-6.0-0.109","","img/red.png","null","trial","null","true","0.2,0.8","2:nogo_b","",""
"null","","html-keyboard-response","548","679321","0.0-6.0-1.109","","<img src=""img/red-n.png"">","null","trial","null","","0.2,0.8","2:nogo_b","0",""
"null","","html-keyboard-response","549","680322","0.0-6.0-2.109","","<div style=""font-size:60px;"">+</div>","null","","","","","","",""
"1147.144999995362","","image-keyboard-response","550","681470","0.0-6.0-0.110","","img/purple.png","32","trial","null","false","0,1","4:nogo_d","",""
"null","","html-keyboard-response","551","682472","0.0-6.0-1.110","","<img src=""img/purple-n.png"" border=""10"">","null","trial","null","","0,1","4:nogo_d","0",""
"null","","html-keyboard-response","552","683473","0.0-6.0-2.110","","<div style=""font-size:60px;"">+</div>","null","","","","","","",""
"677.7949999959674","","image-keyboard-response","553","684152","0.0-6.0-0.111","","img/orange.png","32","trial","32","true","1,0","3:go_c","",""
"null","","html-keyboard-response","554","685153","0.0-6.0-1.111","","<img src=""img/orange-r.png"" border=""10"">","null","trial","32","","1,0","3:go_c","1",""
"null","","html-keyboard-response","555","686154","0.0-6.0-2.111","","<div style=""font-size:60px;"">+</div>","null","","","","","","",""
"null","","image-keyboard-response","556","687655","0.0-6.0-0.112","","img/red.png","null","trial","null","true","0.2,0.8","2:nogo_b","",""
"null","","html-keyboard-response","557","688663","0.0-6.0-1.112","","<img src=""img/red-r.png"">","null","trial","null","","0.2,0.8","2:nogo_b","1",""
"null","","html-keyboard-response","558","689664","0.0-6.0-2.112","","<div style=""font-size:60px;"">+</div>","null","","","","","","",""
"613.710000005085","","image-keyboard-response","559","690279","0.0-6.0-0.113","","img/purple.png","32","trial","null","false","0,1","4:nogo_d","",""
"null","","html-keyboard-response","560","691280","0.0-6.0-1.113","","<img src=""img/purple-n.png"" border=""10"">","null","trial","null","","0,1","4:nogo_d","0",""
"null","","html-keyboard-response","561","692282","0.0-6.0-2.113","","<div style=""font-size:60px;"">+</div>","null","","","","","","",""
"578.3899999805726","","image-keyboard-response","562","692862","0.0-6.0-0.114","","img/orange.png","32","trial","32","true","1,0","3:go_c","",""
"null","","html-keyboard-response","563","693864","0.0-6.0-1.114","","<img src=""img/orange-r.png"" border=""10"">","null","trial","32","","1,0","3:go_c","1",""
"null","","html-keyboard-response","564","694865","0.0-6.0-2.114","","<div style=""font-size:60px;"">+</div>","null","","","","","","",""
"707.670000003418","","image-keyboard-response","565","695574","0.0-6.0-0.115","","img/pink.png","32","trial","32","true","0.8,0.2","1:go_a","",""
"null","","html-keyboard-response","566","696576","0.0-6.0-1.115","","<img src=""img/pink-r.png"" border=""10"">","null","trial","32","","0.8,0.2","1:go_a","1",""
"null","","html-keyboard-response","567","697577","0.0-6.0-2.115","","<div style=""font-size:60px;"">+</div>","null","","","","","","",""
"964.5299999974668","","image-keyboard-response","568","698542","0.0-6.0-0.116","","img/red.png","32","trial","null","false","0.2,0.8","2:nogo_b","",""
"null","","html-keyboard-response","569","699544","0.0-6.0-1.116","","<img src=""img/red-r.png"" border=""10"">","null","trial","null","","0.2,0.8","2:nogo_b","1",""
"null","","html-keyboard-response","570","700545","0.0-6.0-2.116","","<div style=""font-size:60px;"">+</div>","null","","","","","","",""
"804.6749999921303","","image-keyboard-response","571","701350","0.0-6.0-0.117","","img/orange.png","32","trial","32","true","1,0","3:go_c","",""
"null","","html-keyboard-response","572","702352","0.0-6.0-1.117","","<img src=""img/orange-r.png"" border=""10"">","null","trial","32","","1,0","3:go_c","1",""
"null","","html-keyboard-response","573","703353","0.0-6.0-2.117","","<div style=""font-size:60px;"">+</div>","null","","","","","","",""
"852.3900000145659","","image-keyboard-response","574","704206","0.0-6.0-0.118","","img/pink.png","32","trial","32","true","0.8,0.2","1:go_a","",""
"null","","html-keyboard-response","575","705207","0.0-6.0-1.118","","<img src=""img/pink-r.png"" border=""10"">","null","trial","32","","0.8,0.2","1:go_a","1",""
"null","","html-keyboard-response","576","706208","0.0-6.0-2.118","","<div style=""font-size:60px;"">+</div>","null","","","","","","",""
"1181.0399999958463","","image-keyboard-response","577","707389","0.0-6.0-0.119","","img/purple.png","32","trial","null","false","0,1","4:nogo_d","",""
"null","","html-keyboard-response","578","708391","0.0-6.0-1.119","","<img src=""img/purple-n.png"" border=""10"">","null","trial","null","","0,1","4:nogo_d","0",""
"null","","html-keyboard-response","579","709392","0.0-6.0-2.119","","<div style=""font-size:60px;"">+</div>","null","","","","","","",""
"3253.354999993462","","instructions","580","712646","0.0-7.0","[{""page_index"":0,""viewing_time"":3253.179999999702}]","","","","","","","","",""
"null","","image-keyboard-response","581","714148","0.0-8.0-0.0","","img/green.png","null","trial","32","false","0.6,0.4","1:go_a","",""
"null","","html-keyboard-response","582","715191","0.0-8.0-1.0","","<img src=""img/green-n.png"">","null","trial","32","","0.6,0.4","1:go_a","0",""
"null","","html-keyboard-response","583","716197","0.0-8.0-2.0","","<div style=""font-size:60px;"">+</div>","null","","","","","","",""
"null","","image-keyboard-response","584","717699","0.0-8.0-0.1","","img/yellow.png","null","trial","null","true","0.4,0.6","4:nogo_d","",""
"null","","html-keyboard-response","585","718700","0.0-8.0-1.1","","<img src=""img/yellow-r.png"">","null","trial","null","","0.4,0.6","4:nogo_d","1",""
"null","","html-keyboard-response","586","719701","0.0-8.0-2.1","","<div style=""font-size:60px;"">+</div>","null","","","","","","",""
"null","","image-keyboard-response","587","721202","0.0-8.0-0.2","","img/orange.png","null","trial","32","false","0.6,0.4","3:go_c","",""
"null","","html-keyboard-response","588","722204","0.0-8.0-1.2","","<img src=""img/orange-r.png"">","null","trial","32","","0.6,0.4","3:go_c","1",""
"null","","html-keyboard-response","589","723205","0.0-8.0-2.2","","<div style=""font-size:60px;"">+</div>","null","","","","","","",""
"null","","image-keyboard-response","590","724705","0.0-8.0-0.3","","img/blue.png","null","trial","null","true","0.4,0.6","2:nogo_b","",""
"null","","html-keyboard-response","591","725708","0.0-8.0-1.3","","<img src=""img/blue-n.png"">","null","trial","null","","0.4,0.6","2:nogo_b","0",""
"null","","html-keyboard-response","592","726709","0.0-8.0-2.3","","<div style=""font-size:60px;"">+</div>","null","","","","","","",""
"null","","image-keyboard-response","593","728211","0.0-8.0-0.4","","img/blue.png","null","trial","null","true","0.4,0.6","2:nogo_b","",""
"null","","html-keyboard-response","594","729212","0.0-8.0-1.4","","<img src=""img/blue-n.png"">","null","trial","null","","0.4,0.6","2:nogo_b","0",""
"null","","html-keyboard-response","595","730215","0.0-8.0-2.4","","<div style=""font-size:60px;"">+</div>","null","","","","","","",""
"583.6450000060722","","image-keyboard-response","596","730799","0.0-8.0-0.5","","img/orange.png","32","trial","32","true","0.6,0.4","3:go_c","",""
"null","","html-keyboard-response","597","731800","0.0-8.0-1.5","","<img src=""img/orange-r.png"" border=""10"">","null","trial","32","","0.6,0.4","3:go_c","1",""
"null","","html-keyboard-response","598","732801","0.0-8.0-2.5","","<div style=""font-size:60px;"">+</div>","null","","","","","","",""
"532.7450000040699","","image-keyboard-response","599","733334","0.0-8.0-0.6","","img/yellow.png","32","trial","null","false","0.4,0.6","4:nogo_d","",""
"null","","html-keyboard-response","600","734336","0.0-8.0-1.6","","<img src=""img/yellow-n.png"" border=""10"">","null","trial","null","","0.4,0.6","4:nogo_d","0",""
"null","","html-keyboard-response","601","735337","0.0-8.0-2.6","","<div style=""font-size:60px;"">+</div>","null","","","","","","",""
"null","","image-keyboard-response","602","736838","0.0-8.0-0.7","","img/green.png","null","trial","32","false","0.6,0.4","1:go_a","",""
"null","","html-keyboard-response","603","737840","0.0-8.0-1.7","","<img src=""img/green-n.png"">","null","trial","32","","0.6,0.4","1:go_a","0",""
"null","","html-keyboard-response","604","738841","0.0-8.0-2.7","","<div style=""font-size:60px;"">+</div>","null","","","","","","",""
"null","","image-keyboard-response","605","740342","0.0-8.0-0.8","","img/green.png","null","trial","32","false","0.6,0.4","1:go_a","",""
"null","","html-keyboard-response","606","741344","0.0-8.0-1.8","","<img src=""img/green-n.png"">","null","trial","32","","0.6,0.4","1:go_a","0",""
"null","","html-keyboard-response","607","742345","0.0-8.0-2.8","","<div style=""font-size:60px;"">+</div>","null","","","","","","",""
"null","","image-keyboard-response","608","743846","0.0-8.0-0.9","","img/blue.png","null","trial","null","true","0.4,0.6","2:nogo_b","",""
"null","","html-keyboard-response","609","744847","0.0-8.0-1.9","","<img src=""img/blue-r.png"">","null","trial","null","","0.4,0.6","2:nogo_b","1",""
"null","","html-keyboard-response","610","745848","0.0-8.0-2.9","","<div style=""font-size:60px;"">+</div>","null","","","","","","",""
"645.18500000122","","image-keyboard-response","611","746494","0.0-8.0-0.10","","img/orange.png","32","trial","32","true","0.6,0.4","3:go_c","",""
"null","","html-keyboard-response","612","747496","0.0-8.0-1.10","","<img src=""img/orange-n.png"" border=""10"">","null","trial","32","","0.6,0.4","3:go_c","0",""
"null","","html-keyboard-response","613","748497","0.0-8.0-2.10","","<div style=""font-size:60px;"">+</div>","null","","","","","","",""
"619.8549999971874","","image-keyboard-response","614","749118","0.0-8.0-0.11","","img/yellow.png","32","trial","null","false","0.4,0.6","4:nogo_d","",""
"null","","html-keyboard-response","615","750119","0.0-8.0-1.11","","<img src=""img/yellow-n.png"" border=""10"">","null","trial","null","","0.4,0.6","4:nogo_d","0",""
"null","","html-keyboard-response","616","751120","0.0-8.0-2.11","","<div style=""font-size:60px;"">+</div>","null","","","","","","",""
"569.6250000037253","","image-keyboard-response","617","751691","0.0-8.0-0.12","","img/blue.png","32","trial","null","false","0.4,0.6","2:nogo_b","",""
"null","","html-keyboard-response","618","752692","0.0-8.0-1.12","","<img src=""img/blue-n.png"" border=""10"">","null","trial","null","","0.4,0.6","2:nogo_b","0",""
"null","","html-keyboard-response","619","753693","0.0-8.0-2.12","","<div style=""font-size:60px;"">+</div>","null","","","","","","",""
"null","","image-keyboard-response","620","755194","0.0-8.0-0.13","","img/green.png","null","trial","32","false","0.6,0.4","1:go_a","",""
"null","","html-keyboard-response","621","756196","0.0-8.0-1.13","","<img src=""img/green-n.png"">","null","trial","32","","0.6,0.4","1:go_a","0",""
"null","","html-keyboard-response","622","757197","0.0-8.0-2.13","","<div style=""font-size:60px;"">+</div>","null","","","","","","",""
"592.5599999900442","","image-keyboard-response","623","757790","0.0-8.0-0.14","","img/yellow.png","32","trial","null","false","0.4,0.6","4:nogo_d","",""
"null","","html-keyboard-response","624","758792","0.0-8.0-1.14","","<img src=""img/yellow-n.png"" border=""10"">","null","trial","null","","0.4,0.6","4:nogo_d","0",""
"null","","html-keyboard-response","625","759793","0.0-8.0-2.14","","<div style=""font-size:60px;"">+</div>","null","","","","","","",""
"604.1200000036042","","image-keyboard-response","626","760397","0.0-8.0-0.15","","img/orange.png","32","trial","32","true","0.6,0.4","3:go_c","",""
"null","","html-keyboard-response","627","761399","0.0-8.0-1.15","","<img src=""img/orange-n.png"" border=""10"">","null","trial","32","","0.6,0.4","3:go_c","0",""
"null","","html-keyboard-response","628","762400","0.0-8.0-2.15","","<div style=""font-size:60px;"">+</div>","null","","","","","","",""
"716.5550000208896","","image-keyboard-response","629","763117","0.0-8.0-0.16","","img/orange.png","32","trial","32","true","0.6,0.4","3:go_c","",""
"null","","html-keyboard-response","630","764119","0.0-8.0-1.16","","<img src=""img/orange-r.png"" border=""10"">","null","trial","32","","0.6,0.4","3:go_c","1",""
"null","","html-keyboard-response","631","765121","0.0-8.0-2.16","","<div style=""font-size:60px;"">+</div>","null","","","","","","",""
"715.9300000057556","","image-keyboard-response","632","765837","0.0-8.0-0.17","","img/yellow.png","32","trial","null","false","0.4,0.6","4:nogo_d","",""
"null","","html-keyboard-response","633","766839","0.0-8.0-1.17","","<img src=""img/yellow-n.png"" border=""10"">","null","trial","null","","0.4,0.6","4:nogo_d","0",""
"null","","html-keyboard-response","634","767840","0.0-8.0-2.17","","<div style=""font-size:60px;"">+</div>","null","","","","","","",""
"null","","image-keyboard-response","635","769341","0.0-8.0-0.18","","img/green.png","null","trial","32","false","0.6,0.4","1:go_a","",""
"null","","html-keyboard-response","636","770342","0.0-8.0-1.18","","<img src=""img/green-n.png"">","null","trial","32","","0.6,0.4","1:go_a","0",""
"null","","html-keyboard-response","637","771343","0.0-8.0-2.18","","<div style=""font-size:60px;"">+</div>","null","","","","","","",""
"621.7900000046939","","image-keyboard-response","638","771965","0.0-8.0-0.19","","img/blue.png","32","trial","null","false","0.4,0.6","2:nogo_b","",""
"null","","html-keyboard-response","639","772967","0.0-8.0-1.19","","<img src=""img/blue-n.png"" border=""10"">","null","trial","null","","0.4,0.6","2:nogo_b","0",""
"null","","html-keyboard-response","640","773970","0.0-8.0-2.19","","<div style=""font-size:60px;"">+</div>","null","","","","","","",""
"null","","image-keyboard-response","641","775471","0.0-8.0-0.20","","img/green.png","null","trial","32","false","0.6,0.4","1:go_a","",""
"null","","html-keyboard-response","642","776474","0.0-8.0-1.20","","<img src=""img/green-r.png"">","null","trial","32","","0.6,0.4","1:go_a","1",""
"null","","html-keyboard-response","643","777475","0.0-8.0-2.20","","<div style=""font-size:60px;"">+</div>","null","","","","","","",""
"731.0699999798089","","image-keyboard-response","644","778207","0.0-8.0-0.21","","img/orange.png","32","trial","32","true","0.6,0.4","3:go_c","",""
"null","","html-keyboard-response","645","779208","0.0-8.0-1.21","","<img src=""img/orange-r.png"" border=""10"">","null","trial","32","","0.6,0.4","3:go_c","1",""
"null","","html-keyboard-response","646","780209","0.0-8.0-2.21","","<div style=""font-size:60px;"">+</div>","null","","","","","","",""
"868.7499999941792","","image-keyboard-response","647","781079","0.0-8.0-0.22","","img/yellow.png","32","trial","null","false","0.4,0.6","4:nogo_d","",""
"null","","html-keyboard-response","648","782082","0.0-8.0-1.22","","<img src=""img/yellow-n.png"" border=""10"">","null","trial","null","","0.4,0.6","4:nogo_d","0",""
"null","","html-keyboard-response","649","783083","0.0-8.0-2.22","","<div style=""font-size:60px;"">+</div>","null","","","","","","",""
"619.2599999776576","","image-keyboard-response","650","783703","0.0-8.0-0.23","","img/blue.png","32","trial","null","false","0.4,0.6","2:nogo_b","",""
"null","","html-keyboard-response","651","784705","0.0-8.0-1.23","","<img src=""img/blue-n.png"" border=""10"">","null","trial","null","","0.4,0.6","2:nogo_b","0",""
"null","","html-keyboard-response","652","785706","0.0-8.0-2.23","","<div style=""font-size:60px;"">+</div>","null","","","","","","",""
"null","","image-keyboard-response","653","787207","0.0-8.0-0.24","","img/yellow.png","null","trial","null","true","0.4,0.6","4:nogo_d","",""
"null","","html-keyboard-response","654","788210","0.0-8.0-1.24","","<img src=""img/yellow-n.png"">","null","trial","null","","0.4,0.6","4:nogo_d","0",""
"null","","html-keyboard-response","655","789211","0.0-8.0-2.24","","<div style=""font-size:60px;"">+</div>","null","","","","","","",""
"755.7799999776762","","image-keyboard-response","656","789967","0.0-8.0-0.25","","img/orange.png","32","trial","32","true","0.6,0.4","3:go_c","",""
"null","","html-keyboard-response","657","790968","0.0-8.0-1.25","","<img src=""img/orange-r.png"" border=""10"">","null","trial","32","","0.6,0.4","3:go_c","1",""
"null","","html-keyboard-response","658","791970","0.0-8.0-2.25","","<div style=""font-size:60px;"">+</div>","null","","","","","","",""
"739.7749999945518","","image-keyboard-response","659","792710","0.0-8.0-0.26","","img/blue.png","32","trial","null","false","0.4,0.6","2:nogo_b","",""
"null","","html-keyboard-response","660","793712","0.0-8.0-1.26","","<img src=""img/blue-r.png"" border=""10"">","null","trial","null","","0.4,0.6","2:nogo_b","1",""
"null","","html-keyboard-response","661","794713","0.0-8.0-2.26","","<div style=""font-size:60px;"">+</div>","null","","","","","","",""
"null","","image-keyboard-response","662","796214","0.0-8.0-0.27","","img/green.png","null","trial","32","false","0.6,0.4","1:go_a","",""
"null","","html-keyboard-response","663","797216","0.0-8.0-1.27","","<img src=""img/green-n.png"">","null","trial","32","","0.6,0.4","1:go_a","0",""
"null","","html-keyboard-response","664","798217","0.0-8.0-2.27","","<div style=""font-size:60px;"">+</div>","null","","","","","","",""
"null","","image-keyboard-response","665","799719","0.0-8.0-0.28","","img/green.png","null","trial","32","false","0.6,0.4","1:go_a","",""
"null","","html-keyboard-response","666","800721","0.0-8.0-1.28","","<img src=""img/green-n.png"">","null","trial","32","","0.6,0.4","1:go_a","0",""
"null","","html-keyboard-response","667","801722","0.0-8.0-2.28","","<div style=""font-size:60px;"">+</div>","null","","","","","","",""
"660.0350000080653","","image-keyboard-response","668","802383","0.0-8.0-0.29","","img/blue.png","32","trial","null","false","0.4,0.6","2:nogo_b","",""
"null","","html-keyboard-response","669","803386","0.0-8.0-1.29","","<img src=""img/blue-r.png"" border=""10"">","null","trial","null","","0.4,0.6","2:nogo_b","1",""
"null","","html-keyboard-response","670","804387","0.0-8.0-2.29","","<div style=""font-size:60px;"">+</div>","null","","","","","","",""
"null","","image-keyboard-response","671","805891","0.0-8.0-0.30","","img/yellow.png","null","trial","null","true","0.4,0.6","4:nogo_d","",""
"null","","html-keyboard-response","672","806892","0.0-8.0-1.30","","<img src=""img/yellow-r.png"">","null","trial","null","","0.4,0.6","4:nogo_d","1",""
"null","","html-keyboard-response","673","807893","0.0-8.0-2.30","","<div style=""font-size:60px;"">+</div>","null","","","","","","",""
"727.9450000205543","","image-keyboard-response","674","808622","0.0-8.0-0.31","","img/orange.png","32","trial","32","true","0.6,0.4","3:go_c","",""
"null","","html-keyboard-response","675","809623","0.0-8.0-1.31","","<img src=""img/orange-n.png"" border=""10"">","null","trial","32","","0.6,0.4","3:go_c","0",""
"null","","html-keyboard-response","676","810624","0.0-8.0-2.31","","<div style=""font-size:60px;"">+</div>","null","","","","","","",""
"989.5699999760836","","image-keyboard-response","677","811614","0.0-8.0-0.32","","img/orange.png","32","trial","32","true","0.6,0.4","3:go_c","",""
"null","","html-keyboard-response","678","812617","0.0-8.0-1.32","","<img src=""img/orange-n.png"" border=""10"">","null","trial","32","","0.6,0.4","3:go_c","0",""
"null","","html-keyboard-response","679","813618","0.0-8.0-2.32","","<div style=""font-size:60px;"">+</div>","null","","","","","","",""
