"rt","url","trial_type","trial_index","time_elapsed","internal_node_id","view_history","stimulus","key_press","test_part","correct_response","correct","use_rew","which_stim","reward","responses"
"27431","consent.html","external-html","0","27566","0.0-0.0","","","","","","","","","",""
"55074.800000071526","","instructions","1","82645","0.0-1.0","[{""page_index"":0,""viewing_time"":10001.300000071526},{""page_index"":1,""viewing_time"":14009.5},{""page_index"":2,""viewing_time"":2506.399999976158},{""page_index"":3,""viewing_time"":10123.299999952316},{""page_index"":4,""viewing_time"":6546.200000047684},{""page_index"":5,""viewing_time"":7052.899999976158},{""page_index"":6,""viewing_time"":4834.600000023842}]","","","","","","","","",""
"546.5999999046326","","image-keyboard-response","2","83192","0.0-2.0-0.0","","img/test1.PNG","32","practice","32","true","","","",""
"null","","html-keyboard-response","3","84194","0.0-2.0-1.0","","<img src=""img/test1-reward.PNG"" border=""10px; grey"">","null","","","","","","",""
"null","","html-keyboard-response","4","85195","0.0-2.0-2.0","","<div style=""font-size:60px;"">+</div>","null","","","","","","",""
"null","","image-keyboard-response","5","86696","0.0-2.0-0.1","","img/test2.PNG","null","practice","null","true","","","",""
"null","","html-keyboard-response","6","87697","0.0-2.0-1.1","","<img src=""img/test2-reward.PNG"">","null","","","","","","",""
"null","","html-keyboard-response","7","88698","0.0-2.0-2.1","","<div style=""font-size:60px;"">+</div>","null","","","","","","",""
"null","","image-keyboard-response","8","90199","0.0-2.0-0.2","","img/test3.PNG","null","practice","null","true","","","",""
"null","","html-keyboard-response","9","91200","0.0-2.0-1.2","","<img src=""img/test3-reward.PNG"">","null","","","","","","",""
"null","","html-keyboard-response","10","92201","0.0-2.0-2.2","","<div style=""font-size:60px;"">+</div>","null","","","","","","",""
"null","","image-keyboard-response","11","93702","0.0-2.0-0.3","","img/test3.PNG","null","practice","null","true","","","",""
"null","","html-keyboard-response","12","94703","0.0-2.0-1.3","","<img src=""img/test3-reward.PNG"">","null","","","","","","",""
"null","","html-keyboard-response","13","95704","0.0-2.0-2.3","","<div style=""font-size:60px;"">+</div>","null","","","","","","",""
"401.90000009536743","","image-keyboard-response","14","96107","0.0-2.0-0.4","","img/test1.PNG","32","practice","32","true","","","",""
"null","","html-keyboard-response","15","97109","0.0-2.0-1.4","","<img src=""img/test1-reward.PNG"" border=""10px; grey"">","null","","","","","","",""
"null","","html-keyboard-response","16","98110","0.0-2.0-2.4","","<div style=""font-size:60px;"">+</div>","null","","","","","","",""
"null","","image-keyboard-response","17","99611","0.0-2.0-0.5","","img/test2.PNG","null","practice","null","true","","","",""
"null","","html-keyboard-response","18","100612","0.0-2.0-1.5","","<img src=""img/test2-reward.PNG"">","null","","","","","","",""
"null","","html-keyboard-response","19","101613","0.0-2.0-2.5","","<div style=""font-size:60px;"">+</div>","null","","","","","","",""
"null","","image-keyboard-response","20","103114","0.0-2.0-0.6","","img/test3.PNG","null","practice","null","true","","","",""
"null","","html-keyboard-response","21","104116","0.0-2.0-1.6","","<img src=""img/test3-reward.PNG"">","null","","","","","","",""
"null","","html-keyboard-response","22","105117","0.0-2.0-2.6","","<div style=""font-size:60px;"">+</div>","null","","","","","","",""
"497.39999997615814","","image-keyboard-response","23","105615","0.0-2.0-0.7","","img/test1.PNG","32","practice","32","true","","","",""
"null","","html-keyboard-response","24","106616","0.0-2.0-1.7","","<img src=""img/test1-reward.PNG"" border=""10px; grey"">","null","","","","","","",""
"null","","html-keyboard-response","25","107617","0.0-2.0-2.7","","<div style=""font-size:60px;"">+</div>","null","","","","","","",""
"null","","image-keyboard-response","26","109118","0.0-2.0-0.8","","img/test2.PNG","null","practice","null","true","","","",""
"null","","html-keyboard-response","27","110119","0.0-2.0-1.8","","<img src=""img/test2-reward.PNG"">","null","","","","","","",""
"null","","html-keyboard-response","28","111120","0.0-2.0-2.8","","<div style=""font-size:60px;"">+</div>","null","","","","","","",""
"null","","image-keyboard-response","29","112621","0.0-2.0-0.9","","img/test2.PNG","null","practice","null","true","","","",""
"null","","html-keyboard-response","30","113622","0.0-2.0-1.9","","<img src=""img/test2-reward.PNG"">","null","","","","","","",""
"null","","html-keyboard-response","31","114623","0.0-2.0-2.9","","<div style=""font-size:60px;"">+</div>","null","","","","","","",""
"null","","image-keyboard-response","32","116125","0.0-2.0-0.10","","img/test3.PNG","null","practice","null","true","","","",""
"null","","html-keyboard-response","33","117125","0.0-2.0-1.10","","<img src=""img/test3-reward.PNG"">","null","","","","","","",""
"null","","html-keyboard-response","34","118126","0.0-2.0-2.10","","<div style=""font-size:60px;"">+</div>","null","","","","","","",""
"462.09999990463257","","image-keyboard-response","35","118589","0.0-2.0-0.11","","img/test1.PNG","32","practice","32","true","","","",""
"null","","html-keyboard-response","36","119591","0.0-2.0-1.11","","<img src=""img/test1-reward.PNG"" border=""10px; grey"">","null","","","","","","",""
"null","","html-keyboard-response","37","120592","0.0-2.0-2.11","","<div style=""font-size:60px;"">+</div>","null","","","","","","",""
"5343.899999976158","","instructions","38","125936","0.0-3.0","[{""page_index"":0,""viewing_time"":5343.699999928474}]","","","","","","","","",""
"1099.8000000715256","","image-keyboard-response","39","127037","0.0-4.0-0.0","","img/purple.png","32","trial","32","true","0.8,0.2","1:go_a","",""
"null","","html-keyboard-response","40","128038","0.0-4.0-1.0","","<img src=""img/purple-r.png"" border=""10"">","null","trial","32","","0.8,0.2","1:go_a","1",""
"null","","html-keyboard-response","41","129039","0.0-4.0-2.0","","<div style=""font-size:60px;"">+</div>","null","","","","","","",""
"387.89999997615814","","image-keyboard-response","42","129428","0.0-4.0-0.1","","img/yellow.png","32","trial","null","false","0.2,0.8","2:nogo_b","",""
"null","","html-keyboard-response","43","130430","0.0-4.0-1.1","","<img src=""img/yellow-r.png"" border=""10"">","null","trial","null","","0.2,0.8","2:nogo_b","1",""
"null","","html-keyboard-response","44","131431","0.0-4.0-2.1","","<div style=""font-size:60px;"">+</div>","null","","","","","","",""
"483.7000000476837","","image-keyboard-response","45","131916","0.0-4.0-0.2","","img/yellow.png","32","trial","null","false","0.2,0.8","2:nogo_b","",""
"null","","html-keyboard-response","46","132917","0.0-4.0-1.2","","<img src=""img/yellow-n.png"" border=""10"">","null","trial","null","","0.2,0.8","2:nogo_b","0",""
"null","","html-keyboard-response","47","133918","0.0-4.0-2.2","","<div style=""font-size:60px;"">+</div>","null","","","","","","",""
"472.5","","image-keyboard-response","48","134392","0.0-4.0-0.3","","img/purple.png","32","trial","32","true","0.8,0.2","1:go_a","",""
"null","","html-keyboard-response","49","135393","0.0-4.0-1.3","","<img src=""img/purple-r.png"" border=""10"">","null","trial","32","","0.8,0.2","1:go_a","1",""
"null","","html-keyboard-response","50","136394","0.0-4.0-2.3","","<div style=""font-size:60px;"">+</div>","null","","","","","","",""
"504.40000009536743","","image-keyboard-response","51","136899","0.0-4.0-0.4","","img/purple.png","32","trial","32","true","0.8,0.2","1:go_a","",""
"null","","html-keyboard-response","52","137901","0.0-4.0-1.4","","<img src=""img/purple-r.png"" border=""10"">","null","trial","32","","0.8,0.2","1:go_a","1",""
"null","","html-keyboard-response","53","138906","0.0-4.0-2.4","","<div style=""font-size:60px;"">+</div>","null","","","","","","",""
"null","","image-keyboard-response","54","140407","0.0-4.0-0.5","","img/yellow.png","null","trial","null","true","0.2,0.8","2:nogo_b","",""
"null","","html-keyboard-response","55","141408","0.0-4.0-1.5","","<img src=""img/yellow-n.png"">","null","trial","null","","0.2,0.8","2:nogo_b","0",""
"null","","html-keyboard-response","56","142409","0.0-4.0-2.5","","<div style=""font-size:60px;"">+</div>","null","","","","","","",""
"678.8999999761581","","image-keyboard-response","57","143088","0.0-4.0-0.6","","img/yellow.png","32","trial","null","false","0.2,0.8","2:nogo_b","",""
"null","","html-keyboard-response","58","144090","0.0-4.0-1.6","","<img src=""img/yellow-n.png"" border=""10"">","null","trial","null","","0.2,0.8","2:nogo_b","0",""
"null","","html-keyboard-response","59","145091","0.0-4.0-2.6","","<div style=""font-size:60px;"">+</div>","null","","","","","","",""
"515.7000000476837","","image-keyboard-response","60","145608","0.0-4.0-0.7","","img/purple.png","32","trial","32","true","0.8,0.2","1:go_a","",""
"null","","html-keyboard-response","61","146609","0.0-4.0-1.7","","<img src=""img/purple-r.png"" border=""10"">","null","trial","32","","0.8,0.2","1:go_a","1",""
"null","","html-keyboard-response","62","147611","0.0-4.0-2.7","","<div style=""font-size:60px;"">+</div>","null","","","","","","",""
"411.39999997615814","","image-keyboard-response","63","148024","0.0-4.0-0.8","","img/purple.png","32","trial","32","true","0.8,0.2","1:go_a","",""
"null","","html-keyboard-response","64","149026","0.0-4.0-1.8","","<img src=""img/purple-n.png"" border=""10"">","null","trial","32","","0.8,0.2","1:go_a","0",""
"null","","html-keyboard-response","65","150027","0.0-4.0-2.8","","<div style=""font-size:60px;"">+</div>","null","","","","","","",""
"null","","image-keyboard-response","66","151528","0.0-4.0-0.9","","img/yellow.png","null","trial","null","true","0.2,0.8","2:nogo_b","",""
"null","","html-keyboard-response","67","152529","0.0-4.0-1.9","","<img src=""img/yellow-r.png"">","null","trial","null","","0.2,0.8","2:nogo_b","1",""
"null","","html-keyboard-response","68","153530","0.0-4.0-2.9","","<div style=""font-size:60px;"">+</div>","null","","","","","","",""
"null","","image-keyboard-response","69","155031","0.0-4.0-0.10","","img/yellow.png","null","trial","null","true","0.2,0.8","2:nogo_b","",""
"null","","html-keyboard-response","70","156033","0.0-4.0-1.10","","<img src=""img/yellow-r.png"">","null","trial","null","","0.2,0.8","2:nogo_b","1",""
"null","","html-keyboard-response","71","157036","0.0-4.0-2.10","","<div style=""font-size:60px;"">+</div>","null","","","","","","",""
"508.8000000715256","","image-keyboard-response","72","157545","0.0-4.0-0.11","","img/purple.png","32","trial","32","true","0.8,0.2","1:go_a","",""
"null","","html-keyboard-response","73","158546","0.0-4.0-1.11","","<img src=""img/purple-r.png"" border=""10"">","null","trial","32","","0.8,0.2","1:go_a","1",""
"null","","html-keyboard-response","74","159547","0.0-4.0-2.11","","<div style=""font-size:60px;"">+</div>","null","","","","","","",""
"563.7000000476837","","image-keyboard-response","75","160112","0.0-4.0-0.12","","img/purple.png","32","trial","32","true","0.8,0.2","1:go_a","",""
"null","","html-keyboard-response","76","161112","0.0-4.0-1.12","","<img src=""img/purple-n.png"" border=""10"">","null","trial","32","","0.8,0.2","1:go_a","0",""
"null","","html-keyboard-response","77","162114","0.0-4.0-2.12","","<div style=""font-size:60px;"">+</div>","null","","","","","","",""
"null","","image-keyboard-response","78","163615","0.0-4.0-0.13","","img/yellow.png","null","trial","null","true","0.2,0.8","2:nogo_b","",""
"null","","html-keyboard-response","79","164616","0.0-4.0-1.13","","<img src=""img/yellow-r.png"">","null","trial","null","","0.2,0.8","2:nogo_b","1",""
"null","","html-keyboard-response","80","165617","0.0-4.0-2.13","","<div style=""font-size:60px;"">+</div>","null","","","","","","",""
"null","","image-keyboard-response","81","167119","0.0-4.0-0.14","","img/yellow.png","null","trial","null","true","0.2,0.8","2:nogo_b","",""
"null","","html-keyboard-response","82","168120","0.0-4.0-1.14","","<img src=""img/yellow-r.png"">","null","trial","null","","0.2,0.8","2:nogo_b","1",""
"null","","html-keyboard-response","83","169121","0.0-4.0-2.14","","<div style=""font-size:60px;"">+</div>","null","","","","","","",""
"604.2999999523163","","image-keyboard-response","84","169726","0.0-4.0-0.15","","img/purple.png","32","trial","32","true","0.8,0.2","1:go_a","",""
"null","","html-keyboard-response","85","170727","0.0-4.0-1.15","","<img src=""img/purple-r.png"" border=""10"">","null","trial","32","","0.8,0.2","1:go_a","1",""
"null","","html-keyboard-response","86","171728","0.0-4.0-2.15","","<div style=""font-size:60px;"">+</div>","null","","","","","","",""
"null","","image-keyboard-response","87","173229","0.0-4.0-0.16","","img/yellow.png","null","trial","null","true","0.2,0.8","2:nogo_b","",""
"null","","html-keyboard-response","88","174230","0.0-4.0-1.16","","<img src=""img/yellow-r.png"">","null","trial","null","","0.2,0.8","2:nogo_b","1",""
"null","","html-keyboard-response","89","175232","0.0-4.0-2.16","","<div style=""font-size:60px;"">+</div>","null","","","","","","",""
"755.3999999761581","","image-keyboard-response","90","175987","0.0-4.0-0.17","","img/purple.png","32","trial","32","true","0.8,0.2","1:go_a","",""
"null","","html-keyboard-response","91","176989","0.0-4.0-1.17","","<img src=""img/purple-n.png"" border=""10"">","null","trial","32","","0.8,0.2","1:go_a","0",""
"null","","html-keyboard-response","92","177991","0.0-4.0-2.17","","<div style=""font-size:60px;"">+</div>","null","","","","","","",""
"null","","image-keyboard-response","93","179492","0.0-4.0-0.18","","img/yellow.png","null","trial","null","true","0.2,0.8","2:nogo_b","",""
"null","","html-keyboard-response","94","180493","0.0-4.0-1.18","","<img src=""img/yellow-r.png"">","null","trial","null","","0.2,0.8","2:nogo_b","1",""
"null","","html-keyboard-response","95","181494","0.0-4.0-2.18","","<div style=""font-size:60px;"">+</div>","null","","","","","","",""
"543.2999999523163","","image-keyboard-response","96","182038","0.0-4.0-0.19","","img/purple.png","32","trial","32","true","0.8,0.2","1:go_a","",""
"null","","html-keyboard-response","97","183039","0.0-4.0-1.19","","<img src=""img/purple-r.png"" border=""10"">","null","trial","32","","0.8,0.2","1:go_a","1",""
"null","","html-keyboard-response","98","184040","0.0-4.0-2.19","","<div style=""font-size:60px;"">+</div>","null","","","","","","",""
"494.8000000715256","","image-keyboard-response","99","184536","0.0-4.0-0.20","","img/purple.png","32","trial","32","true","0.8,0.2","1:go_a","",""
"null","","html-keyboard-response","100","185537","0.0-4.0-1.20","","<img src=""img/purple-n.png"" border=""10"">","null","trial","32","","0.8,0.2","1:go_a","0",""
"null","","html-keyboard-response","101","186544","0.0-4.0-2.20","","<div style=""font-size:60px;"">+</div>","null","","","","","","",""
"null","","image-keyboard-response","102","188047","0.0-4.0-0.21","","img/yellow.png","null","trial","null","true","0.2,0.8","2:nogo_b","",""
"null","","html-keyboard-response","103","189048","0.0-4.0-1.21","","<img src=""img/yellow-r.png"">","null","trial","null","","0.2,0.8","2:nogo_b","1",""
"null","","html-keyboard-response","104","190049","0.0-4.0-2.21","","<div style=""font-size:60px;"">+</div>","null","","","","","","",""
"null","","image-keyboard-response","105","191550","0.0-4.0-0.22","","img/yellow.png","null","trial","null","true","0.2,0.8","2:nogo_b","",""
"null","","html-keyboard-response","106","192551","0.0-4.0-1.22","","<img src=""img/yellow-r.png"">","null","trial","null","","0.2,0.8","2:nogo_b","1",""
"null","","html-keyboard-response","107","193552","0.0-4.0-2.22","","<div style=""font-size:60px;"">+</div>","null","","","","","","",""
"628.2999999523163","","image-keyboard-response","108","194181","0.0-4.0-0.23","","img/purple.png","32","trial","32","true","0.8,0.2","1:go_a","",""
"null","","html-keyboard-response","109","195183","0.0-4.0-1.23","","<img src=""img/purple-r.png"" border=""10"">","null","trial","32","","0.8,0.2","1:go_a","1",""
"null","","html-keyboard-response","110","196185","0.0-4.0-2.23","","<div style=""font-size:60px;"">+</div>","null","","","","","","",""
"null","","image-keyboard-response","111","197686","0.0-4.0-0.24","","img/yellow.png","null","trial","null","true","0.2,0.8","2:nogo_b","",""
"null","","html-keyboard-response","112","198687","0.0-4.0-1.24","","<img src=""img/yellow-n.png"">","null","trial","null","","0.2,0.8","2:nogo_b","0",""
"null","","html-keyboard-response","113","199689","0.0-4.0-2.24","","<div style=""font-size:60px;"">+</div>","null","","","","","","",""
"478.39999997615814","","image-keyboard-response","114","200168","0.0-4.0-0.25","","img/purple.png","32","trial","32","true","0.8,0.2","1:go_a","",""
"null","","html-keyboard-response","115","201169","0.0-4.0-1.25","","<img src=""img/purple-r.png"" border=""10"">","null","trial","32","","0.8,0.2","1:go_a","1",""
"null","","html-keyboard-response","116","202169","0.0-4.0-2.25","","<div style=""font-size:60px;"">+</div>","null","","","","","","",""
"null","","image-keyboard-response","117","203670","0.0-4.0-0.26","","img/yellow.png","null","trial","null","true","0.2,0.8","2:nogo_b","",""
"null","","html-keyboard-response","118","204671","0.0-4.0-1.26","","<img src=""img/yellow-r.png"">","null","trial","null","","0.2,0.8","2:nogo_b","1",""
"null","","html-keyboard-response","119","205673","0.0-4.0-2.26","","<div style=""font-size:60px;"">+</div>","null","","","","","","",""
"500.7000000476837","","image-keyboard-response","120","206174","0.0-4.0-0.27","","img/purple.png","32","trial","32","true","0.8,0.2","1:go_a","",""
"null","","html-keyboard-response","121","207175","0.0-4.0-1.27","","<img src=""img/purple-r.png"" border=""10"">","null","trial","32","","0.8,0.2","1:go_a","1",""
"null","","html-keyboard-response","122","208176","0.0-4.0-2.27","","<div style=""font-size:60px;"">+</div>","null","","","","","","",""
"764.7000000476837","","image-keyboard-response","123","208942","0.0-4.0-0.28","","img/purple.png","32","trial","32","true","0.8,0.2","1:go_a","",""
"null","","html-keyboard-response","124","209950","0.0-4.0-1.28","","<img src=""img/purple-r.png"" border=""10"">","null","trial","32","","0.8,0.2","1:go_a","1",""
"null","","html-keyboard-response","125","210952","0.0-4.0-2.28","","<div style=""font-size:60px;"">+</div>","null","","","","","","",""
"null","","image-keyboard-response","126","212453","0.0-4.0-0.29","","img/yellow.png","null","trial","null","true","0.2,0.8","2:nogo_b","",""
"null","","html-keyboard-response","127","213454","0.0-4.0-1.29","","<img src=""img/yellow-r.png"">","null","trial","null","","0.2,0.8","2:nogo_b","1",""
"null","","html-keyboard-response","128","214455","0.0-4.0-2.29","","<div style=""font-size:60px;"">+</div>","null","","","","","","",""
"611.2999999523163","","image-keyboard-response","129","215067","0.0-4.0-0.30","","img/purple.png","32","trial","32","true","0.8,0.2","1:go_a","",""
"null","","html-keyboard-response","130","216068","0.0-4.0-1.30","","<img src=""img/purple-r.png"" border=""10"">","null","trial","32","","0.8,0.2","1:go_a","1",""
"null","","html-keyboard-response","131","217069","0.0-4.0-2.30","","<div style=""font-size:60px;"">+</div>","null","","","","","","",""
"null","","image-keyboard-response","132","218570","0.0-4.0-0.31","","img/yellow.png","null","trial","null","true","0.2,0.8","2:nogo_b","",""
"null","","html-keyboard-response","133","219571","0.0-4.0-1.31","","<img src=""img/yellow-r.png"">","null","trial","null","","0.2,0.8","2:nogo_b","1",""
"null","","html-keyboard-response","134","220572","0.0-4.0-2.31","","<div style=""font-size:60px;"">+</div>","null","","","","","","",""
"null","","image-keyboard-response","135","222073","0.0-4.0-0.32","","img/yellow.png","null","trial","null","true","0.2,0.8","2:nogo_b","",""
"null","","html-keyboard-response","136","223074","0.0-4.0-1.32","","<img src=""img/yellow-n.png"">","null","trial","null","","0.2,0.8","2:nogo_b","0",""
"null","","html-keyboard-response","137","224075","0.0-4.0-2.32","","<div style=""font-size:60px;"">+</div>","null","","","","","","",""
"805.1999999284744","","image-keyboard-response","138","224881","0.0-4.0-0.33","","img/purple.png","32","trial","32","true","0.8,0.2","1:go_a","",""
"null","","html-keyboard-response","139","225890","0.0-4.0-1.33","","<img src=""img/purple-n.png"" border=""10"">","null","trial","32","","0.8,0.2","1:go_a","0",""
"null","","html-keyboard-response","140","226891","0.0-4.0-2.33","","<div style=""font-size:60px;"">+</div>","null","","","","","","",""
"658.5","","image-keyboard-response","141","227550","0.0-4.0-0.34","","img/purple.png","32","trial","32","true","0.8,0.2","1:go_a","",""
"null","","html-keyboard-response","142","228551","0.0-4.0-1.34","","<img src=""img/purple-r.png"" border=""10"">","null","trial","32","","0.8,0.2","1:go_a","1",""
"null","","html-keyboard-response","143","229552","0.0-4.0-2.34","","<div style=""font-size:60px;"">+</div>","null","","","","","","",""
"null","","image-keyboard-response","144","231053","0.0-4.0-0.35","","img/yellow.png","null","trial","null","true","0.2,0.8","2:nogo_b","",""
"null","","html-keyboard-response","145","232054","0.0-4.0-1.35","","<img src=""img/yellow-r.png"">","null","trial","null","","0.2,0.8","2:nogo_b","1",""
"null","","html-keyboard-response","146","233055","0.0-4.0-2.35","","<div style=""font-size:60px;"">+</div>","null","","","","","","",""
"470.89999997615814","","image-keyboard-response","147","233527","0.0-4.0-0.36","","img/purple.png","32","trial","32","true","0.8,0.2","1:go_a","",""
"null","","html-keyboard-response","148","234529","0.0-4.0-1.36","","<img src=""img/purple-r.png"" border=""10"">","null","trial","32","","0.8,0.2","1:go_a","1",""
"null","","html-keyboard-response","149","235530","0.0-4.0-2.36","","<div style=""font-size:60px;"">+</div>","null","","","","","","",""
"null","","image-keyboard-response","150","237031","0.0-4.0-0.37","","img/yellow.png","null","trial","null","true","0.2,0.8","2:nogo_b","",""
"null","","html-keyboard-response","151","238032","0.0-4.0-1.37","","<img src=""img/yellow-r.png"">","null","trial","null","","0.2,0.8","2:nogo_b","1",""
"null","","html-keyboard-response","152","239033","0.0-4.0-2.37","","<div style=""font-size:60px;"">+</div>","null","","","","","","",""
"null","","image-keyboard-response","153","240534","0.0-4.0-0.38","","img/yellow.png","null","trial","null","true","0.2,0.8","2:nogo_b","",""
"null","","html-keyboard-response","154","241536","0.0-4.0-1.38","","<img src=""img/yellow-r.png"">","null","trial","null","","0.2,0.8","2:nogo_b","1",""
"null","","html-keyboard-response","155","242546","0.0-4.0-2.38","","<div style=""font-size:60px;"">+</div>","null","","","","","","",""
"393.09999990463257","","image-keyboard-response","156","242940","0.0-4.0-0.39","","img/purple.png","32","trial","32","true","0.8,0.2","1:go_a","",""
"null","","html-keyboard-response","157","243941","0.0-4.0-1.39","","<img src=""img/purple-r.png"" border=""10"">","null","trial","32","","0.8,0.2","1:go_a","1",""
"null","","html-keyboard-response","158","244947","0.0-4.0-2.39","","<div style=""font-size:60px;"">+</div>","null","","","","","","",""
"null","","image-keyboard-response","159","246448","0.0-4.0-0.40","","img/yellow.png","null","trial","null","true","0.2,0.8","2:nogo_b","",""
"null","","html-keyboard-response","160","247449","0.0-4.0-1.40","","<img src=""img/yellow-r.png"">","null","trial","null","","0.2,0.8","2:nogo_b","1",""
"null","","html-keyboard-response","161","248450","0.0-4.0-2.40","","<div style=""font-size:60px;"">+</div>","null","","","","","","",""
"498.3000000715256","","image-keyboard-response","162","248949","0.0-4.0-0.41","","img/purple.png","32","trial","32","true","0.8,0.2","1:go_a","",""
"null","","html-keyboard-response","163","249950","0.0-4.0-1.41","","<img src=""img/purple-r.png"" border=""10"">","null","trial","32","","0.8,0.2","1:go_a","1",""
"null","","html-keyboard-response","164","250952","0.0-4.0-2.41","","<div style=""font-size:60px;"">+</div>","null","","","","","","",""
"463.5","","image-keyboard-response","165","251416","0.0-4.0-0.42","","img/purple.png","32","trial","32","true","0.8,0.2","1:go_a","",""
"null","","html-keyboard-response","166","252417","0.0-4.0-1.42","","<img src=""img/purple-r.png"" border=""10"">","null","trial","32","","0.8,0.2","1:go_a","1",""
"null","","html-keyboard-response","167","253418","0.0-4.0-2.42","","<div style=""font-size:60px;"">+</div>","null","","","","","","",""
"null","","image-keyboard-response","168","254919","0.0-4.0-0.43","","img/yellow.png","null","trial","null","true","0.2,0.8","2:nogo_b","",""
"null","","html-keyboard-response","169","255920","0.0-4.0-1.43","","<img src=""img/yellow-r.png"">","null","trial","null","","0.2,0.8","2:nogo_b","1",""
"null","","html-keyboard-response","170","256922","0.0-4.0-2.43","","<div style=""font-size:60px;"">+</div>","null","","","","","","",""
"null","","image-keyboard-response","171","258423","0.0-4.0-0.44","","img/yellow.png","null","trial","null","true","0.2,0.8","2:nogo_b","",""
"null","","html-keyboard-response","172","259424","0.0-4.0-1.44","","<img src=""img/yellow-n.png"">","null","trial","null","","0.2,0.8","2:nogo_b","0",""
"null","","html-keyboard-response","173","260425","0.0-4.0-2.44","","<div style=""font-size:60px;"">+</div>","null","","","","","","",""
"493.7000000476837","","image-keyboard-response","174","260919","0.0-4.0-0.45","","img/purple.png","32","trial","32","true","0.8,0.2","1:go_a","",""
"null","","html-keyboard-response","175","261921","0.0-4.0-1.45","","<img src=""img/purple-r.png"" border=""10"">","null","trial","32","","0.8,0.2","1:go_a","1",""
"null","","html-keyboard-response","176","262922","0.0-4.0-2.45","","<div style=""font-size:60px;"">+</div>","null","","","","","","",""
"null","","image-keyboard-response","177","264423","0.0-4.0-0.46","","img/yellow.png","null","trial","null","true","0.2,0.8","2:nogo_b","",""
"null","","html-keyboard-response","178","265424","0.0-4.0-1.46","","<img src=""img/yellow-n.png"">","null","trial","null","","0.2,0.8","2:nogo_b","0",""
"null","","html-keyboard-response","179","266425","0.0-4.0-2.46","","<div style=""font-size:60px;"">+</div>","null","","","","","","",""
"614.7999999523163","","image-keyboard-response","180","267041","0.0-4.0-0.47","","img/purple.png","32","trial","32","true","0.8,0.2","1:go_a","",""
"null","","html-keyboard-response","181","268042","0.0-4.0-1.47","","<img src=""img/purple-r.png"" border=""10"">","null","trial","32","","0.8,0.2","1:go_a","1",""
"null","","html-keyboard-response","182","269043","0.0-4.0-2.47","","<div style=""font-size:60px;"">+</div>","null","","","","","","",""
"441.2000000476837","","image-keyboard-response","183","269485","0.0-4.0-0.48","","img/purple.png","32","trial","32","true","0.8,0.2","1:go_a","",""
"null","","html-keyboard-response","184","270486","0.0-4.0-1.48","","<img src=""img/purple-r.png"" border=""10"">","null","trial","32","","0.8,0.2","1:go_a","1",""
"null","","html-keyboard-response","185","271488","0.0-4.0-2.48","","<div style=""font-size:60px;"">+</div>","null","","","","","","",""
"null","","image-keyboard-response","186","272989","0.0-4.0-0.49","","img/yellow.png","null","trial","null","true","0.2,0.8","2:nogo_b","",""
"null","","html-keyboard-response","187","273990","0.0-4.0-1.49","","<img src=""img/yellow-r.png"">","null","trial","null","","0.2,0.8","2:nogo_b","1",""
"null","","html-keyboard-response","188","274992","0.0-4.0-2.49","","<div style=""font-size:60px;"">+</div>","null","","","","","","",""
"461.8000000715256","","image-keyboard-response","189","275454","0.0-4.0-0.50","","img/purple.png","32","trial","32","true","0.8,0.2","1:go_a","",""
"null","","html-keyboard-response","190","276456","0.0-4.0-1.50","","<img src=""img/purple-r.png"" border=""10"">","null","trial","32","","0.8,0.2","1:go_a","1",""
"null","","html-keyboard-response","191","277457","0.0-4.0-2.50","","<div style=""font-size:60px;"">+</div>","null","","","","","","",""
"null","","image-keyboard-response","192","278958","0.0-4.0-0.51","","img/yellow.png","null","trial","null","true","0.2,0.8","2:nogo_b","",""
"null","","html-keyboard-response","193","279959","0.0-4.0-1.51","","<img src=""img/yellow-r.png"">","null","trial","null","","0.2,0.8","2:nogo_b","1",""
"null","","html-keyboard-response","194","280960","0.0-4.0-2.51","","<div style=""font-size:60px;"">+</div>","null","","","","","","",""
"null","","image-keyboard-response","195","282461","0.0-4.0-0.52","","img/yellow.png","null","trial","null","true","0.2,0.8","2:nogo_b","",""
"null","","html-keyboard-response","196","283462","0.0-4.0-1.52","","<img src=""img/yellow-r.png"">","null","trial","null","","0.2,0.8","2:nogo_b","1",""
"null","","html-keyboard-response","197","284463","0.0-4.0-2.52","","<div style=""font-size:60px;"">+</div>","null","","","","","","",""
"629.8000000715256","","image-keyboard-response","198","285094","0.0-4.0-0.53","","img/purple.png","32","trial","32","true","0.8,0.2","1:go_a","",""
"null","","html-keyboard-response","199","286095","0.0-4.0-1.53","","<img src=""img/purple-r.png"" border=""10"">","null","trial","32","","0.8,0.2","1:go_a","1",""
"null","","html-keyboard-response","200","287096","0.0-4.0-2.53","","<div style=""font-size:60px;"">+</div>","null","","","","","","",""
"null","","image-keyboard-response","201","288599","0.0-4.0-0.54","","img/yellow.png","null","trial","null","true","0.2,0.8","2:nogo_b","",""
"null","","html-keyboard-response","202","289600","0.0-4.0-1.54","","<img src=""img/yellow-n.png"">","null","trial","null","","0.2,0.8","2:nogo_b","0",""
"null","","html-keyboard-response","203","290601","0.0-4.0-2.54","","<div style=""font-size:60px;"">+</div>","null","","","","","","",""
"535.1000000238419","","image-keyboard-response","204","291136","0.0-4.0-0.55","","img/purple.png","32","trial","32","true","0.8,0.2","1:go_a","",""
"null","","html-keyboard-response","205","292138","0.0-4.0-1.55","","<img src=""img/purple-r.png"" border=""10"">","null","trial","32","","0.8,0.2","1:go_a","1",""
"null","","html-keyboard-response","206","293139","0.0-4.0-2.55","","<div style=""font-size:60px;"">+</div>","null","","","","","","",""
"699.1999999284744","","image-keyboard-response","207","293839","0.0-4.0-0.56","","img/purple.png","32","trial","32","true","0.8,0.2","1:go_a","",""
"null","","html-keyboard-response","208","294840","0.0-4.0-1.56","","<img src=""img/purple-r.png"" border=""10"">","null","trial","32","","0.8,0.2","1:go_a","1",""
"null","","html-keyboard-response","209","295842","0.0-4.0-2.56","","<div style=""font-size:60px;"">+</div>","null","","","","","","",""
"null","","image-keyboard-response","210","297349","0.0-4.0-0.57","","img/yellow.png","null","trial","null","true","0.2,0.8","2:nogo_b","",""
"null","","html-keyboard-response","211","298351","0.0-4.0-1.57","","<img src=""img/yellow-r.png"">","null","trial","null","","0.2,0.8","2:nogo_b","1",""
"null","","html-keyboard-response","212","299352","0.0-4.0-2.57","","<div style=""font-size:60px;"">+</div>","null","","","","","","",""
"993.1999999284744","","image-keyboard-response","213","300346","0.0-4.0-0.58","","img/purple.png","32","trial","32","true","0.8,0.2","1:go_a","",""
"null","","html-keyboard-response","214","301347","0.0-4.0-1.58","","<img src=""img/purple-r.png"" border=""10"">","null","trial","32","","0.8,0.2","1:go_a","1",""
"null","","html-keyboard-response","215","302348","0.0-4.0-2.58","","<div style=""font-size:60px;"">+</div>","null","","","","","","",""
"null","","image-keyboard-response","216","303849","0.0-4.0-0.59","","img/yellow.png","null","trial","null","true","0.2,0.8","2:nogo_b","",""
"null","","html-keyboard-response","217","304851","0.0-4.0-1.59","","<img src=""img/yellow-r.png"">","null","trial","null","","0.2,0.8","2:nogo_b","1",""
"null","","html-keyboard-response","218","305852","0.0-4.0-2.59","","<div style=""font-size:60px;"">+</div>","null","","","","","","",""
"1919.7999999523163","","instructions","219","307772","0.0-5.0","[{""page_index"":0,""viewing_time"":1919.6999999284744}]","","","","","","","","",""
"755.8999999761581","","image-keyboard-response","220","308529","0.0-6.0-0.0","","img/blue.png","32","trial","32","true","0.8,0.2","1:go_a","",""
"null","","html-keyboard-response","221","309531","0.0-6.0-1.0","","<img src=""img/blue-n.png"" border=""10"">","null","trial","32","","0.8,0.2","1:go_a","0",""
"null","","html-keyboard-response","222","310532","0.0-6.0-2.0","","<div style=""font-size:60px;"">+</div>","null","","","","","","",""
"398.60000002384186","","image-keyboard-response","223","310931","0.0-6.0-0.1","","img/pink.png","32","trial","32","true","0.8,0.2","3:go_c","",""
"null","","html-keyboard-response","224","311933","0.0-6.0-1.1","","<img src=""img/pink-r.png"" border=""10"">","null","trial","32","","0.8,0.2","3:go_c","1",""
"null","","html-keyboard-response","225","312934","0.0-6.0-2.1","","<div style=""font-size:60px;"">+</div>","null","","","","","","",""
"591.3999999761581","","image-keyboard-response","226","313526","0.0-6.0-0.2","","img/purple.png","32","trial","null","false","0.2,0.8","4:nogo_d","",""
"null","","html-keyboard-response","227","314527","0.0-6.0-1.2","","<img src=""img/purple-r.png"" border=""10"">","null","trial","null","","0.2,0.8","4:nogo_d","1",""
"null","","html-keyboard-response","228","315529","0.0-6.0-2.2","","<div style=""font-size:60px;"">+</div>","null","","","","","","",""
"567.6000000238419","","image-keyboard-response","229","316097","0.0-6.0-0.3","","img/green.png","32","trial","null","false","0.2,0.8","2:nogo_b","",""
"null","","html-keyboard-response","230","317098","0.0-6.0-1.3","","<img src=""img/green-r.png"" border=""10"">","null","trial","null","","0.2,0.8","2:nogo_b","1",""
"null","","html-keyboard-response","231","318099","0.0-6.0-2.3","","<div style=""font-size:60px;"">+</div>","null","","","","","","",""
"532","","image-keyboard-response","232","318632","0.0-6.0-0.4","","img/green.png","32","trial","null","false","0.2,0.8","2:nogo_b","",""
"null","","html-keyboard-response","233","319633","0.0-6.0-1.4","","<img src=""img/green-n.png"" border=""10"">","null","trial","null","","0.2,0.8","2:nogo_b","0",""
"null","","html-keyboard-response","234","320634","0.0-6.0-2.4","","<div style=""font-size:60px;"">+</div>","null","","","","","","",""
"633.8999999761581","","image-keyboard-response","235","321270","0.0-6.0-0.5","","img/pink.png","32","trial","32","true","0.8,0.2","3:go_c","",""
"null","","html-keyboard-response","236","322271","0.0-6.0-1.5","","<img src=""img/pink-r.png"" border=""10"">","null","trial","32","","0.8,0.2","3:go_c","1",""
"null","","html-keyboard-response","237","323273","0.0-6.0-2.5","","<div style=""font-size:60px;"">+</div>","null","","","","","","",""
"740.7999999523163","","image-keyboard-response","238","324014","0.0-6.0-0.6","","img/blue.png","32","trial","32","true","0.8,0.2","1:go_a","",""
"null","","html-keyboard-response","239","325015","0.0-6.0-1.6","","<img src=""img/blue-r.png"" border=""10"">","null","trial","32","","0.8,0.2","1:go_a","1",""
"null","","html-keyboard-response","240","326016","0.0-6.0-2.6","","<div style=""font-size:60px;"">+</div>","null","","","","","","",""
"593.7000000476837","","image-keyboard-response","241","326610","0.0-6.0-0.7","","img/purple.png","32","trial","null","false","0.2,0.8","4:nogo_d","",""
"null","","html-keyboard-response","242","327612","0.0-6.0-1.7","","<img src=""img/purple-n.png"" border=""10"">","null","trial","null","","0.2,0.8","4:nogo_d","0",""
"null","","html-keyboard-response","243","328613","0.0-6.0-2.7","","<div style=""font-size:60px;"">+</div>","null","","","","","","",""
"null","","image-keyboard-response","244","330114","0.0-6.0-0.8","","img/green.png","null","trial","null","true","0.2,0.8","2:nogo_b","",""
"null","","html-keyboard-response","245","331115","0.0-6.0-1.8","","<img src=""img/green-r.png"">","null","trial","null","","0.2,0.8","2:nogo_b","1",""
"null","","html-keyboard-response","246","332116","0.0-6.0-2.8","","<div style=""font-size:60px;"">+</div>","null","","","","","","",""
"522","","image-keyboard-response","247","332639","0.0-6.0-0.9","","img/blue.png","32","trial","32","true","0.8,0.2","1:go_a","",""
"null","","html-keyboard-response","248","333640","0.0-6.0-1.9","","<img src=""img/blue-r.png"" border=""10"">","null","trial","32","","0.8,0.2","1:go_a","1",""
"null","","html-keyboard-response","249","334641","0.0-6.0-2.9","","<div style=""font-size:60px;"">+</div>","null","","","","","","",""
"856.1000000238419","","image-keyboard-response","250","335498","0.0-6.0-0.10","","img/purple.png","32","trial","null","false","0.2,0.8","4:nogo_d","",""
"null","","html-keyboard-response","251","336500","0.0-6.0-1.10","","<img src=""img/purple-r.png"" border=""10"">","null","trial","null","","0.2,0.8","4:nogo_d","1",""
"null","","html-keyboard-response","252","337501","0.0-6.0-2.10","","<div style=""font-size:60px;"">+</div>","null","","","","","","",""
"471.1999999284744","","image-keyboard-response","253","337972","0.0-6.0-0.11","","img/pink.png","32","trial","32","true","0.8,0.2","3:go_c","",""
"null","","html-keyboard-response","254","338974","0.0-6.0-1.11","","<img src=""img/pink-r.png"" border=""10"">","null","trial","32","","0.8,0.2","3:go_c","1",""
"null","","html-keyboard-response","255","339975","0.0-6.0-2.11","","<div style=""font-size:60px;"">+</div>","null","","","","","","",""
"436.39999997615814","","image-keyboard-response","256","340412","0.0-6.0-0.12","","img/blue.png","32","trial","32","true","0.8,0.2","1:go_a","",""
"null","","html-keyboard-response","257","341413","0.0-6.0-1.12","","<img src=""img/blue-r.png"" border=""10"">","null","trial","32","","0.8,0.2","1:go_a","1",""
"null","","html-keyboard-response","258","342414","0.0-6.0-2.12","","<div style=""font-size:60px;"">+</div>","null","","","","","","",""
"481.2000000476837","","image-keyboard-response","259","342896","0.0-6.0-0.13","","img/purple.png","32","trial","null","false","0.2,0.8","4:nogo_d","",""
"null","","html-keyboard-response","260","343897","0.0-6.0-1.13","","<img src=""img/purple-n.png"" border=""10"">","null","trial","null","","0.2,0.8","4:nogo_d","0",""
"null","","html-keyboard-response","261","344898","0.0-6.0-2.13","","<div style=""font-size:60px;"">+</div>","null","","","","","","",""
"null","","image-keyboard-response","262","346399","0.0-6.0-0.14","","img/green.png","null","trial","null","true","0.2,0.8","2:nogo_b","",""
"null","","html-keyboard-response","263","347400","0.0-6.0-1.14","","<img src=""img/green-r.png"">","null","trial","null","","0.2,0.8","2:nogo_b","1",""
"null","","html-keyboard-response","264","348402","0.0-6.0-2.14","","<div style=""font-size:60px;"">+</div>","null","","","","","","",""
"618","","image-keyboard-response","265","349020","0.0-6.0-0.15","","img/pink.png","32","trial","32","true","0.8,0.2","3:go_c","",""
"null","","html-keyboard-response","266","350022","0.0-6.0-1.15","","<img src=""img/pink-r.png"" border=""10"">","null","trial","32","","0.8,0.2","3:go_c","1",""
"null","","html-keyboard-response","267","351023","0.0-6.0-2.15","","<div style=""font-size:60px;"">+</div>","null","","","","","","",""
"635.6000000238419","","image-keyboard-response","268","351659","0.0-6.0-0.16","","img/blue.png","32","trial","32","true","0.8,0.2","1:go_a","",""
"null","","html-keyboard-response","269","352661","0.0-6.0-1.16","","<img src=""img/blue-n.png"" border=""10"">","null","trial","32","","0.8,0.2","1:go_a","0",""
"null","","html-keyboard-response","270","353662","0.0-6.0-2.16","","<div style=""font-size:60px;"">+</div>","null","","","","","","",""
"null","","image-keyboard-response","271","355163","0.0-6.0-0.17","","img/green.png","null","trial","null","true","0.2,0.8","2:nogo_b","",""
"null","","html-keyboard-response","272","356164","0.0-6.0-1.17","","<img src=""img/green-r.png"">","null","trial","null","","0.2,0.8","2:nogo_b","1",""
"null","","html-keyboard-response","273","357165","0.0-6.0-2.17","","<div style=""font-size:60px;"">+</div>","null","","","","","","",""
"661.2000000476837","","image-keyboard-response","274","357827","0.0-6.0-0.18","","img/pink.png","32","trial","32","true","0.8,0.2","3:go_c","",""
"null","","html-keyboard-response","275","358829","0.0-6.0-1.18","","<img src=""img/pink-n.png"" border=""10"">","null","trial","32","","0.8,0.2","3:go_c","0",""
"null","","html-keyboard-response","276","359830","0.0-6.0-2.18","","<div style=""font-size:60px;"">+</div>","null","","","","","","",""
"1159","","image-keyboard-response","277","360990","0.0-6.0-0.19","","img/purple.png","32","trial","null","false","0.2,0.8","4:nogo_d","",""
"null","","html-keyboard-response","278","361991","0.0-6.0-1.19","","<img src=""img/purple-r.png"" border=""10"">","null","trial","null","","0.2,0.8","4:nogo_d","1",""
"null","","html-keyboard-response","279","362994","0.0-6.0-2.19","","<div style=""font-size:60px;"">+</div>","null","","","","","","",""
"443.8000000715256","","image-keyboard-response","280","363438","0.0-6.0-0.20","","img/pink.png","32","trial","32","true","0.8,0.2","3:go_c","",""
"null","","html-keyboard-response","281","364441","0.0-6.0-1.20","","<img src=""img/pink-r.png"" border=""10"">","null","trial","32","","0.8,0.2","3:go_c","1",""
"null","","html-keyboard-response","282","365442","0.0-6.0-2.20","","<div style=""font-size:60px;"">+</div>","null","","","","","","",""
"null","","image-keyboard-response","283","366943","0.0-6.0-0.21","","img/green.png","null","trial","null","true","0.2,0.8","2:nogo_b","",""
"null","","html-keyboard-response","284","367944","0.0-6.0-1.21","","<img src=""img/green-r.png"">","null","trial","null","","0.2,0.8","2:nogo_b","1",""
"null","","html-keyboard-response","285","368944","0.0-6.0-2.21","","<div style=""font-size:60px;"">+</div>","null","","","","","","",""
"552.8000000715256","","image-keyboard-response","286","369498","0.0-6.0-0.22","","img/blue.png","32","trial","32","true","0.8,0.2","1:go_a","",""
"null","","html-keyboard-response","287","370513","0.0-6.0-1.22","","<img src=""img/blue-r.png"" border=""10"">","null","trial","32","","0.8,0.2","1:go_a","1",""
"null","","html-keyboard-response","288","371514","0.0-6.0-2.22","","<div style=""font-size:60px;"">+</div>","null","","","","","","",""
"693","","image-keyboard-response","289","372208","0.0-6.0-0.23","","img/purple.png","32","trial","null","false","0.2,0.8","4:nogo_d","",""
"null","","html-keyboard-response","290","373210","0.0-6.0-1.23","","<img src=""img/purple-n.png"" border=""10"">","null","trial","null","","0.2,0.8","4:nogo_d","0",""
"null","","html-keyboard-response","291","374211","0.0-6.0-2.23","","<div style=""font-size:60px;"">+</div>","null","","","","","","",""
"null","","image-keyboard-response","292","375712","0.0-6.0-0.24","","img/purple.png","null","trial","null","true","0.2,0.8","4:nogo_d","",""
"null","","html-keyboard-response","293","376715","0.0-6.0-1.24","","<img src=""img/purple-r.png"">","null","trial","null","","0.2,0.8","4:nogo_d","1",""
"null","","html-keyboard-response","294","377716","0.0-6.0-2.24","","<div style=""font-size:60px;"">+</div>","null","","","","","","",""
"557.8999999761581","","image-keyboard-response","295","378275","0.0-6.0-0.25","","img/blue.png","32","trial","32","true","0.8,0.2","1:go_a","",""
"null","","html-keyboard-response","296","379276","0.0-6.0-1.25","","<img src=""img/blue-r.png"" border=""10"">","null","trial","32","","0.8,0.2","1:go_a","1",""
"null","","html-keyboard-response","297","380277","0.0-6.0-2.25","","<div style=""font-size:60px;"">+</div>","null","","","","","","",""
"null","","image-keyboard-response","298","381778","0.0-6.0-0.26","","img/green.png","null","trial","null","true","0.2,0.8","2:nogo_b","",""
"null","","html-keyboard-response","299","382779","0.0-6.0-1.26","","<img src=""img/green-r.png"">","null","trial","null","","0.2,0.8","2:nogo_b","1",""
"null","","html-keyboard-response","300","383794","0.0-6.0-2.26","","<div style=""font-size:60px;"">+</div>","null","","","","","","",""
"726.6999999284744","","image-keyboard-response","301","384521","0.0-6.0-0.27","","img/pink.png","32","trial","32","true","0.8,0.2","3:go_c","",""
"null","","html-keyboard-response","302","385523","0.0-6.0-1.27","","<img src=""img/pink-n.png"" border=""10"">","null","trial","32","","0.8,0.2","3:go_c","0",""
"null","","html-keyboard-response","303","386524","0.0-6.0-2.27","","<div style=""font-size:60px;"">+</div>","null","","","","","","",""
"1197.6000000238419","","image-keyboard-response","304","387723","0.0-6.0-0.28","","img/blue.png","32","trial","32","true","0.8,0.2","1:go_a","",""
"null","","html-keyboard-response","305","388724","0.0-6.0-1.28","","<img src=""img/blue-r.png"" border=""10"">","null","trial","32","","0.8,0.2","1:go_a","1",""
"null","","html-keyboard-response","306","389725","0.0-6.0-2.28","","<div style=""font-size:60px;"">+</div>","null","","","","","","",""
"null","","image-keyboard-response","307","391226","0.0-6.0-0.29","","img/green.png","null","trial","null","true","0.2,0.8","2:nogo_b","",""
"null","","html-keyboard-response","308","392227","0.0-6.0-1.29","","<img src=""img/green-r.png"">","null","trial","null","","0.2,0.8","2:nogo_b","1",""
"null","","html-keyboard-response","309","393228","0.0-6.0-2.29","","<div style=""font-size:60px;"">+</div>","null","","","","","","",""
"642.6999999284744","","image-keyboard-response","310","393871","0.0-6.0-0.30","","img/pink.png","32","trial","32","true","0.8,0.2","3:go_c","",""
"null","","html-keyboard-response","311","394873","0.0-6.0-1.30","","<img src=""img/pink-r.png"" border=""10"">","null","trial","32","","0.8,0.2","3:go_c","1",""
"null","","html-keyboard-response","312","395874","0.0-6.0-2.30","","<div style=""font-size:60px;"">+</div>","null","","","","","","",""
"null","","image-keyboard-response","313","397375","0.0-6.0-0.31","","img/purple.png","null","trial","null","true","0.2,0.8","4:nogo_d","",""
"null","","html-keyboard-response","314","398376","0.0-6.0-1.31","","<img src=""img/purple-r.png"">","null","trial","null","","0.2,0.8","4:nogo_d","1",""
"null","","html-keyboard-response","315","399377","0.0-6.0-2.31","","<div style=""font-size:60px;"">+</div>","null","","","","","","",""
"null","","image-keyboard-response","316","400888","0.0-6.0-0.32","","img/green.png","null","trial","null","true","0.2,0.8","2:nogo_b","",""
"null","","html-keyboard-response","317","401889","0.0-6.0-1.32","","<img src=""img/green-r.png"">","null","trial","null","","0.2,0.8","2:nogo_b","1",""
"null","","html-keyboard-response","318","402900","0.0-6.0-2.32","","<div style=""font-size:60px;"">+</div>","null","","","","","","",""
"null","","image-keyboard-response","319","404401","0.0-6.0-0.33","","img/purple.png","null","trial","null","true","0.2,0.8","4:nogo_d","",""
"null","","html-keyboard-response","320","405402","0.0-6.0-1.33","","<img src=""img/purple-r.png"">","null","trial","null","","0.2,0.8","4:nogo_d","1",""
"null","","html-keyboard-response","321","406402","0.0-6.0-2.33","","<div style=""font-size:60px;"">+</div>","null","","","","","","",""
"832.8000000715256","","image-keyboard-response","322","407236","0.0-6.0-0.34","","img/pink.png","32","trial","32","true","0.8,0.2","3:go_c","",""
"null","","html-keyboard-response","323","408237","0.0-6.0-1.34","","<img src=""img/pink-n.png"" border=""10"">","null","trial","32","","0.8,0.2","3:go_c","0",""
"null","","html-keyboard-response","324","409238","0.0-6.0-2.34","","<div style=""font-size:60px;"">+</div>","null","","","","","","",""
"602.6000000238419","","image-keyboard-response","325","409842","0.0-6.0-0.35","","img/blue.png","32","trial","32","true","0.8,0.2","1:go_a","",""
"null","","html-keyboard-response","326","410843","0.0-6.0-1.35","","<img src=""img/blue-r.png"" border=""10"">","null","trial","32","","0.8,0.2","1:go_a","1",""
"null","","html-keyboard-response","327","411844","0.0-6.0-2.35","","<div style=""font-size:60px;"">+</div>","null","","","","","","",""
"964.5","","image-keyboard-response","328","412809","0.0-6.0-0.36","","img/pink.png","32","trial","32","true","0.8,0.2","3:go_c","",""
"null","","html-keyboard-response","329","413810","0.0-6.0-1.36","","<img src=""img/pink-r.png"" border=""10"">","null","trial","32","","0.8,0.2","3:go_c","1",""
"null","","html-keyboard-response","330","414811","0.0-6.0-2.36","","<div style=""font-size:60px;"">+</div>","null","","","","","","",""
"701.2000000476837","","image-keyboard-response","331","415513","0.0-6.0-0.37","","img/blue.png","32","trial","32","true","0.8,0.2","1:go_a","",""
"null","","html-keyboard-response","332","416514","0.0-6.0-1.37","","<img src=""img/blue-r.png"" border=""10"">","null","trial","32","","0.8,0.2","1:go_a","1",""
"null","","html-keyboard-response","333","417515","0.0-6.0-2.37","","<div style=""font-size:60px;"">+</div>","null","","","","","","",""
"null","","image-keyboard-response","334","419016","0.0-6.0-0.38","","img/green.png","null","trial","null","true","0.2,0.8","2:nogo_b","",""
"null","","html-keyboard-response","335","420017","0.0-6.0-1.38","","<img src=""img/green-n.png"">","null","trial","null","","0.2,0.8","2:nogo_b","0",""
"null","","html-keyboard-response","336","421018","0.0-6.0-2.38","","<div style=""font-size:60px;"">+</div>","null","","","","","","",""
"null","","image-keyboard-response","337","422519","0.0-6.0-0.39","","img/purple.png","null","trial","null","true","0.2,0.8","4:nogo_d","",""
"null","","html-keyboard-response","338","423521","0.0-6.0-1.39","","<img src=""img/purple-r.png"">","null","trial","null","","0.2,0.8","4:nogo_d","1",""
"null","","html-keyboard-response","339","424522","0.0-6.0-2.39","","<div style=""font-size:60px;"">+</div>","null","","","","","","",""
"null","","image-keyboard-response","340","426024","0.0-6.0-0.40","","img/green.png","null","trial","null","true","0.2,0.8","2:nogo_b","",""
"null","","html-keyboard-response","341","427025","0.0-6.0-1.40","","<img src=""img/green-r.png"">","null","trial","null","","0.2,0.8","2:nogo_b","1",""
"null","","html-keyboard-response","342","428026","0.0-6.0-2.40","","<div style=""font-size:60px;"">+</div>","null","","","","","","",""
"514.2999999523163","","image-keyboard-response","343","428541","0.0-6.0-0.41","","img/blue.png","32","trial","32","true","0.8,0.2","1:go_a","",""
"null","","html-keyboard-response","344","429542","0.0-6.0-1.41","","<img src=""img/blue-r.png"" border=""10"">","null","trial","32","","0.8,0.2","1:go_a","1",""
"null","","html-keyboard-response","345","430543","0.0-6.0-2.41","","<div style=""font-size:60px;"">+</div>","null","","","","","","",""
"713","","image-keyboard-response","346","431257","0.0-6.0-0.42","","img/pink.png","32","trial","32","true","0.8,0.2","3:go_c","",""
"null","","html-keyboard-response","347","432258","0.0-6.0-1.42","","<img src=""img/pink-r.png"" border=""10"">","null","trial","32","","0.8,0.2","3:go_c","1",""
"null","","html-keyboard-response","348","433259","0.0-6.0-2.42","","<div style=""font-size:60px;"">+</div>","null","","","","","","",""
"null","","image-keyboard-response","349","434760","0.0-6.0-0.43","","img/purple.png","null","trial","null","true","0.2,0.8","4:nogo_d","",""
"null","","html-keyboard-response","350","435762","0.0-6.0-1.43","","<img src=""img/purple-r.png"">","null","trial","null","","0.2,0.8","4:nogo_d","1",""
"null","","html-keyboard-response","351","436763","0.0-6.0-2.43","","<div style=""font-size:60px;"">+</div>","null","","","","","","",""
"null","","image-keyboard-response","352","438264","0.0-6.0-0.44","","img/green.png","null","trial","null","true","0.2,0.8","2:nogo_b","",""
"null","","html-keyboard-response","353","439266","0.0-6.0-1.44","","<img src=""img/green-r.png"">","null","trial","null","","0.2,0.8","2:nogo_b","1",""
"null","","html-keyboard-response","354","440267","0.0-6.0-2.44","","<div style=""font-size:60px;"">+</div>","null","","","","","","",""
"null","","image-keyboard-response","355","441768","0.0-6.0-0.45","","img/purple.png","null","trial","null","true","0.2,0.8","4:nogo_d","",""
"null","","html-keyboard-response","356","442769","0.0-6.0-1.45","","<img src=""img/purple-n.png"">","null","trial","null","","0.2,0.8","4:nogo_d","0",""
"null","","html-keyboard-response","357","443770","0.0-6.0-2.45","","<div style=""font-size:60px;"">+</div>","null","","","","","","",""
"788","","image-keyboard-response","358","444559","0.0-6.0-0.46","","img/pink.png","32","trial","32","true","0.8,0.2","3:go_c","",""
"null","","html-keyboard-response","359","445560","0.0-6.0-1.46","","<img src=""img/pink-r.png"" border=""10"">","null","trial","32","","0.8,0.2","3:go_c","1",""
"null","","html-keyboard-response","360","446561","0.0-6.0-2.46","","<div style=""font-size:60px;"">+</div>","null","","","","","","",""
"514.5999999046326","","image-keyboard-response","361","447077","0.0-6.0-0.47","","img/blue.png","32","trial","32","true","0.8,0.2","1:go_a","",""
"null","","html-keyboard-response","362","448077","0.0-6.0-1.47","","<img src=""img/blue-r.png"" border=""10"">","null","trial","32","","0.8,0.2","1:go_a","1",""
"null","","html-keyboard-response","363","449078","0.0-6.0-2.47","","<div style=""font-size:60px;"">+</div>","null","","","","","","",""
"null","","image-keyboard-response","364","450580","0.0-6.0-0.48","","img/green.png","null","trial","null","true","0.2,0.8","2:nogo_b","",""
"null","","html-keyboard-response","365","451582","0.0-6.0-1.48","","<img src=""img/green-r.png"">","null","trial","null","","0.2,0.8","2:nogo_b","1",""
"null","","html-keyboard-response","366","452583","0.0-6.0-2.48","","<div style=""font-size:60px;"">+</div>","null","","","","","","",""
"603.2999999523163","","image-keyboard-response","367","453187","0.0-6.0-0.49","","img/pink.png","32","trial","32","true","0.8,0.2","3:go_c","",""
"null","","html-keyboard-response","368","454188","0.0-6.0-1.49","","<img src=""img/pink-r.png"" border=""10"">","null","trial","32","","0.8,0.2","3:go_c","1",""
"null","","html-keyboard-response","369","455189","0.0-6.0-2.49","","<div style=""font-size:60px;"">+</div>","null","","","","","","",""
"null","","image-keyboard-response","370","456690","0.0-6.0-0.50","","img/purple.png","null","trial","null","true","0.2,0.8","4:nogo_d","",""
"null","","html-keyboard-response","371","457691","0.0-6.0-1.50","","<img src=""img/purple-r.png"">","null","trial","null","","0.2,0.8","4:nogo_d","1",""
"null","","html-keyboard-response","372","458692","0.0-6.0-2.50","","<div style=""font-size:60px;"">+</div>","null","","","","","","",""
"561","","image-keyboard-response","373","459254","0.0-6.0-0.51","","img/blue.png","32","trial","32","true","0.8,0.2","1:go_a","",""
"null","","html-keyboard-response","374","460255","0.0-6.0-1.51","","<img src=""img/blue-r.png"" border=""10"">","null","trial","32","","0.8,0.2","1:go_a","1",""
"null","","html-keyboard-response","375","461256","0.0-6.0-2.51","","<div style=""font-size:60px;"">+</div>","null","","","","","","",""
"892.6000000238419","","image-keyboard-response","376","462150","0.0-6.0-0.52","","img/pink.png","32","trial","32","true","0.8,0.2","3:go_c","",""
"null","","html-keyboard-response","377","463151","0.0-6.0-1.52","","<img src=""img/pink-n.png"" border=""10"">","null","trial","32","","0.8,0.2","3:go_c","0",""
"null","","html-keyboard-response","378","464152","0.0-6.0-2.52","","<div style=""font-size:60px;"">+</div>","null","","","","","","",""
"613.5","","image-keyboard-response","379","464766","0.0-6.0-0.53","","img/blue.png","32","trial","32","true","0.8,0.2","1:go_a","",""
"null","","html-keyboard-response","380","465767","0.0-6.0-1.53","","<img src=""img/blue-r.png"" border=""10"">","null","trial","32","","0.8,0.2","1:go_a","1",""
"null","","html-keyboard-response","381","466769","0.0-6.0-2.53","","<div style=""font-size:60px;"">+</div>","null","","","","","","",""
"null","","image-keyboard-response","382","468282","0.0-6.0-0.54","","img/purple.png","null","trial","null","true","0.2,0.8","4:nogo_d","",""
"null","","html-keyboard-response","383","469285","0.0-6.0-1.54","","<img src=""img/purple-r.png"">","null","trial","null","","0.2,0.8","4:nogo_d","1",""
"null","","html-keyboard-response","384","470285","0.0-6.0-2.54","","<div style=""font-size:60px;"">+</div>","null","","","","","","",""
"null","","image-keyboard-response","385","471786","0.0-6.0-0.55","","img/green.png","null","trial","null","true","0.2,0.8","2:nogo_b","",""
"null","","html-keyboard-response","386","472788","0.0-6.0-1.55","","<img src=""img/green-r.png"">","null","trial","null","","0.2,0.8","2:nogo_b","1",""
"null","","html-keyboard-response","387","473789","0.0-6.0-2.55","","<div style=""font-size:60px;"">+</div>","null","","","","","","",""
"null","","image-keyboard-response","388","475289","0.0-6.0-0.56","","img/purple.png","null","trial","null","true","0.2,0.8","4:nogo_d","",""
"null","","html-keyboard-response","389","476290","0.0-6.0-1.56","","<img src=""img/purple-r.png"">","null","trial","null","","0.2,0.8","4:nogo_d","1",""
"null","","html-keyboard-response","390","477291","0.0-6.0-2.56","","<div style=""font-size:60px;"">+</div>","null","","","","","","",""
"560.9000000953674","","image-keyboard-response","391","477853","0.0-6.0-0.57","","img/pink.png","32","trial","32","true","0.8,0.2","3:go_c","",""
"null","","html-keyboard-response","392","478854","0.0-6.0-1.57","","<img src=""img/pink-r.png"" border=""10"">","null","trial","32","","0.8,0.2","3:go_c","1",""
"null","","html-keyboard-response","393","479856","0.0-6.0-2.57","","<div style=""font-size:60px;"">+</div>","null","","","","","","",""
"1181.3999999761581","","image-keyboard-response","394","481038","0.0-6.0-0.58","","img/blue.png","32","trial","32","true","0.8,0.2","1:go_a","",""
"null","","html-keyboard-response","395","482039","0.0-6.0-1.58","","<img src=""img/blue-r.png"" border=""10"">","null","trial","32","","0.8,0.2","1:go_a","1",""
"null","","html-keyboard-response","396","483040","0.0-6.0-2.58","","<div style=""font-size:60px;"">+</div>","null","","","","","","",""
"null","","image-keyboard-response","397","484541","0.0-6.0-0.59","","img/green.png","null","trial","null","true","0.2,0.8","2:nogo_b","",""
"null","","html-keyboard-response","398","485542","0.0-6.0-1.59","","<img src=""img/green-n.png"">","null","trial","null","","0.2,0.8","2:nogo_b","0",""
"null","","html-keyboard-response","399","486543","0.0-6.0-2.59","","<div style=""font-size:60px;"">+</div>","null","","","","","","",""
"null","","image-keyboard-response","400","488045","0.0-6.0-0.60","","img/green.png","null","trial","null","true","0.2,0.8","2:nogo_b","",""
"null","","html-keyboard-response","401","489046","0.0-6.0-1.60","","<img src=""img/green-r.png"">","null","trial","null","","0.2,0.8","2:nogo_b","1",""
"null","","html-keyboard-response","402","490047","0.0-6.0-2.60","","<div style=""font-size:60px;"">+</div>","null","","","","","","",""
"null","","image-keyboard-response","403","491549","0.0-6.0-0.61","","img/purple.png","null","trial","null","true","0.2,0.8","4:nogo_d","",""
"null","","html-keyboard-response","404","492550","0.0-6.0-1.61","","<img src=""img/purple-r.png"">","null","trial","null","","0.2,0.8","4:nogo_d","1",""
"null","","html-keyboard-response","405","493551","0.0-6.0-2.61","","<div style=""font-size:60px;"">+</div>","null","","","","","","",""
"559.2000000476837","","image-keyboard-response","406","494111","0.0-6.0-0.62","","img/pink.png","32","trial","32","true","0.8,0.2","3:go_c","",""
"null","","html-keyboard-response","407","495112","0.0-6.0-1.62","","<img src=""img/pink-r.png"" border=""10"">","null","trial","32","","0.8,0.2","3:go_c","1",""
"null","","html-keyboard-response","408","496113","0.0-6.0-2.62","","<div style=""font-size:60px;"">+</div>","null","","","","","","",""
"601.1000000238419","","image-keyboard-response","409","496715","0.0-6.0-0.63","","img/blue.png","32","trial","32","true","0.8,0.2","1:go_a","",""
"null","","html-keyboard-response","410","497716","0.0-6.0-1.63","","<img src=""img/blue-r.png"" border=""10"">","null","trial","32","","0.8,0.2","1:go_a","1",""
"null","","html-keyboard-response","411","498717","0.0-6.0-2.63","","<div style=""font-size:60px;"">+</div>","null","","","","","","",""
"null","","image-keyboard-response","412","500219","0.0-6.0-0.64","","img/green.png","null","trial","null","true","0.2,0.8","2:nogo_b","",""
"null","","html-keyboard-response","413","501231","0.0-6.0-1.64","","<img src=""img/green-r.png"">","null","trial","null","","0.2,0.8","2:nogo_b","1",""
"null","","html-keyboard-response","414","502232","0.0-6.0-2.64","","<div style=""font-size:60px;"">+</div>","null","","","","","","",""
"621.6000000238419","","image-keyboard-response","415","502854","0.0-6.0-0.65","","img/pink.png","32","trial","32","true","0.8,0.2","3:go_c","",""
"null","","html-keyboard-response","416","503855","0.0-6.0-1.65","","<img src=""img/pink-n.png"" border=""10"">","null","trial","32","","0.8,0.2","3:go_c","0",""
"null","","html-keyboard-response","417","504856","0.0-6.0-2.65","","<div style=""font-size:60px;"">+</div>","null","","","","","","",""
"453.5","","image-keyboard-response","418","505310","0.0-6.0-0.66","","img/blue.png","32","trial","32","true","0.8,0.2","1:go_a","",""
"null","","html-keyboard-response","419","506311","0.0-6.0-1.66","","<img src=""img/blue-r.png"" border=""10"">","null","trial","32","","0.8,0.2","1:go_a","1",""
"null","","html-keyboard-response","420","507312","0.0-6.0-2.66","","<div style=""font-size:60px;"">+</div>","null","","","","","","",""
"null","","image-keyboard-response","421","508813","0.0-6.0-0.67","","img/purple.png","null","trial","null","true","0.2,0.8","4:nogo_d","",""
"null","","html-keyboard-response","422","509814","0.0-6.0-1.67","","<img src=""img/purple-r.png"">","null","trial","null","","0.2,0.8","4:nogo_d","1",""
"null","","html-keyboard-response","423","510815","0.0-6.0-2.67","","<div style=""font-size:60px;"">+</div>","null","","","","","","",""
"null","","image-keyboard-response","424","512316","0.0-6.0-0.68","","img/green.png","null","trial","null","true","0.2,0.8","2:nogo_b","",""
"null","","html-keyboard-response","425","513318","0.0-6.0-1.68","","<img src=""img/green-r.png"">","null","trial","null","","0.2,0.8","2:nogo_b","1",""
"null","","html-keyboard-response","426","514319","0.0-6.0-2.68","","<div style=""font-size:60px;"">+</div>","null","","","","","","",""
"null","","image-keyboard-response","427","515820","0.0-6.0-0.69","","img/purple.png","null","trial","null","true","0.2,0.8","4:nogo_d","",""
"null","","html-keyboard-response","428","516822","0.0-6.0-1.69","","<img src=""img/purple-r.png"">","null","trial","null","","0.2,0.8","4:nogo_d","1",""
"null","","html-keyboard-response","429","517823","0.0-6.0-2.69","","<div style=""font-size:60px;"">+</div>","null","","","","","","",""
"596.5","","image-keyboard-response","430","518420","0.0-6.0-0.70","","img/blue.png","32","trial","32","true","0.8,0.2","1:go_a","",""
"null","","html-keyboard-response","431","519421","0.0-6.0-1.70","","<img src=""img/blue-r.png"" border=""10"">","null","trial","32","","0.8,0.2","1:go_a","1",""
"null","","html-keyboard-response","432","520431","0.0-6.0-2.70","","<div style=""font-size:60px;"">+</div>","null","","","","","","",""
"656.7000000476837","","image-keyboard-response","433","521089","0.0-6.0-0.71","","img/pink.png","32","trial","32","true","0.8,0.2","3:go_c","",""
"null","","html-keyboard-response","434","522090","0.0-6.0-1.71","","<img src=""img/pink-r.png"" border=""10"">","null","trial","32","","0.8,0.2","3:go_c","1",""
"null","","html-keyboard-response","435","523091","0.0-6.0-2.71","","<div style=""font-size:60px;"">+</div>","null","","","","","","",""
"null","","image-keyboard-response","436","524593","0.0-6.0-0.72","","img/purple.png","null","trial","null","true","0.2,0.8","4:nogo_d","",""
"null","","html-keyboard-response","437","525595","0.0-6.0-1.72","","<img src=""img/purple-r.png"">","null","trial","null","","0.2,0.8","4:nogo_d","1",""
"null","","html-keyboard-response","438","526596","0.0-6.0-2.72","","<div style=""font-size:60px;"">+</div>","null","","","","","","",""
"null","","image-keyboard-response","439","528097","0.0-6.0-0.73","","img/green.png","null","trial","null","true","0.2,0.8","2:nogo_b","",""
"null","","html-keyboard-response","440","529098","0.0-6.0-1.73","","<img src=""img/green-r.png"">","null","trial","null","","0.2,0.8","2:nogo_b","1",""
"null","","html-keyboard-response","441","530099","0.0-6.0-2.73","","<div style=""font-size:60px;"">+</div>","null","","","","","","",""
"543","","image-keyboard-response","442","530642","0.0-6.0-0.74","","img/pink.png","32","trial","32","true","0.8,0.2","3:go_c","",""
"null","","html-keyboard-response","443","531647","0.0-6.0-1.74","","<img src=""img/pink-n.png"" border=""10"">","null","trial","32","","0.8,0.2","3:go_c","0",""
"null","","html-keyboard-response","444","532648","0.0-6.0-2.74","","<div style=""font-size:60px;"">+</div>","null","","","","","","",""
"544.3999999761581","","image-keyboard-response","445","533193","0.0-6.0-0.75","","img/blue.png","32","trial","32","true","0.8,0.2","1:go_a","",""
"null","","html-keyboard-response","446","534195","0.0-6.0-1.75","","<img src=""img/blue-r.png"" border=""10"">","null","trial","32","","0.8,0.2","1:go_a","1",""
"null","","html-keyboard-response","447","535197","0.0-6.0-2.75","","<div style=""font-size:60px;"">+</div>","null","","","","","","",""
"662.7999999523163","","image-keyboard-response","448","535860","0.0-6.0-0.76","","img/blue.png","32","trial","32","true","0.8,0.2","1:go_a","",""
"null","","html-keyboard-response","449","536863","0.0-6.0-1.76","","<img src=""img/blue-r.png"" border=""10"">","null","trial","32","","0.8,0.2","1:go_a","1",""
"null","","html-keyboard-response","450","537864","0.0-6.0-2.76","","<div style=""font-size:60px;"">+</div>","null","","","","","","",""
"null","","image-keyboard-response","451","539365","0.0-6.0-0.77","","img/pink.png","null","trial","32","false","0.8,0.2","3:go_c","",""
"null","","html-keyboard-response","452","540373","0.0-6.0-1.77","","<img src=""img/pink-n.png"">","null","trial","32","","0.8,0.2","3:go_c","0",""
"null","","html-keyboard-response","453","541374","0.0-6.0-2.77","","<div style=""font-size:60px;"">+</div>","null","","","","","","",""
"null","","image-keyboard-response","454","542876","0.0-6.0-0.78","","img/green.png","null","trial","null","true","0.2,0.8","2:nogo_b","",""
"null","","html-keyboard-response","455","543879","0.0-6.0-1.78","","<img src=""img/green-n.png"">","null","trial","null","","0.2,0.8","2:nogo_b","0",""
"null","","html-keyboard-response","456","544880","0.0-6.0-2.78","","<div style=""font-size:60px;"">+</div>","null","","","","","","",""
"null","","image-keyboard-response","457","546381","0.0-6.0-0.79","","img/purple.png","null","trial","null","true","0.2,0.8","4:nogo_d","",""
"null","","html-keyboard-response","458","547383","0.0-6.0-1.79","","<img src=""img/purple-r.png"">","null","trial","null","","0.2,0.8","4:nogo_d","1",""
"null","","html-keyboard-response","459","548384","0.0-6.0-2.79","","<div style=""font-size:60px;"">+</div>","null","","","","","","",""
"null","","image-keyboard-response","460","549885","0.0-6.0-0.80","","img/purple.png","null","trial","null","true","0.2,0.8","4:nogo_d","",""
"null","","html-keyboard-response","461","550886","0.0-6.0-1.80","","<img src=""img/purple-r.png"">","null","trial","null","","0.2,0.8","4:nogo_d","1",""
"null","","html-keyboard-response","462","551887","0.0-6.0-2.80","","<div style=""font-size:60px;"">+</div>","null","","","","","","",""
"641.2000000476837","","image-keyboard-response","463","552529","0.0-6.0-0.81","","img/pink.png","32","trial","32","true","0.8,0.2","3:go_c","",""
"null","","html-keyboard-response","464","553530","0.0-6.0-1.81","","<img src=""img/pink-r.png"" border=""10"">","null","trial","32","","0.8,0.2","3:go_c","1",""
"null","","html-keyboard-response","465","554531","0.0-6.0-2.81","","<div style=""font-size:60px;"">+</div>","null","","","","","","",""
"407.7999999523163","","image-keyboard-response","466","554940","0.0-6.0-0.82","","img/blue.png","32","trial","32","true","0.8,0.2","1:go_a","",""
"null","","html-keyboard-response","467","555941","0.0-6.0-1.82","","<img src=""img/blue-r.png"" border=""10"">","null","trial","32","","0.8,0.2","1:go_a","1",""
"null","","html-keyboard-response","468","556943","0.0-6.0-2.82","","<div style=""font-size:60px;"">+</div>","null","","","","","","",""
"null","","image-keyboard-response","469","558445","0.0-6.0-0.83","","img/green.png","null","trial","null","true","0.2,0.8","2:nogo_b","",""
"null","","html-keyboard-response","470","559448","0.0-6.0-1.83","","<img src=""img/green-r.png"">","null","trial","null","","0.2,0.8","2:nogo_b","1",""
"null","","html-keyboard-response","471","560449","0.0-6.0-2.83","","<div style=""font-size:60px;"">+</div>","null","","","","","","",""
"651.3000000715256","","image-keyboard-response","472","561101","0.0-6.0-0.84","","img/pink.png","32","trial","32","true","0.8,0.2","3:go_c","",""
"null","","html-keyboard-response","473","562102","0.0-6.0-1.84","","<img src=""img/pink-r.png"" border=""10"">","null","trial","32","","0.8,0.2","3:go_c","1",""
"null","","html-keyboard-response","474","563103","0.0-6.0-2.84","","<div style=""font-size:60px;"">+</div>","null","","","","","","",""
"759","","image-keyboard-response","475","563863","0.0-6.0-0.85","","img/blue.png","32","trial","32","true","0.8,0.2","1:go_a","",""
"null","","html-keyboard-response","476","564864","0.0-6.0-1.85","","<img src=""img/blue-r.png"" border=""10"">","null","trial","32","","0.8,0.2","1:go_a","1",""
"null","","html-keyboard-response","477","565864","0.0-6.0-2.85","","<div style=""font-size:60px;"">+</div>","null","","","","","","",""
"null","","image-keyboard-response","478","567366","0.0-6.0-0.86","","img/green.png","null","trial","null","true","0.2,0.8","2:nogo_b","",""
"null","","html-keyboard-response","479","568367","0.0-6.0-1.86","","<img src=""img/green-r.png"">","null","trial","null","","0.2,0.8","2:nogo_b","1",""
"null","","html-keyboard-response","480","569368","0.0-6.0-2.86","","<div style=""font-size:60px;"">+</div>","null","","","","","","",""
"null","","image-keyboard-response","481","570869","0.0-6.0-0.87","","img/purple.png","null","trial","null","true","0.2,0.8","4:nogo_d","",""
"null","","html-keyboard-response","482","571870","0.0-6.0-1.87","","<img src=""img/purple-r.png"">","null","trial","null","","0.2,0.8","4:nogo_d","1",""
"null","","html-keyboard-response","483","572872","0.0-6.0-2.87","","<div style=""font-size:60px;"">+</div>","null","","","","","","",""
"null","","image-keyboard-response","484","574373","0.0-6.0-0.88","","img/green.png","null","trial","null","true","0.2,0.8","2:nogo_b","",""
"null","","html-keyboard-response","485","575374","0.0-6.0-1.88","","<img src=""img/green-r.png"">","null","trial","null","","0.2,0.8","2:nogo_b","1",""
"null","","html-keyboard-response","486","576376","0.0-6.0-2.88","","<div style=""font-size:60px;"">+</div>","null","","","","","","",""
"699.5","","image-keyboard-response","487","577076","0.0-6.0-0.89","","img/blue.png","32","trial","32","true","0.8,0.2","1:go_a","",""
"null","","html-keyboard-response","488","578077","0.0-6.0-1.89","","<img src=""img/blue-r.png"" border=""10"">","null","trial","32","","0.8,0.2","1:go_a","1",""
"null","","html-keyboard-response","489","579078","0.0-6.0-2.89","","<div style=""font-size:60px;"">+</div>","null","","","","","","",""
"null","","image-keyboard-response","490","580580","0.0-6.0-0.90","","img/purple.png","null","trial","null","true","0.2,0.8","4:nogo_d","",""
"null","","html-keyboard-response","491","581581","0.0-6.0-1.90","","<img src=""img/purple-r.png"">","null","trial","null","","0.2,0.8","4:nogo_d","1",""
"null","","html-keyboard-response","492","582582","0.0-6.0-2.90","","<div style=""font-size:60px;"">+</div>","null","","","","","","",""
"null","","image-keyboard-response","493","584083","0.0-6.0-0.91","","img/pink.png","null","trial","32","false","0.8,0.2","3:go_c","",""
"null","","html-keyboard-response","494","585084","0.0-6.0-1.91","","<img src=""img/pink-n.png"">","null","trial","32","","0.8,0.2","3:go_c","0",""
"null","","html-keyboard-response","495","586086","0.0-6.0-2.91","","<div style=""font-size:60px;"">+</div>","null","","","","","","",""
"877.1000000238419","","image-keyboard-response","496","586964","0.0-6.0-0.92","","img/blue.png","32","trial","32","true","0.8,0.2","1:go_a","",""
"null","","html-keyboard-response","497","587965","0.0-6.0-1.92","","<img src=""img/blue-r.png"" border=""10"">","null","trial","32","","0.8,0.2","1:go_a","1",""
"null","","html-keyboard-response","498","588966","0.0-6.0-2.92","","<div style=""font-size:60px;"">+</div>","null","","","","","","",""
"1483.1000000238419","","image-keyboard-response","499","590450","0.0-6.0-0.93","","img/pink.png","32","trial","32","true","0.8,0.2","3:go_c","",""
"null","","html-keyboard-response","500","591461","0.0-6.0-1.93","","<img src=""img/pink-r.png"" border=""10"">","null","trial","32","","0.8,0.2","3:go_c","1",""
"null","","html-keyboard-response","501","592462","0.0-6.0-2.93","","<div style=""font-size:60px;"">+</div>","null","","","","","","",""
"null","","image-keyboard-response","502","593963","0.0-6.0-0.94","","img/green.png","null","trial","null","true","0.2,0.8","2:nogo_b","",""
"null","","html-keyboard-response","503","594965","0.0-6.0-1.94","","<img src=""img/green-r.png"">","null","trial","null","","0.2,0.8","2:nogo_b","1",""
"null","","html-keyboard-response","504","595966","0.0-6.0-2.94","","<div style=""font-size:60px;"">+</div>","null","","","","","","",""
"null","","image-keyboard-response","505","597467","0.0-6.0-0.95","","img/purple.png","null","trial","null","true","0.2,0.8","4:nogo_d","",""
"null","","html-keyboard-response","506","598469","0.0-6.0-1.95","","<img src=""img/purple-r.png"">","null","trial","null","","0.2,0.8","4:nogo_d","1",""
"null","","html-keyboard-response","507","599470","0.0-6.0-2.95","","<div style=""font-size:60px;"">+</div>","null","","","","","","",""
"null","","image-keyboard-response","508","600971","0.0-6.0-0.96","","img/green.png","null","trial","null","true","0.2,0.8","2:nogo_b","",""
"null","","html-keyboard-response","509","601972","0.0-6.0-1.96","","<img src=""img/green-r.png"">","null","trial","null","","0.2,0.8","2:nogo_b","1",""
"null","","html-keyboard-response","510","602973","0.0-6.0-2.96","","<div style=""font-size:60px;"">+</div>","null","","","","","","",""
"null","","image-keyboard-response","511","604474","0.0-6.0-0.97","","img/purple.png","null","trial","null","true","0.2,0.8","4:nogo_d","",""
"null","","html-keyboard-response","512","605475","0.0-6.0-1.97","","<img src=""img/purple-n.png"">","null","trial","null","","0.2,0.8","4:nogo_d","0",""
"null","","html-keyboard-response","513","606476","0.0-6.0-2.97","","<div style=""font-size:60px;"">+</div>","null","","","","","","",""
"null","","image-keyboard-response","514","607978","0.0-6.0-0.98","","img/blue.png","null","trial","32","false","0.8,0.2","1:go_a","",""
"null","","html-keyboard-response","515","608980","0.0-6.0-1.98","","<img src=""img/blue-n.png"">","null","trial","32","","0.8,0.2","1:go_a","0",""
"null","","html-keyboard-response","516","609982","0.0-6.0-2.98","","<div style=""font-size:60px;"">+</div>","null","","","","","","",""
"469.39999997615814","","image-keyboard-response","517","610452","0.0-6.0-0.99","","img/pink.png","32","trial","32","true","0.8,0.2","3:go_c","",""
"null","","html-keyboard-response","518","611453","0.0-6.0-1.99","","<img src=""img/pink-n.png"" border=""10"">","null","trial","32","","0.8,0.2","3:go_c","0",""
"null","","html-keyboard-response","519","612454","0.0-6.0-2.99","","<div style=""font-size:60px;"">+</div>","null","","","","","","",""
"493.2999999523163","","image-keyboard-response","520","612948","0.0-6.0-0.100","","img/blue.png","32","trial","32","true","0.8,0.2","1:go_a","",""
"null","","html-keyboard-response","521","613951","0.0-6.0-1.100","","<img src=""img/blue-r.png"" border=""10"">","null","trial","32","","0.8,0.2","1:go_a","1",""
"null","","html-keyboard-response","522","614952","0.0-6.0-2.100","","<div style=""font-size:60px;"">+</div>","null","","","","","","",""
"null","","image-keyboard-response","523","616453","0.0-6.0-0.101","","img/pink.png","null","trial","32","false","0.8,0.2","3:go_c","",""
"null","","html-keyboard-response","524","617454","0.0-6.0-1.101","","<img src=""img/pink-n.png"">","null","trial","32","","0.8,0.2","3:go_c","0",""
"null","","html-keyboard-response","525","618455","0.0-6.0-2.101","","<div style=""font-size:60px;"">+</div>","null","","","","","","",""
"null","","image-keyboard-response","526","619956","0.0-6.0-0.102","","img/green.png","null","trial","null","true","0.2,0.8","2:nogo_b","",""
"null","","html-keyboard-response","527","620958","0.0-6.0-1.102","","<img src=""img/green-n.png"">","null","trial","null","","0.2,0.8","2:nogo_b","0",""
"null","","html-keyboard-response","528","621959","0.0-6.0-2.102","","<div style=""font-size:60px;"">+</div>","null","","","","","","",""
"null","","image-keyboard-response","529","623460","0.0-6.0-0.103","","img/purple.png","null","trial","null","true","0.2,0.8","4:nogo_d","",""
"null","","html-keyboard-response","530","624461","0.0-6.0-1.103","","<img src=""img/purple-r.png"">","null","trial","null","","0.2,0.8","4:nogo_d","1",""
"null","","html-keyboard-response","531","625463","0.0-6.0-2.103","","<div style=""font-size:60px;"">+</div>","null","","","","","","",""
"629.3999999761581","","image-keyboard-response","532","626093","0.0-6.0-0.104","","img/pink.png","32","trial","32","true","0.8,0.2","3:go_c","",""
"null","","html-keyboard-response","533","627094","0.0-6.0-1.104","","<img src=""img/pink-r.png"" border=""10"">","null","trial","32","","0.8,0.2","3:go_c","1",""
"null","","html-keyboard-response","534","628095","0.0-6.0-2.104","","<div style=""font-size:60px;"">+</div>","null","","","","","","",""
"null","","image-keyboard-response","535","629596","0.0-6.0-0.105","","img/purple.png","null","trial","null","true","0.2,0.8","4:nogo_d","",""
"null","","html-keyboard-response","536","630597","0.0-6.0-1.105","","<img src=""img/purple-r.png"">","null","trial","null","","0.2,0.8","4:nogo_d","1",""
"null","","html-keyboard-response","537","631599","0.0-6.0-2.105","","<div style=""font-size:60px;"">+</div>","null","","","","","","",""
"null","","image-keyboard-response","538","633100","0.0-6.0-0.106","","img/green.png","null","trial","null","true","0.2,0.8","2:nogo_b","",""
"null","","html-keyboard-response","539","634102","0.0-6.0-1.106","","<img src=""img/green-n.png"">","null","trial","null","","0.2,0.8","2:nogo_b","0",""
"null","","html-keyboard-response","540","635103","0.0-6.0-2.106","","<div style=""font-size:60px;"">+</div>","null","","","","","","",""
"540","","image-keyboard-response","541","635644","0.0-6.0-0.107","","img/blue.png","32","trial","32","true","0.8,0.2","1:go_a","",""
"null","","html-keyboard-response","542","636645","0.0-6.0-1.107","","<img src=""img/blue-n.png"" border=""10"">","null","trial","32","","0.8,0.2","1:go_a","0",""
"null","","html-keyboard-response","543","637646","0.0-6.0-2.107","","<div style=""font-size:60px;"">+</div>","null","","","","","","",""
"479.1999999284744","","image-keyboard-response","544","638126","0.0-6.0-0.108","","img/blue.png","32","trial","32","true","0.8,0.2","1:go_a","",""
"null","","html-keyboard-response","545","639130","0.0-6.0-1.108","","<img src=""img/blue-r.png"" border=""10"">","null","trial","32","","0.8,0.2","1:go_a","1",""
"null","","html-keyboard-response","546","640135","0.0-6.0-2.108","","<div style=""font-size:60px;"">+</div>","null","","","","","","",""
"507.6999999284744","","image-keyboard-response","547","640644","0.0-6.0-0.109","","img/pink.png","32","trial","32","true","0.8,0.2","3:go_c","",""
"null","","html-keyboard-response","548","641645","0.0-6.0-1.109","","<img src=""img/pink-n.png"" border=""10"">","null","trial","32","","0.8,0.2","3:go_c","0",""
"null","","html-keyboard-response","549","642646","0.0-6.0-2.109","","<div style=""font-size:60px;"">+</div>","null","","","","","","",""
"null","","image-keyboard-response","550","644147","0.0-6.0-0.110","","img/purple.png","null","trial","null","true","0.2,0.8","4:nogo_d","",""
"null","","html-keyboard-response","551","645149","0.0-6.0-1.110","","<img src=""img/purple-r.png"">","null","trial","null","","0.2,0.8","4:nogo_d","1",""
"null","","html-keyboard-response","552","646150","0.0-6.0-2.110","","<div style=""font-size:60px;"">+</div>","null","","","","","","",""
"null","","image-keyboard-response","553","647651","0.0-6.0-0.111","","img/green.png","null","trial","null","true","0.2,0.8","2:nogo_b","",""
"null","","html-keyboard-response","554","648652","0.0-6.0-1.111","","<img src=""img/green-r.png"">","null","trial","null","","0.2,0.8","2:nogo_b","1",""
"null","","html-keyboard-response","555","649653","0.0-6.0-2.111","","<div style=""font-size:60px;"">+</div>","null","","","","","","",""
"null","","image-keyboard-response","556","651154","0.0-6.0-0.112","","img/green.png","null","trial","null","true","0.2,0.8","2:nogo_b","",""
"null","","html-keyboard-response","557","652155","0.0-6.0-1.112","","<img src=""img/green-r.png"">","null","trial","null","","0.2,0.8","2:nogo_b","1",""
"null","","html-keyboard-response","558","653156","0.0-6.0-2.112","","<div style=""font-size:60px;"">+</div>","null","","","","","","",""
"1032","","image-keyboard-response","559","654189","0.0-6.0-0.113","","img/blue.png","32","trial","32","true","0.8,0.2","1:go_a","",""
"null","","html-keyboard-response","560","655190","0.0-6.0-1.113","","<img src=""img/blue-r.png"" border=""10"">","null","trial","32","","0.8,0.2","1:go_a","1",""
"null","","html-keyboard-response","561","656191","0.0-6.0-2.113","","<div style=""font-size:60px;"">+</div>","null","","","","","","",""
"null","","image-keyboard-response","562","657693","0.0-6.0-0.114","","img/purple.png","null","trial","null","true","0.2,0.8","4:nogo_d","",""
"null","","html-keyboard-response","563","658695","0.0-6.0-1.114","","<img src=""img/purple-r.png"">","null","trial","null","","0.2,0.8","4:nogo_d","1",""
"null","","html-keyboard-response","564","659696","0.0-6.0-2.114","","<div style=""font-size:60px;"">+</div>","null","","","","","","",""
"null","","image-keyboard-response","565","661211","0.0-6.0-0.115","","img/pink.png","null","trial","32","false","0.8,0.2","3:go_c","",""
"null","","html-keyboard-response","566","662227","0.0-6.0-1.115","","<img src=""img/pink-n.png"">","null","trial","32","","0.8,0.2","3:go_c","0",""
"null","","html-keyboard-response","567","663229","0.0-6.0-2.115","","<div style=""font-size:60px;"">+</div>","null","","","","","","",""
"null","","image-keyboard-response","568","664730","0.0-6.0-0.116","","img/green.png","null","trial","null","true","0.2,0.8","2:nogo_b","",""
"null","","html-keyboard-response","569","665731","0.0-6.0-1.116","","<img src=""img/green-n.png"">","null","trial","null","","0.2,0.8","2:nogo_b","0",""
"null","","html-keyboard-response","570","666732","0.0-6.0-2.116","","<div style=""font-size:60px;"">+</div>","null","","","","","","",""
"869.1999999284744","","image-keyboard-response","571","667602","0.0-6.0-0.117","","img/blue.png","32","trial","32","true","0.8,0.2","1:go_a","",""
"null","","html-keyboard-response","572","668603","0.0-6.0-1.117","","<img src=""img/blue-r.png"" border=""10"">","null","trial","32","","0.8,0.2","1:go_a","1",""
"null","","html-keyboard-response","573","669605","0.0-6.0-2.117","","<div style=""font-size:60px;"">+</div>","null","","","","","","",""
"null","","image-keyboard-response","574","671107","0.0-6.0-0.118","","img/purple.png","null","trial","null","true","0.2,0.8","4:nogo_d","",""
"null","","html-keyboard-response","575","672108","0.0-6.0-1.118","","<img src=""img/purple-r.png"">","null","trial","null","","0.2,0.8","4:nogo_d","1",""
"null","","html-keyboard-response","576","673109","0.0-6.0-2.118","","<div style=""font-size:60px;"">+</div>","null","","","","","","",""
"1118.2999999523163","","image-keyboard-response","577","674228","0.0-6.0-0.119","","img/pink.png","32","trial","32","true","0.8,0.2","3:go_c","",""
"null","","html-keyboard-response","578","675230","0.0-6.0-1.119","","<img src=""img/pink-r.png"" border=""10"">","null","trial","32","","0.8,0.2","3:go_c","1",""
"null","","html-keyboard-response","579","676232","0.0-6.0-2.119","","<div style=""font-size:60px;"">+</div>","null","","","","","","",""
"18356.899999976158","","instructions","580","694590","0.0-7.0","[{""page_index"":0,""viewing_time"":18356.700000047684}]","","","","","","","","",""
"1109.2999999523163","","image-keyboard-response","581","695700","0.0-8.0-0.0","","img/orange.png","32","trial","null","false","0.2,0.8","2:nogo_b","",""
"null","","html-keyboard-response","582","696701","0.0-8.0-1.0","","<img src=""img/orange-n.png"" border=""10"">","null","trial","null","","0.2,0.8","2:nogo_b","0",""
"null","","html-keyboard-response","583","697703","0.0-8.0-2.0","","<div style=""font-size:60px;"">+</div>","null","","","","","","",""
"462.5","","image-keyboard-response","584","698165","0.0-8.0-0.1","","img/purple.png","32","trial","32","true","0.6,0.4","3:go_c","",""
"null","","html-keyboard-response","585","699167","0.0-8.0-1.1","","<img src=""img/purple-r.png"" border=""10"">","null","trial","32","","0.6,0.4","3:go_c","1",""
"null","","html-keyboard-response","586","700168","0.0-8.0-2.1","","<div style=""font-size:60px;"">+</div>","null","","","","","","",""
"397","","image-keyboard-response","587","700566","0.0-8.0-0.2","","img/grey.png","32","trial","null","false","0.4,0.6","4:nogo_d","",""
"null","","html-keyboard-response","588","701567","0.0-8.0-1.2","","<img src=""img/grey-n.png"" border=""10"">","null","trial","null","","0.4,0.6","4:nogo_d","0",""
"null","","html-keyboard-response","589","702568","0.0-8.0-2.2","","<div style=""font-size:60px;"">+</div>","null","","","","","","",""
"456.89999997615814","","image-keyboard-response","590","703026","0.0-8.0-0.3","","img/blue.png","32","trial","32","true","0.8,0.2","1:go_a","",""
"null","","html-keyboard-response","591","704027","0.0-8.0-1.3","","<img src=""img/blue-n.png"" border=""10"">","null","trial","32","","0.8,0.2","1:go_a","0",""
"null","","html-keyboard-response","592","705028","0.0-8.0-2.3","","<div style=""font-size:60px;"">+</div>","null","","","","","","",""
"360.7000000476837","","image-keyboard-response","593","705389","0.0-8.0-0.4","","img/purple.png","32","trial","32","true","0.6,0.4","3:go_c","",""
"null","","html-keyboard-response","594","706390","0.0-8.0-1.4","","<img src=""img/purple-n.png"" border=""10"">","null","trial","32","","0.6,0.4","3:go_c","0",""
"null","","html-keyboard-response","595","707391","0.0-8.0-2.4","","<div style=""font-size:60px;"">+</div>","null","","","","","","",""
"258.89999997615814","","image-keyboard-response","596","707651","0.0-8.0-0.5","","img/grey.png","32","trial","null","false","0.4,0.6","4:nogo_d","",""
"null","","html-keyboard-response","597","708652","0.0-8.0-1.5","","<img src=""img/grey-n.png"" border=""10"">","null","trial","null","","0.4,0.6","4:nogo_d","0",""
"null","","html-keyboard-response","598","709653","0.0-8.0-2.5","","<div style=""font-size:60px;"">+</div>","null","","","","","","",""
"366.7999999523163","","image-keyboard-response","599","710021","0.0-8.0-0.6","","img/orange.png","32","trial","null","false","0.2,0.8","2:nogo_b","",""
"null","","html-keyboard-response","600","711022","0.0-8.0-1.6","","<img src=""img/orange-n.png"" border=""10"">","null","trial","null","","0.2,0.8","2:nogo_b","0",""
"null","","html-keyboard-response","601","712023","0.0-8.0-2.6","","<div style=""font-size:60px;"">+</div>","null","","","","","","",""
"205.29999995231628","","image-keyboard-response","602","712229","0.0-8.0-0.7","","img/blue.png","32","trial","32","true","0.8,0.2","1:go_a","",""
"null","","html-keyboard-response","603","713230","0.0-8.0-1.7","","<img src=""img/blue-r.png"" border=""10"">","null","trial","32","","0.8,0.2","1:go_a","1",""
"null","","html-keyboard-response","604","714231","0.0-8.0-2.7","","<div style=""font-size:60px;"">+</div>","null","","","","","","",""
"511.7999999523163","","image-keyboard-response","605","714744","0.0-8.0-0.8","","img/blue.png","32","trial","32","true","0.8,0.2","1:go_a","",""
"null","","html-keyboard-response","606","715744","0.0-8.0-1.8","","<img src=""img/blue-r.png"" border=""10"">","null","trial","32","","0.8,0.2","1:go_a","1",""
"null","","html-keyboard-response","607","716745","0.0-8.0-2.8","","<div style=""font-size:60px;"">+</div>","null","","","","","","",""
"null","","image-keyboard-response","608","718246","0.0-8.0-0.9","","img/orange.png","null","trial","null","true","0.2,0.8","2:nogo_b","",""
"null","","html-keyboard-response","609","719247","0.0-8.0-1.9","","<img src=""img/orange-r.png"">","null","trial","null","","0.2,0.8","2:nogo_b","1",""
"null","","html-keyboard-response","610","720248","0.0-8.0-2.9","","<div style=""font-size:60px;"">+</div>","null","","","","","","",""
"null","","image-keyboard-response","611","721750","0.0-8.0-0.10","","img/grey.png","null","trial","null","true","0.4,0.6","4:nogo_d","",""
"null","","html-keyboard-response","612","722751","0.0-8.0-1.10","","<img src=""img/grey-r.png"">","null","trial","null","","0.4,0.6","4:nogo_d","1",""
"null","","html-keyboard-response","613","723753","0.0-8.0-2.10","","<div style=""font-size:60px;"">+</div>","null","","","","","","",""
"760.5","","image-keyboard-response","614","724514","0.0-8.0-0.11","","img/purple.png","32","trial","32","true","0.6,0.4","3:go_c","",""
"null","","html-keyboard-response","615","725528","0.0-8.0-1.11","","<img src=""img/purple-r.png"" border=""10"">","null","trial","32","","0.6,0.4","3:go_c","1",""
"null","","html-keyboard-response","616","726529","0.0-8.0-2.11","","<div style=""font-size:60px;"">+</div>","null","","","","","","",""
"835.6000000238419","","image-keyboard-response","617","727365","0.0-8.0-0.12","","img/blue.png","32","trial","32","true","0.8,0.2","1:go_a","",""
"null","","html-keyboard-response","618","728371","0.0-8.0-1.12","","<img src=""img/blue-n.png"" border=""10"">","null","trial","32","","0.8,0.2","1:go_a","0",""
"null","","html-keyboard-response","619","729372","0.0-8.0-2.12","","<div style=""font-size:60px;"">+</div>","null","","","","","","",""
"null","","image-keyboard-response","620","730873","0.0-8.0-0.13","","img/orange.png","null","trial","null","true","0.2,0.8","2:nogo_b","",""
"null","","html-keyboard-response","621","731875","0.0-8.0-1.13","","<img src=""img/orange-r.png"">","null","trial","null","","0.2,0.8","2:nogo_b","1",""
"null","","html-keyboard-response","622","732875","0.0-8.0-2.13","","<div style=""font-size:60px;"">+</div>","null","","","","","","",""
"null","","image-keyboard-response","623","734376","0.0-8.0-0.14","","img/grey.png","null","trial","null","true","0.4,0.6","4:nogo_d","",""
"null","","html-keyboard-response","624","735377","0.0-8.0-1.14","","<img src=""img/grey-r.png"">","null","trial","null","","0.4,0.6","4:nogo_d","1",""
"null","","html-keyboard-response","625","736380","0.0-8.0-2.14","","<div style=""font-size:60px;"">+</div>","null","","","","","","",""
"916.3999999761581","","image-keyboard-response","626","737297","0.0-8.0-0.15","","img/purple.png","32","trial","32","true","0.6,0.4","3:go_c","",""
"null","","html-keyboard-response","627","738298","0.0-8.0-1.15","","<img src=""img/purple-r.png"" border=""10"">","null","trial","32","","0.6,0.4","3:go_c","1",""
"null","","html-keyboard-response","628","739299","0.0-8.0-2.15","","<div style=""font-size:60px;"">+</div>","null","","","","","","",""
"752.7999999523163","","image-keyboard-response","629","740052","0.0-8.0-0.16","","img/blue.png","32","trial","32","true","0.8,0.2","1:go_a","",""
"null","","html-keyboard-response","630","741054","0.0-8.0-1.16","","<img src=""img/blue-r.png"" border=""10"">","null","trial","32","","0.8,0.2","1:go_a","1",""
"null","","html-keyboard-response","631","742055","0.0-8.0-2.16","","<div style=""font-size:60px;"">+</div>","null","","","","","","",""
"null","","image-keyboard-response","632","743556","0.0-8.0-0.17","","img/orange.png","null","trial","null","true","0.2,0.8","2:nogo_b","",""
"null","","html-keyboard-response","633","744557","0.0-8.0-1.17","","<img src=""img/orange-r.png"">","null","trial","null","","0.2,0.8","2:nogo_b","1",""
"null","","html-keyboard-response","634","745558","0.0-8.0-2.17","","<div style=""font-size:60px;"">+</div>","null","","","","","","",""
"null","","image-keyboard-response","635","747059","0.0-8.0-0.18","","img/grey.png","null","trial","null","true","0.4,0.6","4:nogo_d","",""
"null","","html-keyboard-response","636","748060","0.0-8.0-1.18","","<img src=""img/grey-r.png"">","null","trial","null","","0.4,0.6","4:nogo_d","1",""
"null","","html-keyboard-response","637","749062","0.0-8.0-2.18","","<div style=""font-size:60px;"">+</div>","null","","","","","","",""
"566.5","","image-keyboard-response","638","749628","0.0-8.0-0.19","","img/purple.png","32","trial","32","true","0.6,0.4","3:go_c","",""
"null","","html-keyboard-response","639","750630","0.0-8.0-1.19","","<img src=""img/purple-n.png"" border=""10"">","null","trial","32","","0.6,0.4","3:go_c","0",""
"null","","html-keyboard-response","640","751631","0.0-8.0-2.19","","<div style=""font-size:60px;"">+</div>","null","","","","","","",""
"null","","image-keyboard-response","641","753133","0.0-8.0-0.20","","img/grey.png","null","trial","null","true","0.4,0.6","4:nogo_d","",""
"null","","html-keyboard-response","642","754134","0.0-8.0-1.20","","<img src=""img/grey-r.png"">","null","trial","null","","0.4,0.6","4:nogo_d","1",""
"null","","html-keyboard-response","643","755135","0.0-8.0-2.20","","<div style=""font-size:60px;"">+</div>","null","","","","","","",""
"null","","image-keyboard-response","644","756636","0.0-8.0-0.21","","img/purple.png","null","trial","32","false","0.6,0.4","3:go_c","",""
"null","","html-keyboard-response","645","757638","0.0-8.0-1.21","","<img src=""img/purple-n.png"">","null","trial","32","","0.6,0.4","3:go_c","0",""
"null","","html-keyboard-response","646","758640","0.0-8.0-2.21","","<div style=""font-size:60px;"">+</div>","null","","","","","","",""
"516.5","","image-keyboard-response","647","759157","0.0-8.0-0.22","","img/blue.png","32","trial","32","true","0.8,0.2","1:go_a","",""
"null","","html-keyboard-response","648","760158","0.0-8.0-1.22","","<img src=""img/blue-n.png"" border=""10"">","null","trial","32","","0.8,0.2","1:go_a","0",""
"null","","html-keyboard-response","649","761160","0.0-8.0-2.22","","<div style=""font-size:60px;"">+</div>","null","","","","","","",""
"null","","image-keyboard-response","650","762660","0.0-8.0-0.23","","img/orange.png","null","trial","null","true","0.2,0.8","2:nogo_b","",""
"null","","html-keyboard-response","651","763661","0.0-8.0-1.23","","<img src=""img/orange-r.png"">","null","trial","null","","0.2,0.8","2:nogo_b","1",""
"null","","html-keyboard-response","652","764662","0.0-8.0-2.23","","<div style=""font-size:60px;"">+</div>","null","","","","","","",""
"470.89999997615814","","image-keyboard-response","653","765134","0.0-8.0-0.24","","img/blue.png","32","trial","32","true","0.8,0.2","1:go_a","",""
"null","","html-keyboard-response","654","766135","0.0-8.0-1.24","","<img src=""img/blue-r.png"" border=""10"">","null","trial","32","","0.8,0.2","1:go_a","1",""
"null","","html-keyboard-response","655","767137","0.0-8.0-2.24","","<div style=""font-size:60px;"">+</div>","null","","","","","","",""
"null","","image-keyboard-response","656","768639","0.0-8.0-0.25","","img/grey.png","null","trial","null","true","0.4,0.6","4:nogo_d","",""
"null","","html-keyboard-response","657","769640","0.0-8.0-1.25","","<img src=""img/grey-r.png"">","null","trial","null","","0.4,0.6","4:nogo_d","1",""
"null","","html-keyboard-response","658","770641","0.0-8.0-2.25","","<div style=""font-size:60px;"">+</div>","null","","","","","","",""
"886.1000000238419","","image-keyboard-response","659","771527","0.0-8.0-0.26","","img/purple.png","32","trial","32","true","0.6,0.4","3:go_c","",""
"null","","html-keyboard-response","660","772529","0.0-8.0-1.26","","<img src=""img/purple-n.png"" border=""10"">","null","trial","32","","0.6,0.4","3:go_c","0",""
"null","","html-keyboard-response","661","773530","0.0-8.0-2.26","","<div style=""font-size:60px;"">+</div>","null","","","","","","",""
"null","","image-keyboard-response","662","775031","0.0-8.0-0.27","","img/orange.png","null","trial","null","true","0.2,0.8","2:nogo_b","",""
"null","","html-keyboard-response","663","776032","0.0-8.0-1.27","","<img src=""img/orange-r.png"">","null","trial","null","","0.2,0.8","2:nogo_b","1",""
"null","","html-keyboard-response","664","777033","0.0-8.0-2.27","","<div style=""font-size:60px;"">+</div>","null","","","","","","",""
"623.6000000238419","","image-keyboard-response","665","777658","0.0-8.0-0.28","","img/blue.png","32","trial","32","true","0.8,0.2","1:go_a","",""
"null","","html-keyboard-response","666","778658","0.0-8.0-1.28","","<img src=""img/blue-r.png"" border=""10"">","null","trial","32","","0.8,0.2","1:go_a","1",""
"null","","html-keyboard-response","667","779659","0.0-8.0-2.28","","<div style=""font-size:60px;"">+</div>","null","","","","","","",""
"null","","image-keyboard-response","668","781161","0.0-8.0-0.29","","img/orange.png","null","trial","null","true","0.2,0.8","2:nogo_b","",""
"null","","html-keyboard-response","669","782162","0.0-8.0-1.29","","<img src=""img/orange-r.png"">","null","trial","null","","0.2,0.8","2:nogo_b","1",""
"null","","html-keyboard-response","670","783163","0.0-8.0-2.29","","<div style=""font-size:60px;"">+</div>","null","","","","","","",""
"null","","image-keyboard-response","671","784664","0.0-8.0-0.30","","img/grey.png","null","trial","null","true","0.4,0.6","4:nogo_d","",""
"null","","html-keyboard-response","672","785665","0.0-8.0-1.30","","<img src=""img/grey-r.png"">","null","trial","null","","0.4,0.6","4:nogo_d","1",""
"null","","html-keyboard-response","673","786666","0.0-8.0-2.30","","<div style=""font-size:60px;"">+</div>","null","","","","","","",""
"692.5","","image-keyboard-response","674","787360","0.0-8.0-0.31","","img/purple.png","32","trial","32","true","0.6,0.4","3:go_c","",""
"null","","html-keyboard-response","675","788361","0.0-8.0-1.31","","<img src=""img/purple-r.png"" border=""10"">","null","trial","32","","0.6,0.4","3:go_c","1",""
"null","","html-keyboard-response","676","789362","0.0-8.0-2.31","","<div style=""font-size:60px;"">+</div>","null","","","","","","",""
"637.7000000476837","","image-keyboard-response","677","790001","0.0-8.0-0.32","","img/purple.png","32","trial","32","true","0.6,0.4","3:go_c","",""
"null","","html-keyboard-response","678","791002","0.0-8.0-1.32","","<img src=""img/purple-n.png"" border=""10"">","null","trial","32","","0.6,0.4","3:go_c","0",""
"null","","html-keyboard-response","679","792004","0.0-8.0-2.32","","<div style=""font-size:60px;"">+</div>","null","","","","","","",""
"null","","image-keyboard-response","680","793505","0.0-8.0-0.33","","img/grey.png","null","trial","null","true","0.4,0.6","4:nogo_d","",""
"null","","html-keyboard-response","681","794506","0.0-8.0-1.33","","<img src=""img/grey-r.png"">","null","trial","null","","0.4,0.6","4:nogo_d","1",""
"null","","html-keyboard-response","682","795507","0.0-8.0-2.33","","<div style=""font-size:60px;"">+</div>","null","","","","","","",""
