"rt","url","trial_type","trial_index","time_elapsed","internal_node_id","view_history","stimulus","key_press","test_part","correct_response","correct","use_rew","which_stim","reward","responses"
"30207.110000003013","consent.html","external-html","0","30253","0.0-0.0","","","","","","","","","",""
"192971.29499999573","","instructions","1","223227","0.0-1.0","[{""page_index"":0,""viewing_time"":12079.894999988028},{""page_index"":1,""viewing_time"":51690.90000000142},{""page_index"":2,""viewing_time"":10478.005000011763},{""page_index"":3,""viewing_time"":39828.96499999333},{""page_index"":4,""viewing_time"":47403.04999999353},{""page_index"":5,""viewing_time"":8619.915000002948},{""page_index"":6,""viewing_time"":22870.089999996708}]","","","","","","","","",""
"null","","image-keyboard-response","2","224728","0.0-2.0-0.0","","img/test3.PNG","null","practice","null","true","","","",""
"null","","html-keyboard-response","3","225729","0.0-2.0-1.0","","<img src=""img/test3-reward.PNG"">","null","","","","","","",""
"null","","html-keyboard-response","4","226730","0.0-2.0-2.0","","<div style=""font-size:60px;"">+</div>","null","","","","","","",""
"447.1650000050431","","image-keyboard-response","5","227177","0.0-2.0-0.1","","img/test1.PNG","32","practice","32","true","","","",""
"null","","html-keyboard-response","6","228179","0.0-2.0-1.1","","<img src=""img/test1-reward.PNG"" border=""10px; grey"">","null","","","","","","",""
"null","","html-keyboard-response","7","229181","0.0-2.0-2.1","","<div style=""font-size:60px;"">+</div>","null","","","","","","",""
"null","","image-keyboard-response","8","230682","0.0-2.0-0.2","","img/test2.PNG","null","practice","null","true","","","",""
"null","","html-keyboard-response","9","231684","0.0-2.0-1.2","","<img src=""img/test2-reward.PNG"">","null","","","","","","",""
"null","","html-keyboard-response","10","232685","0.0-2.0-2.2","","<div style=""font-size:60px;"">+</div>","null","","","","","","",""
"null","","image-keyboard-response","11","234186","0.0-2.0-0.3","","img/test3.PNG","null","practice","null","true","","","",""
"null","","html-keyboard-response","12","235203","0.0-2.0-1.3","","<img src=""img/test3-reward.PNG"">","null","","","","","","",""
"null","","html-keyboard-response","13","236209","0.0-2.0-2.3","","<div style=""font-size:60px;"">+</div>","null","","","","","","",""
"343.22500000416767","","image-keyboard-response","14","236552","0.0-2.0-0.4","","img/test1.PNG","32","practice","32","true","","","",""
"null","","html-keyboard-response","15","237554","0.0-2.0-1.4","","<img src=""img/test1-reward.PNG"" border=""10px; grey"">","null","","","","","","",""
"null","","html-keyboard-response","16","238556","0.0-2.0-2.4","","<div style=""font-size:60px;"">+</div>","null","","","","","","",""
"null","","image-keyboard-response","17","240057","0.0-2.0-0.5","","img/test2.PNG","null","practice","null","true","","","",""
"null","","html-keyboard-response","18","241060","0.0-2.0-1.5","","<img src=""img/test2-reward.PNG"">","null","","","","","","",""
"null","","html-keyboard-response","19","242061","0.0-2.0-2.5","","<div style=""font-size:60px;"">+</div>","null","","","","","","",""
"472.81500000099186","","image-keyboard-response","20","242534","0.0-2.0-0.6","","img/test1.PNG","32","practice","32","true","","","",""
"null","","html-keyboard-response","21","243535","0.0-2.0-1.6","","<img src=""img/test1-reward.PNG"" border=""10px; grey"">","null","","","","","","",""
"null","","html-keyboard-response","22","244537","0.0-2.0-2.6","","<div style=""font-size:60px;"">+</div>","null","","","","","","",""
"null","","image-keyboard-response","23","246039","0.0-2.0-0.7","","img/test2.PNG","null","practice","null","true","","","",""
"null","","html-keyboard-response","24","247041","0.0-2.0-1.7","","<img src=""img/test2-reward.PNG"">","null","","","","","","",""
"null","","html-keyboard-response","25","248042","0.0-2.0-2.7","","<div style=""font-size:60px;"">+</div>","null","","","","","","",""
"null","","image-keyboard-response","26","249544","0.0-2.0-0.8","","img/test3.PNG","null","practice","null","true","","","",""
"null","","html-keyboard-response","27","250545","0.0-2.0-1.8","","<img src=""img/test3-reward.PNG"">","null","","","","","","",""
"null","","html-keyboard-response","28","251545","0.0-2.0-2.8","","<div style=""font-size:60px;"">+</div>","null","","","","","","",""
"null","","image-keyboard-response","29","253046","0.0-2.0-0.9","","img/test2.PNG","null","practice","null","true","","","",""
"null","","html-keyboard-response","30","254048","0.0-2.0-1.9","","<img src=""img/test2-reward.PNG"">","null","","","","","","",""
"null","","html-keyboard-response","31","255050","0.0-2.0-2.9","","<div style=""font-size:60px;"">+</div>","null","","","","","","",""
"null","","image-keyboard-response","32","256551","0.0-2.0-0.10","","img/test3.PNG","null","practice","null","true","","","",""
"null","","html-keyboard-response","33","257552","0.0-2.0-1.10","","<img src=""img/test3-reward.PNG"">","null","","","","","","",""
"null","","html-keyboard-response","34","258554","0.0-2.0-2.10","","<div style=""font-size:60px;"">+</div>","null","","","","","","",""
"335.29999999154825","","image-keyboard-response","35","258890","0.0-2.0-0.11","","img/test1.PNG","32","practice","32","true","","","",""
"null","","html-keyboard-response","36","259891","0.0-2.0-1.11","","<img src=""img/test1-reward.PNG"" border=""10px; grey"">","null","","","","","","",""
"null","","html-keyboard-response","37","260903","0.0-2.0-2.11","","<div style=""font-size:60px;"">+</div>","null","","","","","","",""
"5937.035000009928","","instructions","38","266840","0.0-3.0","[{""page_index"":0,""viewing_time"":5936.915000012959}]","","","","","","","","",""
"849.2349999869475","","image-keyboard-response","39","267690","0.0-4.0-0.0","","img/purple.png","32","trial","32","true","0.8,0.2","1:go_a","",""
"null","","html-keyboard-response","40","268693","0.0-4.0-1.0","","<img src=""img/purple-r.png"" border=""10"">","null","trial","32","","0.8,0.2","1:go_a","1",""
"null","","html-keyboard-response","41","269694","0.0-4.0-2.0","","<div style=""font-size:60px;"">+</div>","null","","","","","","",""
"527.5750000000698","","image-keyboard-response","42","270222","0.0-4.0-0.1","","img/yellow.png","32","trial","null","false","0.2,0.8","2:nogo_b","",""
"null","","html-keyboard-response","43","271225","0.0-4.0-1.1","","<img src=""img/yellow-n.png"" border=""10"">","null","trial","null","","0.2,0.8","2:nogo_b","0",""
"null","","html-keyboard-response","44","272226","0.0-4.0-2.1","","<div style=""font-size:60px;"">+</div>","null","","","","","","",""
"482.90499999711756","","image-keyboard-response","45","272709","0.0-4.0-0.2","","img/purple.png","32","trial","32","true","0.8,0.2","1:go_a","",""
"null","","html-keyboard-response","46","273711","0.0-4.0-1.2","","<img src=""img/purple-n.png"" border=""10"">","null","trial","32","","0.8,0.2","1:go_a","0",""
"null","","html-keyboard-response","47","274713","0.0-4.0-2.2","","<div style=""font-size:60px;"">+</div>","null","","","","","","",""
"524.955000000773","","image-keyboard-response","48","275238","0.0-4.0-0.3","","img/yellow.png","32","trial","null","false","0.2,0.8","2:nogo_b","",""
"null","","html-keyboard-response","49","276240","0.0-4.0-1.3","","<img src=""img/yellow-n.png"" border=""10"">","null","trial","null","","0.2,0.8","2:nogo_b","0",""
"null","","html-keyboard-response","50","277249","0.0-4.0-2.3","","<div style=""font-size:60px;"">+</div>","null","","","","","","",""
"null","","image-keyboard-response","51","278750","0.0-4.0-0.4","","img/yellow.png","null","trial","null","true","0.2,0.8","2:nogo_b","",""
"null","","html-keyboard-response","52","279751","0.0-4.0-1.4","","<img src=""img/yellow-r.png"">","null","trial","null","","0.2,0.8","2:nogo_b","1",""
"null","","html-keyboard-response","53","280752","0.0-4.0-2.4","","<div style=""font-size:60px;"">+</div>","null","","","","","","",""
"473.085000005085","","image-keyboard-response","54","281226","0.0-4.0-0.5","","img/purple.png","32","trial","32","true","0.8,0.2","1:go_a","",""
"null","","html-keyboard-response","55","282227","0.0-4.0-1.5","","<img src=""img/purple-r.png"" border=""10"">","null","trial","32","","0.8,0.2","1:go_a","1",""
"null","","html-keyboard-response","56","283228","0.0-4.0-2.5","","<div style=""font-size:60px;"">+</div>","null","","","","","","",""
"null","","image-keyboard-response","57","284729","0.0-4.0-0.6","","img/yellow.png","null","trial","null","true","0.2,0.8","2:nogo_b","",""
"null","","html-keyboard-response","58","285731","0.0-4.0-1.6","","<img src=""img/yellow-r.png"">","null","trial","null","","0.2,0.8","2:nogo_b","1",""
"null","","html-keyboard-response","59","286731","0.0-4.0-2.6","","<div style=""font-size:60px;"">+</div>","null","","","","","","",""
"594.8449999996228","","image-keyboard-response","60","287327","0.0-4.0-0.7","","img/purple.png","32","trial","32","true","0.8,0.2","1:go_a","",""
"null","","html-keyboard-response","61","288328","0.0-4.0-1.7","","<img src=""img/purple-r.png"" border=""10"">","null","trial","32","","0.8,0.2","1:go_a","1",""
"null","","html-keyboard-response","62","289329","0.0-4.0-2.7","","<div style=""font-size:60px;"">+</div>","null","","","","","","",""
"390.8050000027288","","image-keyboard-response","63","289721","0.0-4.0-0.8","","img/yellow.png","32","trial","null","false","0.2,0.8","2:nogo_b","",""
"null","","html-keyboard-response","64","290721","0.0-4.0-1.8","","<img src=""img/yellow-n.png"" border=""10"">","null","trial","null","","0.2,0.8","2:nogo_b","0",""
"null","","html-keyboard-response","65","291723","0.0-4.0-2.8","","<div style=""font-size:60px;"">+</div>","null","","","","","","",""
"511.7949999985285","","image-keyboard-response","66","292235","0.0-4.0-0.9","","img/purple.png","32","trial","32","true","0.8,0.2","1:go_a","",""
"null","","html-keyboard-response","67","293236","0.0-4.0-1.9","","<img src=""img/purple-r.png"" border=""10"">","null","trial","32","","0.8,0.2","1:go_a","1",""
"null","","html-keyboard-response","68","294238","0.0-4.0-2.9","","<div style=""font-size:60px;"">+</div>","null","","","","","","",""
"356.2999999994645","","image-keyboard-response","69","294595","0.0-4.0-0.10","","img/yellow.png","32","trial","null","false","0.2,0.8","2:nogo_b","",""
"null","","html-keyboard-response","70","295597","0.0-4.0-1.10","","<img src=""img/yellow-n.png"" border=""10"">","null","trial","null","","0.2,0.8","2:nogo_b","0",""
"null","","html-keyboard-response","71","296599","0.0-4.0-2.10","","<div style=""font-size:60px;"">+</div>","null","","","","","","",""
"526.9799999950919","","image-keyboard-response","72","297127","0.0-4.0-0.11","","img/purple.png","32","trial","32","true","0.8,0.2","1:go_a","",""
"null","","html-keyboard-response","73","298128","0.0-4.0-1.11","","<img src=""img/purple-r.png"" border=""10"">","null","trial","32","","0.8,0.2","1:go_a","1",""
"null","","html-keyboard-response","74","299129","0.0-4.0-2.11","","<div style=""font-size:60px;"">+</div>","null","","","","","","",""
"537.3350000008941","","image-keyboard-response","75","299667","0.0-4.0-0.12","","img/purple.png","32","trial","32","true","0.8,0.2","1:go_a","",""
"null","","html-keyboard-response","76","300669","0.0-4.0-1.12","","<img src=""img/purple-r.png"" border=""10"">","null","trial","32","","0.8,0.2","1:go_a","1",""
"null","","html-keyboard-response","77","301670","0.0-4.0-2.12","","<div style=""font-size:60px;"">+</div>","null","","","","","","",""
"null","","image-keyboard-response","78","303172","0.0-4.0-0.13","","img/yellow.png","null","trial","null","true","0.2,0.8","2:nogo_b","",""
"null","","html-keyboard-response","79","304173","0.0-4.0-1.13","","<img src=""img/yellow-r.png"">","null","trial","null","","0.2,0.8","2:nogo_b","1",""
"null","","html-keyboard-response","80","305175","0.0-4.0-2.13","","<div style=""font-size:60px;"">+</div>","null","","","","","","",""
"463.12999998917803","","image-keyboard-response","81","305639","0.0-4.0-0.14","","img/purple.png","32","trial","32","true","0.8,0.2","1:go_a","",""
"null","","html-keyboard-response","82","306640","0.0-4.0-1.14","","<img src=""img/purple-r.png"" border=""10"">","null","trial","32","","0.8,0.2","1:go_a","1",""
"null","","html-keyboard-response","83","307642","0.0-4.0-2.14","","<div style=""font-size:60px;"">+</div>","null","","","","","","",""
"1003.9450000040233","","image-keyboard-response","84","308647","0.0-4.0-0.15","","img/yellow.png","32","trial","null","false","0.2,0.8","2:nogo_b","",""
"null","","html-keyboard-response","85","309648","0.0-4.0-1.15","","<img src=""img/yellow-n.png"" border=""10"">","null","trial","null","","0.2,0.8","2:nogo_b","0",""
"null","","html-keyboard-response","86","310650","0.0-4.0-2.15","","<div style=""font-size:60px;"">+</div>","null","","","","","","",""
"null","","image-keyboard-response","87","312151","0.0-4.0-0.16","","img/yellow.png","null","trial","null","true","0.2,0.8","2:nogo_b","",""
"null","","html-keyboard-response","88","313153","0.0-4.0-1.16","","<img src=""img/yellow-r.png"">","null","trial","null","","0.2,0.8","2:nogo_b","1",""
"null","","html-keyboard-response","89","314164","0.0-4.0-2.16","","<div style=""font-size:60px;"">+</div>","null","","","","","","",""
"456.7349999997532","","image-keyboard-response","90","314621","0.0-4.0-0.17","","img/purple.png","32","trial","32","true","0.8,0.2","1:go_a","",""
"null","","html-keyboard-response","91","315624","0.0-4.0-1.17","","<img src=""img/purple-r.png"" border=""10"">","null","trial","32","","0.8,0.2","1:go_a","1",""
"null","","html-keyboard-response","92","316625","0.0-4.0-2.17","","<div style=""font-size:60px;"">+</div>","null","","","","","","",""
"null","","image-keyboard-response","93","318127","0.0-4.0-0.18","","img/yellow.png","null","trial","null","true","0.2,0.8","2:nogo_b","",""
"null","","html-keyboard-response","94","319129","0.0-4.0-1.18","","<img src=""img/yellow-r.png"">","null","trial","null","","0.2,0.8","2:nogo_b","1",""
"null","","html-keyboard-response","95","320130","0.0-4.0-2.18","","<div style=""font-size:60px;"">+</div>","null","","","","","","",""
"470.0850000081118","","image-keyboard-response","96","320601","0.0-4.0-0.19","","img/purple.png","32","trial","32","true","0.8,0.2","1:go_a","",""
"null","","html-keyboard-response","97","321602","0.0-4.0-1.19","","<img src=""img/purple-n.png"" border=""10"">","null","trial","32","","0.8,0.2","1:go_a","0",""
"null","","html-keyboard-response","98","322603","0.0-4.0-2.19","","<div style=""font-size:60px;"">+</div>","null","","","","","","",""
"462.9750000021886","","image-keyboard-response","99","323067","0.0-4.0-0.20","","img/purple.png","32","trial","32","true","0.8,0.2","1:go_a","",""
"null","","html-keyboard-response","100","324068","0.0-4.0-1.20","","<img src=""img/purple-r.png"" border=""10"">","null","trial","32","","0.8,0.2","1:go_a","1",""
"null","","html-keyboard-response","101","325069","0.0-4.0-2.20","","<div style=""font-size:60px;"">+</div>","null","","","","","","",""
"355.99999999976717","","image-keyboard-response","102","325426","0.0-4.0-0.21","","img/yellow.png","32","trial","null","false","0.2,0.8","2:nogo_b","",""
"null","","html-keyboard-response","103","326427","0.0-4.0-1.21","","<img src=""img/yellow-n.png"" border=""10"">","null","trial","null","","0.2,0.8","2:nogo_b","0",""
"null","","html-keyboard-response","104","327428","0.0-4.0-2.21","","<div style=""font-size:60px;"">+</div>","null","","","","","","",""
"359.7999999910826","","image-keyboard-response","105","327789","0.0-4.0-0.22","","img/yellow.png","32","trial","null","false","0.2,0.8","2:nogo_b","",""
"null","","html-keyboard-response","106","328789","0.0-4.0-1.22","","<img src=""img/yellow-n.png"" border=""10"">","null","trial","null","","0.2,0.8","2:nogo_b","0",""
"null","","html-keyboard-response","107","329791","0.0-4.0-2.22","","<div style=""font-size:60px;"">+</div>","null","","","","","","",""
"478.8799999951152","","image-keyboard-response","108","330271","0.0-4.0-0.23","","img/purple.png","32","trial","32","true","0.8,0.2","1:go_a","",""
"null","","html-keyboard-response","109","331271","0.0-4.0-1.23","","<img src=""img/purple-r.png"" border=""10"">","null","trial","32","","0.8,0.2","1:go_a","1",""
"null","","html-keyboard-response","110","332272","0.0-4.0-2.23","","<div style=""font-size:60px;"">+</div>","null","","","","","","",""
"703.2550000003539","","image-keyboard-response","111","332976","0.0-4.0-0.24","","img/purple.png","32","trial","32","true","0.8,0.2","1:go_a","",""
"null","","html-keyboard-response","112","333978","0.0-4.0-1.24","","<img src=""img/purple-r.png"" border=""10"">","null","trial","32","","0.8,0.2","1:go_a","1",""
"null","","html-keyboard-response","113","334980","0.0-4.0-2.24","","<div style=""font-size:60px;"">+</div>","null","","","","","","",""
"null","","image-keyboard-response","114","336480","0.0-4.0-0.25","","img/yellow.png","null","trial","null","true","0.2,0.8","2:nogo_b","",""
"null","","html-keyboard-response","115","337482","0.0-4.0-1.25","","<img src=""img/yellow-r.png"">","null","trial","null","","0.2,0.8","2:nogo_b","1",""
"null","","html-keyboard-response","116","338483","0.0-4.0-2.25","","<div style=""font-size:60px;"">+</div>","null","","","","","","",""
"null","","image-keyboard-response","117","339984","0.0-4.0-0.26","","img/yellow.png","null","trial","null","true","0.2,0.8","2:nogo_b","",""
"null","","html-keyboard-response","118","341000","0.0-4.0-1.26","","<img src=""img/yellow-r.png"">","null","trial","null","","0.2,0.8","2:nogo_b","1",""
"null","","html-keyboard-response","119","342001","0.0-4.0-2.26","","<div style=""font-size:60px;"">+</div>","null","","","","","","",""
"467.8049999929499","","image-keyboard-response","120","342469","0.0-4.0-0.27","","img/purple.png","32","trial","32","true","0.8,0.2","1:go_a","",""
"null","","html-keyboard-response","121","343470","0.0-4.0-1.27","","<img src=""img/purple-r.png"" border=""10"">","null","trial","32","","0.8,0.2","1:go_a","1",""
"null","","html-keyboard-response","122","344471","0.0-4.0-2.27","","<div style=""font-size:60px;"">+</div>","null","","","","","","",""
"634.0800000034506","","image-keyboard-response","123","345106","0.0-4.0-0.28","","img/yellow.png","32","trial","null","false","0.2,0.8","2:nogo_b","",""
"null","","html-keyboard-response","124","346106","0.0-4.0-1.28","","<img src=""img/yellow-r.png"" border=""10"">","null","trial","null","","0.2,0.8","2:nogo_b","1",""
"null","","html-keyboard-response","125","347108","0.0-4.0-2.28","","<div style=""font-size:60px;"">+</div>","null","","","","","","",""
"488.0550000088988","","image-keyboard-response","126","347597","0.0-4.0-0.29","","img/purple.png","32","trial","32","true","0.8,0.2","1:go_a","",""
"null","","html-keyboard-response","127","348598","0.0-4.0-1.29","","<img src=""img/purple-r.png"" border=""10"">","null","trial","32","","0.8,0.2","1:go_a","1",""
"null","","html-keyboard-response","128","349599","0.0-4.0-2.29","","<div style=""font-size:60px;"">+</div>","null","","","","","","",""
"285.1899999950547","","image-keyboard-response","129","349885","0.0-4.0-0.30","","img/purple.png","32","trial","32","true","0.8,0.2","1:go_a","",""
"null","","html-keyboard-response","130","350886","0.0-4.0-1.30","","<img src=""img/purple-r.png"" border=""10"">","null","trial","32","","0.8,0.2","1:go_a","1",""
"null","","html-keyboard-response","131","351887","0.0-4.0-2.30","","<div style=""font-size:60px;"">+</div>","null","","","","","","",""
"731.0200000065379","","image-keyboard-response","132","352619","0.0-4.0-0.31","","img/yellow.png","32","trial","null","false","0.2,0.8","2:nogo_b","",""
"null","","html-keyboard-response","133","353620","0.0-4.0-1.31","","<img src=""img/yellow-n.png"" border=""10"">","null","trial","null","","0.2,0.8","2:nogo_b","0",""
"null","","html-keyboard-response","134","354621","0.0-4.0-2.31","","<div style=""font-size:60px;"">+</div>","null","","","","","","",""
"275.98000000580214","","image-keyboard-response","135","354898","0.0-4.0-0.32","","img/purple.png","32","trial","32","true","0.8,0.2","1:go_a","",""
"null","","html-keyboard-response","136","355899","0.0-4.0-1.32","","<img src=""img/purple-r.png"" border=""10"">","null","trial","32","","0.8,0.2","1:go_a","1",""
"null","","html-keyboard-response","137","356901","0.0-4.0-2.32","","<div style=""font-size:60px;"">+</div>","null","","","","","","",""
"null","","image-keyboard-response","138","358402","0.0-4.0-0.33","","img/yellow.png","null","trial","null","true","0.2,0.8","2:nogo_b","",""
"null","","html-keyboard-response","139","359404","0.0-4.0-1.33","","<img src=""img/yellow-r.png"">","null","trial","null","","0.2,0.8","2:nogo_b","1",""
"null","","html-keyboard-response","140","360406","0.0-4.0-2.33","","<div style=""font-size:60px;"">+</div>","null","","","","","","",""
"356.42000001098495","","image-keyboard-response","141","360763","0.0-4.0-0.34","","img/purple.png","32","trial","32","true","0.8,0.2","1:go_a","",""
"null","","html-keyboard-response","142","361776","0.0-4.0-1.34","","<img src=""img/purple-r.png"" border=""10"">","null","trial","32","","0.8,0.2","1:go_a","1",""
"null","","html-keyboard-response","143","362777","0.0-4.0-2.34","","<div style=""font-size:60px;"">+</div>","null","","","","","","",""
"356.0050000087358","","image-keyboard-response","144","363133","0.0-4.0-0.35","","img/yellow.png","32","trial","null","false","0.2,0.8","2:nogo_b","",""
"null","","html-keyboard-response","145","364135","0.0-4.0-1.35","","<img src=""img/yellow-n.png"" border=""10"">","null","trial","null","","0.2,0.8","2:nogo_b","0",""
"null","","html-keyboard-response","146","365136","0.0-4.0-2.35","","<div style=""font-size:60px;"">+</div>","null","","","","","","",""
"null","","image-keyboard-response","147","366637","0.0-4.0-0.36","","img/yellow.png","null","trial","null","true","0.2,0.8","2:nogo_b","",""
"null","","html-keyboard-response","148","367639","0.0-4.0-1.36","","<img src=""img/yellow-r.png"">","null","trial","null","","0.2,0.8","2:nogo_b","1",""
"null","","html-keyboard-response","149","368640","0.0-4.0-2.36","","<div style=""font-size:60px;"">+</div>","null","","","","","","",""
"478.99999999208376","","image-keyboard-response","150","369120","0.0-4.0-0.37","","img/purple.png","32","trial","32","true","0.8,0.2","1:go_a","",""
"null","","html-keyboard-response","151","370121","0.0-4.0-1.37","","<img src=""img/purple-r.png"" border=""10"">","null","trial","32","","0.8,0.2","1:go_a","1",""
"null","","html-keyboard-response","152","371122","0.0-4.0-2.37","","<div style=""font-size:60px;"">+</div>","null","","","","","","",""
"null","","image-keyboard-response","153","372624","0.0-4.0-0.38","","img/yellow.png","null","trial","null","true","0.2,0.8","2:nogo_b","",""
"null","","html-keyboard-response","154","373625","0.0-4.0-1.38","","<img src=""img/yellow-r.png"">","null","trial","null","","0.2,0.8","2:nogo_b","1",""
"null","","html-keyboard-response","155","374626","0.0-4.0-2.38","","<div style=""font-size:60px;"">+</div>","null","","","","","","",""
"343.9549999893643","","image-keyboard-response","156","374971","0.0-4.0-0.39","","img/purple.png","32","trial","32","true","0.8,0.2","1:go_a","",""
"null","","html-keyboard-response","157","375974","0.0-4.0-1.39","","<img src=""img/purple-r.png"" border=""10"">","null","trial","32","","0.8,0.2","1:go_a","1",""
"null","","html-keyboard-response","158","376974","0.0-4.0-2.39","","<div style=""font-size:60px;"">+</div>","null","","","","","","",""
"803.9949999947567","","image-keyboard-response","159","377778","0.0-4.0-0.40","","img/purple.png","32","trial","32","true","0.8,0.2","1:go_a","",""
"null","","html-keyboard-response","160","378779","0.0-4.0-1.40","","<img src=""img/purple-r.png"" border=""10"">","null","trial","32","","0.8,0.2","1:go_a","1",""
"null","","html-keyboard-response","161","379780","0.0-4.0-2.40","","<div style=""font-size:60px;"">+</div>","null","","","","","","",""
"402.604999995674","","image-keyboard-response","162","380183","0.0-4.0-0.41","","img/yellow.png","32","trial","null","false","0.2,0.8","2:nogo_b","",""
"null","","html-keyboard-response","163","381185","0.0-4.0-1.41","","<img src=""img/yellow-r.png"" border=""10"">","null","trial","null","","0.2,0.8","2:nogo_b","1",""
"null","","html-keyboard-response","164","382187","0.0-4.0-2.41","","<div style=""font-size:60px;"">+</div>","null","","","","","","",""
"385.08000000729226","","image-keyboard-response","165","382573","0.0-4.0-0.42","","img/purple.png","32","trial","32","true","0.8,0.2","1:go_a","",""
"null","","html-keyboard-response","166","383574","0.0-4.0-1.42","","<img src=""img/purple-r.png"" border=""10"">","null","trial","32","","0.8,0.2","1:go_a","1",""
"null","","html-keyboard-response","167","384575","0.0-4.0-2.42","","<div style=""font-size:60px;"">+</div>","null","","","","","","",""
"467.545000006794","","image-keyboard-response","168","385043","0.0-4.0-0.43","","img/yellow.png","32","trial","null","false","0.2,0.8","2:nogo_b","",""
"null","","html-keyboard-response","169","386045","0.0-4.0-1.43","","<img src=""img/yellow-n.png"" border=""10"">","null","trial","null","","0.2,0.8","2:nogo_b","0",""
"null","","html-keyboard-response","170","387046","0.0-4.0-2.43","","<div style=""font-size:60px;"">+</div>","null","","","","","","",""
"428.80999999761116","","image-keyboard-response","171","387475","0.0-4.0-0.44","","img/yellow.png","32","trial","null","false","0.2,0.8","2:nogo_b","",""
"null","","html-keyboard-response","172","388477","0.0-4.0-1.44","","<img src=""img/yellow-n.png"" border=""10"">","null","trial","null","","0.2,0.8","2:nogo_b","0",""
"null","","html-keyboard-response","173","389479","0.0-4.0-2.44","","<div style=""font-size:60px;"">+</div>","null","","","","","","",""
"310.97000000590924","","image-keyboard-response","174","389790","0.0-4.0-0.45","","img/purple.png","32","trial","32","true","0.8,0.2","1:go_a","",""
"null","","html-keyboard-response","175","390792","0.0-4.0-1.45","","<img src=""img/purple-r.png"" border=""10"">","null","trial","32","","0.8,0.2","1:go_a","1",""
"null","","html-keyboard-response","176","391793","0.0-4.0-2.45","","<div style=""font-size:60px;"">+</div>","null","","","","","","",""
"null","","image-keyboard-response","177","393295","0.0-4.0-0.46","","img/yellow.png","null","trial","null","true","0.2,0.8","2:nogo_b","",""
"null","","html-keyboard-response","178","394296","0.0-4.0-1.46","","<img src=""img/yellow-r.png"">","null","trial","null","","0.2,0.8","2:nogo_b","1",""
"null","","html-keyboard-response","179","395297","0.0-4.0-2.46","","<div style=""font-size:60px;"">+</div>","null","","","","","","",""
"422.25999999209307","","image-keyboard-response","180","395720","0.0-4.0-0.47","","img/purple.png","32","trial","32","true","0.8,0.2","1:go_a","",""
"null","","html-keyboard-response","181","396721","0.0-4.0-1.47","","<img src=""img/purple-r.png"" border=""10"">","null","trial","32","","0.8,0.2","1:go_a","1",""
"null","","html-keyboard-response","182","397723","0.0-4.0-2.47","","<div style=""font-size:60px;"">+</div>","null","","","","","","",""
"589.0050000016345","","image-keyboard-response","183","398312","0.0-4.0-0.48","","img/purple.png","32","trial","32","true","0.8,0.2","1:go_a","",""
"null","","html-keyboard-response","184","399314","0.0-4.0-1.48","","<img src=""img/purple-r.png"" border=""10"">","null","trial","32","","0.8,0.2","1:go_a","1",""
"null","","html-keyboard-response","185","400315","0.0-4.0-2.48","","<div style=""font-size:60px;"">+</div>","null","","","","","","",""
"null","","image-keyboard-response","186","401816","0.0-4.0-0.49","","img/yellow.png","null","trial","null","true","0.2,0.8","2:nogo_b","",""
"null","","html-keyboard-response","187","402817","0.0-4.0-1.49","","<img src=""img/yellow-r.png"">","null","trial","null","","0.2,0.8","2:nogo_b","1",""
"null","","html-keyboard-response","188","403818","0.0-4.0-2.49","","<div style=""font-size:60px;"">+</div>","null","","","","","","",""
"1186.054999998305","","image-keyboard-response","189","405005","0.0-4.0-0.50","","img/yellow.png","32","trial","null","false","0.2,0.8","2:nogo_b","",""
"null","","html-keyboard-response","190","406005","0.0-4.0-1.50","","<img src=""img/yellow-r.png"" border=""10"">","null","trial","null","","0.2,0.8","2:nogo_b","1",""
"null","","html-keyboard-response","191","407006","0.0-4.0-2.50","","<div style=""font-size:60px;"">+</div>","null","","","","","","",""
"null","","image-keyboard-response","192","408506","0.0-4.0-0.51","","img/purple.png","null","trial","32","false","0.8,0.2","1:go_a","",""
"null","","html-keyboard-response","193","409508","0.0-4.0-1.51","","<img src=""img/purple-n.png"">","null","trial","32","","0.8,0.2","1:go_a","0",""
"null","","html-keyboard-response","194","410510","0.0-4.0-2.51","","<div style=""font-size:60px;"">+</div>","null","","","","","","",""
"null","","image-keyboard-response","195","412012","0.0-4.0-0.52","","img/yellow.png","null","trial","null","true","0.2,0.8","2:nogo_b","",""
"null","","html-keyboard-response","196","413013","0.0-4.0-1.52","","<img src=""img/yellow-n.png"">","null","trial","null","","0.2,0.8","2:nogo_b","0",""
"null","","html-keyboard-response","197","414013","0.0-4.0-2.52","","<div style=""font-size:60px;"">+</div>","null","","","","","","",""
"470.79999999550637","","image-keyboard-response","198","414485","0.0-4.0-0.53","","img/purple.png","32","trial","32","true","0.8,0.2","1:go_a","",""
"null","","html-keyboard-response","199","415486","0.0-4.0-1.53","","<img src=""img/purple-r.png"" border=""10"">","null","trial","32","","0.8,0.2","1:go_a","1",""
"null","","html-keyboard-response","200","416488","0.0-4.0-2.53","","<div style=""font-size:60px;"">+</div>","null","","","","","","",""
"null","","image-keyboard-response","201","417989","0.0-4.0-0.54","","img/yellow.png","null","trial","null","true","0.2,0.8","2:nogo_b","",""
"null","","html-keyboard-response","202","418990","0.0-4.0-1.54","","<img src=""img/yellow-r.png"">","null","trial","null","","0.2,0.8","2:nogo_b","1",""
"null","","html-keyboard-response","203","419992","0.0-4.0-2.54","","<div style=""font-size:60px;"">+</div>","null","","","","","","",""
"481.5050000033807","","image-keyboard-response","204","420474","0.0-4.0-0.55","","img/purple.png","32","trial","32","true","0.8,0.2","1:go_a","",""
"null","","html-keyboard-response","205","421476","0.0-4.0-1.55","","<img src=""img/purple-r.png"" border=""10"">","null","trial","32","","0.8,0.2","1:go_a","1",""
"null","","html-keyboard-response","206","422478","0.0-4.0-2.55","","<div style=""font-size:60px;"">+</div>","null","","","","","","",""
"null","","image-keyboard-response","207","423979","0.0-4.0-0.56","","img/yellow.png","null","trial","null","true","0.2,0.8","2:nogo_b","",""
"null","","html-keyboard-response","208","424981","0.0-4.0-1.56","","<img src=""img/yellow-r.png"">","null","trial","null","","0.2,0.8","2:nogo_b","1",""
"null","","html-keyboard-response","209","425982","0.0-4.0-2.56","","<div style=""font-size:60px;"">+</div>","null","","","","","","",""
"447.03999999910593","","image-keyboard-response","210","426430","0.0-4.0-0.57","","img/purple.png","32","trial","32","true","0.8,0.2","1:go_a","",""
"null","","html-keyboard-response","211","427431","0.0-4.0-1.57","","<img src=""img/purple-r.png"" border=""10"">","null","trial","32","","0.8,0.2","1:go_a","1",""
"null","","html-keyboard-response","212","428432","0.0-4.0-2.57","","<div style=""font-size:60px;"">+</div>","null","","","","","","",""
"650.950000010198","","image-keyboard-response","213","429083","0.0-4.0-0.58","","img/yellow.png","32","trial","null","false","0.2,0.8","2:nogo_b","",""
"null","","html-keyboard-response","214","430085","0.0-4.0-1.58","","<img src=""img/yellow-n.png"" border=""10"">","null","trial","null","","0.2,0.8","2:nogo_b","0",""
"null","","html-keyboard-response","215","431087","0.0-4.0-2.58","","<div style=""font-size:60px;"">+</div>","null","","","","","","",""
"631.2550000002375","","image-keyboard-response","216","431719","0.0-4.0-0.59","","img/purple.png","32","trial","32","true","0.8,0.2","1:go_a","",""
"null","","html-keyboard-response","217","432721","0.0-4.0-1.59","","<img src=""img/purple-r.png"" border=""10"">","null","trial","32","","0.8,0.2","1:go_a","1",""
"null","","html-keyboard-response","218","433726","0.0-4.0-2.59","","<div style=""font-size:60px;"">+</div>","null","","","","","","",""
"28107.28999999992","","instructions","219","461833","0.0-5.0","[{""page_index"":0,""viewing_time"":28107.140000007348}]","","","","","","","","",""
"null","","image-keyboard-response","220","463335","0.0-6.0-0.0","","img/orange.png","null","trial","null","true","0.4,0.6","4:nogo_d","",""
"null","","html-keyboard-response","221","464336","0.0-6.0-1.0","","<img src=""img/orange-r.png"">","null","trial","null","","0.4,0.6","4:nogo_d","1",""
"null","","html-keyboard-response","222","465337","0.0-6.0-2.0","","<div style=""font-size:60px;"">+</div>","null","","","","","","",""
"470.79500000108965","","image-keyboard-response","223","465808","0.0-6.0-0.1","","img/pink.png","32","trial","null","false","0.4,0.6","2:nogo_b","",""
"null","","html-keyboard-response","224","466810","0.0-6.0-1.1","","<img src=""img/pink-r.png"" border=""10"">","null","trial","null","","0.4,0.6","2:nogo_b","1",""
"null","","html-keyboard-response","225","467811","0.0-6.0-2.1","","<div style=""font-size:60px;"">+</div>","null","","","","","","",""
"null","","image-keyboard-response","226","469312","0.0-6.0-0.2","","img/red.png","null","trial","32","false","0.6,0.4","1:go_a","",""
"null","","html-keyboard-response","227","470315","0.0-6.0-1.2","","<img src=""img/red-r.png"">","null","trial","32","","0.6,0.4","1:go_a","1",""
"null","","html-keyboard-response","228","471317","0.0-6.0-2.2","","<div style=""font-size:60px;"">+</div>","null","","","","","","",""
"598.3249999990221","","image-keyboard-response","229","471915","0.0-6.0-0.3","","img/blue.png","32","trial","32","true","0.6,0.4","3:go_c","",""
"null","","html-keyboard-response","230","472917","0.0-6.0-1.3","","<img src=""img/blue-r.png"" border=""10"">","null","trial","32","","0.6,0.4","3:go_c","1",""
"null","","html-keyboard-response","231","473918","0.0-6.0-2.3","","<div style=""font-size:60px;"">+</div>","null","","","","","","",""
"556.2449999997625","","image-keyboard-response","232","474475","0.0-6.0-0.4","","img/red.png","32","trial","32","true","0.6,0.4","1:go_a","",""
"null","","html-keyboard-response","233","475477","0.0-6.0-1.4","","<img src=""img/red-n.png"" border=""10"">","null","trial","32","","0.6,0.4","1:go_a","0",""
"null","","html-keyboard-response","234","476478","0.0-6.0-2.4","","<div style=""font-size:60px;"">+</div>","null","","","","","","",""
"422.2650000010617","","image-keyboard-response","235","476901","0.0-6.0-0.5","","img/pink.png","32","trial","null","false","0.4,0.6","2:nogo_b","",""
"null","","html-keyboard-response","236","477903","0.0-6.0-1.5","","<img src=""img/pink-r.png"" border=""10"">","null","trial","null","","0.4,0.6","2:nogo_b","1",""
"null","","html-keyboard-response","237","478905","0.0-6.0-2.5","","<div style=""font-size:60px;"">+</div>","null","","","","","","",""
"null","","image-keyboard-response","238","480407","0.0-6.0-0.6","","img/orange.png","null","trial","null","true","0.4,0.6","4:nogo_d","",""
"null","","html-keyboard-response","239","481408","0.0-6.0-1.6","","<img src=""img/orange-r.png"">","null","trial","null","","0.4,0.6","4:nogo_d","1",""
"null","","html-keyboard-response","240","482409","0.0-6.0-2.6","","<div style=""font-size:60px;"">+</div>","null","","","","","","",""
"443.11999999627005","","image-keyboard-response","241","482852","0.0-6.0-0.7","","img/blue.png","32","trial","32","true","0.6,0.4","3:go_c","",""
"null","","html-keyboard-response","242","483853","0.0-6.0-1.7","","<img src=""img/blue-n.png"" border=""10"">","null","trial","32","","0.6,0.4","3:go_c","0",""
"null","","html-keyboard-response","243","484855","0.0-6.0-2.7","","<div style=""font-size:60px;"">+</div>","null","","","","","","",""
"588.8299999933224","","image-keyboard-response","244","485444","0.0-6.0-0.8","","img/blue.png","32","trial","32","true","0.6,0.4","3:go_c","",""
"null","","html-keyboard-response","245","486446","0.0-6.0-1.8","","<img src=""img/blue-n.png"" border=""10"">","null","trial","32","","0.6,0.4","3:go_c","0",""
"null","","html-keyboard-response","246","487447","0.0-6.0-2.8","","<div style=""font-size:60px;"">+</div>","null","","","","","","",""
"459.6000000019558","","image-keyboard-response","247","487907","0.0-6.0-0.9","","img/orange.png","32","trial","null","false","0.4,0.6","4:nogo_d","",""
"null","","html-keyboard-response","248","488909","0.0-6.0-1.9","","<img src=""img/orange-n.png"" border=""10"">","null","trial","null","","0.4,0.6","4:nogo_d","0",""
"null","","html-keyboard-response","249","489911","0.0-6.0-2.9","","<div style=""font-size:60px;"">+</div>","null","","","","","","",""
"435.01000000105705","","image-keyboard-response","250","490346","0.0-6.0-0.10","","img/pink.png","32","trial","null","false","0.4,0.6","2:nogo_b","",""
"null","","html-keyboard-response","251","491348","0.0-6.0-1.10","","<img src=""img/pink-n.png"" border=""10"">","null","trial","null","","0.4,0.6","2:nogo_b","0",""
"null","","html-keyboard-response","252","492349","0.0-6.0-2.10","","<div style=""font-size:60px;"">+</div>","null","","","","","","",""
"539.1499999968801","","image-keyboard-response","253","492888","0.0-6.0-0.11","","img/red.png","32","trial","32","true","0.6,0.4","1:go_a","",""
"null","","html-keyboard-response","254","493890","0.0-6.0-1.11","","<img src=""img/red-r.png"" border=""10"">","null","trial","32","","0.6,0.4","1:go_a","1",""
"null","","html-keyboard-response","255","494891","0.0-6.0-2.11","","<div style=""font-size:60px;"">+</div>","null","","","","","","",""
"425.7849999994505","","image-keyboard-response","256","495317","0.0-6.0-0.12","","img/red.png","32","trial","32","true","0.6,0.4","1:go_a","",""
"null","","html-keyboard-response","257","496318","0.0-6.0-1.12","","<img src=""img/red-n.png"" border=""10"">","null","trial","32","","0.6,0.4","1:go_a","0",""
"null","","html-keyboard-response","258","497320","0.0-6.0-2.12","","<div style=""font-size:60px;"">+</div>","null","","","","","","",""
"452.1399999939604","","image-keyboard-response","259","497772","0.0-6.0-0.13","","img/blue.png","32","trial","32","true","0.6,0.4","3:go_c","",""
"null","","html-keyboard-response","260","498774","0.0-6.0-1.13","","<img src=""img/blue-n.png"" border=""10"">","null","trial","32","","0.6,0.4","3:go_c","0",""
"null","","html-keyboard-response","261","499775","0.0-6.0-2.13","","<div style=""font-size:60px;"">+</div>","null","","","","","","",""
"675.9499999898253","","image-keyboard-response","262","500451","0.0-6.0-0.14","","img/pink.png","32","trial","null","false","0.4,0.6","2:nogo_b","",""
"null","","html-keyboard-response","263","501453","0.0-6.0-1.14","","<img src=""img/pink-r.png"" border=""10"">","null","trial","null","","0.4,0.6","2:nogo_b","1",""
"null","","html-keyboard-response","264","502465","0.0-6.0-2.14","","<div style=""font-size:60px;"">+</div>","null","","","","","","",""
"null","","image-keyboard-response","265","503966","0.0-6.0-0.15","","img/orange.png","null","trial","null","true","0.4,0.6","4:nogo_d","",""
"null","","html-keyboard-response","266","504967","0.0-6.0-1.15","","<img src=""img/orange-r.png"">","null","trial","null","","0.4,0.6","4:nogo_d","1",""
"null","","html-keyboard-response","267","505969","0.0-6.0-2.15","","<div style=""font-size:60px;"">+</div>","null","","","","","","",""
"null","","image-keyboard-response","268","507471","0.0-6.0-0.16","","img/orange.png","null","trial","null","true","0.4,0.6","4:nogo_d","",""
"null","","html-keyboard-response","269","508472","0.0-6.0-1.16","","<img src=""img/orange-r.png"">","null","trial","null","","0.4,0.6","4:nogo_d","1",""
"null","","html-keyboard-response","270","509473","0.0-6.0-2.16","","<div style=""font-size:60px;"">+</div>","null","","","","","","",""
"null","","image-keyboard-response","271","510974","0.0-6.0-0.17","","img/blue.png","null","trial","32","false","0.6,0.4","3:go_c","",""
"null","","html-keyboard-response","272","511976","0.0-6.0-1.17","","<img src=""img/blue-n.png"">","null","trial","32","","0.6,0.4","3:go_c","0",""
"null","","html-keyboard-response","273","512977","0.0-6.0-2.17","","<div style=""font-size:60px;"">+</div>","null","","","","","","",""
"309.93499999749474","","image-keyboard-response","274","513287","0.0-6.0-0.18","","img/pink.png","32","trial","null","false","0.4,0.6","2:nogo_b","",""
"null","","html-keyboard-response","275","514288","0.0-6.0-1.18","","<img src=""img/pink-n.png"" border=""10"">","null","trial","null","","0.4,0.6","2:nogo_b","0",""
"null","","html-keyboard-response","276","515289","0.0-6.0-2.18","","<div style=""font-size:60px;"">+</div>","null","","","","","","",""
"437.47000000439584","","image-keyboard-response","277","515727","0.0-6.0-0.19","","img/red.png","32","trial","32","true","0.6,0.4","1:go_a","",""
"null","","html-keyboard-response","278","516728","0.0-6.0-1.19","","<img src=""img/red-r.png"" border=""10"">","null","trial","32","","0.6,0.4","1:go_a","1",""
"null","","html-keyboard-response","279","517729","0.0-6.0-2.19","","<div style=""font-size:60px;"">+</div>","null","","","","","","",""
"611.5050000080373","","image-keyboard-response","280","518341","0.0-6.0-0.20","","img/orange.png","32","trial","null","false","0.4,0.6","4:nogo_d","",""
"null","","html-keyboard-response","281","519343","0.0-6.0-1.20","","<img src=""img/orange-n.png"" border=""10"">","null","trial","null","","0.4,0.6","4:nogo_d","0",""
"null","","html-keyboard-response","282","520345","0.0-6.0-2.20","","<div style=""font-size:60px;"">+</div>","null","","","","","","",""
"506.02499999513384","","image-keyboard-response","283","520851","0.0-6.0-0.21","","img/red.png","32","trial","32","true","0.6,0.4","1:go_a","",""
"null","","html-keyboard-response","284","521852","0.0-6.0-1.21","","<img src=""img/red-r.png"" border=""10"">","null","trial","32","","0.6,0.4","1:go_a","1",""
"null","","html-keyboard-response","285","522853","0.0-6.0-2.21","","<div style=""font-size:60px;"">+</div>","null","","","","","","",""
"699.8550000134856","","image-keyboard-response","286","523554","0.0-6.0-0.22","","img/blue.png","32","trial","32","true","0.6,0.4","3:go_c","",""
"null","","html-keyboard-response","287","524555","0.0-6.0-1.22","","<img src=""img/blue-n.png"" border=""10"">","null","trial","32","","0.6,0.4","3:go_c","0",""
"null","","html-keyboard-response","288","525556","0.0-6.0-2.22","","<div style=""font-size:60px;"">+</div>","null","","","","","","",""
"514.9999999994179","","image-keyboard-response","289","526071","0.0-6.0-0.23","","img/pink.png","32","trial","null","false","0.4,0.6","2:nogo_b","",""
"null","","html-keyboard-response","290","527073","0.0-6.0-1.23","","<img src=""img/pink-n.png"" border=""10"">","null","trial","null","","0.4,0.6","2:nogo_b","0",""
"null","","html-keyboard-response","291","528073","0.0-6.0-2.23","","<div style=""font-size:60px;"">+</div>","null","","","","","","",""
"null","","image-keyboard-response","292","529574","0.0-6.0-0.24","","img/orange.png","null","trial","null","true","0.4,0.6","4:nogo_d","",""
"null","","html-keyboard-response","293","530575","0.0-6.0-1.24","","<img src=""img/orange-r.png"">","null","trial","null","","0.4,0.6","4:nogo_d","1",""
"null","","html-keyboard-response","294","531576","0.0-6.0-2.24","","<div style=""font-size:60px;"">+</div>","null","","","","","","",""
"510.2749999932712","","image-keyboard-response","295","532087","0.0-6.0-0.25","","img/pink.png","32","trial","null","false","0.4,0.6","2:nogo_b","",""
"null","","html-keyboard-response","296","533088","0.0-6.0-1.25","","<img src=""img/pink-n.png"" border=""10"">","null","trial","null","","0.4,0.6","2:nogo_b","0",""
"null","","html-keyboard-response","297","534090","0.0-6.0-2.25","","<div style=""font-size:60px;"">+</div>","null","","","","","","",""
"360.3600000060396","","image-keyboard-response","298","534451","0.0-6.0-0.26","","img/blue.png","32","trial","32","true","0.6,0.4","3:go_c","",""
"null","","html-keyboard-response","299","535452","0.0-6.0-1.26","","<img src=""img/blue-n.png"" border=""10"">","null","trial","32","","0.6,0.4","3:go_c","0",""
"null","","html-keyboard-response","300","536453","0.0-6.0-2.26","","<div style=""font-size:60px;"">+</div>","null","","","","","","",""
"522.9300000064541","","image-keyboard-response","301","536976","0.0-6.0-0.27","","img/red.png","32","trial","32","true","0.6,0.4","1:go_a","",""
"null","","html-keyboard-response","302","537979","0.0-6.0-1.27","","<img src=""img/red-r.png"" border=""10"">","null","trial","32","","0.6,0.4","1:go_a","1",""
"null","","html-keyboard-response","303","538981","0.0-6.0-2.27","","<div style=""font-size:60px;"">+</div>","null","","","","","","",""
"996.9799999962561","","image-keyboard-response","304","539978","0.0-6.0-0.28","","img/orange.png","32","trial","null","false","0.4,0.6","4:nogo_d","",""
"null","","html-keyboard-response","305","540980","0.0-6.0-1.28","","<img src=""img/orange-n.png"" border=""10"">","null","trial","null","","0.4,0.6","4:nogo_d","0",""
"null","","html-keyboard-response","306","541981","0.0-6.0-2.28","","<div style=""font-size:60px;"">+</div>","null","","","","","","",""
"616.0300000046846","","image-keyboard-response","307","542598","0.0-6.0-0.29","","img/red.png","32","trial","32","true","0.6,0.4","1:go_a","",""
"null","","html-keyboard-response","308","543600","0.0-6.0-1.29","","<img src=""img/red-n.png"" border=""10"">","null","trial","32","","0.6,0.4","1:go_a","0",""
"null","","html-keyboard-response","309","544601","0.0-6.0-2.29","","<div style=""font-size:60px;"">+</div>","null","","","","","","",""
"487.14499999186955","","image-keyboard-response","310","545089","0.0-6.0-0.30","","img/blue.png","32","trial","32","true","0.6,0.4","3:go_c","",""
"null","","html-keyboard-response","311","546090","0.0-6.0-1.30","","<img src=""img/blue-r.png"" border=""10"">","null","trial","32","","0.6,0.4","3:go_c","1",""
"null","","html-keyboard-response","312","547091","0.0-6.0-2.30","","<div style=""font-size:60px;"">+</div>","null","","","","","","",""
"null","","image-keyboard-response","313","548592","0.0-6.0-0.31","","img/pink.png","null","trial","null","true","0.4,0.6","2:nogo_b","",""
"null","","html-keyboard-response","314","549594","0.0-6.0-1.31","","<img src=""img/pink-r.png"">","null","trial","null","","0.4,0.6","2:nogo_b","1",""
"null","","html-keyboard-response","315","550594","0.0-6.0-2.31","","<div style=""font-size:60px;"">+</div>","null","","","","","","",""
"540.8949999982724","","image-keyboard-response","316","551136","0.0-6.0-0.32","","img/blue.png","32","trial","32","true","0.6,0.4","3:go_c","",""
"null","","html-keyboard-response","317","552138","0.0-6.0-1.32","","<img src=""img/blue-r.png"" border=""10"">","null","trial","32","","0.6,0.4","3:go_c","1",""
"null","","html-keyboard-response","318","553139","0.0-6.0-2.32","","<div style=""font-size:60px;"">+</div>","null","","","","","","",""
"null","","image-keyboard-response","319","554640","0.0-6.0-0.33","","img/red.png","null","trial","32","false","0.6,0.4","1:go_a","",""
"null","","html-keyboard-response","320","555641","0.0-6.0-1.33","","<img src=""img/red-n.png"">","null","trial","32","","0.6,0.4","1:go_a","0",""
"null","","html-keyboard-response","321","556642","0.0-6.0-2.33","","<div style=""font-size:60px;"">+</div>","null","","","","","","",""
"683.789999995497","","image-keyboard-response","322","557327","0.0-6.0-0.34","","img/pink.png","32","trial","null","false","0.4,0.6","2:nogo_b","",""
"null","","html-keyboard-response","323","558342","0.0-6.0-1.34","","<img src=""img/pink-r.png"" border=""10"">","null","trial","null","","0.4,0.6","2:nogo_b","1",""
"null","","html-keyboard-response","324","559344","0.0-6.0-2.34","","<div style=""font-size:60px;"">+</div>","null","","","","","","",""
"null","","image-keyboard-response","325","560846","0.0-6.0-0.35","","img/orange.png","null","trial","null","true","0.4,0.6","4:nogo_d","",""
"null","","html-keyboard-response","326","561847","0.0-6.0-1.35","","<img src=""img/orange-r.png"">","null","trial","null","","0.4,0.6","4:nogo_d","1",""
"null","","html-keyboard-response","327","562849","0.0-6.0-2.35","","<div style=""font-size:60px;"">+</div>","null","","","","","","",""
"null","","image-keyboard-response","328","564350","0.0-6.0-0.36","","img/red.png","null","trial","32","false","0.6,0.4","1:go_a","",""
"null","","html-keyboard-response","329","565351","0.0-6.0-1.36","","<img src=""img/red-r.png"">","null","trial","32","","0.6,0.4","1:go_a","1",""
"null","","html-keyboard-response","330","566353","0.0-6.0-2.36","","<div style=""font-size:60px;"">+</div>","null","","","","","","",""
"632.8700000012759","","image-keyboard-response","331","566986","0.0-6.0-0.37","","img/blue.png","32","trial","32","true","0.6,0.4","3:go_c","",""
"null","","html-keyboard-response","332","567988","0.0-6.0-1.37","","<img src=""img/blue-r.png"" border=""10"">","null","trial","32","","0.6,0.4","3:go_c","1",""
"null","","html-keyboard-response","333","568989","0.0-6.0-2.37","","<div style=""font-size:60px;"">+</div>","null","","","","","","",""
"721.0749999940163","","image-keyboard-response","334","569711","0.0-6.0-0.38","","img/pink.png","32","trial","null","false","0.4,0.6","2:nogo_b","",""
"null","","html-keyboard-response","335","570713","0.0-6.0-1.38","","<img src=""img/pink-n.png"" border=""10"">","null","trial","null","","0.4,0.6","2:nogo_b","0",""
"null","","html-keyboard-response","336","571714","0.0-6.0-2.38","","<div style=""font-size:60px;"">+</div>","null","","","","","","",""
"null","","image-keyboard-response","337","573215","0.0-6.0-0.39","","img/orange.png","null","trial","null","true","0.4,0.6","4:nogo_d","",""
"null","","html-keyboard-response","338","574217","0.0-6.0-1.39","","<img src=""img/orange-r.png"">","null","trial","null","","0.4,0.6","4:nogo_d","1",""
"null","","html-keyboard-response","339","575218","0.0-6.0-2.39","","<div style=""font-size:60px;"">+</div>","null","","","","","","",""
"null","","image-keyboard-response","340","576719","0.0-6.0-0.40","","img/red.png","null","trial","32","false","0.6,0.4","1:go_a","",""
"null","","html-keyboard-response","341","577721","0.0-6.0-1.40","","<img src=""img/red-r.png"">","null","trial","32","","0.6,0.4","1:go_a","1",""
"null","","html-keyboard-response","342","578722","0.0-6.0-2.40","","<div style=""font-size:60px;"">+</div>","null","","","","","","",""
"850.959999996121","","image-keyboard-response","343","579573","0.0-6.0-0.41","","img/orange.png","32","trial","null","false","0.4,0.6","4:nogo_d","",""
"null","","html-keyboard-response","344","580575","0.0-6.0-1.41","","<img src=""img/orange-n.png"" border=""10"">","null","trial","null","","0.4,0.6","4:nogo_d","0",""
"null","","html-keyboard-response","345","581577","0.0-6.0-2.41","","<div style=""font-size:60px;"">+</div>","null","","","","","","",""
"405.3450000064913","","image-keyboard-response","346","581982","0.0-6.0-0.42","","img/blue.png","32","trial","32","true","0.6,0.4","3:go_c","",""
"null","","html-keyboard-response","347","582984","0.0-6.0-1.42","","<img src=""img/blue-r.png"" border=""10"">","null","trial","32","","0.6,0.4","3:go_c","1",""
"null","","html-keyboard-response","348","583985","0.0-6.0-2.42","","<div style=""font-size:60px;"">+</div>","null","","","","","","",""
"732.8200000047218","","image-keyboard-response","349","584718","0.0-6.0-0.43","","img/pink.png","32","trial","null","false","0.4,0.6","2:nogo_b","",""
"null","","html-keyboard-response","350","585721","0.0-6.0-1.43","","<img src=""img/pink-n.png"" border=""10"">","null","trial","null","","0.4,0.6","2:nogo_b","0",""
"null","","html-keyboard-response","351","586722","0.0-6.0-2.43","","<div style=""font-size:60px;"">+</div>","null","","","","","","",""
"538.7150000024121","","image-keyboard-response","352","587261","0.0-6.0-0.44","","img/blue.png","32","trial","32","true","0.6,0.4","3:go_c","",""
"null","","html-keyboard-response","353","588264","0.0-6.0-1.44","","<img src=""img/blue-r.png"" border=""10"">","null","trial","32","","0.6,0.4","3:go_c","1",""
"null","","html-keyboard-response","354","589264","0.0-6.0-2.44","","<div style=""font-size:60px;"">+</div>","null","","","","","","",""
"643.339999995078","","image-keyboard-response","355","589908","0.0-6.0-0.45","","img/orange.png","32","trial","null","false","0.4,0.6","4:nogo_d","",""
"null","","html-keyboard-response","356","590910","0.0-6.0-1.45","","<img src=""img/orange-n.png"" border=""10"">","null","trial","null","","0.4,0.6","4:nogo_d","0",""
"null","","html-keyboard-response","357","591911","0.0-6.0-2.45","","<div style=""font-size:60px;"">+</div>","null","","","","","","",""
"null","","image-keyboard-response","358","593413","0.0-6.0-0.46","","img/red.png","null","trial","32","false","0.6,0.4","1:go_a","",""
"null","","html-keyboard-response","359","594414","0.0-6.0-1.46","","<img src=""img/red-n.png"">","null","trial","32","","0.6,0.4","1:go_a","0",""
"null","","html-keyboard-response","360","595415","0.0-6.0-2.46","","<div style=""font-size:60px;"">+</div>","null","","","","","","",""
"684.0149999916321","","image-keyboard-response","361","596099","0.0-6.0-0.47","","img/pink.png","32","trial","null","false","0.4,0.6","2:nogo_b","",""
"null","","html-keyboard-response","362","597102","0.0-6.0-1.47","","<img src=""img/pink-r.png"" border=""10"">","null","trial","null","","0.4,0.6","2:nogo_b","1",""
"null","","html-keyboard-response","363","598102","0.0-6.0-2.47","","<div style=""font-size:60px;"">+</div>","null","","","","","","",""
"640.2099999977509","","image-keyboard-response","364","598743","0.0-6.0-0.48","","img/pink.png","32","trial","null","false","0.4,0.6","2:nogo_b","",""
"null","","html-keyboard-response","365","599744","0.0-6.0-1.48","","<img src=""img/pink-r.png"" border=""10"">","null","trial","null","","0.4,0.6","2:nogo_b","1",""
"null","","html-keyboard-response","366","600746","0.0-6.0-2.48","","<div style=""font-size:60px;"">+</div>","null","","","","","","",""
"586.0350000002654","","image-keyboard-response","367","601332","0.0-6.0-0.49","","img/blue.png","32","trial","32","true","0.6,0.4","3:go_c","",""
"null","","html-keyboard-response","368","602334","0.0-6.0-1.49","","<img src=""img/blue-r.png"" border=""10"">","null","trial","32","","0.6,0.4","3:go_c","1",""
"null","","html-keyboard-response","369","603335","0.0-6.0-2.49","","<div style=""font-size:60px;"">+</div>","null","","","","","","",""
"null","","image-keyboard-response","370","604837","0.0-6.0-0.50","","img/orange.png","null","trial","null","true","0.4,0.6","4:nogo_d","",""
"null","","html-keyboard-response","371","605839","0.0-6.0-1.50","","<img src=""img/orange-n.png"">","null","trial","null","","0.4,0.6","4:nogo_d","0",""
"null","","html-keyboard-response","372","606852","0.0-6.0-2.50","","<div style=""font-size:60px;"">+</div>","null","","","","","","",""
"null","","image-keyboard-response","373","608353","0.0-6.0-0.51","","img/red.png","null","trial","32","false","0.6,0.4","1:go_a","",""
"null","","html-keyboard-response","374","609355","0.0-6.0-1.51","","<img src=""img/red-n.png"">","null","trial","32","","0.6,0.4","1:go_a","0",""
"null","","html-keyboard-response","375","610357","0.0-6.0-2.51","","<div style=""font-size:60px;"">+</div>","null","","","","","","",""
"null","","image-keyboard-response","376","611858","0.0-6.0-0.52","","img/red.png","null","trial","32","false","0.6,0.4","1:go_a","",""
"null","","html-keyboard-response","377","612860","0.0-6.0-1.52","","<img src=""img/red-r.png"">","null","trial","32","","0.6,0.4","1:go_a","1",""
"null","","html-keyboard-response","378","613861","0.0-6.0-2.52","","<div style=""font-size:60px;"">+</div>","null","","","","","","",""
"589.1149999952177","","image-keyboard-response","379","614450","0.0-6.0-0.53","","img/pink.png","32","trial","null","false","0.4,0.6","2:nogo_b","",""
"null","","html-keyboard-response","380","615452","0.0-6.0-1.53","","<img src=""img/pink-n.png"" border=""10"">","null","trial","null","","0.4,0.6","2:nogo_b","0",""
"null","","html-keyboard-response","381","616453","0.0-6.0-2.53","","<div style=""font-size:60px;"">+</div>","null","","","","","","",""
"null","","image-keyboard-response","382","617955","0.0-6.0-0.54","","img/orange.png","null","trial","null","true","0.4,0.6","4:nogo_d","",""
"null","","html-keyboard-response","383","618955","0.0-6.0-1.54","","<img src=""img/orange-n.png"">","null","trial","null","","0.4,0.6","4:nogo_d","0",""
"null","","html-keyboard-response","384","619958","0.0-6.0-2.54","","<div style=""font-size:60px;"">+</div>","null","","","","","","",""
"395.9599999943748","","image-keyboard-response","385","620354","0.0-6.0-0.55","","img/blue.png","32","trial","32","true","0.6,0.4","3:go_c","",""
"null","","html-keyboard-response","386","621356","0.0-6.0-1.55","","<img src=""img/blue-r.png"" border=""10"">","null","trial","32","","0.6,0.4","3:go_c","1",""
"null","","html-keyboard-response","387","622357","0.0-6.0-2.55","","<div style=""font-size:60px;"">+</div>","null","","","","","","",""
"576.9100000034086","","image-keyboard-response","388","622934","0.0-6.0-0.56","","img/red.png","32","trial","32","true","0.6,0.4","1:go_a","",""
"null","","html-keyboard-response","389","623937","0.0-6.0-1.56","","<img src=""img/red-n.png"" border=""10"">","null","trial","32","","0.6,0.4","1:go_a","0",""
"null","","html-keyboard-response","390","624937","0.0-6.0-2.56","","<div style=""font-size:60px;"">+</div>","null","","","","","","",""
"815.2600000030361","","image-keyboard-response","391","625753","0.0-6.0-0.57","","img/pink.png","32","trial","null","false","0.4,0.6","2:nogo_b","",""
"null","","html-keyboard-response","392","626755","0.0-6.0-1.57","","<img src=""img/pink-r.png"" border=""10"">","null","trial","null","","0.4,0.6","2:nogo_b","1",""
"null","","html-keyboard-response","393","627756","0.0-6.0-2.57","","<div style=""font-size:60px;"">+</div>","null","","","","","","",""
"null","","image-keyboard-response","394","629257","0.0-6.0-0.58","","img/orange.png","null","trial","null","true","0.4,0.6","4:nogo_d","",""
"null","","html-keyboard-response","395","630258","0.0-6.0-1.58","","<img src=""img/orange-n.png"">","null","trial","null","","0.4,0.6","4:nogo_d","0",""
"null","","html-keyboard-response","396","631259","0.0-6.0-2.58","","<div style=""font-size:60px;"">+</div>","null","","","","","","",""
"438.7350000033621","","image-keyboard-response","397","631698","0.0-6.0-0.59","","img/blue.png","32","trial","32","true","0.6,0.4","3:go_c","",""
"null","","html-keyboard-response","398","632700","0.0-6.0-1.59","","<img src=""img/blue-n.png"" border=""10"">","null","trial","32","","0.6,0.4","3:go_c","0",""
"null","","html-keyboard-response","399","633701","0.0-6.0-2.59","","<div style=""font-size:60px;"">+</div>","null","","","","","","",""
"579.874999995809","","image-keyboard-response","400","634281","0.0-6.0-0.60","","img/orange.png","32","trial","null","false","0.4,0.6","4:nogo_d","",""
"null","","html-keyboard-response","401","635282","0.0-6.0-1.60","","<img src=""img/orange-r.png"" border=""10"">","null","trial","null","","0.4,0.6","4:nogo_d","1",""
"null","","html-keyboard-response","402","636282","0.0-6.0-2.60","","<div style=""font-size:60px;"">+</div>","null","","","","","","",""
"415.419999990263","","image-keyboard-response","403","636698","0.0-6.0-0.61","","img/blue.png","32","trial","32","true","0.6,0.4","3:go_c","",""
"null","","html-keyboard-response","404","637712","0.0-6.0-1.61","","<img src=""img/blue-n.png"" border=""10"">","null","trial","32","","0.6,0.4","3:go_c","0",""
"null","","html-keyboard-response","405","638713","0.0-6.0-2.61","","<div style=""font-size:60px;"">+</div>","null","","","","","","",""
"null","","image-keyboard-response","406","640214","0.0-6.0-0.62","","img/pink.png","null","trial","null","true","0.4,0.6","2:nogo_b","",""
"null","","html-keyboard-response","407","641215","0.0-6.0-1.62","","<img src=""img/pink-r.png"">","null","trial","null","","0.4,0.6","2:nogo_b","1",""
"null","","html-keyboard-response","408","642216","0.0-6.0-2.62","","<div style=""font-size:60px;"">+</div>","null","","","","","","",""
"null","","image-keyboard-response","409","643718","0.0-6.0-0.63","","img/red.png","null","trial","32","false","0.6,0.4","1:go_a","",""
"null","","html-keyboard-response","410","644719","0.0-6.0-1.63","","<img src=""img/red-r.png"">","null","trial","32","","0.6,0.4","1:go_a","1",""
"null","","html-keyboard-response","411","645720","0.0-6.0-2.63","","<div style=""font-size:60px;"">+</div>","null","","","","","","",""
"387.9999999917345","","image-keyboard-response","412","646108","0.0-6.0-0.64","","img/blue.png","32","trial","32","true","0.6,0.4","3:go_c","",""
"null","","html-keyboard-response","413","647110","0.0-6.0-1.64","","<img src=""img/blue-r.png"" border=""10"">","null","trial","32","","0.6,0.4","3:go_c","1",""
"null","","html-keyboard-response","414","648111","0.0-6.0-2.64","","<div style=""font-size:60px;"">+</div>","null","","","","","","",""
"613.8099999952829","","image-keyboard-response","415","648725","0.0-6.0-0.65","","img/pink.png","32","trial","null","false","0.4,0.6","2:nogo_b","",""
"null","","html-keyboard-response","416","649727","0.0-6.0-1.65","","<img src=""img/pink-r.png"" border=""10"">","null","trial","null","","0.4,0.6","2:nogo_b","1",""
"null","","html-keyboard-response","417","650728","0.0-6.0-2.65","","<div style=""font-size:60px;"">+</div>","null","","","","","","",""
"null","","image-keyboard-response","418","652230","0.0-6.0-0.66","","img/orange.png","null","trial","null","true","0.4,0.6","4:nogo_d","",""
"null","","html-keyboard-response","419","653231","0.0-6.0-1.66","","<img src=""img/orange-r.png"">","null","trial","null","","0.4,0.6","4:nogo_d","1",""
"null","","html-keyboard-response","420","654233","0.0-6.0-2.66","","<div style=""font-size:60px;"">+</div>","null","","","","","","",""
"550.9650000021793","","image-keyboard-response","421","654784","0.0-6.0-0.67","","img/red.png","32","trial","32","true","0.6,0.4","1:go_a","",""
"null","","html-keyboard-response","422","655786","0.0-6.0-1.67","","<img src=""img/red-n.png"" border=""10"">","null","trial","32","","0.6,0.4","1:go_a","0",""
"null","","html-keyboard-response","423","656787","0.0-6.0-2.67","","<div style=""font-size:60px;"">+</div>","null","","","","","","",""
"612.71499999566","","image-keyboard-response","424","657400","0.0-6.0-0.68","","img/blue.png","32","trial","32","true","0.6,0.4","3:go_c","",""
"null","","html-keyboard-response","425","658402","0.0-6.0-1.68","","<img src=""img/blue-r.png"" border=""10"">","null","trial","32","","0.6,0.4","3:go_c","1",""
"null","","html-keyboard-response","426","659404","0.0-6.0-2.68","","<div style=""font-size:60px;"">+</div>","null","","","","","","",""
"null","","image-keyboard-response","427","660905","0.0-6.0-0.69","","img/red.png","null","trial","32","false","0.6,0.4","1:go_a","",""
"null","","html-keyboard-response","428","661906","0.0-6.0-1.69","","<img src=""img/red-n.png"">","null","trial","32","","0.6,0.4","1:go_a","0",""
"null","","html-keyboard-response","429","662907","0.0-6.0-2.69","","<div style=""font-size:60px;"">+</div>","null","","","","","","",""
"408.8449999981094","","image-keyboard-response","430","663316","0.0-6.0-0.70","","img/orange.png","32","trial","null","false","0.4,0.6","4:nogo_d","",""
"null","","html-keyboard-response","431","664318","0.0-6.0-1.70","","<img src=""img/orange-n.png"" border=""10"">","null","trial","null","","0.4,0.6","4:nogo_d","0",""
"null","","html-keyboard-response","432","665320","0.0-6.0-2.70","","<div style=""font-size:60px;"">+</div>","null","","","","","","",""
"502.21500000043306","","image-keyboard-response","433","665822","0.0-6.0-0.71","","img/pink.png","32","trial","null","false","0.4,0.6","2:nogo_b","",""
"null","","html-keyboard-response","434","666824","0.0-6.0-1.71","","<img src=""img/pink-r.png"" border=""10"">","null","trial","null","","0.4,0.6","2:nogo_b","1",""
"null","","html-keyboard-response","435","667825","0.0-6.0-2.71","","<div style=""font-size:60px;"">+</div>","null","","","","","","",""
"669.6700000029523","","image-keyboard-response","436","668495","0.0-6.0-0.72","","img/blue.png","32","trial","32","true","0.6,0.4","3:go_c","",""
"null","","html-keyboard-response","437","669497","0.0-6.0-1.72","","<img src=""img/blue-r.png"" border=""10"">","null","trial","32","","0.6,0.4","3:go_c","1",""
"null","","html-keyboard-response","438","670498","0.0-6.0-2.72","","<div style=""font-size:60px;"">+</div>","null","","","","","","",""
"null","","image-keyboard-response","439","672000","0.0-6.0-0.73","","img/red.png","null","trial","32","false","0.6,0.4","1:go_a","",""
"null","","html-keyboard-response","440","673001","0.0-6.0-1.73","","<img src=""img/red-n.png"">","null","trial","32","","0.6,0.4","1:go_a","0",""
"null","","html-keyboard-response","441","674002","0.0-6.0-2.73","","<div style=""font-size:60px;"">+</div>","null","","","","","","",""
"719.1400000010617","","image-keyboard-response","442","674722","0.0-6.0-0.74","","img/orange.png","32","trial","null","false","0.4,0.6","4:nogo_d","",""
"null","","html-keyboard-response","443","675723","0.0-6.0-1.74","","<img src=""img/orange-r.png"" border=""10"">","null","trial","null","","0.4,0.6","4:nogo_d","1",""
"null","","html-keyboard-response","444","676732","0.0-6.0-2.74","","<div style=""font-size:60px;"">+</div>","null","","","","","","",""
"644.7650000045542","","image-keyboard-response","445","677377","0.0-6.0-0.75","","img/pink.png","32","trial","null","false","0.4,0.6","2:nogo_b","",""
"null","","html-keyboard-response","446","678379","0.0-6.0-1.75","","<img src=""img/pink-n.png"" border=""10"">","null","trial","null","","0.4,0.6","2:nogo_b","0",""
"null","","html-keyboard-response","447","679381","0.0-6.0-2.75","","<div style=""font-size:60px;"">+</div>","null","","","","","","",""
"601.0200000018813","","image-keyboard-response","448","679982","0.0-6.0-0.76","","img/pink.png","32","trial","null","false","0.4,0.6","2:nogo_b","",""
"null","","html-keyboard-response","449","680984","0.0-6.0-1.76","","<img src=""img/pink-n.png"" border=""10"">","null","trial","null","","0.4,0.6","2:nogo_b","0",""
"null","","html-keyboard-response","450","681985","0.0-6.0-2.76","","<div style=""font-size:60px;"">+</div>","null","","","","","","",""
"542.025000002468","","image-keyboard-response","451","682527","0.0-6.0-0.77","","img/blue.png","32","trial","32","true","0.6,0.4","3:go_c","",""
"null","","html-keyboard-response","452","683530","0.0-6.0-1.77","","<img src=""img/blue-r.png"" border=""10"">","null","trial","32","","0.6,0.4","3:go_c","1",""
"null","","html-keyboard-response","453","684531","0.0-6.0-2.77","","<div style=""font-size:60px;"">+</div>","null","","","","","","",""
"397.3100000002887","","image-keyboard-response","454","684928","0.0-6.0-0.78","","img/red.png","32","trial","32","true","0.6,0.4","1:go_a","",""
"null","","html-keyboard-response","455","685930","0.0-6.0-1.78","","<img src=""img/red-r.png"" border=""10"">","null","trial","32","","0.6,0.4","1:go_a","1",""
"null","","html-keyboard-response","456","686937","0.0-6.0-2.78","","<div style=""font-size:60px;"">+</div>","null","","","","","","",""
"624.9550000065938","","image-keyboard-response","457","687562","0.0-6.0-0.79","","img/orange.png","32","trial","null","false","0.4,0.6","4:nogo_d","",""
"null","","html-keyboard-response","458","688564","0.0-6.0-1.79","","<img src=""img/orange-n.png"" border=""10"">","null","trial","null","","0.4,0.6","4:nogo_d","0",""
"null","","html-keyboard-response","459","689566","0.0-6.0-2.79","","<div style=""font-size:60px;"">+</div>","null","","","","","","",""
"526.1049999971874","","image-keyboard-response","460","690092","0.0-6.0-0.80","","img/orange.png","32","trial","null","false","0.4,0.6","4:nogo_d","",""
"null","","html-keyboard-response","461","691093","0.0-6.0-1.80","","<img src=""img/orange-n.png"" border=""10"">","null","trial","null","","0.4,0.6","4:nogo_d","0",""
"null","","html-keyboard-response","462","692094","0.0-6.0-2.80","","<div style=""font-size:60px;"">+</div>","null","","","","","","",""
"433.3150000020396","","image-keyboard-response","463","692527","0.0-6.0-0.81","","img/pink.png","32","trial","null","false","0.4,0.6","2:nogo_b","",""
"null","","html-keyboard-response","464","693529","0.0-6.0-1.81","","<img src=""img/pink-n.png"" border=""10"">","null","trial","null","","0.4,0.6","2:nogo_b","0",""
"null","","html-keyboard-response","465","694530","0.0-6.0-2.81","","<div style=""font-size:60px;"">+</div>","null","","","","","","",""
"417.06999999587424","","image-keyboard-response","466","694947","0.0-6.0-0.82","","img/blue.png","32","trial","32","true","0.6,0.4","3:go_c","",""
"null","","html-keyboard-response","467","695949","0.0-6.0-1.82","","<img src=""img/blue-r.png"" border=""10"">","null","trial","32","","0.6,0.4","3:go_c","1",""
"null","","html-keyboard-response","468","696961","0.0-6.0-2.82","","<div style=""font-size:60px;"">+</div>","null","","","","","","",""
"null","","image-keyboard-response","469","698463","0.0-6.0-0.83","","img/red.png","null","trial","32","false","0.6,0.4","1:go_a","",""
"null","","html-keyboard-response","470","699465","0.0-6.0-1.83","","<img src=""img/red-n.png"">","null","trial","32","","0.6,0.4","1:go_a","0",""
"null","","html-keyboard-response","471","700466","0.0-6.0-2.83","","<div style=""font-size:60px;"">+</div>","null","","","","","","",""
"643.0399999953806","","image-keyboard-response","472","701109","0.0-6.0-0.84","","img/pink.png","32","trial","null","false","0.4,0.6","2:nogo_b","",""
"null","","html-keyboard-response","473","702110","0.0-6.0-1.84","","<img src=""img/pink-r.png"" border=""10"">","null","trial","null","","0.4,0.6","2:nogo_b","1",""
"null","","html-keyboard-response","474","703112","0.0-6.0-2.84","","<div style=""font-size:60px;"">+</div>","null","","","","","","",""
"null","","image-keyboard-response","475","704613","0.0-6.0-0.85","","img/red.png","null","trial","32","false","0.6,0.4","1:go_a","",""
"null","","html-keyboard-response","476","705614","0.0-6.0-1.85","","<img src=""img/red-n.png"">","null","trial","32","","0.6,0.4","1:go_a","0",""
"null","","html-keyboard-response","477","706615","0.0-6.0-2.85","","<div style=""font-size:60px;"">+</div>","null","","","","","","",""
"486.8750000023283","","image-keyboard-response","478","707102","0.0-6.0-0.86","","img/blue.png","32","trial","32","true","0.6,0.4","3:go_c","",""
"null","","html-keyboard-response","479","708104","0.0-6.0-1.86","","<img src=""img/blue-r.png"" border=""10"">","null","trial","32","","0.6,0.4","3:go_c","1",""
"null","","html-keyboard-response","480","709105","0.0-6.0-2.86","","<div style=""font-size:60px;"">+</div>","null","","","","","","",""
"476.7600000050152","","image-keyboard-response","481","709582","0.0-6.0-0.87","","img/orange.png","32","trial","null","false","0.4,0.6","4:nogo_d","",""
"null","","html-keyboard-response","482","710583","0.0-6.0-1.87","","<img src=""img/orange-n.png"" border=""10"">","null","trial","null","","0.4,0.6","4:nogo_d","0",""
"null","","html-keyboard-response","483","711584","0.0-6.0-2.87","","<div style=""font-size:60px;"">+</div>","null","","","","","","",""
"null","","image-keyboard-response","484","713085","0.0-6.0-0.88","","img/red.png","null","trial","32","false","0.6,0.4","1:go_a","",""
"null","","html-keyboard-response","485","714086","0.0-6.0-1.88","","<img src=""img/red-n.png"">","null","trial","32","","0.6,0.4","1:go_a","0",""
"null","","html-keyboard-response","486","715087","0.0-6.0-2.88","","<div style=""font-size:60px;"">+</div>","null","","","","","","",""
"486.7799999919953","","image-keyboard-response","487","715574","0.0-6.0-0.89","","img/pink.png","32","trial","null","false","0.4,0.6","2:nogo_b","",""
"null","","html-keyboard-response","488","716576","0.0-6.0-1.89","","<img src=""img/pink-r.png"" border=""10"">","null","trial","null","","0.4,0.6","2:nogo_b","1",""
"null","","html-keyboard-response","489","717577","0.0-6.0-2.89","","<div style=""font-size:60px;"">+</div>","null","","","","","","",""
"null","","image-keyboard-response","490","719077","0.0-6.0-0.90","","img/orange.png","null","trial","null","true","0.4,0.6","4:nogo_d","",""
"null","","html-keyboard-response","491","720078","0.0-6.0-1.90","","<img src=""img/orange-n.png"">","null","trial","null","","0.4,0.6","4:nogo_d","0",""
"null","","html-keyboard-response","492","721079","0.0-6.0-2.90","","<div style=""font-size:60px;"">+</div>","null","","","","","","",""
"389.32000000204425","","image-keyboard-response","493","721468","0.0-6.0-0.91","","img/blue.png","32","trial","32","true","0.6,0.4","3:go_c","",""
"null","","html-keyboard-response","494","722472","0.0-6.0-1.91","","<img src=""img/blue-r.png"" border=""10"">","null","trial","32","","0.6,0.4","3:go_c","1",""
"null","","html-keyboard-response","495","723473","0.0-6.0-2.91","","<div style=""font-size:60px;"">+</div>","null","","","","","","",""
"1118.5749999858672","","image-keyboard-response","496","724592","0.0-6.0-0.92","","img/pink.png","32","trial","null","false","0.4,0.6","2:nogo_b","",""
"null","","html-keyboard-response","497","725593","0.0-6.0-1.92","","<img src=""img/pink-r.png"" border=""10"">","null","trial","null","","0.4,0.6","2:nogo_b","1",""
"null","","html-keyboard-response","498","726595","0.0-6.0-2.92","","<div style=""font-size:60px;"">+</div>","null","","","","","","",""
"null","","image-keyboard-response","499","728097","0.0-6.0-0.93","","img/orange.png","null","trial","null","true","0.4,0.6","4:nogo_d","",""
"null","","html-keyboard-response","500","729098","0.0-6.0-1.93","","<img src=""img/orange-r.png"">","null","trial","null","","0.4,0.6","4:nogo_d","1",""
"null","","html-keyboard-response","501","730099","0.0-6.0-2.93","","<div style=""font-size:60px;"">+</div>","null","","","","","","",""
"555.3149999905145","","image-keyboard-response","502","730654","0.0-6.0-0.94","","img/red.png","32","trial","32","true","0.6,0.4","1:go_a","",""
"null","","html-keyboard-response","503","731656","0.0-6.0-1.94","","<img src=""img/red-n.png"" border=""10"">","null","trial","32","","0.6,0.4","1:go_a","0",""
"null","","html-keyboard-response","504","732658","0.0-6.0-2.94","","<div style=""font-size:60px;"">+</div>","null","","","","","","",""
"305.38000000524335","","image-keyboard-response","505","732963","0.0-6.0-0.95","","img/blue.png","32","trial","32","true","0.6,0.4","3:go_c","",""
"null","","html-keyboard-response","506","733965","0.0-6.0-1.95","","<img src=""img/blue-r.png"" border=""10"">","null","trial","32","","0.6,0.4","3:go_c","1",""
"null","","html-keyboard-response","507","734966","0.0-6.0-2.95","","<div style=""font-size:60px;"">+</div>","null","","","","","","",""
"null","","image-keyboard-response","508","736467","0.0-6.0-0.96","","img/red.png","null","trial","32","false","0.6,0.4","1:go_a","",""
"null","","html-keyboard-response","509","737469","0.0-6.0-1.96","","<img src=""img/red-r.png"">","null","trial","32","","0.6,0.4","1:go_a","1",""
"null","","html-keyboard-response","510","738470","0.0-6.0-2.96","","<div style=""font-size:60px;"">+</div>","null","","","","","","",""
"493.8350000011269","","image-keyboard-response","511","738964","0.0-6.0-0.97","","img/blue.png","32","trial","32","true","0.6,0.4","3:go_c","",""
"null","","html-keyboard-response","512","739966","0.0-6.0-1.97","","<img src=""img/blue-n.png"" border=""10"">","null","trial","32","","0.6,0.4","3:go_c","0",""
"null","","html-keyboard-response","513","740968","0.0-6.0-2.97","","<div style=""font-size:60px;"">+</div>","null","","","","","","",""
"738.8449999998556","","image-keyboard-response","514","741707","0.0-6.0-0.98","","img/pink.png","32","trial","null","false","0.4,0.6","2:nogo_b","",""
"null","","html-keyboard-response","515","742709","0.0-6.0-1.98","","<img src=""img/pink-r.png"" border=""10"">","null","trial","null","","0.4,0.6","2:nogo_b","1",""
"null","","html-keyboard-response","516","743711","0.0-6.0-2.98","","<div style=""font-size:60px;"">+</div>","null","","","","","","",""
"null","","image-keyboard-response","517","745212","0.0-6.0-0.99","","img/orange.png","null","trial","null","true","0.4,0.6","4:nogo_d","",""
"null","","html-keyboard-response","518","746214","0.0-6.0-1.99","","<img src=""img/orange-r.png"">","null","trial","null","","0.4,0.6","4:nogo_d","1",""
"null","","html-keyboard-response","519","747215","0.0-6.0-2.99","","<div style=""font-size:60px;"">+</div>","null","","","","","","",""
"427.7799999981653","","image-keyboard-response","520","747644","0.0-6.0-0.100","","img/blue.png","32","trial","32","true","0.6,0.4","3:go_c","",""
"null","","html-keyboard-response","521","748645","0.0-6.0-1.100","","<img src=""img/blue-r.png"" border=""10"">","null","trial","32","","0.6,0.4","3:go_c","1",""
"null","","html-keyboard-response","522","749646","0.0-6.0-2.100","","<div style=""font-size:60px;"">+</div>","null","","","","","","",""
"null","","image-keyboard-response","523","751148","0.0-6.0-0.101","","img/orange.png","null","trial","null","true","0.4,0.6","4:nogo_d","",""
"null","","html-keyboard-response","524","752149","0.0-6.0-1.101","","<img src=""img/orange-r.png"">","null","trial","null","","0.4,0.6","4:nogo_d","1",""
"null","","html-keyboard-response","525","753150","0.0-6.0-2.101","","<div style=""font-size:60px;"">+</div>","null","","","","","","",""
"580.9149999986403","","image-keyboard-response","526","753731","0.0-6.0-0.102","","img/red.png","32","trial","32","true","0.6,0.4","1:go_a","",""
"null","","html-keyboard-response","527","754732","0.0-6.0-1.102","","<img src=""img/red-r.png"" border=""10"">","null","trial","32","","0.6,0.4","1:go_a","1",""
"null","","html-keyboard-response","528","755734","0.0-6.0-2.102","","<div style=""font-size:60px;"">+</div>","null","","","","","","",""
"553.9150000113295","","image-keyboard-response","529","756288","0.0-6.0-0.103","","img/pink.png","32","trial","null","false","0.4,0.6","2:nogo_b","",""
"null","","html-keyboard-response","530","757290","0.0-6.0-1.103","","<img src=""img/pink-r.png"" border=""10"">","null","trial","null","","0.4,0.6","2:nogo_b","1",""
"null","","html-keyboard-response","531","758292","0.0-6.0-2.103","","<div style=""font-size:60px;"">+</div>","null","","","","","","",""
"null","","image-keyboard-response","532","759794","0.0-6.0-0.104","","img/red.png","null","trial","32","false","0.6,0.4","1:go_a","",""
"null","","html-keyboard-response","533","760795","0.0-6.0-1.104","","<img src=""img/red-r.png"">","null","trial","32","","0.6,0.4","1:go_a","1",""
"null","","html-keyboard-response","534","761796","0.0-6.0-2.104","","<div style=""font-size:60px;"">+</div>","null","","","","","","",""
"416.70499999599997","","image-keyboard-response","535","762213","0.0-6.0-0.105","","img/blue.png","32","trial","32","true","0.6,0.4","3:go_c","",""
"null","","html-keyboard-response","536","763214","0.0-6.0-1.105","","<img src=""img/blue-n.png"" border=""10"">","null","trial","32","","0.6,0.4","3:go_c","0",""
"null","","html-keyboard-response","537","764215","0.0-6.0-2.105","","<div style=""font-size:60px;"">+</div>","null","","","","","","",""
"601.9349999987753","","image-keyboard-response","538","764817","0.0-6.0-0.106","","img/pink.png","32","trial","null","false","0.4,0.6","2:nogo_b","",""
"null","","html-keyboard-response","539","765818","0.0-6.0-1.106","","<img src=""img/pink-n.png"" border=""10"">","null","trial","null","","0.4,0.6","2:nogo_b","0",""
"null","","html-keyboard-response","540","766828","0.0-6.0-2.106","","<div style=""font-size:60px;"">+</div>","null","","","","","","",""
"null","","image-keyboard-response","541","768329","0.0-6.0-0.107","","img/orange.png","null","trial","null","true","0.4,0.6","4:nogo_d","",""
"null","","html-keyboard-response","542","769330","0.0-6.0-1.107","","<img src=""img/orange-r.png"">","null","trial","null","","0.4,0.6","4:nogo_d","1",""
"null","","html-keyboard-response","543","770331","0.0-6.0-2.107","","<div style=""font-size:60px;"">+</div>","null","","","","","","",""
"461.8250000057742","","image-keyboard-response","544","770793","0.0-6.0-0.108","","img/red.png","32","trial","32","true","0.6,0.4","1:go_a","",""
"null","","html-keyboard-response","545","771794","0.0-6.0-1.108","","<img src=""img/red-r.png"" border=""10"">","null","trial","32","","0.6,0.4","1:go_a","1",""
"null","","html-keyboard-response","546","772796","0.0-6.0-2.108","","<div style=""font-size:60px;"">+</div>","null","","","","","","",""
"547.0050000003539","","image-keyboard-response","547","773343","0.0-6.0-0.109","","img/pink.png","32","trial","null","false","0.4,0.6","2:nogo_b","",""
"null","","html-keyboard-response","548","774345","0.0-6.0-1.109","","<img src=""img/pink-n.png"" border=""10"">","null","trial","null","","0.4,0.6","2:nogo_b","0",""
"null","","html-keyboard-response","549","775346","0.0-6.0-2.109","","<div style=""font-size:60px;"">+</div>","null","","","","","","",""
"391.7199999996228","","image-keyboard-response","550","775738","0.0-6.0-0.110","","img/blue.png","32","trial","32","true","0.6,0.4","3:go_c","",""
"null","","html-keyboard-response","551","776740","0.0-6.0-1.110","","<img src=""img/blue-r.png"" border=""10"">","null","trial","32","","0.6,0.4","3:go_c","1",""
"null","","html-keyboard-response","552","777741","0.0-6.0-2.110","","<div style=""font-size:60px;"">+</div>","null","","","","","","",""
"509.2149999982212","","image-keyboard-response","553","778250","0.0-6.0-0.111","","img/orange.png","32","trial","null","false","0.4,0.6","4:nogo_d","",""
"null","","html-keyboard-response","554","779252","0.0-6.0-1.111","","<img src=""img/orange-n.png"" border=""10"">","null","trial","null","","0.4,0.6","4:nogo_d","0",""
"null","","html-keyboard-response","555","780254","0.0-6.0-2.111","","<div style=""font-size:60px;"">+</div>","null","","","","","","",""
"755.9350000083214","","image-keyboard-response","556","781010","0.0-6.0-0.112","","img/blue.png","32","trial","32","true","0.6,0.4","3:go_c","",""
"null","","html-keyboard-response","557","782012","0.0-6.0-1.112","","<img src=""img/blue-n.png"" border=""10"">","null","trial","32","","0.6,0.4","3:go_c","0",""
"null","","html-keyboard-response","558","783013","0.0-6.0-2.112","","<div style=""font-size:60px;"">+</div>","null","","","","","","",""
"null","","image-keyboard-response","559","784515","0.0-6.0-0.113","","img/red.png","null","trial","32","false","0.6,0.4","1:go_a","",""
"null","","html-keyboard-response","560","785517","0.0-6.0-1.113","","<img src=""img/red-n.png"">","null","trial","32","","0.6,0.4","1:go_a","0",""
"null","","html-keyboard-response","561","786518","0.0-6.0-2.113","","<div style=""font-size:60px;"">+</div>","null","","","","","","",""
"504.7999999951571","","image-keyboard-response","562","787023","0.0-6.0-0.114","","img/pink.png","32","trial","null","false","0.4,0.6","2:nogo_b","",""
"null","","html-keyboard-response","563","788025","0.0-6.0-1.114","","<img src=""img/pink-n.png"" border=""10"">","null","trial","null","","0.4,0.6","2:nogo_b","0",""
"null","","html-keyboard-response","564","789026","0.0-6.0-2.114","","<div style=""font-size:60px;"">+</div>","null","","","","","","",""
"770.6450000114273","","image-keyboard-response","565","789797","0.0-6.0-0.115","","img/orange.png","32","trial","null","false","0.4,0.6","4:nogo_d","",""
"null","","html-keyboard-response","566","790799","0.0-6.0-1.115","","<img src=""img/orange-r.png"" border=""10"">","null","trial","null","","0.4,0.6","4:nogo_d","1",""
"null","","html-keyboard-response","567","791799","0.0-6.0-2.115","","<div style=""font-size:60px;"">+</div>","null","","","","","","",""
"585.4599999875063","","image-keyboard-response","568","792385","0.0-6.0-0.116","","img/pink.png","32","trial","null","false","0.4,0.6","2:nogo_b","",""
"null","","html-keyboard-response","569","793387","0.0-6.0-1.116","","<img src=""img/pink-r.png"" border=""10"">","null","trial","null","","0.4,0.6","2:nogo_b","1",""
"null","","html-keyboard-response","570","794389","0.0-6.0-2.116","","<div style=""font-size:60px;"">+</div>","null","","","","","","",""
"651.7999999923632","","image-keyboard-response","571","795041","0.0-6.0-0.117","","img/blue.png","32","trial","32","true","0.6,0.4","3:go_c","",""
"null","","html-keyboard-response","572","796042","0.0-6.0-1.117","","<img src=""img/blue-n.png"" border=""10"">","null","trial","32","","0.6,0.4","3:go_c","0",""
"null","","html-keyboard-response","573","797044","0.0-6.0-2.117","","<div style=""font-size:60px;"">+</div>","null","","","","","","",""
"801.049999994575","","image-keyboard-response","574","797845","0.0-6.0-0.118","","img/orange.png","32","trial","null","false","0.4,0.6","4:nogo_d","",""
"null","","html-keyboard-response","575","798848","0.0-6.0-1.118","","<img src=""img/orange-r.png"" border=""10"">","null","trial","null","","0.4,0.6","4:nogo_d","1",""
"null","","html-keyboard-response","576","799848","0.0-6.0-2.118","","<div style=""font-size:60px;"">+</div>","null","","","","","","",""
"858.7500000139698","","image-keyboard-response","577","800707","0.0-6.0-0.119","","img/red.png","32","trial","32","true","0.6,0.4","1:go_a","",""
"null","","html-keyboard-response","578","801708","0.0-6.0-1.119","","<img src=""img/red-n.png"" border=""10"">","null","trial","32","","0.6,0.4","1:go_a","0",""
"null","","html-keyboard-response","579","802709","0.0-6.0-2.119","","<div style=""font-size:60px;"">+</div>","null","","","","","","",""
"32280.215000006137","","instructions","580","834989","0.0-7.0","[{""page_index"":0,""viewing_time"":32279.885000010836}]","","","","","","","","",""
"770.9399999876041","","image-keyboard-response","581","835761","0.0-8.0-0.0","","img/green.png","32","trial","32","true","0.8,0.2","1:go_a","",""
"null","","html-keyboard-response","582","836762","0.0-8.0-1.0","","<img src=""img/green-r.png"" border=""10"">","null","trial","32","","0.8,0.2","1:go_a","1",""
"null","","html-keyboard-response","583","837771","0.0-8.0-2.0","","<div style=""font-size:60px;"">+</div>","null","","","","","","",""
"600.7700000045588","","image-keyboard-response","584","838372","0.0-8.0-0.1","","img/purple.png","32","trial","null","false","0.4,0.6","4:nogo_d","",""
"null","","html-keyboard-response","585","839373","0.0-8.0-1.1","","<img src=""img/purple-r.png"" border=""10"">","null","trial","null","","0.4,0.6","4:nogo_d","1",""
"null","","html-keyboard-response","586","840374","0.0-8.0-2.1","","<div style=""font-size:60px;"">+</div>","null","","","","","","",""
"402.20500000577886","","image-keyboard-response","587","840777","0.0-8.0-0.2","","img/pink.png","32","trial","null","false","0.2,0.8","2:nogo_b","",""
"null","","html-keyboard-response","588","841779","0.0-8.0-1.2","","<img src=""img/pink-n.png"" border=""10"">","null","trial","null","","0.2,0.8","2:nogo_b","0",""
"null","","html-keyboard-response","589","842780","0.0-8.0-2.2","","<div style=""font-size:60px;"">+</div>","null","","","","","","",""
"398.1950000015786","","image-keyboard-response","590","843179","0.0-8.0-0.3","","img/grey.png","32","trial","32","true","0.6,0.4","3:go_c","",""
"null","","html-keyboard-response","591","844180","0.0-8.0-1.3","","<img src=""img/grey-n.png"" border=""10"">","null","trial","32","","0.6,0.4","3:go_c","0",""
"null","","html-keyboard-response","592","845182","0.0-8.0-2.3","","<div style=""font-size:60px;"">+</div>","null","","","","","","",""
"null","","image-keyboard-response","593","846683","0.0-8.0-0.4","","img/grey.png","null","trial","32","false","0.6,0.4","3:go_c","",""
"null","","html-keyboard-response","594","847685","0.0-8.0-1.4","","<img src=""img/grey-n.png"">","null","trial","32","","0.6,0.4","3:go_c","0",""
"null","","html-keyboard-response","595","848685","0.0-8.0-2.4","","<div style=""font-size:60px;"">+</div>","null","","","","","","",""
"632.4749999912456","","image-keyboard-response","596","849318","0.0-8.0-0.5","","img/pink.png","32","trial","null","false","0.2,0.8","2:nogo_b","",""
"null","","html-keyboard-response","597","850320","0.0-8.0-1.5","","<img src=""img/pink-n.png"" border=""10"">","null","trial","null","","0.2,0.8","2:nogo_b","0",""
"null","","html-keyboard-response","598","851322","0.0-8.0-2.5","","<div style=""font-size:60px;"">+</div>","null","","","","","","",""
"372.6349999924423","","image-keyboard-response","599","851695","0.0-8.0-0.6","","img/green.png","32","trial","32","true","0.8,0.2","1:go_a","",""
"null","","html-keyboard-response","600","852696","0.0-8.0-1.6","","<img src=""img/green-r.png"" border=""10"">","null","trial","32","","0.8,0.2","1:go_a","1",""
"null","","html-keyboard-response","601","853697","0.0-8.0-2.6","","<div style=""font-size:60px;"">+</div>","null","","","","","","",""
"422.62499999196734","","image-keyboard-response","602","854120","0.0-8.0-0.7","","img/purple.png","32","trial","null","false","0.4,0.6","4:nogo_d","",""
"null","","html-keyboard-response","603","855123","0.0-8.0-1.7","","<img src=""img/purple-r.png"" border=""10"">","null","trial","null","","0.4,0.6","4:nogo_d","1",""
"null","","html-keyboard-response","604","856124","0.0-8.0-2.7","","<div style=""font-size:60px;"">+</div>","null","","","","","","",""
"567.0550000068033","","image-keyboard-response","605","856691","0.0-8.0-0.8","","img/green.png","32","trial","32","true","0.8,0.2","1:go_a","",""
"null","","html-keyboard-response","606","857694","0.0-8.0-1.8","","<img src=""img/green-n.png"" border=""10"">","null","trial","32","","0.8,0.2","1:go_a","0",""
"null","","html-keyboard-response","607","858694","0.0-8.0-2.8","","<div style=""font-size:60px;"">+</div>","null","","","","","","",""
"null","","image-keyboard-response","608","860196","0.0-8.0-0.9","","img/pink.png","null","trial","null","true","0.2,0.8","2:nogo_b","",""
"null","","html-keyboard-response","609","861197","0.0-8.0-1.9","","<img src=""img/pink-r.png"">","null","trial","null","","0.2,0.8","2:nogo_b","1",""
"null","","html-keyboard-response","610","862198","0.0-8.0-2.9","","<div style=""font-size:60px;"">+</div>","null","","","","","","",""
"450.7400000002235","","image-keyboard-response","611","862649","0.0-8.0-0.10","","img/purple.png","32","trial","null","false","0.4,0.6","4:nogo_d","",""
"null","","html-keyboard-response","612","863652","0.0-8.0-1.10","","<img src=""img/purple-n.png"" border=""10"">","null","trial","null","","0.4,0.6","4:nogo_d","0",""
"null","","html-keyboard-response","613","864653","0.0-8.0-2.10","","<div style=""font-size:60px;"">+</div>","null","","","","","","",""
"null","","image-keyboard-response","614","866154","0.0-8.0-0.11","","img/grey.png","null","trial","32","false","0.6,0.4","3:go_c","",""
"null","","html-keyboard-response","615","867156","0.0-8.0-1.11","","<img src=""img/grey-n.png"">","null","trial","32","","0.6,0.4","3:go_c","0",""
"null","","html-keyboard-response","616","868157","0.0-8.0-2.11","","<div style=""font-size:60px;"">+</div>","null","","","","","","",""
"545.7200000091689","","image-keyboard-response","617","868703","0.0-8.0-0.12","","img/green.png","32","trial","32","true","0.8,0.2","1:go_a","",""
"null","","html-keyboard-response","618","869704","0.0-8.0-1.12","","<img src=""img/green-r.png"" border=""10"">","null","trial","32","","0.8,0.2","1:go_a","1",""
"null","","html-keyboard-response","619","870705","0.0-8.0-2.12","","<div style=""font-size:60px;"">+</div>","null","","","","","","",""
"869.8300000105519","","image-keyboard-response","620","871575","0.0-8.0-0.13","","img/purple.png","32","trial","null","false","0.4,0.6","4:nogo_d","",""
"null","","html-keyboard-response","621","872577","0.0-8.0-1.13","","<img src=""img/purple-n.png"" border=""10"">","null","trial","null","","0.4,0.6","4:nogo_d","0",""
"null","","html-keyboard-response","622","873579","0.0-8.0-2.13","","<div style=""font-size:60px;"">+</div>","null","","","","","","",""
"799.8999999981606","","image-keyboard-response","623","874379","0.0-8.0-0.14","","img/pink.png","32","trial","null","false","0.2,0.8","2:nogo_b","",""
"null","","html-keyboard-response","624","875380","0.0-8.0-1.14","","<img src=""img/pink-n.png"" border=""10"">","null","trial","null","","0.2,0.8","2:nogo_b","0",""
"null","","html-keyboard-response","625","876383","0.0-8.0-2.14","","<div style=""font-size:60px;"">+</div>","null","","","","","","",""
"306.7600000067614","","image-keyboard-response","626","876690","0.0-8.0-0.15","","img/grey.png","32","trial","32","true","0.6,0.4","3:go_c","",""
"null","","html-keyboard-response","627","877691","0.0-8.0-1.15","","<img src=""img/grey-r.png"" border=""10"">","null","trial","32","","0.6,0.4","3:go_c","1",""
"null","","html-keyboard-response","628","878692","0.0-8.0-2.15","","<div style=""font-size:60px;"">+</div>","null","","","","","","",""
"744.235000005574","","image-keyboard-response","629","879437","0.0-8.0-0.16","","img/grey.png","32","trial","32","true","0.6,0.4","3:go_c","",""
"null","","html-keyboard-response","630","880441","0.0-8.0-1.16","","<img src=""img/grey-r.png"" border=""10"">","null","trial","32","","0.6,0.4","3:go_c","1",""
"null","","html-keyboard-response","631","881443","0.0-8.0-2.16","","<div style=""font-size:60px;"">+</div>","null","","","","","","",""
"592.7500000107102","","image-keyboard-response","632","882036","0.0-8.0-0.17","","img/green.png","32","trial","32","true","0.8,0.2","1:go_a","",""
"null","","html-keyboard-response","633","883038","0.0-8.0-1.17","","<img src=""img/green-r.png"" border=""10"">","null","trial","32","","0.8,0.2","1:go_a","1",""
"null","","html-keyboard-response","634","884039","0.0-8.0-2.17","","<div style=""font-size:60px;"">+</div>","null","","","","","","",""
"355.1399999996647","","image-keyboard-response","635","884395","0.0-8.0-0.18","","img/purple.png","32","trial","null","false","0.4,0.6","4:nogo_d","",""
"null","","html-keyboard-response","636","885397","0.0-8.0-1.18","","<img src=""img/purple-r.png"" border=""10"">","null","trial","null","","0.4,0.6","4:nogo_d","1",""
"null","","html-keyboard-response","637","886398","0.0-8.0-2.18","","<div style=""font-size:60px;"">+</div>","null","","","","","","",""
"null","","image-keyboard-response","638","887900","0.0-8.0-0.19","","img/pink.png","null","trial","null","true","0.2,0.8","2:nogo_b","",""
"null","","html-keyboard-response","639","888902","0.0-8.0-1.19","","<img src=""img/pink-r.png"">","null","trial","null","","0.2,0.8","2:nogo_b","1",""
"null","","html-keyboard-response","640","889903","0.0-8.0-2.19","","<div style=""font-size:60px;"">+</div>","null","","","","","","",""
"801.7000000108965","","image-keyboard-response","641","890705","0.0-8.0-0.20","","img/purple.png","32","trial","null","false","0.4,0.6","4:nogo_d","",""
"null","","html-keyboard-response","642","891706","0.0-8.0-1.20","","<img src=""img/purple-n.png"" border=""10"">","null","trial","null","","0.4,0.6","4:nogo_d","0",""
"null","","html-keyboard-response","643","892708","0.0-8.0-2.20","","<div style=""font-size:60px;"">+</div>","null","","","","","","",""
"390.8700000029057","","image-keyboard-response","644","893099","0.0-8.0-0.21","","img/grey.png","32","trial","32","true","0.6,0.4","3:go_c","",""
"null","","html-keyboard-response","645","894100","0.0-8.0-1.21","","<img src=""img/grey-r.png"" border=""10"">","null","trial","32","","0.6,0.4","3:go_c","1",""
"null","","html-keyboard-response","646","895102","0.0-8.0-2.21","","<div style=""font-size:60px;"">+</div>","null","","","","","","",""
"null","","image-keyboard-response","647","896602","0.0-8.0-0.22","","img/pink.png","null","trial","null","true","0.2,0.8","2:nogo_b","",""
"null","","html-keyboard-response","648","897604","0.0-8.0-1.22","","<img src=""img/pink-r.png"">","null","trial","null","","0.2,0.8","2:nogo_b","1",""
"null","","html-keyboard-response","649","898605","0.0-8.0-2.22","","<div style=""font-size:60px;"">+</div>","null","","","","","","",""
"354.36500000650994","","image-keyboard-response","650","898959","0.0-8.0-0.23","","img/green.png","32","trial","32","true","0.8,0.2","1:go_a","",""
"null","","html-keyboard-response","651","899962","0.0-8.0-1.23","","<img src=""img/green-r.png"" border=""10"">","null","trial","32","","0.8,0.2","1:go_a","1",""
"null","","html-keyboard-response","652","900963","0.0-8.0-2.23","","<div style=""font-size:60px;"">+</div>","null","","","","","","",""
"724.5499999989988","","image-keyboard-response","653","901688","0.0-8.0-0.24","","img/pink.png","32","trial","null","false","0.2,0.8","2:nogo_b","",""
"null","","html-keyboard-response","654","902689","0.0-8.0-1.24","","<img src=""img/pink-n.png"" border=""10"">","null","trial","null","","0.2,0.8","2:nogo_b","0",""
"null","","html-keyboard-response","655","903691","0.0-8.0-2.24","","<div style=""font-size:60px;"">+</div>","null","","","","","","",""
"571.235000010347","","image-keyboard-response","656","904262","0.0-8.0-0.25","","img/grey.png","32","trial","32","true","0.6,0.4","3:go_c","",""
"null","","html-keyboard-response","657","905264","0.0-8.0-1.25","","<img src=""img/grey-r.png"" border=""10"">","null","trial","32","","0.6,0.4","3:go_c","1",""
"null","","html-keyboard-response","658","906266","0.0-8.0-2.25","","<div style=""font-size:60px;"">+</div>","null","","","","","","",""
"388.82000000739936","","image-keyboard-response","659","906655","0.0-8.0-0.26","","img/green.png","32","trial","32","true","0.8,0.2","1:go_a","",""
"null","","html-keyboard-response","660","907656","0.0-8.0-1.26","","<img src=""img/green-r.png"" border=""10"">","null","trial","32","","0.8,0.2","1:go_a","1",""
"null","","html-keyboard-response","661","908658","0.0-8.0-2.26","","<div style=""font-size:60px;"">+</div>","null","","","","","","",""
"476.99999999895226","","image-keyboard-response","662","909135","0.0-8.0-0.27","","img/purple.png","32","trial","null","false","0.4,0.6","4:nogo_d","",""
"null","","html-keyboard-response","663","910137","0.0-8.0-1.27","","<img src=""img/purple-r.png"" border=""10"">","null","trial","null","","0.4,0.6","4:nogo_d","1",""
"null","","html-keyboard-response","664","911138","0.0-8.0-2.27","","<div style=""font-size:60px;"">+</div>","null","","","","","","",""
"474.84999999869615","","image-keyboard-response","665","911613","0.0-8.0-0.28","","img/grey.png","32","trial","32","true","0.6,0.4","3:go_c","",""
"null","","html-keyboard-response","666","912615","0.0-8.0-1.28","","<img src=""img/grey-r.png"" border=""10"">","null","trial","32","","0.6,0.4","3:go_c","1",""
"null","","html-keyboard-response","667","913616","0.0-8.0-2.28","","<div style=""font-size:60px;"">+</div>","null","","","","","","",""
"503.7799999990966","","image-keyboard-response","668","914120","0.0-8.0-0.29","","img/purple.png","32","trial","null","false","0.4,0.6","4:nogo_d","",""
"null","","html-keyboard-response","669","915123","0.0-8.0-1.29","","<img src=""img/purple-n.png"" border=""10"">","null","trial","null","","0.4,0.6","4:nogo_d","0",""
"null","","html-keyboard-response","670","916124","0.0-8.0-2.29","","<div style=""font-size:60px;"">+</div>","null","","","","","","",""
"378.71499999891967","","image-keyboard-response","671","916503","0.0-8.0-0.30","","img/green.png","32","trial","32","true","0.8,0.2","1:go_a","",""
"null","","html-keyboard-response","672","917505","0.0-8.0-1.30","","<img src=""img/green-n.png"" border=""10"">","null","trial","32","","0.8,0.2","1:go_a","0",""
"null","","html-keyboard-response","673","918507","0.0-8.0-2.30","","<div style=""font-size:60px;"">+</div>","null","","","","","","",""
