"rt","url","trial_type","trial_index","time_elapsed","internal_node_id","view_history","stimulus","key_press","test_part","correct_response","correct","use_rew","which_stim","reward","responses"
"236465.7400000142","consent.html","external-html","0","236528","0.0-0.0","","","","","","","","","",""
"24207.244999997783","","instructions","1","260739","0.0-1.0","[{""page_index"":0,""viewing_time"":1373.4900000272319},{""page_index"":1,""viewing_time"":3411.199999973178},{""page_index"":2,""viewing_time"":1050.020000024233},{""page_index"":3,""viewing_time"":2122.479999961797},{""page_index"":4,""viewing_time"":4497.83499998739},{""page_index"":5,""viewing_time"":2291.7100000195205},{""page_index"":6,""viewing_time"":9459.785000013653}]","","","","","","","","",""
"507.9600000171922","","image-keyboard-response","2","261248","0.0-2.0-0.0","","img/test3.PNG","32","practice","null","false","","","",""
"null","","html-keyboard-response","3","262253","0.0-2.0-1.0","","<img src=""img/test3-neutral.PNG"" border=""10px; grey"">","null","","","","","","",""
"null","","html-keyboard-response","4","263260","0.0-2.0-2.0","","<div style=""font-size:60px;"">+</div>","null","","","","","","",""
"null","","image-keyboard-response","5","264765","0.0-2.0-0.1","","img/test2.PNG","null","practice","null","true","","","",""
"null","","html-keyboard-response","6","265772","0.0-2.0-1.1","","<img src=""img/test2-reward.PNG"">","null","","","","","","",""
"null","","html-keyboard-response","7","266776","0.0-2.0-2.1","","<div style=""font-size:60px;"">+</div>","null","","","","","","",""
"491.7049999930896","","image-keyboard-response","8","267269","0.0-2.0-0.2","","img/test1.PNG","32","practice","32","true","","","",""
"null","","html-keyboard-response","9","268277","0.0-2.0-1.2","","<img src=""img/test1-reward.PNG"" border=""10px; grey"">","null","","","","","","",""
"null","","html-keyboard-response","10","269285","0.0-2.0-2.2","","<div style=""font-size:60px;"">+</div>","null","","","","","","",""
"null","","image-keyboard-response","11","270795","0.0-2.0-0.3","","img/test3.PNG","null","practice","null","true","","","",""
"null","","html-keyboard-response","12","271801","0.0-2.0-1.3","","<img src=""img/test3-reward.PNG"">","null","","","","","","",""
"null","","html-keyboard-response","13","272808","0.0-2.0-2.3","","<div style=""font-size:60px;"">+</div>","null","","","","","","",""
"492.5950000179","","image-keyboard-response","14","273302","0.0-2.0-0.4","","img/test1.PNG","32","practice","32","true","","","",""
"null","","html-keyboard-response","15","274313","0.0-2.0-1.4","","<img src=""img/test1-reward.PNG"" border=""10px; grey"">","null","","","","","","",""
"null","","html-keyboard-response","16","275319","0.0-2.0-2.4","","<div style=""font-size:60px;"">+</div>","null","","","","","","",""
"null","","image-keyboard-response","17","276821","0.0-2.0-0.5","","img/test2.PNG","null","practice","null","true","","","",""
"null","","html-keyboard-response","18","277831","0.0-2.0-1.5","","<img src=""img/test2-reward.PNG"">","null","","","","","","",""
"null","","html-keyboard-response","19","278838","0.0-2.0-2.5","","<div style=""font-size:60px;"">+</div>","null","","","","","","",""
"423.5999999800697","","image-keyboard-response","20","279263","0.0-2.0-0.6","","img/test1.PNG","32","practice","32","true","","","",""
"null","","html-keyboard-response","21","280273","0.0-2.0-1.6","","<img src=""img/test1-reward.PNG"" border=""10px; grey"">","null","","","","","","",""
"null","","html-keyboard-response","22","281282","0.0-2.0-2.6","","<div style=""font-size:60px;"">+</div>","null","","","","","","",""
"null","","image-keyboard-response","23","282790","0.0-2.0-0.7","","img/test2.PNG","null","practice","null","true","","","",""
"null","","html-keyboard-response","24","283794","0.0-2.0-1.7","","<img src=""img/test2-reward.PNG"">","null","","","","","","",""
"null","","html-keyboard-response","25","284803","0.0-2.0-2.7","","<div style=""font-size:60px;"">+</div>","null","","","","","","",""
"null","","image-keyboard-response","26","286308","0.0-2.0-0.8","","img/test3.PNG","null","practice","null","true","","","",""
"null","","html-keyboard-response","27","287313","0.0-2.0-1.8","","<img src=""img/test3-reward.PNG"">","null","","","","","","",""
"null","","html-keyboard-response","28","288319","0.0-2.0-2.8","","<div style=""font-size:60px;"">+</div>","null","","","","","","",""
"null","","image-keyboard-response","29","289828","0.0-2.0-0.9","","img/test2.PNG","null","practice","null","true","","","",""
"null","","html-keyboard-response","30","290836","0.0-2.0-1.9","","<img src=""img/test2-reward.PNG"">","null","","","","","","",""
"null","","html-keyboard-response","31","291840","0.0-2.0-2.9","","<div style=""font-size:60px;"">+</div>","null","","","","","","",""
"null","","image-keyboard-response","32","293349","0.0-2.0-0.10","","img/test3.PNG","null","practice","null","true","","","",""
"null","","html-keyboard-response","33","294358","0.0-2.0-1.10","","<img src=""img/test3-reward.PNG"">","null","","","","","","",""
"null","","html-keyboard-response","34","295367","0.0-2.0-2.10","","<div style=""font-size:60px;"">+</div>","null","","","","","","",""
"390.8050000318326","","image-keyboard-response","35","295759","0.0-2.0-0.11","","img/test1.PNG","32","practice","32","true","","","",""
"null","","html-keyboard-response","36","296767","0.0-2.0-1.11","","<img src=""img/test1-reward.PNG"" border=""10px; grey"">","null","","","","","","",""
"null","","html-keyboard-response","37","297769","0.0-2.0-2.11","","<div style=""font-size:60px;"">+</div>","null","","","","","","",""
"38756.05500000529","","instructions","38","336525","0.0-3.0","[{""page_index"":0,""viewing_time"":38755.56999997934}]","","","","","","","","",""
"null","","image-keyboard-response","39","338027","0.0-4.0-0.0","","img/yellow.png","null","trial","null","true","0.2,0.8","2:nogo_b","",""
"null","","html-keyboard-response","40","339037","0.0-4.0-1.0","","<img src=""img/yellow-r.png"">","null","trial","null","","0.2,0.8","2:nogo_b","1",""
"null","","html-keyboard-response","41","340046","0.0-4.0-2.0","","<div style=""font-size:60px;"">+</div>","null","","","","","","",""
"724.3749999906868","","image-keyboard-response","42","340772","0.0-4.0-0.1","","img/grey.png","32","trial","32","true","0.8,0.2","1:go_a","",""
"null","","html-keyboard-response","43","341781","0.0-4.0-1.1","","<img src=""img/grey-r.png"" border=""10"">","null","trial","32","","0.8,0.2","1:go_a","1",""
"null","","html-keyboard-response","44","342785","0.0-4.0-2.1","","<div style=""font-size:60px;"">+</div>","null","","","","","","",""
"813.3800000068732","","image-keyboard-response","45","343599","0.0-4.0-0.2","","img/grey.png","32","trial","32","true","0.8,0.2","1:go_a","",""
"null","","html-keyboard-response","46","344613","0.0-4.0-1.2","","<img src=""img/grey-r.png"" border=""10"">","null","trial","32","","0.8,0.2","1:go_a","1",""
"null","","html-keyboard-response","47","345625","0.0-4.0-2.2","","<div style=""font-size:60px;"">+</div>","null","","","","","","",""
"379.5399999944493","","image-keyboard-response","48","346005","0.0-4.0-0.3","","img/yellow.png","32","trial","null","false","0.2,0.8","2:nogo_b","",""
"null","","html-keyboard-response","49","347010","0.0-4.0-1.3","","<img src=""img/yellow-n.png"" border=""10"">","null","trial","null","","0.2,0.8","2:nogo_b","0",""
"null","","html-keyboard-response","50","348023","0.0-4.0-2.3","","<div style=""font-size:60px;"">+</div>","null","","","","","","",""
"null","","image-keyboard-response","51","349527","0.0-4.0-0.4","","img/yellow.png","null","trial","null","true","0.2,0.8","2:nogo_b","",""
"null","","html-keyboard-response","52","350540","0.0-4.0-1.4","","<img src=""img/yellow-r.png"">","null","trial","null","","0.2,0.8","2:nogo_b","1",""
"null","","html-keyboard-response","53","351542","0.0-4.0-2.4","","<div style=""font-size:60px;"">+</div>","null","","","","","","",""
"541.800000006333","","image-keyboard-response","54","352085","0.0-4.0-0.5","","img/grey.png","32","trial","32","true","0.8,0.2","1:go_a","",""
"null","","html-keyboard-response","55","353094","0.0-4.0-1.5","","<img src=""img/grey-r.png"" border=""10"">","null","trial","32","","0.8,0.2","1:go_a","1",""
"null","","html-keyboard-response","56","354100","0.0-4.0-2.5","","<div style=""font-size:60px;"">+</div>","null","","","","","","",""
"511.8699999875389","","image-keyboard-response","57","354614","0.0-4.0-0.6","","img/grey.png","32","trial","32","true","0.8,0.2","1:go_a","",""
"null","","html-keyboard-response","58","355623","0.0-4.0-1.6","","<img src=""img/grey-r.png"" border=""10"">","null","trial","32","","0.8,0.2","1:go_a","1",""
"null","","html-keyboard-response","59","356625","0.0-4.0-2.6","","<div style=""font-size:60px;"">+</div>","null","","","","","","",""
"null","","image-keyboard-response","60","358127","0.0-4.0-0.7","","img/yellow.png","null","trial","null","true","0.2,0.8","2:nogo_b","",""
"null","","html-keyboard-response","61","359138","0.0-4.0-1.7","","<img src=""img/yellow-r.png"">","null","trial","null","","0.2,0.8","2:nogo_b","1",""
"null","","html-keyboard-response","62","360142","0.0-4.0-2.7","","<div style=""font-size:60px;"">+</div>","null","","","","","","",""
"529.1549999965355","","image-keyboard-response","63","360672","0.0-4.0-0.8","","img/yellow.png","32","trial","null","false","0.2,0.8","2:nogo_b","",""
"null","","html-keyboard-response","64","361683","0.0-4.0-1.8","","<img src=""img/yellow-r.png"" border=""10"">","null","trial","null","","0.2,0.8","2:nogo_b","1",""
"null","","html-keyboard-response","65","362695","0.0-4.0-2.8","","<div style=""font-size:60px;"">+</div>","null","","","","","","",""
"674.6900000143796","","image-keyboard-response","66","363371","0.0-4.0-0.9","","img/grey.png","32","trial","32","true","0.8,0.2","1:go_a","",""
"null","","html-keyboard-response","67","364379","0.0-4.0-1.9","","<img src=""img/grey-r.png"" border=""10"">","null","trial","32","","0.8,0.2","1:go_a","1",""
"null","","html-keyboard-response","68","365390","0.0-4.0-2.9","","<div style=""font-size:60px;"">+</div>","null","","","","","","",""
"460.8850000076927","","image-keyboard-response","69","365852","0.0-4.0-0.10","","img/grey.png","32","trial","32","true","0.8,0.2","1:go_a","",""
"null","","html-keyboard-response","70","366869","0.0-4.0-1.10","","<img src=""img/grey-n.png"" border=""10"">","null","trial","32","","0.8,0.2","1:go_a","0",""
"null","","html-keyboard-response","71","367880","0.0-4.0-2.10","","<div style=""font-size:60px;"">+</div>","null","","","","","","",""
"548.3399999793619","","image-keyboard-response","72","368430","0.0-4.0-0.11","","img/yellow.png","32","trial","null","false","0.2,0.8","2:nogo_b","",""
"null","","html-keyboard-response","73","369438","0.0-4.0-1.11","","<img src=""img/yellow-n.png"" border=""10"">","null","trial","null","","0.2,0.8","2:nogo_b","0",""
"null","","html-keyboard-response","74","370443","0.0-4.0-2.11","","<div style=""font-size:60px;"">+</div>","null","","","","","","",""
"733.9350000256673","","image-keyboard-response","75","371178","0.0-4.0-0.12","","img/yellow.png","32","trial","null","false","0.2,0.8","2:nogo_b","",""
"null","","html-keyboard-response","76","372183","0.0-4.0-1.12","","<img src=""img/yellow-n.png"" border=""10"">","null","trial","null","","0.2,0.8","2:nogo_b","0",""
"null","","html-keyboard-response","77","373188","0.0-4.0-2.12","","<div style=""font-size:60px;"">+</div>","null","","","","","","",""
"447.30499997967854","","image-keyboard-response","78","373637","0.0-4.0-0.13","","img/grey.png","32","trial","32","true","0.8,0.2","1:go_a","",""
"null","","html-keyboard-response","79","374647","0.0-4.0-1.13","","<img src=""img/grey-r.png"" border=""10"">","null","trial","32","","0.8,0.2","1:go_a","1",""
"null","","html-keyboard-response","80","375653","0.0-4.0-2.13","","<div style=""font-size:60px;"">+</div>","null","","","","","","",""
"713.1550000049174","","image-keyboard-response","81","376367","0.0-4.0-0.14","","img/yellow.png","32","trial","null","false","0.2,0.8","2:nogo_b","",""
"null","","html-keyboard-response","82","377373","0.0-4.0-1.14","","<img src=""img/yellow-r.png"" border=""10"">","null","trial","null","","0.2,0.8","2:nogo_b","1",""
"null","","html-keyboard-response","83","378377","0.0-4.0-2.14","","<div style=""font-size:60px;"">+</div>","null","","","","","","",""
"539.4450000021607","","image-keyboard-response","84","378917","0.0-4.0-0.15","","img/grey.png","32","trial","32","true","0.8,0.2","1:go_a","",""
"null","","html-keyboard-response","85","379924","0.0-4.0-1.15","","<img src=""img/grey-r.png"" border=""10"">","null","trial","32","","0.8,0.2","1:go_a","1",""
"null","","html-keyboard-response","86","380940","0.0-4.0-2.15","","<div style=""font-size:60px;"">+</div>","null","","","","","","",""
"null","","image-keyboard-response","87","382452","0.0-4.0-0.16","","img/grey.png","null","trial","32","false","0.8,0.2","1:go_a","",""
"null","","html-keyboard-response","88","383460","0.0-4.0-1.16","","<img src=""img/grey-r.png"">","null","trial","32","","0.8,0.2","1:go_a","1",""
"null","","html-keyboard-response","89","384469","0.0-4.0-2.16","","<div style=""font-size:60px;"">+</div>","null","","","","","","",""
"null","","image-keyboard-response","90","385978","0.0-4.0-0.17","","img/yellow.png","null","trial","null","true","0.2,0.8","2:nogo_b","",""
"null","","html-keyboard-response","91","386981","0.0-4.0-1.17","","<img src=""img/yellow-r.png"">","null","trial","null","","0.2,0.8","2:nogo_b","1",""
"null","","html-keyboard-response","92","387985","0.0-4.0-2.17","","<div style=""font-size:60px;"">+</div>","null","","","","","","",""
"907.0899999933317","","image-keyboard-response","93","388893","0.0-4.0-0.18","","img/yellow.png","32","trial","null","false","0.2,0.8","2:nogo_b","",""
"null","","html-keyboard-response","94","389897","0.0-4.0-1.18","","<img src=""img/yellow-n.png"" border=""10"">","null","trial","null","","0.2,0.8","2:nogo_b","0",""
"null","","html-keyboard-response","95","390899","0.0-4.0-2.18","","<div style=""font-size:60px;"">+</div>","null","","","","","","",""
"null","","image-keyboard-response","96","392404","0.0-4.0-0.19","","img/grey.png","null","trial","32","false","0.8,0.2","1:go_a","",""
"null","","html-keyboard-response","97","393407","0.0-4.0-1.19","","<img src=""img/grey-n.png"">","null","trial","32","","0.8,0.2","1:go_a","0",""
"null","","html-keyboard-response","98","394412","0.0-4.0-2.19","","<div style=""font-size:60px;"">+</div>","null","","","","","","",""
"null","","image-keyboard-response","99","395920","0.0-4.0-0.20","","img/grey.png","null","trial","32","false","0.8,0.2","1:go_a","",""
"null","","html-keyboard-response","100","396927","0.0-4.0-1.20","","<img src=""img/grey-n.png"">","null","trial","32","","0.8,0.2","1:go_a","0",""
"null","","html-keyboard-response","101","397931","0.0-4.0-2.20","","<div style=""font-size:60px;"">+</div>","null","","","","","","",""
"null","","image-keyboard-response","102","399433","0.0-4.0-0.21","","img/yellow.png","null","trial","null","true","0.2,0.8","2:nogo_b","",""
"null","","html-keyboard-response","103","400445","0.0-4.0-1.21","","<img src=""img/yellow-r.png"">","null","trial","null","","0.2,0.8","2:nogo_b","1",""
"null","","html-keyboard-response","104","401454","0.0-4.0-2.21","","<div style=""font-size:60px;"">+</div>","null","","","","","","",""
"null","","image-keyboard-response","105","402959","0.0-4.0-0.22","","img/grey.png","null","trial","32","false","0.8,0.2","1:go_a","",""
"null","","html-keyboard-response","106","403963","0.0-4.0-1.22","","<img src=""img/grey-n.png"">","null","trial","32","","0.8,0.2","1:go_a","0",""
"null","","html-keyboard-response","107","404968","0.0-4.0-2.22","","<div style=""font-size:60px;"">+</div>","null","","","","","","",""
"1148.3550000120886","","image-keyboard-response","108","406118","0.0-4.0-0.23","","img/yellow.png","32","trial","null","false","0.2,0.8","2:nogo_b","",""
"null","","html-keyboard-response","109","407127","0.0-4.0-1.23","","<img src=""img/yellow-n.png"" border=""10"">","null","trial","null","","0.2,0.8","2:nogo_b","0",""
"null","","html-keyboard-response","110","408135","0.0-4.0-2.23","","<div style=""font-size:60px;"">+</div>","null","","","","","","",""
"345.6199999782257","","image-keyboard-response","111","408482","0.0-4.0-0.24","","img/grey.png","32","trial","32","true","0.8,0.2","1:go_a","",""
"null","","html-keyboard-response","112","409489","0.0-4.0-1.24","","<img src=""img/grey-r.png"" border=""10"">","null","trial","32","","0.8,0.2","1:go_a","1",""
"null","","html-keyboard-response","113","410497","0.0-4.0-2.24","","<div style=""font-size:60px;"">+</div>","null","","","","","","",""
"null","","image-keyboard-response","114","412004","0.0-4.0-0.25","","img/yellow.png","null","trial","null","true","0.2,0.8","2:nogo_b","",""
"null","","html-keyboard-response","115","413010","0.0-4.0-1.25","","<img src=""img/yellow-n.png"">","null","trial","null","","0.2,0.8","2:nogo_b","0",""
"null","","html-keyboard-response","116","414013","0.0-4.0-2.25","","<div style=""font-size:60px;"">+</div>","null","","","","","","",""
"711.6399999940768","","image-keyboard-response","117","414726","0.0-4.0-0.26","","img/grey.png","32","trial","32","true","0.8,0.2","1:go_a","",""
"null","","html-keyboard-response","118","415728","0.0-4.0-1.26","","<img src=""img/grey-r.png"" border=""10"">","null","trial","32","","0.8,0.2","1:go_a","1",""
"null","","html-keyboard-response","119","416737","0.0-4.0-2.26","","<div style=""font-size:60px;"">+</div>","null","","","","","","",""
"null","","image-keyboard-response","120","418241","0.0-4.0-0.27","","img/yellow.png","null","trial","null","true","0.2,0.8","2:nogo_b","",""
"null","","html-keyboard-response","121","419254","0.0-4.0-1.27","","<img src=""img/yellow-r.png"">","null","trial","null","","0.2,0.8","2:nogo_b","1",""
"null","","html-keyboard-response","122","420260","0.0-4.0-2.27","","<div style=""font-size:60px;"">+</div>","null","","","","","","",""
"867.3899999703281","","image-keyboard-response","123","421129","0.0-4.0-0.28","","img/yellow.png","32","trial","null","false","0.2,0.8","2:nogo_b","",""
"null","","html-keyboard-response","124","422134","0.0-4.0-1.28","","<img src=""img/yellow-n.png"" border=""10"">","null","trial","null","","0.2,0.8","2:nogo_b","0",""
"null","","html-keyboard-response","125","423142","0.0-4.0-2.28","","<div style=""font-size:60px;"">+</div>","null","","","","","","",""
"645.0900000054389","","image-keyboard-response","126","423788","0.0-4.0-0.29","","img/grey.png","32","trial","32","true","0.8,0.2","1:go_a","",""
"null","","html-keyboard-response","127","424797","0.0-4.0-1.29","","<img src=""img/grey-r.png"" border=""10"">","null","trial","32","","0.8,0.2","1:go_a","1",""
"null","","html-keyboard-response","128","425808","0.0-4.0-2.29","","<div style=""font-size:60px;"">+</div>","null","","","","","","",""
"null","","image-keyboard-response","129","427318","0.0-4.0-0.30","","img/yellow.png","null","trial","null","true","0.2,0.8","2:nogo_b","",""
"null","","html-keyboard-response","130","428325","0.0-4.0-1.30","","<img src=""img/yellow-r.png"">","null","trial","null","","0.2,0.8","2:nogo_b","1",""
"null","","html-keyboard-response","131","429330","0.0-4.0-2.30","","<div style=""font-size:60px;"">+</div>","null","","","","","","",""
"432.86999996053055","","image-keyboard-response","132","429764","0.0-4.0-0.31","","img/grey.png","32","trial","32","true","0.8,0.2","1:go_a","",""
"null","","html-keyboard-response","133","430773","0.0-4.0-1.31","","<img src=""img/grey-r.png"" border=""10"">","null","trial","32","","0.8,0.2","1:go_a","1",""
"null","","html-keyboard-response","134","431787","0.0-4.0-2.31","","<div style=""font-size:60px;"">+</div>","null","","","","","","",""
"717.4750000122003","","image-keyboard-response","135","432506","0.0-4.0-0.32","","img/grey.png","32","trial","32","true","0.8,0.2","1:go_a","",""
"null","","html-keyboard-response","136","433509","0.0-4.0-1.32","","<img src=""img/grey-n.png"" border=""10"">","null","trial","32","","0.8,0.2","1:go_a","0",""
"null","","html-keyboard-response","137","434513","0.0-4.0-2.32","","<div style=""font-size:60px;"">+</div>","null","","","","","","",""
"null","","image-keyboard-response","138","436017","0.0-4.0-0.33","","img/yellow.png","null","trial","null","true","0.2,0.8","2:nogo_b","",""
"null","","html-keyboard-response","139","437028","0.0-4.0-1.33","","<img src=""img/yellow-n.png"">","null","trial","null","","0.2,0.8","2:nogo_b","0",""
"null","","html-keyboard-response","140","438035","0.0-4.0-2.33","","<div style=""font-size:60px;"">+</div>","null","","","","","","",""
"570.0049999868497","","image-keyboard-response","141","438607","0.0-4.0-0.34","","img/yellow.png","32","trial","null","false","0.2,0.8","2:nogo_b","",""
"null","","html-keyboard-response","142","439616","0.0-4.0-1.34","","<img src=""img/yellow-n.png"" border=""10"">","null","trial","null","","0.2,0.8","2:nogo_b","0",""
"null","","html-keyboard-response","143","440620","0.0-4.0-2.34","","<div style=""font-size:60px;"">+</div>","null","","","","","","",""
"632.5199999846518","","image-keyboard-response","144","441254","0.0-4.0-0.35","","img/grey.png","32","trial","32","true","0.8,0.2","1:go_a","",""
"null","","html-keyboard-response","145","442259","0.0-4.0-1.35","","<img src=""img/grey-r.png"" border=""10"">","null","trial","32","","0.8,0.2","1:go_a","1",""
"null","","html-keyboard-response","146","443265","0.0-4.0-2.35","","<div style=""font-size:60px;"">+</div>","null","","","","","","",""
"null","","image-keyboard-response","147","444778","0.0-4.0-0.36","","img/grey.png","null","trial","32","false","0.8,0.2","1:go_a","",""
"null","","html-keyboard-response","148","445795","0.0-4.0-1.36","","<img src=""img/grey-r.png"">","null","trial","32","","0.8,0.2","1:go_a","1",""
"null","","html-keyboard-response","149","446803","0.0-4.0-2.36","","<div style=""font-size:60px;"">+</div>","null","","","","","","",""
"1023.0500000179745","","image-keyboard-response","150","447828","0.0-4.0-0.37","","img/yellow.png","32","trial","null","false","0.2,0.8","2:nogo_b","",""
"null","","html-keyboard-response","151","448835","0.0-4.0-1.37","","<img src=""img/yellow-n.png"" border=""10"">","null","trial","null","","0.2,0.8","2:nogo_b","0",""
"null","","html-keyboard-response","152","449847","0.0-4.0-2.37","","<div style=""font-size:60px;"">+</div>","null","","","","","","",""
"447.0300000393763","","image-keyboard-response","153","450295","0.0-4.0-0.38","","img/grey.png","32","trial","32","true","0.8,0.2","1:go_a","",""
"null","","html-keyboard-response","154","451300","0.0-4.0-1.38","","<img src=""img/grey-r.png"" border=""10"">","null","trial","32","","0.8,0.2","1:go_a","1",""
"null","","html-keyboard-response","155","452305","0.0-4.0-2.38","","<div style=""font-size:60px;"">+</div>","null","","","","","","",""
"null","","image-keyboard-response","156","453809","0.0-4.0-0.39","","img/yellow.png","null","trial","null","true","0.2,0.8","2:nogo_b","",""
"null","","html-keyboard-response","157","454813","0.0-4.0-1.39","","<img src=""img/yellow-r.png"">","null","trial","null","","0.2,0.8","2:nogo_b","1",""
"null","","html-keyboard-response","158","455818","0.0-4.0-2.39","","<div style=""font-size:60px;"">+</div>","null","","","","","","",""
"null","","image-keyboard-response","159","457319","0.0-4.0-0.40","","img/yellow.png","null","trial","null","true","0.2,0.8","2:nogo_b","",""
"null","","html-keyboard-response","160","458323","0.0-4.0-1.40","","<img src=""img/yellow-r.png"">","null","trial","null","","0.2,0.8","2:nogo_b","1",""
"null","","html-keyboard-response","161","459330","0.0-4.0-2.40","","<div style=""font-size:60px;"">+</div>","null","","","","","","",""
"380.95500000054017","","image-keyboard-response","162","459712","0.0-4.0-0.41","","img/grey.png","32","trial","32","true","0.8,0.2","1:go_a","",""
"null","","html-keyboard-response","163","460715","0.0-4.0-1.41","","<img src=""img/grey-r.png"" border=""10"">","null","trial","32","","0.8,0.2","1:go_a","1",""
"null","","html-keyboard-response","164","461719","0.0-4.0-2.41","","<div style=""font-size:60px;"">+</div>","null","","","","","","",""
"null","","image-keyboard-response","165","463234","0.0-4.0-0.42","","img/yellow.png","null","trial","null","true","0.2,0.8","2:nogo_b","",""
"null","","html-keyboard-response","166","464243","0.0-4.0-1.42","","<img src=""img/yellow-r.png"">","null","trial","null","","0.2,0.8","2:nogo_b","1",""
"null","","html-keyboard-response","167","465245","0.0-4.0-2.42","","<div style=""font-size:60px;"">+</div>","null","","","","","","",""
"553.8999999989755","","image-keyboard-response","168","465800","0.0-4.0-0.43","","img/grey.png","32","trial","32","true","0.8,0.2","1:go_a","",""
"null","","html-keyboard-response","169","466808","0.0-4.0-1.43","","<img src=""img/grey-r.png"" border=""10"">","null","trial","32","","0.8,0.2","1:go_a","1",""
"null","","html-keyboard-response","170","467824","0.0-4.0-2.43","","<div style=""font-size:60px;"">+</div>","null","","","","","","",""
"676.9300000160001","","image-keyboard-response","171","468502","0.0-4.0-0.44","","img/yellow.png","32","trial","null","false","0.2,0.8","2:nogo_b","",""
"null","","html-keyboard-response","172","469508","0.0-4.0-1.44","","<img src=""img/yellow-r.png"" border=""10"">","null","trial","null","","0.2,0.8","2:nogo_b","1",""
"null","","html-keyboard-response","173","470525","0.0-4.0-2.44","","<div style=""font-size:60px;"">+</div>","null","","","","","","",""
"514.400000043679","","image-keyboard-response","174","471041","0.0-4.0-0.45","","img/grey.png","32","trial","32","true","0.8,0.2","1:go_a","",""
"null","","html-keyboard-response","175","472047","0.0-4.0-1.45","","<img src=""img/grey-r.png"" border=""10"">","null","trial","32","","0.8,0.2","1:go_a","1",""
"null","","html-keyboard-response","176","473054","0.0-4.0-2.45","","<div style=""font-size:60px;"">+</div>","null","","","","","","",""
"null","","image-keyboard-response","177","474564","0.0-4.0-0.46","","img/yellow.png","null","trial","null","true","0.2,0.8","2:nogo_b","",""
"null","","html-keyboard-response","178","475574","0.0-4.0-1.46","","<img src=""img/yellow-r.png"">","null","trial","null","","0.2,0.8","2:nogo_b","1",""
"null","","html-keyboard-response","179","476581","0.0-4.0-2.46","","<div style=""font-size:60px;"">+</div>","null","","","","","","",""
"531.2850000336766","","image-keyboard-response","180","477113","0.0-4.0-0.47","","img/grey.png","32","trial","32","true","0.8,0.2","1:go_a","",""
"null","","html-keyboard-response","181","478131","0.0-4.0-1.47","","<img src=""img/grey-r.png"" border=""10"">","null","trial","32","","0.8,0.2","1:go_a","1",""
"null","","html-keyboard-response","182","479140","0.0-4.0-2.47","","<div style=""font-size:60px;"">+</div>","null","","","","","","",""
"null","","image-keyboard-response","183","480649","0.0-4.0-0.48","","img/yellow.png","null","trial","null","true","0.2,0.8","2:nogo_b","",""
"null","","html-keyboard-response","184","481656","0.0-4.0-1.48","","<img src=""img/yellow-r.png"">","null","trial","null","","0.2,0.8","2:nogo_b","1",""
"null","","html-keyboard-response","185","482660","0.0-4.0-2.48","","<div style=""font-size:60px;"">+</div>","null","","","","","","",""
"730.5900000501424","","image-keyboard-response","186","483392","0.0-4.0-0.49","","img/grey.png","32","trial","32","true","0.8,0.2","1:go_a","",""
"null","","html-keyboard-response","187","484400","0.0-4.0-1.49","","<img src=""img/grey-n.png"" border=""10"">","null","trial","32","","0.8,0.2","1:go_a","0",""
"null","","html-keyboard-response","188","485408","0.0-4.0-2.49","","<div style=""font-size:60px;"">+</div>","null","","","","","","",""
"941.7949999915436","","image-keyboard-response","189","486351","0.0-4.0-0.50","","img/grey.png","32","trial","32","true","0.8,0.2","1:go_a","",""
"null","","html-keyboard-response","190","487356","0.0-4.0-1.50","","<img src=""img/grey-r.png"" border=""10"">","null","trial","32","","0.8,0.2","1:go_a","1",""
"null","","html-keyboard-response","191","488360","0.0-4.0-2.50","","<div style=""font-size:60px;"">+</div>","null","","","","","","",""
"621.0900000296533","","image-keyboard-response","192","488983","0.0-4.0-0.51","","img/yellow.png","32","trial","null","false","0.2,0.8","2:nogo_b","",""
"null","","html-keyboard-response","193","489991","0.0-4.0-1.51","","<img src=""img/yellow-r.png"" border=""10"">","null","trial","null","","0.2,0.8","2:nogo_b","1",""
"null","","html-keyboard-response","194","491003","0.0-4.0-2.51","","<div style=""font-size:60px;"">+</div>","null","","","","","","",""
"438.59500001417473","","image-keyboard-response","195","491443","0.0-4.0-0.52","","img/grey.png","32","trial","32","true","0.8,0.2","1:go_a","",""
"null","","html-keyboard-response","196","492448","0.0-4.0-1.52","","<img src=""img/grey-r.png"" border=""10"">","null","trial","32","","0.8,0.2","1:go_a","1",""
"null","","html-keyboard-response","197","493456","0.0-4.0-2.52","","<div style=""font-size:60px;"">+</div>","null","","","","","","",""
"668.7399999937043","","image-keyboard-response","198","494126","0.0-4.0-0.53","","img/yellow.png","32","trial","null","false","0.2,0.8","2:nogo_b","",""
"null","","html-keyboard-response","199","495130","0.0-4.0-1.53","","<img src=""img/yellow-n.png"" border=""10"">","null","trial","null","","0.2,0.8","2:nogo_b","0",""
"null","","html-keyboard-response","200","496143","0.0-4.0-2.53","","<div style=""font-size:60px;"">+</div>","null","","","","","","",""
"410.135000012815","","image-keyboard-response","201","496554","0.0-4.0-0.54","","img/grey.png","32","trial","32","true","0.8,0.2","1:go_a","",""
"null","","html-keyboard-response","202","497561","0.0-4.0-1.54","","<img src=""img/grey-n.png"" border=""10"">","null","trial","32","","0.8,0.2","1:go_a","0",""
"null","","html-keyboard-response","203","498574","0.0-4.0-2.54","","<div style=""font-size:60px;"">+</div>","null","","","","","","",""
"310.60000002617016","","image-keyboard-response","204","498886","0.0-4.0-0.55","","img/yellow.png","32","trial","null","false","0.2,0.8","2:nogo_b","",""
"null","","html-keyboard-response","205","499894","0.0-4.0-1.55","","<img src=""img/yellow-n.png"" border=""10"">","null","trial","null","","0.2,0.8","2:nogo_b","0",""
"null","","html-keyboard-response","206","500900","0.0-4.0-2.55","","<div style=""font-size:60px;"">+</div>","null","","","","","","",""
"363.599999982398","","image-keyboard-response","207","501264","0.0-4.0-0.56","","img/grey.png","32","trial","32","true","0.8,0.2","1:go_a","",""
"null","","html-keyboard-response","208","502273","0.0-4.0-1.56","","<img src=""img/grey-r.png"" border=""10"">","null","trial","32","","0.8,0.2","1:go_a","1",""
"null","","html-keyboard-response","209","503276","0.0-4.0-2.56","","<div style=""font-size:60px;"">+</div>","null","","","","","","",""
"584.5650000264868","","image-keyboard-response","210","503861","0.0-4.0-0.57","","img/yellow.png","32","trial","null","false","0.2,0.8","2:nogo_b","",""
"null","","html-keyboard-response","211","504864","0.0-4.0-1.57","","<img src=""img/yellow-n.png"" border=""10"">","null","trial","null","","0.2,0.8","2:nogo_b","0",""
"null","","html-keyboard-response","212","505876","0.0-4.0-2.57","","<div style=""font-size:60px;"">+</div>","null","","","","","","",""
"376.8549999804236","","image-keyboard-response","213","506254","0.0-4.0-0.58","","img/yellow.png","32","trial","null","false","0.2,0.8","2:nogo_b","",""
"null","","html-keyboard-response","214","507257","0.0-4.0-1.58","","<img src=""img/yellow-r.png"" border=""10"">","null","trial","null","","0.2,0.8","2:nogo_b","1",""
"null","","html-keyboard-response","215","508268","0.0-4.0-2.58","","<div style=""font-size:60px;"">+</div>","null","","","","","","",""
"549.799999978859","","image-keyboard-response","216","508819","0.0-4.0-0.59","","img/grey.png","32","trial","32","true","0.8,0.2","1:go_a","",""
"null","","html-keyboard-response","217","509828","0.0-4.0-1.59","","<img src=""img/grey-r.png"" border=""10"">","null","trial","32","","0.8,0.2","1:go_a","1",""
"null","","html-keyboard-response","218","510835","0.0-4.0-2.59","","<div style=""font-size:60px;"">+</div>","null","","","","","","",""
"49685.35499996506","","instructions","219","560521","0.0-5.0","[{""page_index"":0,""viewing_time"":49685.07000000682}]","","","","","","","","",""
"1229.735000000801","","image-keyboard-response","220","561752","0.0-6.0-0.0","","img/purple.png","32","trial","null","false","0.4,0.6","2:nogo_b","",""
"null","","html-keyboard-response","221","562761","0.0-6.0-1.0","","<img src=""img/purple-n.png"" border=""10"">","null","trial","null","","0.4,0.6","2:nogo_b","0",""
"null","","html-keyboard-response","222","563763","0.0-6.0-2.0","","<div style=""font-size:60px;"">+</div>","null","","","","","","",""
"373.71499999426305","","image-keyboard-response","223","564139","0.0-6.0-0.1","","img/blue.png","32","trial","32","true","0.6,0.4","1:go_a","",""
"null","","html-keyboard-response","224","565147","0.0-6.0-1.1","","<img src=""img/blue-r.png"" border=""10"">","null","trial","32","","0.6,0.4","1:go_a","1",""
"null","","html-keyboard-response","225","566159","0.0-6.0-2.1","","<div style=""font-size:60px;"">+</div>","null","","","","","","",""
"451.7950000008568","","image-keyboard-response","226","566612","0.0-6.0-0.2","","img/pink.png","32","trial","32","true","0.6,0.4","3:go_c","",""
"null","","html-keyboard-response","227","567615","0.0-6.0-1.2","","<img src=""img/pink-n.png"" border=""10"">","null","trial","32","","0.6,0.4","3:go_c","0",""
"null","","html-keyboard-response","228","568621","0.0-6.0-2.2","","<div style=""font-size:60px;"">+</div>","null","","","","","","",""
"357.75500000454485","","image-keyboard-response","229","568980","0.0-6.0-0.3","","img/yellow.png","32","trial","null","false","0.4,0.6","4:nogo_d","",""
"null","","html-keyboard-response","230","569985","0.0-6.0-1.3","","<img src=""img/yellow-r.png"" border=""10"">","null","trial","null","","0.4,0.6","4:nogo_d","1",""
"null","","html-keyboard-response","231","570994","0.0-6.0-2.3","","<div style=""font-size:60px;"">+</div>","null","","","","","","",""
"454.1000000317581","","image-keyboard-response","232","571449","0.0-6.0-0.4","","img/yellow.png","32","trial","null","false","0.4,0.6","4:nogo_d","",""
"null","","html-keyboard-response","233","572461","0.0-6.0-1.4","","<img src=""img/yellow-r.png"" border=""10"">","null","trial","null","","0.4,0.6","4:nogo_d","1",""
"null","","html-keyboard-response","234","573467","0.0-6.0-2.4","","<div style=""font-size:60px;"">+</div>","null","","","","","","",""
"null","","image-keyboard-response","235","574971","0.0-6.0-0.5","","img/pink.png","null","trial","32","false","0.6,0.4","3:go_c","",""
"null","","html-keyboard-response","236","575975","0.0-6.0-1.5","","<img src=""img/pink-r.png"">","null","trial","32","","0.6,0.4","3:go_c","1",""
"null","","html-keyboard-response","237","576990","0.0-6.0-2.5","","<div style=""font-size:60px;"">+</div>","null","","","","","","",""
"565.9950000117533","","image-keyboard-response","238","577557","0.0-6.0-0.6","","img/blue.png","32","trial","32","true","0.6,0.4","1:go_a","",""
"null","","html-keyboard-response","239","578560","0.0-6.0-1.6","","<img src=""img/blue-r.png"" border=""10"">","null","trial","32","","0.6,0.4","1:go_a","1",""
"null","","html-keyboard-response","240","579564","0.0-6.0-2.6","","<div style=""font-size:60px;"">+</div>","null","","","","","","",""
"null","","image-keyboard-response","241","581071","0.0-6.0-0.7","","img/purple.png","null","trial","null","true","0.4,0.6","2:nogo_b","",""
"null","","html-keyboard-response","242","582076","0.0-6.0-1.7","","<img src=""img/purple-r.png"">","null","trial","null","","0.4,0.6","2:nogo_b","1",""
"null","","html-keyboard-response","243","583084","0.0-6.0-2.7","","<div style=""font-size:60px;"">+</div>","null","","","","","","",""
"341.3949999958277","","image-keyboard-response","244","583427","0.0-6.0-0.8","","img/yellow.png","32","trial","null","false","0.4,0.6","4:nogo_d","",""
"null","","html-keyboard-response","245","584433","0.0-6.0-1.8","","<img src=""img/yellow-n.png"" border=""10"">","null","trial","null","","0.4,0.6","4:nogo_d","0",""
"null","","html-keyboard-response","246","585441","0.0-6.0-2.8","","<div style=""font-size:60px;"">+</div>","null","","","","","","",""
"444.7300000465475","","image-keyboard-response","247","585887","0.0-6.0-0.9","","img/pink.png","32","trial","32","true","0.6,0.4","3:go_c","",""
"null","","html-keyboard-response","248","586898","0.0-6.0-1.9","","<img src=""img/pink-n.png"" border=""10"">","null","trial","32","","0.6,0.4","3:go_c","0",""
"null","","html-keyboard-response","249","587907","0.0-6.0-2.9","","<div style=""font-size:60px;"">+</div>","null","","","","","","",""
"443.1450000265613","","image-keyboard-response","250","588351","0.0-6.0-0.10","","img/blue.png","32","trial","32","true","0.6,0.4","1:go_a","",""
"null","","html-keyboard-response","251","589354","0.0-6.0-1.10","","<img src=""img/blue-r.png"" border=""10"">","null","trial","32","","0.6,0.4","1:go_a","1",""
"null","","html-keyboard-response","252","590364","0.0-6.0-2.10","","<div style=""font-size:60px;"">+</div>","null","","","","","","",""
"479.1099999565631","","image-keyboard-response","253","590844","0.0-6.0-0.11","","img/purple.png","32","trial","null","false","0.4,0.6","2:nogo_b","",""
"null","","html-keyboard-response","254","591857","0.0-6.0-1.11","","<img src=""img/purple-r.png"" border=""10"">","null","trial","null","","0.4,0.6","2:nogo_b","1",""
"null","","html-keyboard-response","255","592863","0.0-6.0-2.11","","<div style=""font-size:60px;"">+</div>","null","","","","","","",""
"388.4799999650568","","image-keyboard-response","256","593252","0.0-6.0-0.12","","img/pink.png","32","trial","32","true","0.6,0.4","3:go_c","",""
"null","","html-keyboard-response","257","594256","0.0-6.0-1.12","","<img src=""img/pink-r.png"" border=""10"">","null","trial","32","","0.6,0.4","3:go_c","1",""
"null","","html-keyboard-response","258","595266","0.0-6.0-2.12","","<div style=""font-size:60px;"">+</div>","null","","","","","","",""
"409.70499999821186","","image-keyboard-response","259","595677","0.0-6.0-0.13","","img/blue.png","32","trial","32","true","0.6,0.4","1:go_a","",""
"null","","html-keyboard-response","260","596683","0.0-6.0-1.13","","<img src=""img/blue-r.png"" border=""10"">","null","trial","32","","0.6,0.4","1:go_a","1",""
"null","","html-keyboard-response","261","597696","0.0-6.0-2.13","","<div style=""font-size:60px;"">+</div>","null","","","","","","",""
"395.3849999816157","","image-keyboard-response","262","598093","0.0-6.0-0.14","","img/yellow.png","32","trial","null","false","0.4,0.6","4:nogo_d","",""
"null","","html-keyboard-response","263","599101","0.0-6.0-1.14","","<img src=""img/yellow-n.png"" border=""10"">","null","trial","null","","0.4,0.6","4:nogo_d","0",""
"null","","html-keyboard-response","264","600107","0.0-6.0-2.14","","<div style=""font-size:60px;"">+</div>","null","","","","","","",""
"481.0949999955483","","image-keyboard-response","265","600589","0.0-6.0-0.15","","img/purple.png","32","trial","null","false","0.4,0.6","2:nogo_b","",""
"null","","html-keyboard-response","266","601592","0.0-6.0-1.15","","<img src=""img/purple-r.png"" border=""10"">","null","trial","null","","0.4,0.6","2:nogo_b","1",""
"null","","html-keyboard-response","267","602596","0.0-6.0-2.15","","<div style=""font-size:60px;"">+</div>","null","","","","","","",""
"555.5699999677017","","image-keyboard-response","268","603153","0.0-6.0-0.16","","img/pink.png","32","trial","32","true","0.6,0.4","3:go_c","",""
"null","","html-keyboard-response","269","604157","0.0-6.0-1.16","","<img src=""img/pink-n.png"" border=""10"">","null","trial","32","","0.6,0.4","3:go_c","0",""
"null","","html-keyboard-response","270","605164","0.0-6.0-2.16","","<div style=""font-size:60px;"">+</div>","null","","","","","","",""
"681.6899999976158","","image-keyboard-response","271","605847","0.0-6.0-0.17","","img/yellow.png","32","trial","null","false","0.4,0.6","4:nogo_d","",""
"null","","html-keyboard-response","272","606856","0.0-6.0-1.17","","<img src=""img/yellow-n.png"" border=""10"">","null","trial","null","","0.4,0.6","4:nogo_d","0",""
"null","","html-keyboard-response","273","607864","0.0-6.0-2.17","","<div style=""font-size:60px;"">+</div>","null","","","","","","",""
"466.7050000280142","","image-keyboard-response","274","608332","0.0-6.0-0.18","","img/purple.png","32","trial","null","false","0.4,0.6","2:nogo_b","",""
"null","","html-keyboard-response","275","609344","0.0-6.0-1.18","","<img src=""img/purple-n.png"" border=""10"">","null","trial","null","","0.4,0.6","2:nogo_b","0",""
"null","","html-keyboard-response","276","610354","0.0-6.0-2.18","","<div style=""font-size:60px;"">+</div>","null","","","","","","",""
"473.6599999596365","","image-keyboard-response","277","610828","0.0-6.0-0.19","","img/blue.png","32","trial","32","true","0.6,0.4","1:go_a","",""
"null","","html-keyboard-response","278","611836","0.0-6.0-1.19","","<img src=""img/blue-n.png"" border=""10"">","null","trial","32","","0.6,0.4","1:go_a","0",""
"null","","html-keyboard-response","279","612845","0.0-6.0-2.19","","<div style=""font-size:60px;"">+</div>","null","","","","","","",""
"null","","image-keyboard-response","280","614347","0.0-6.0-0.20","","img/yellow.png","null","trial","null","true","0.4,0.6","4:nogo_d","",""
"null","","html-keyboard-response","281","615356","0.0-6.0-1.20","","<img src=""img/yellow-n.png"">","null","trial","null","","0.4,0.6","4:nogo_d","0",""
"null","","html-keyboard-response","282","616360","0.0-6.0-2.20","","<div style=""font-size:60px;"">+</div>","null","","","","","","",""
"439.37999999616295","","image-keyboard-response","283","616800","0.0-6.0-0.21","","img/purple.png","32","trial","null","false","0.4,0.6","2:nogo_b","",""
"null","","html-keyboard-response","284","617806","0.0-6.0-1.21","","<img src=""img/purple-r.png"" border=""10"">","null","trial","null","","0.4,0.6","2:nogo_b","1",""
"null","","html-keyboard-response","285","618815","0.0-6.0-2.21","","<div style=""font-size:60px;"">+</div>","null","","","","","","",""
"416.22500005178154","","image-keyboard-response","286","619233","0.0-6.0-0.22","","img/pink.png","32","trial","32","true","0.6,0.4","3:go_c","",""
"null","","html-keyboard-response","287","620240","0.0-6.0-1.22","","<img src=""img/pink-r.png"" border=""10"">","null","trial","32","","0.6,0.4","3:go_c","1",""
"null","","html-keyboard-response","288","621245","0.0-6.0-2.22","","<div style=""font-size:60px;"">+</div>","null","","","","","","",""
"566.8300000252202","","image-keyboard-response","289","621813","0.0-6.0-0.23","","img/blue.png","32","trial","32","true","0.6,0.4","1:go_a","",""
"null","","html-keyboard-response","290","622821","0.0-6.0-1.23","","<img src=""img/blue-r.png"" border=""10"">","null","trial","32","","0.6,0.4","1:go_a","1",""
"null","","html-keyboard-response","291","623826","0.0-6.0-2.23","","<div style=""font-size:60px;"">+</div>","null","","","","","","",""
"554.0749999927357","","image-keyboard-response","292","624382","0.0-6.0-0.24","","img/yellow.png","32","trial","null","false","0.4,0.6","4:nogo_d","",""
"null","","html-keyboard-response","293","625388","0.0-6.0-1.24","","<img src=""img/yellow-r.png"" border=""10"">","null","trial","null","","0.4,0.6","4:nogo_d","1",""
"null","","html-keyboard-response","294","626394","0.0-6.0-2.24","","<div style=""font-size:60px;"">+</div>","null","","","","","","",""
"828.4400000120513","","image-keyboard-response","295","627223","0.0-6.0-0.25","","img/purple.png","32","trial","null","false","0.4,0.6","2:nogo_b","",""
"null","","html-keyboard-response","296","628228","0.0-6.0-1.25","","<img src=""img/purple-n.png"" border=""10"">","null","trial","null","","0.4,0.6","2:nogo_b","0",""
"null","","html-keyboard-response","297","629240","0.0-6.0-2.25","","<div style=""font-size:60px;"">+</div>","null","","","","","","",""
"480.44000001391396","","image-keyboard-response","298","629721","0.0-6.0-0.26","","img/blue.png","32","trial","32","true","0.6,0.4","1:go_a","",""
"null","","html-keyboard-response","299","630725","0.0-6.0-1.26","","<img src=""img/blue-r.png"" border=""10"">","null","trial","32","","0.6,0.4","1:go_a","1",""
"null","","html-keyboard-response","300","631734","0.0-6.0-2.26","","<div style=""font-size:60px;"">+</div>","null","","","","","","",""
"848.3199999900535","","image-keyboard-response","301","632584","0.0-6.0-0.27","","img/pink.png","32","trial","32","true","0.6,0.4","3:go_c","",""
"null","","html-keyboard-response","302","633601","0.0-6.0-1.27","","<img src=""img/pink-n.png"" border=""10"">","null","trial","32","","0.6,0.4","3:go_c","0",""
"null","","html-keyboard-response","303","634605","0.0-6.0-2.27","","<div style=""font-size:60px;"">+</div>","null","","","","","","",""
"600.0599999679253","","image-keyboard-response","304","635206","0.0-6.0-0.28","","img/blue.png","32","trial","32","true","0.6,0.4","1:go_a","",""
"null","","html-keyboard-response","305","636210","0.0-6.0-1.28","","<img src=""img/blue-r.png"" border=""10"">","null","trial","32","","0.6,0.4","1:go_a","1",""
"null","","html-keyboard-response","306","637215","0.0-6.0-2.28","","<div style=""font-size:60px;"">+</div>","null","","","","","","",""
"null","","image-keyboard-response","307","638723","0.0-6.0-0.29","","img/yellow.png","null","trial","null","true","0.4,0.6","4:nogo_d","",""
"null","","html-keyboard-response","308","639731","0.0-6.0-1.29","","<img src=""img/yellow-r.png"">","null","trial","null","","0.4,0.6","4:nogo_d","1",""
"null","","html-keyboard-response","309","640734","0.0-6.0-2.29","","<div style=""font-size:60px;"">+</div>","null","","","","","","",""
"453.41999997617677","","image-keyboard-response","310","641188","0.0-6.0-0.30","","img/pink.png","32","trial","32","true","0.6,0.4","3:go_c","",""
"null","","html-keyboard-response","311","642196","0.0-6.0-1.30","","<img src=""img/pink-n.png"" border=""10"">","null","trial","32","","0.6,0.4","3:go_c","0",""
"null","","html-keyboard-response","312","643204","0.0-6.0-2.30","","<div style=""font-size:60px;"">+</div>","null","","","","","","",""
"null","","image-keyboard-response","313","644710","0.0-6.0-0.31","","img/purple.png","null","trial","null","true","0.4,0.6","2:nogo_b","",""
"null","","html-keyboard-response","314","645713","0.0-6.0-1.31","","<img src=""img/purple-r.png"">","null","trial","null","","0.4,0.6","2:nogo_b","1",""
"null","","html-keyboard-response","315","646714","0.0-6.0-2.31","","<div style=""font-size:60px;"">+</div>","null","","","","","","",""
"729.8150000278838","","image-keyboard-response","316","647445","0.0-6.0-0.32","","img/yellow.png","32","trial","null","false","0.4,0.6","4:nogo_d","",""
"null","","html-keyboard-response","317","648454","0.0-6.0-1.32","","<img src=""img/yellow-n.png"" border=""10"">","null","trial","null","","0.4,0.6","4:nogo_d","0",""
"null","","html-keyboard-response","318","649461","0.0-6.0-2.32","","<div style=""font-size:60px;"">+</div>","null","","","","","","",""
"636.960000032559","","image-keyboard-response","319","650099","0.0-6.0-0.33","","img/purple.png","32","trial","null","false","0.4,0.6","2:nogo_b","",""
"null","","html-keyboard-response","320","651104","0.0-6.0-1.33","","<img src=""img/purple-n.png"" border=""10"">","null","trial","null","","0.4,0.6","2:nogo_b","0",""
"null","","html-keyboard-response","321","652119","0.0-6.0-2.33","","<div style=""font-size:60px;"">+</div>","null","","","","","","",""
"545.5450000008568","","image-keyboard-response","322","652666","0.0-6.0-0.34","","img/pink.png","32","trial","32","true","0.6,0.4","3:go_c","",""
"null","","html-keyboard-response","323","653673","0.0-6.0-1.34","","<img src=""img/pink-r.png"" border=""10"">","null","trial","32","","0.6,0.4","3:go_c","1",""
"null","","html-keyboard-response","324","654684","0.0-6.0-2.34","","<div style=""font-size:60px;"">+</div>","null","","","","","","",""
"517.4400000250898","","image-keyboard-response","325","655203","0.0-6.0-0.35","","img/blue.png","32","trial","32","true","0.6,0.4","1:go_a","",""
"null","","html-keyboard-response","326","656208","0.0-6.0-1.35","","<img src=""img/blue-r.png"" border=""10"">","null","trial","32","","0.6,0.4","1:go_a","1",""
"null","","html-keyboard-response","327","657210","0.0-6.0-2.35","","<div style=""font-size:60px;"">+</div>","null","","","","","","",""
"681.2900000368245","","image-keyboard-response","328","657893","0.0-6.0-0.36","","img/blue.png","32","trial","32","true","0.6,0.4","1:go_a","",""
"null","","html-keyboard-response","329","658904","0.0-6.0-1.36","","<img src=""img/blue-n.png"" border=""10"">","null","trial","32","","0.6,0.4","1:go_a","0",""
"null","","html-keyboard-response","330","659906","0.0-6.0-2.36","","<div style=""font-size:60px;"">+</div>","null","","","","","","",""
"null","","image-keyboard-response","331","661413","0.0-6.0-0.37","","img/pink.png","null","trial","32","false","0.6,0.4","3:go_c","",""
"null","","html-keyboard-response","332","662421","0.0-6.0-1.37","","<img src=""img/pink-r.png"">","null","trial","32","","0.6,0.4","3:go_c","1",""
"null","","html-keyboard-response","333","663429","0.0-6.0-2.37","","<div style=""font-size:60px;"">+</div>","null","","","","","","",""
"629.769999999553","","image-keyboard-response","334","664060","0.0-6.0-0.38","","img/yellow.png","32","trial","null","false","0.4,0.6","4:nogo_d","",""
"null","","html-keyboard-response","335","665067","0.0-6.0-1.38","","<img src=""img/yellow-n.png"" border=""10"">","null","trial","null","","0.4,0.6","4:nogo_d","0",""
"null","","html-keyboard-response","336","666069","0.0-6.0-2.38","","<div style=""font-size:60px;"">+</div>","null","","","","","","",""
"408.4150000126101","","image-keyboard-response","337","666479","0.0-6.0-0.39","","img/purple.png","32","trial","null","false","0.4,0.6","2:nogo_b","",""
"null","","html-keyboard-response","338","667485","0.0-6.0-1.39","","<img src=""img/purple-n.png"" border=""10"">","null","trial","null","","0.4,0.6","2:nogo_b","0",""
"null","","html-keyboard-response","339","668499","0.0-6.0-2.39","","<div style=""font-size:60px;"">+</div>","null","","","","","","",""
"512.6150000141934","","image-keyboard-response","340","669013","0.0-6.0-0.40","","img/purple.png","32","trial","null","false","0.4,0.6","2:nogo_b","",""
"null","","html-keyboard-response","341","670019","0.0-6.0-1.40","","<img src=""img/purple-r.png"" border=""10"">","null","trial","null","","0.4,0.6","2:nogo_b","1",""
"null","","html-keyboard-response","342","671025","0.0-6.0-2.40","","<div style=""font-size:60px;"">+</div>","null","","","","","","",""
"877.3700000019744","","image-keyboard-response","343","671903","0.0-6.0-0.41","","img/blue.png","32","trial","32","true","0.6,0.4","1:go_a","",""
"null","","html-keyboard-response","344","672915","0.0-6.0-1.41","","<img src=""img/blue-n.png"" border=""10"">","null","trial","32","","0.6,0.4","1:go_a","0",""
"null","","html-keyboard-response","345","673919","0.0-6.0-2.41","","<div style=""font-size:60px;"">+</div>","null","","","","","","",""
"481.23500001383945","","image-keyboard-response","346","674401","0.0-6.0-0.42","","img/pink.png","32","trial","32","true","0.6,0.4","3:go_c","",""
"null","","html-keyboard-response","347","675414","0.0-6.0-1.42","","<img src=""img/pink-r.png"" border=""10"">","null","trial","32","","0.6,0.4","3:go_c","1",""
"null","","html-keyboard-response","348","676423","0.0-6.0-2.42","","<div style=""font-size:60px;"">+</div>","null","","","","","","",""
"735.164999961853","","image-keyboard-response","349","677160","0.0-6.0-0.43","","img/yellow.png","32","trial","null","false","0.4,0.6","4:nogo_d","",""
"null","","html-keyboard-response","350","678166","0.0-6.0-1.43","","<img src=""img/yellow-n.png"" border=""10"">","null","trial","null","","0.4,0.6","4:nogo_d","0",""
"null","","html-keyboard-response","351","679167","0.0-6.0-2.43","","<div style=""font-size:60px;"">+</div>","null","","","","","","",""
"738.1700000260025","","image-keyboard-response","352","679907","0.0-6.0-0.44","","img/pink.png","32","trial","32","true","0.6,0.4","3:go_c","",""
"null","","html-keyboard-response","353","680915","0.0-6.0-1.44","","<img src=""img/pink-n.png"" border=""10"">","null","trial","32","","0.6,0.4","3:go_c","0",""
"null","","html-keyboard-response","354","681921","0.0-6.0-2.44","","<div style=""font-size:60px;"">+</div>","null","","","","","","",""
"null","","image-keyboard-response","355","683425","0.0-6.0-0.45","","img/purple.png","null","trial","null","true","0.4,0.6","2:nogo_b","",""
"null","","html-keyboard-response","356","684431","0.0-6.0-1.45","","<img src=""img/purple-r.png"">","null","trial","null","","0.4,0.6","2:nogo_b","1",""
"null","","html-keyboard-response","357","685441","0.0-6.0-2.45","","<div style=""font-size:60px;"">+</div>","null","","","","","","",""
"441.9249999918975","","image-keyboard-response","358","685884","0.0-6.0-0.46","","img/blue.png","32","trial","32","true","0.6,0.4","1:go_a","",""
"null","","html-keyboard-response","359","686891","0.0-6.0-1.46","","<img src=""img/blue-n.png"" border=""10"">","null","trial","32","","0.6,0.4","1:go_a","0",""
"null","","html-keyboard-response","360","687895","0.0-6.0-2.46","","<div style=""font-size:60px;"">+</div>","null","","","","","","",""
"549.8200000147335","","image-keyboard-response","361","688446","0.0-6.0-0.47","","img/yellow.png","32","trial","null","false","0.4,0.6","4:nogo_d","",""
"null","","html-keyboard-response","362","689449","0.0-6.0-1.47","","<img src=""img/yellow-n.png"" border=""10"">","null","trial","null","","0.4,0.6","4:nogo_d","0",""
"null","","html-keyboard-response","363","690460","0.0-6.0-2.47","","<div style=""font-size:60px;"">+</div>","null","","","","","","",""
"532.8000000445172","","image-keyboard-response","364","690994","0.0-6.0-0.48","","img/purple.png","32","trial","null","false","0.4,0.6","2:nogo_b","",""
"null","","html-keyboard-response","365","692005","0.0-6.0-1.48","","<img src=""img/purple-n.png"" border=""10"">","null","trial","null","","0.4,0.6","2:nogo_b","0",""
"null","","html-keyboard-response","366","693018","0.0-6.0-2.48","","<div style=""font-size:60px;"">+</div>","null","","","","","","",""
"532.9400000046007","","image-keyboard-response","367","693552","0.0-6.0-0.49","","img/pink.png","32","trial","32","true","0.6,0.4","3:go_c","",""
"null","","html-keyboard-response","368","694559","0.0-6.0-1.49","","<img src=""img/pink-r.png"" border=""10"">","null","trial","32","","0.6,0.4","3:go_c","1",""
"null","","html-keyboard-response","369","695568","0.0-6.0-2.49","","<div style=""font-size:60px;"">+</div>","null","","","","","","",""
"521.6150000342168","","image-keyboard-response","370","696091","0.0-6.0-0.50","","img/blue.png","32","trial","32","true","0.6,0.4","1:go_a","",""
"null","","html-keyboard-response","371","697094","0.0-6.0-1.50","","<img src=""img/blue-r.png"" border=""10"">","null","trial","32","","0.6,0.4","1:go_a","1",""
"null","","html-keyboard-response","372","698102","0.0-6.0-2.50","","<div style=""font-size:60px;"">+</div>","null","","","","","","",""
"585.2100000483915","","image-keyboard-response","373","698688","0.0-6.0-0.51","","img/yellow.png","32","trial","null","false","0.4,0.6","4:nogo_d","",""
"null","","html-keyboard-response","374","699694","0.0-6.0-1.51","","<img src=""img/yellow-r.png"" border=""10"">","null","trial","null","","0.4,0.6","4:nogo_d","1",""
"null","","html-keyboard-response","375","700702","0.0-6.0-2.51","","<div style=""font-size:60px;"">+</div>","null","","","","","","",""
"1005.9299999848008","","image-keyboard-response","376","701709","0.0-6.0-0.52","","img/purple.png","32","trial","null","false","0.4,0.6","2:nogo_b","",""
"null","","html-keyboard-response","377","702715","0.0-6.0-1.52","","<img src=""img/purple-r.png"" border=""10"">","null","trial","null","","0.4,0.6","2:nogo_b","1",""
"null","","html-keyboard-response","378","703718","0.0-6.0-2.52","","<div style=""font-size:60px;"">+</div>","null","","","","","","",""
"null","","image-keyboard-response","379","705221","0.0-6.0-0.53","","img/blue.png","null","trial","32","false","0.6,0.4","1:go_a","",""
"null","","html-keyboard-response","380","706222","0.0-6.0-1.53","","<img src=""img/blue-n.png"">","null","trial","32","","0.6,0.4","1:go_a","0",""
"null","","html-keyboard-response","381","707231","0.0-6.0-2.53","","<div style=""font-size:60px;"">+</div>","null","","","","","","",""
"881.7299999645911","","image-keyboard-response","382","708114","0.0-6.0-0.54","","img/yellow.png","32","trial","null","false","0.4,0.6","4:nogo_d","",""
"null","","html-keyboard-response","383","709124","0.0-6.0-1.54","","<img src=""img/yellow-n.png"" border=""10"">","null","trial","null","","0.4,0.6","4:nogo_d","0",""
"null","","html-keyboard-response","384","710136","0.0-6.0-2.54","","<div style=""font-size:60px;"">+</div>","null","","","","","","",""
"null","","image-keyboard-response","385","711644","0.0-6.0-0.55","","img/pink.png","null","trial","32","false","0.6,0.4","3:go_c","",""
"null","","html-keyboard-response","386","712652","0.0-6.0-1.55","","<img src=""img/pink-n.png"">","null","trial","32","","0.6,0.4","3:go_c","0",""
"null","","html-keyboard-response","387","713665","0.0-6.0-2.55","","<div style=""font-size:60px;"">+</div>","null","","","","","","",""
"853.7599999690428","","image-keyboard-response","388","714520","0.0-6.0-0.56","","img/yellow.png","32","trial","null","false","0.4,0.6","4:nogo_d","",""
"null","","html-keyboard-response","389","715525","0.0-6.0-1.56","","<img src=""img/yellow-n.png"" border=""10"">","null","trial","null","","0.4,0.6","4:nogo_d","0",""
"null","","html-keyboard-response","390","716535","0.0-6.0-2.56","","<div style=""font-size:60px;"">+</div>","null","","","","","","",""
"722.4050000077114","","image-keyboard-response","391","717259","0.0-6.0-0.57","","img/blue.png","32","trial","32","true","0.6,0.4","1:go_a","",""
"null","","html-keyboard-response","392","718264","0.0-6.0-1.57","","<img src=""img/blue-n.png"" border=""10"">","null","trial","32","","0.6,0.4","1:go_a","0",""
"null","","html-keyboard-response","393","719272","0.0-6.0-2.57","","<div style=""font-size:60px;"">+</div>","null","","","","","","",""
"60.01999997533858","","image-keyboard-response","394","719333","0.0-6.0-0.58","","img/purple.png","32","trial","null","false","0.4,0.6","2:nogo_b","",""
"null","","html-keyboard-response","395","720335","0.0-6.0-1.58","","<img src=""img/purple-n.png"" border=""10"">","null","trial","null","","0.4,0.6","2:nogo_b","0",""
"null","","html-keyboard-response","396","721340","0.0-6.0-2.58","","<div style=""font-size:60px;"">+</div>","null","","","","","","",""
"773.7199999974109","","image-keyboard-response","397","722115","0.0-6.0-0.59","","img/pink.png","32","trial","32","true","0.6,0.4","3:go_c","",""
"null","","html-keyboard-response","398","723120","0.0-6.0-1.59","","<img src=""img/pink-n.png"" border=""10"">","null","trial","32","","0.6,0.4","3:go_c","0",""
"null","","html-keyboard-response","399","724137","0.0-6.0-2.59","","<div style=""font-size:60px;"">+</div>","null","","","","","","",""
"435.27000001631677","","image-keyboard-response","400","724573","0.0-6.0-0.60","","img/purple.png","32","trial","null","false","0.4,0.6","2:nogo_b","",""
"null","","html-keyboard-response","401","725579","0.0-6.0-1.60","","<img src=""img/purple-n.png"" border=""10"">","null","trial","null","","0.4,0.6","2:nogo_b","0",""
"null","","html-keyboard-response","402","726595","0.0-6.0-2.60","","<div style=""font-size:60px;"">+</div>","null","","","","","","",""
"613.9350000303239","","image-keyboard-response","403","727210","0.0-6.0-0.61","","img/pink.png","32","trial","32","true","0.6,0.4","3:go_c","",""
"null","","html-keyboard-response","404","728216","0.0-6.0-1.61","","<img src=""img/pink-r.png"" border=""10"">","null","trial","32","","0.6,0.4","3:go_c","1",""
"null","","html-keyboard-response","405","729218","0.0-6.0-2.61","","<div style=""font-size:60px;"">+</div>","null","","","","","","",""
"531.4699999871664","","image-keyboard-response","406","729750","0.0-6.0-0.62","","img/blue.png","32","trial","32","true","0.6,0.4","1:go_a","",""
"null","","html-keyboard-response","407","730760","0.0-6.0-1.62","","<img src=""img/blue-r.png"" border=""10"">","null","trial","32","","0.6,0.4","1:go_a","1",""
"null","","html-keyboard-response","408","731762","0.0-6.0-2.62","","<div style=""font-size:60px;"">+</div>","null","","","","","","",""
"415.6899999943562","","image-keyboard-response","409","732179","0.0-6.0-0.63","","img/yellow.png","32","trial","null","false","0.4,0.6","4:nogo_d","",""
"null","","html-keyboard-response","410","733194","0.0-6.0-1.63","","<img src=""img/yellow-n.png"" border=""10"">","null","trial","null","","0.4,0.6","4:nogo_d","0",""
"null","","html-keyboard-response","411","734200","0.0-6.0-2.63","","<div style=""font-size:60px;"">+</div>","null","","","","","","",""
"null","","image-keyboard-response","412","735703","0.0-6.0-0.64","","img/pink.png","null","trial","32","false","0.6,0.4","3:go_c","",""
"null","","html-keyboard-response","413","736710","0.0-6.0-1.64","","<img src=""img/pink-r.png"">","null","trial","32","","0.6,0.4","3:go_c","1",""
"null","","html-keyboard-response","414","737718","0.0-6.0-2.64","","<div style=""font-size:60px;"">+</div>","null","","","","","","",""
"375.4799999878742","","image-keyboard-response","415","738094","0.0-6.0-0.65","","img/yellow.png","32","trial","null","false","0.4,0.6","4:nogo_d","",""
"null","","html-keyboard-response","416","739111","0.0-6.0-1.65","","<img src=""img/yellow-r.png"" border=""10"">","null","trial","null","","0.4,0.6","4:nogo_d","1",""
"null","","html-keyboard-response","417","740114","0.0-6.0-2.65","","<div style=""font-size:60px;"">+</div>","null","","","","","","",""
"699.0249999798834","","image-keyboard-response","418","740814","0.0-6.0-0.66","","img/purple.png","32","trial","null","false","0.4,0.6","2:nogo_b","",""
"null","","html-keyboard-response","419","741817","0.0-6.0-1.66","","<img src=""img/purple-r.png"" border=""10"">","null","trial","null","","0.4,0.6","2:nogo_b","1",""
"null","","html-keyboard-response","420","742820","0.0-6.0-2.66","","<div style=""font-size:60px;"">+</div>","null","","","","","","",""
"725.5049999803305","","image-keyboard-response","421","743547","0.0-6.0-0.67","","img/blue.png","32","trial","32","true","0.6,0.4","1:go_a","",""
"null","","html-keyboard-response","422","744549","0.0-6.0-1.67","","<img src=""img/blue-n.png"" border=""10"">","null","trial","32","","0.6,0.4","1:go_a","0",""
"null","","html-keyboard-response","423","745555","0.0-6.0-2.67","","<div style=""font-size:60px;"">+</div>","null","","","","","","",""
"486.40499997418374","","image-keyboard-response","424","746042","0.0-6.0-0.68","","img/purple.png","32","trial","null","false","0.4,0.6","2:nogo_b","",""
"null","","html-keyboard-response","425","747049","0.0-6.0-1.68","","<img src=""img/purple-n.png"" border=""10"">","null","trial","null","","0.4,0.6","2:nogo_b","0",""
"null","","html-keyboard-response","426","748056","0.0-6.0-2.68","","<div style=""font-size:60px;"">+</div>","null","","","","","","",""
"615.010000008624","","image-keyboard-response","427","748672","0.0-6.0-0.69","","img/blue.png","32","trial","32","true","0.6,0.4","1:go_a","",""
"null","","html-keyboard-response","428","749682","0.0-6.0-1.69","","<img src=""img/blue-n.png"" border=""10"">","null","trial","32","","0.6,0.4","1:go_a","0",""
"null","","html-keyboard-response","429","750694","0.0-6.0-2.69","","<div style=""font-size:60px;"">+</div>","null","","","","","","",""
"null","","image-keyboard-response","430","752204","0.0-6.0-0.70","","img/yellow.png","null","trial","null","true","0.4,0.6","4:nogo_d","",""
"null","","html-keyboard-response","431","753211","0.0-6.0-1.70","","<img src=""img/yellow-n.png"">","null","trial","null","","0.4,0.6","4:nogo_d","0",""
"null","","html-keyboard-response","432","754219","0.0-6.0-2.70","","<div style=""font-size:60px;"">+</div>","null","","","","","","",""
"null","","image-keyboard-response","433","755727","0.0-6.0-0.71","","img/pink.png","null","trial","32","false","0.6,0.4","3:go_c","",""
"null","","html-keyboard-response","434","756743","0.0-6.0-1.71","","<img src=""img/pink-n.png"">","null","trial","32","","0.6,0.4","3:go_c","0",""
"null","","html-keyboard-response","435","757747","0.0-6.0-2.71","","<div style=""font-size:60px;"">+</div>","null","","","","","","",""
"601.2800000025891","","image-keyboard-response","436","758350","0.0-6.0-0.72","","img/purple.png","32","trial","null","false","0.4,0.6","2:nogo_b","",""
"null","","html-keyboard-response","437","759357","0.0-6.0-1.72","","<img src=""img/purple-n.png"" border=""10"">","null","trial","null","","0.4,0.6","2:nogo_b","0",""
"null","","html-keyboard-response","438","760373","0.0-6.0-2.72","","<div style=""font-size:60px;"">+</div>","null","","","","","","",""
"720.4700000002049","","image-keyboard-response","439","761095","0.0-6.0-0.73","","img/blue.png","32","trial","32","true","0.6,0.4","1:go_a","",""
"null","","html-keyboard-response","440","762100","0.0-6.0-1.73","","<img src=""img/blue-n.png"" border=""10"">","null","trial","32","","0.6,0.4","1:go_a","0",""
"null","","html-keyboard-response","441","763104","0.0-6.0-2.73","","<div style=""font-size:60px;"">+</div>","null","","","","","","",""
"null","","image-keyboard-response","442","764609","0.0-6.0-0.74","","img/pink.png","null","trial","32","false","0.6,0.4","3:go_c","",""
"null","","html-keyboard-response","443","765618","0.0-6.0-1.74","","<img src=""img/pink-n.png"">","null","trial","32","","0.6,0.4","3:go_c","0",""
"null","","html-keyboard-response","444","766626","0.0-6.0-2.74","","<div style=""font-size:60px;"">+</div>","null","","","","","","",""
"892.5799999851733","","image-keyboard-response","445","767519","0.0-6.0-0.75","","img/yellow.png","32","trial","null","false","0.4,0.6","4:nogo_d","",""
"null","","html-keyboard-response","446","768528","0.0-6.0-1.75","","<img src=""img/yellow-r.png"" border=""10"">","null","trial","null","","0.4,0.6","4:nogo_d","1",""
"null","","html-keyboard-response","447","769529","0.0-6.0-2.75","","<div style=""font-size:60px;"">+</div>","null","","","","","","",""
"null","","image-keyboard-response","448","771037","0.0-6.0-0.76","","img/pink.png","null","trial","32","false","0.6,0.4","3:go_c","",""
"null","","html-keyboard-response","449","772039","0.0-6.0-1.76","","<img src=""img/pink-r.png"">","null","trial","32","","0.6,0.4","3:go_c","1",""
"null","","html-keyboard-response","450","773048","0.0-6.0-2.76","","<div style=""font-size:60px;"">+</div>","null","","","","","","",""
"820.209999976214","","image-keyboard-response","451","773869","0.0-6.0-0.77","","img/blue.png","32","trial","32","true","0.6,0.4","1:go_a","",""
"null","","html-keyboard-response","452","774878","0.0-6.0-1.77","","<img src=""img/blue-r.png"" border=""10"">","null","trial","32","","0.6,0.4","1:go_a","1",""
"null","","html-keyboard-response","453","775889","0.0-6.0-2.77","","<div style=""font-size:60px;"">+</div>","null","","","","","","",""
"null","","image-keyboard-response","454","777400","0.0-6.0-0.78","","img/purple.png","null","trial","null","true","0.4,0.6","2:nogo_b","",""
"null","","html-keyboard-response","455","778409","0.0-6.0-1.78","","<img src=""img/purple-r.png"">","null","trial","null","","0.4,0.6","2:nogo_b","1",""
"null","","html-keyboard-response","456","779419","0.0-6.0-2.78","","<div style=""font-size:60px;"">+</div>","null","","","","","","",""
"null","","image-keyboard-response","457","780930","0.0-6.0-0.79","","img/yellow.png","null","trial","null","true","0.4,0.6","4:nogo_d","",""
"null","","html-keyboard-response","458","781933","0.0-6.0-1.79","","<img src=""img/yellow-n.png"">","null","trial","null","","0.4,0.6","4:nogo_d","0",""
"null","","html-keyboard-response","459","782937","0.0-6.0-2.79","","<div style=""font-size:60px;"">+</div>","null","","","","","","",""
"506.1400000122376","","image-keyboard-response","460","783444","0.0-6.0-0.80","","img/blue.png","32","trial","32","true","0.6,0.4","1:go_a","",""
"null","","html-keyboard-response","461","784450","0.0-6.0-1.80","","<img src=""img/blue-r.png"" border=""10"">","null","trial","32","","0.6,0.4","1:go_a","1",""
"null","","html-keyboard-response","462","785456","0.0-6.0-2.80","","<div style=""font-size:60px;"">+</div>","null","","","","","","",""
"670.5399999627843","","image-keyboard-response","463","786128","0.0-6.0-0.81","","img/purple.png","32","trial","null","false","0.4,0.6","2:nogo_b","",""
"null","","html-keyboard-response","464","787138","0.0-6.0-1.81","","<img src=""img/purple-n.png"" border=""10"">","null","trial","null","","0.4,0.6","2:nogo_b","0",""
"null","","html-keyboard-response","465","788143","0.0-6.0-2.81","","<div style=""font-size:60px;"">+</div>","null","","","","","","",""
"792.6399999996647","","image-keyboard-response","466","788937","0.0-6.0-0.82","","img/yellow.png","32","trial","null","false","0.4,0.6","4:nogo_d","",""
"null","","html-keyboard-response","467","789944","0.0-6.0-1.82","","<img src=""img/yellow-n.png"" border=""10"">","null","trial","null","","0.4,0.6","4:nogo_d","0",""
"null","","html-keyboard-response","468","790951","0.0-6.0-2.82","","<div style=""font-size:60px;"">+</div>","null","","","","","","",""
"null","","image-keyboard-response","469","792459","0.0-6.0-0.83","","img/pink.png","null","trial","32","false","0.6,0.4","3:go_c","",""
"null","","html-keyboard-response","470","793466","0.0-6.0-1.83","","<img src=""img/pink-n.png"">","null","trial","32","","0.6,0.4","3:go_c","0",""
"null","","html-keyboard-response","471","794469","0.0-6.0-2.83","","<div style=""font-size:60px;"">+</div>","null","","","","","","",""
"null","","image-keyboard-response","472","795973","0.0-6.0-0.84","","img/blue.png","null","trial","32","false","0.6,0.4","1:go_a","",""
"null","","html-keyboard-response","473","796980","0.0-6.0-1.84","","<img src=""img/blue-n.png"">","null","trial","32","","0.6,0.4","1:go_a","0",""
"null","","html-keyboard-response","474","797987","0.0-6.0-2.84","","<div style=""font-size:60px;"">+</div>","null","","","","","","",""
"null","","image-keyboard-response","475","799490","0.0-6.0-0.85","","img/pink.png","null","trial","32","false","0.6,0.4","3:go_c","",""
"null","","html-keyboard-response","476","800494","0.0-6.0-1.85","","<img src=""img/pink-n.png"">","null","trial","32","","0.6,0.4","3:go_c","0",""
"null","","html-keyboard-response","477","801497","0.0-6.0-2.85","","<div style=""font-size:60px;"">+</div>","null","","","","","","",""
"577.2599999909289","","image-keyboard-response","478","802075","0.0-6.0-0.86","","img/yellow.png","32","trial","null","false","0.4,0.6","4:nogo_d","",""
"null","","html-keyboard-response","479","803093","0.0-6.0-1.86","","<img src=""img/yellow-r.png"" border=""10"">","null","trial","null","","0.4,0.6","4:nogo_d","1",""
"null","","html-keyboard-response","480","804095","0.0-6.0-2.86","","<div style=""font-size:60px;"">+</div>","null","","","","","","",""
"null","","image-keyboard-response","481","805605","0.0-6.0-0.87","","img/purple.png","null","trial","null","true","0.4,0.6","2:nogo_b","",""
"null","","html-keyboard-response","482","806613","0.0-6.0-1.87","","<img src=""img/purple-n.png"">","null","trial","null","","0.4,0.6","2:nogo_b","0",""
"null","","html-keyboard-response","483","807616","0.0-6.0-2.87","","<div style=""font-size:60px;"">+</div>","null","","","","","","",""
"742.9550000233576","","image-keyboard-response","484","808360","0.0-6.0-0.88","","img/blue.png","32","trial","32","true","0.6,0.4","1:go_a","",""
"null","","html-keyboard-response","485","809366","0.0-6.0-1.88","","<img src=""img/blue-n.png"" border=""10"">","null","trial","32","","0.6,0.4","1:go_a","0",""
"null","","html-keyboard-response","486","810370","0.0-6.0-2.88","","<div style=""font-size:60px;"">+</div>","null","","","","","","",""
"1025.484999991022","","image-keyboard-response","487","811397","0.0-6.0-0.89","","img/pink.png","32","trial","32","true","0.6,0.4","3:go_c","",""
"null","","html-keyboard-response","488","812407","0.0-6.0-1.89","","<img src=""img/pink-r.png"" border=""10"">","null","trial","32","","0.6,0.4","3:go_c","1",""
"null","","html-keyboard-response","489","813418","0.0-6.0-2.89","","<div style=""font-size:60px;"">+</div>","null","","","","","","",""
"null","","image-keyboard-response","490","814928","0.0-6.0-0.90","","img/yellow.png","null","trial","null","true","0.4,0.6","4:nogo_d","",""
"null","","html-keyboard-response","491","815937","0.0-6.0-1.90","","<img src=""img/yellow-n.png"">","null","trial","null","","0.4,0.6","4:nogo_d","0",""
"null","","html-keyboard-response","492","816940","0.0-6.0-2.90","","<div style=""font-size:60px;"">+</div>","null","","","","","","",""
"null","","image-keyboard-response","493","818453","0.0-6.0-0.91","","img/purple.png","null","trial","null","true","0.4,0.6","2:nogo_b","",""
"null","","html-keyboard-response","494","819455","0.0-6.0-1.91","","<img src=""img/purple-n.png"">","null","trial","null","","0.4,0.6","2:nogo_b","0",""
"null","","html-keyboard-response","495","820462","0.0-6.0-2.91","","<div style=""font-size:60px;"">+</div>","null","","","","","","",""
"412.66999999061227","","image-keyboard-response","496","820875","0.0-6.0-0.92","","img/purple.png","32","trial","null","false","0.4,0.6","2:nogo_b","",""
"null","","html-keyboard-response","497","821880","0.0-6.0-1.92","","<img src=""img/purple-r.png"" border=""10"">","null","trial","null","","0.4,0.6","2:nogo_b","1",""
"null","","html-keyboard-response","498","822885","0.0-6.0-2.92","","<div style=""font-size:60px;"">+</div>","null","","","","","","",""
"null","","image-keyboard-response","499","824387","0.0-6.0-0.93","","img/yellow.png","null","trial","null","true","0.4,0.6","4:nogo_d","",""
"null","","html-keyboard-response","500","825403","0.0-6.0-1.93","","<img src=""img/yellow-r.png"">","null","trial","null","","0.4,0.6","4:nogo_d","1",""
"null","","html-keyboard-response","501","826421","0.0-6.0-2.93","","<div style=""font-size:60px;"">+</div>","null","","","","","","",""
"null","","image-keyboard-response","502","827923","0.0-6.0-0.94","","img/blue.png","null","trial","32","false","0.6,0.4","1:go_a","",""
"null","","html-keyboard-response","503","828925","0.0-6.0-1.94","","<img src=""img/blue-n.png"">","null","trial","32","","0.6,0.4","1:go_a","0",""
"null","","html-keyboard-response","504","829934","0.0-6.0-2.94","","<div style=""font-size:60px;"">+</div>","null","","","","","","",""
"null","","image-keyboard-response","505","831445","0.0-6.0-0.95","","img/pink.png","null","trial","32","false","0.6,0.4","3:go_c","",""
"null","","html-keyboard-response","506","832455","0.0-6.0-1.95","","<img src=""img/pink-r.png"">","null","trial","32","","0.6,0.4","3:go_c","1",""
"null","","html-keyboard-response","507","833456","0.0-6.0-2.95","","<div style=""font-size:60px;"">+</div>","null","","","","","","",""
"null","","image-keyboard-response","508","834965","0.0-6.0-0.96","","img/purple.png","null","trial","null","true","0.4,0.6","2:nogo_b","",""
"null","","html-keyboard-response","509","835970","0.0-6.0-1.96","","<img src=""img/purple-n.png"">","null","trial","null","","0.4,0.6","2:nogo_b","0",""
"null","","html-keyboard-response","510","836977","0.0-6.0-2.96","","<div style=""font-size:60px;"">+</div>","null","","","","","","",""
"null","","image-keyboard-response","511","838480","0.0-6.0-0.97","","img/pink.png","null","trial","32","false","0.6,0.4","3:go_c","",""
"null","","html-keyboard-response","512","839485","0.0-6.0-1.97","","<img src=""img/pink-n.png"">","null","trial","32","","0.6,0.4","3:go_c","0",""
"null","","html-keyboard-response","513","840495","0.0-6.0-2.97","","<div style=""font-size:60px;"">+</div>","null","","","","","","",""
"543.9100000075996","","image-keyboard-response","514","841040","0.0-6.0-0.98","","img/yellow.png","32","trial","null","false","0.4,0.6","4:nogo_d","",""
"null","","html-keyboard-response","515","842051","0.0-6.0-1.98","","<img src=""img/yellow-n.png"" border=""10"">","null","trial","null","","0.4,0.6","4:nogo_d","0",""
"null","","html-keyboard-response","516","843066","0.0-6.0-2.98","","<div style=""font-size:60px;"">+</div>","null","","","","","","",""
"1038.1300000008196","","image-keyboard-response","517","844106","0.0-6.0-0.99","","img/blue.png","32","trial","32","true","0.6,0.4","1:go_a","",""
"null","","html-keyboard-response","518","845113","0.0-6.0-1.99","","<img src=""img/blue-n.png"" border=""10"">","null","trial","32","","0.6,0.4","1:go_a","0",""
"null","","html-keyboard-response","519","846122","0.0-6.0-2.99","","<div style=""font-size:60px;"">+</div>","null","","","","","","",""
"null","","image-keyboard-response","520","847624","0.0-6.0-0.100","","img/pink.png","null","trial","32","false","0.6,0.4","3:go_c","",""
"null","","html-keyboard-response","521","848642","0.0-6.0-1.100","","<img src=""img/pink-n.png"">","null","trial","32","","0.6,0.4","3:go_c","0",""
"null","","html-keyboard-response","522","849655","0.0-6.0-2.100","","<div style=""font-size:60px;"">+</div>","null","","","","","","",""
"null","","image-keyboard-response","523","851160","0.0-6.0-0.101","","img/yellow.png","null","trial","null","true","0.4,0.6","4:nogo_d","",""
"null","","html-keyboard-response","524","852169","0.0-6.0-1.101","","<img src=""img/yellow-r.png"">","null","trial","null","","0.4,0.6","4:nogo_d","1",""
"null","","html-keyboard-response","525","853173","0.0-6.0-2.101","","<div style=""font-size:60px;"">+</div>","null","","","","","","",""
"null","","image-keyboard-response","526","854677","0.0-6.0-0.102","","img/purple.png","null","trial","null","true","0.4,0.6","2:nogo_b","",""
"null","","html-keyboard-response","527","855685","0.0-6.0-1.102","","<img src=""img/purple-n.png"">","null","trial","null","","0.4,0.6","2:nogo_b","0",""
"null","","html-keyboard-response","528","856695","0.0-6.0-2.102","","<div style=""font-size:60px;"">+</div>","null","","","","","","",""
"null","","image-keyboard-response","529","858207","0.0-6.0-0.103","","img/blue.png","null","trial","32","false","0.6,0.4","1:go_a","",""
"null","","html-keyboard-response","530","859209","0.0-6.0-1.103","","<img src=""img/blue-r.png"">","null","trial","32","","0.6,0.4","1:go_a","1",""
"null","","html-keyboard-response","531","860214","0.0-6.0-2.103","","<div style=""font-size:60px;"">+</div>","null","","","","","","",""
"null","","image-keyboard-response","532","861717","0.0-6.0-0.104","","img/pink.png","null","trial","32","false","0.6,0.4","3:go_c","",""
"null","","html-keyboard-response","533","862723","0.0-6.0-1.104","","<img src=""img/pink-n.png"">","null","trial","32","","0.6,0.4","3:go_c","0",""
"null","","html-keyboard-response","534","863737","0.0-6.0-2.104","","<div style=""font-size:60px;"">+</div>","null","","","","","","",""
"null","","image-keyboard-response","535","865244","0.0-6.0-0.105","","img/purple.png","null","trial","null","true","0.4,0.6","2:nogo_b","",""
"null","","html-keyboard-response","536","866253","0.0-6.0-1.105","","<img src=""img/purple-r.png"">","null","trial","null","","0.4,0.6","2:nogo_b","1",""
"null","","html-keyboard-response","537","867260","0.0-6.0-2.105","","<div style=""font-size:60px;"">+</div>","null","","","","","","",""
"null","","image-keyboard-response","538","868769","0.0-6.0-0.106","","img/blue.png","null","trial","32","false","0.6,0.4","1:go_a","",""
"null","","html-keyboard-response","539","869775","0.0-6.0-1.106","","<img src=""img/blue-n.png"">","null","trial","32","","0.6,0.4","1:go_a","0",""
"null","","html-keyboard-response","540","870783","0.0-6.0-2.106","","<div style=""font-size:60px;"">+</div>","null","","","","","","",""
"519.1749999648891","","image-keyboard-response","541","871303","0.0-6.0-0.107","","img/yellow.png","32","trial","null","false","0.4,0.6","4:nogo_d","",""
"null","","html-keyboard-response","542","872309","0.0-6.0-1.107","","<img src=""img/yellow-n.png"" border=""10"">","null","trial","null","","0.4,0.6","4:nogo_d","0",""
"null","","html-keyboard-response","543","873318","0.0-6.0-2.107","","<div style=""font-size:60px;"">+</div>","null","","","","","","",""
"643.4599999920465","","image-keyboard-response","544","873962","0.0-6.0-0.108","","img/purple.png","32","trial","null","false","0.4,0.6","2:nogo_b","",""
"null","","html-keyboard-response","545","874971","0.0-6.0-1.108","","<img src=""img/purple-n.png"" border=""10"">","null","trial","null","","0.4,0.6","2:nogo_b","0",""
"null","","html-keyboard-response","546","875984","0.0-6.0-2.108","","<div style=""font-size:60px;"">+</div>","null","","","","","","",""
"null","","image-keyboard-response","547","877491","0.0-6.0-0.109","","img/yellow.png","null","trial","null","true","0.4,0.6","4:nogo_d","",""
"null","","html-keyboard-response","548","878494","0.0-6.0-1.109","","<img src=""img/yellow-n.png"">","null","trial","null","","0.4,0.6","4:nogo_d","0",""
"null","","html-keyboard-response","549","879504","0.0-6.0-2.109","","<div style=""font-size:60px;"">+</div>","null","","","","","","",""
"1067.365000024438","","image-keyboard-response","550","880573","0.0-6.0-0.110","","img/blue.png","32","trial","32","true","0.6,0.4","1:go_a","",""
"null","","html-keyboard-response","551","881575","0.0-6.0-1.110","","<img src=""img/blue-n.png"" border=""10"">","null","trial","32","","0.6,0.4","1:go_a","0",""
"null","","html-keyboard-response","552","882577","0.0-6.0-2.110","","<div style=""font-size:60px;"">+</div>","null","","","","","","",""
"773.0600000359118","","image-keyboard-response","553","883352","0.0-6.0-0.111","","img/pink.png","32","trial","32","true","0.6,0.4","3:go_c","",""
"null","","html-keyboard-response","554","884359","0.0-6.0-1.111","","<img src=""img/pink-r.png"" border=""10"">","null","trial","32","","0.6,0.4","3:go_c","1",""
"null","","html-keyboard-response","555","885370","0.0-6.0-2.111","","<div style=""font-size:60px;"">+</div>","null","","","","","","",""
"null","","image-keyboard-response","556","886875","0.0-6.0-0.112","","img/yellow.png","null","trial","null","true","0.4,0.6","4:nogo_d","",""
"null","","html-keyboard-response","557","887883","0.0-6.0-1.112","","<img src=""img/yellow-r.png"">","null","trial","null","","0.4,0.6","4:nogo_d","1",""
"null","","html-keyboard-response","558","888884","0.0-6.0-2.112","","<div style=""font-size:60px;"">+</div>","null","","","","","","",""
"null","","image-keyboard-response","559","890388","0.0-6.0-0.113","","img/pink.png","null","trial","32","false","0.6,0.4","3:go_c","",""
"null","","html-keyboard-response","560","891396","0.0-6.0-1.113","","<img src=""img/pink-r.png"">","null","trial","32","","0.6,0.4","3:go_c","1",""
"null","","html-keyboard-response","561","892405","0.0-6.0-2.113","","<div style=""font-size:60px;"">+</div>","null","","","","","","",""
"null","","image-keyboard-response","562","893907","0.0-6.0-0.114","","img/purple.png","null","trial","null","true","0.4,0.6","2:nogo_b","",""
"null","","html-keyboard-response","563","894917","0.0-6.0-1.114","","<img src=""img/purple-r.png"">","null","trial","null","","0.4,0.6","2:nogo_b","1",""
"null","","html-keyboard-response","564","895928","0.0-6.0-2.114","","<div style=""font-size:60px;"">+</div>","null","","","","","","",""
"null","","image-keyboard-response","565","897436","0.0-6.0-0.115","","img/blue.png","null","trial","32","false","0.6,0.4","1:go_a","",""
"null","","html-keyboard-response","566","898440","0.0-6.0-1.115","","<img src=""img/blue-r.png"">","null","trial","32","","0.6,0.4","1:go_a","1",""
"null","","html-keyboard-response","567","899443","0.0-6.0-2.115","","<div style=""font-size:60px;"">+</div>","null","","","","","","",""
"null","","image-keyboard-response","568","900953","0.0-6.0-0.116","","img/yellow.png","null","trial","null","true","0.4,0.6","4:nogo_d","",""
"null","","html-keyboard-response","569","901955","0.0-6.0-1.116","","<img src=""img/yellow-r.png"">","null","trial","null","","0.4,0.6","4:nogo_d","1",""
"null","","html-keyboard-response","570","902960","0.0-6.0-2.116","","<div style=""font-size:60px;"">+</div>","null","","","","","","",""
"null","","image-keyboard-response","571","904463","0.0-6.0-0.117","","img/purple.png","null","trial","null","true","0.4,0.6","2:nogo_b","",""
"null","","html-keyboard-response","572","905468","0.0-6.0-1.117","","<img src=""img/purple-r.png"">","null","trial","null","","0.4,0.6","2:nogo_b","1",""
"null","","html-keyboard-response","573","906475","0.0-6.0-2.117","","<div style=""font-size:60px;"">+</div>","null","","","","","","",""
"605.695000034757","","image-keyboard-response","574","907083","0.0-6.0-0.118","","img/blue.png","32","trial","32","true","0.6,0.4","1:go_a","",""
"null","","html-keyboard-response","575","908099","0.0-6.0-1.118","","<img src=""img/blue-n.png"" border=""10"">","null","trial","32","","0.6,0.4","1:go_a","0",""
"null","","html-keyboard-response","576","909111","0.0-6.0-2.118","","<div style=""font-size:60px;"">+</div>","null","","","","","","",""
"null","","image-keyboard-response","577","910614","0.0-6.0-0.119","","img/pink.png","null","trial","32","false","0.6,0.4","3:go_c","",""
"null","","html-keyboard-response","578","911618","0.0-6.0-1.119","","<img src=""img/pink-n.png"">","null","trial","32","","0.6,0.4","3:go_c","0",""
"null","","html-keyboard-response","579","912625","0.0-6.0-2.119","","<div style=""font-size:60px;"">+</div>","null","","","","","","",""
"48297.22499998752","","instructions","580","960917","0.0-7.0","[{""page_index"":0,""viewing_time"":48296.8899999978}]","","","","","","","","",""
"1035.5499999714084","","image-keyboard-response","581","961954","0.0-8.0-0.0","","img/green.png","32","trial","32","true","0.8,0.2","3:go_c","",""
"null","","html-keyboard-response","582","962965","0.0-8.0-1.0","","<img src=""img/green-r.png"" border=""10"">","null","trial","32","","0.8,0.2","3:go_c","1",""
"null","","html-keyboard-response","583","963968","0.0-8.0-2.0","","<div style=""font-size:60px;"">+</div>","null","","","","","","",""
"1022.4550000275485","","image-keyboard-response","584","964991","0.0-8.0-0.1","","img/pink.png","32","trial","32","true","0.8,0.2","1:go_a","",""
"null","","html-keyboard-response","585","966000","0.0-8.0-1.1","","<img src=""img/pink-n.png"" border=""10"">","null","trial","32","","0.8,0.2","1:go_a","0",""
"null","","html-keyboard-response","586","967004","0.0-8.0-2.1","","<div style=""font-size:60px;"">+</div>","null","","","","","","",""
"644.1600000252947","","image-keyboard-response","587","967649","0.0-8.0-0.2","","img/yellow.png","32","trial","null","false","0.2,0.8","2:nogo_b","",""
"null","","html-keyboard-response","588","968660","0.0-8.0-1.2","","<img src=""img/yellow-n.png"" border=""10"">","null","trial","null","","0.2,0.8","2:nogo_b","0",""
"null","","html-keyboard-response","589","969662","0.0-8.0-2.2","","<div style=""font-size:60px;"">+</div>","null","","","","","","",""
"631.5949999843724","","image-keyboard-response","590","970295","0.0-8.0-0.3","","img/red.png","32","trial","null","false","0.2,0.8","4:nogo_d","",""
"null","","html-keyboard-response","591","971305","0.0-8.0-1.3","","<img src=""img/red-n.png"" border=""10"">","null","trial","null","","0.2,0.8","4:nogo_d","0",""
"null","","html-keyboard-response","592","972310","0.0-8.0-2.3","","<div style=""font-size:60px;"">+</div>","null","","","","","","",""
"649.5449999929406","","image-keyboard-response","593","972960","0.0-8.0-0.4","","img/green.png","32","trial","32","true","0.8,0.2","3:go_c","",""
"null","","html-keyboard-response","594","973970","0.0-8.0-1.4","","<img src=""img/green-n.png"" border=""10"">","null","trial","32","","0.8,0.2","3:go_c","0",""
"null","","html-keyboard-response","595","974972","0.0-8.0-2.4","","<div style=""font-size:60px;"">+</div>","null","","","","","","",""
"null","","image-keyboard-response","596","976475","0.0-8.0-0.5","","img/red.png","null","trial","null","true","0.2,0.8","4:nogo_d","",""
"null","","html-keyboard-response","597","977481","0.0-8.0-1.5","","<img src=""img/red-r.png"">","null","trial","null","","0.2,0.8","4:nogo_d","1",""
"null","","html-keyboard-response","598","978486","0.0-8.0-2.5","","<div style=""font-size:60px;"">+</div>","null","","","","","","",""
"524.364999961108","","image-keyboard-response","599","979012","0.0-8.0-0.6","","img/yellow.png","32","trial","null","false","0.2,0.8","2:nogo_b","",""
"null","","html-keyboard-response","600","980021","0.0-8.0-1.6","","<img src=""img/yellow-n.png"" border=""10"">","null","trial","null","","0.2,0.8","2:nogo_b","0",""
"null","","html-keyboard-response","601","981027","0.0-8.0-2.6","","<div style=""font-size:60px;"">+</div>","null","","","","","","",""
"434.5800000010058","","image-keyboard-response","602","981463","0.0-8.0-0.7","","img/pink.png","32","trial","32","true","0.8,0.2","1:go_a","",""
"null","","html-keyboard-response","603","982470","0.0-8.0-1.7","","<img src=""img/pink-r.png"" border=""10"">","null","trial","32","","0.8,0.2","1:go_a","1",""
"null","","html-keyboard-response","604","983472","0.0-8.0-2.7","","<div style=""font-size:60px;"">+</div>","null","","","","","","",""
"837.2749999980442","","image-keyboard-response","605","984311","0.0-8.0-0.8","","img/red.png","32","trial","null","false","0.2,0.8","4:nogo_d","",""
"null","","html-keyboard-response","606","985320","0.0-8.0-1.8","","<img src=""img/red-n.png"" border=""10"">","null","trial","null","","0.2,0.8","4:nogo_d","0",""
"null","","html-keyboard-response","607","986325","0.0-8.0-2.8","","<div style=""font-size:60px;"">+</div>","null","","","","","","",""
"null","","image-keyboard-response","608","987830","0.0-8.0-0.9","","img/pink.png","null","trial","32","false","0.8,0.2","1:go_a","",""
"null","","html-keyboard-response","609","988838","0.0-8.0-1.9","","<img src=""img/pink-r.png"">","null","trial","32","","0.8,0.2","1:go_a","1",""
"null","","html-keyboard-response","610","989849","0.0-8.0-2.9","","<div style=""font-size:60px;"">+</div>","null","","","","","","",""
"null","","image-keyboard-response","611","991355","0.0-8.0-0.10","","img/yellow.png","null","trial","null","true","0.2,0.8","2:nogo_b","",""
"null","","html-keyboard-response","612","992373","0.0-8.0-1.10","","<img src=""img/yellow-n.png"">","null","trial","null","","0.2,0.8","2:nogo_b","0",""
"null","","html-keyboard-response","613","993382","0.0-8.0-2.10","","<div style=""font-size:60px;"">+</div>","null","","","","","","",""
"1066.625000035856","","image-keyboard-response","614","994449","0.0-8.0-0.11","","img/green.png","32","trial","32","true","0.8,0.2","3:go_c","",""
"null","","html-keyboard-response","615","995455","0.0-8.0-1.11","","<img src=""img/green-r.png"" border=""10"">","null","trial","32","","0.8,0.2","3:go_c","1",""
"null","","html-keyboard-response","616","996458","0.0-8.0-2.11","","<div style=""font-size:60px;"">+</div>","null","","","","","","",""
"534.8650000523776","","image-keyboard-response","617","996994","0.0-8.0-0.12","","img/green.png","32","trial","32","true","0.8,0.2","3:go_c","",""
"null","","html-keyboard-response","618","998001","0.0-8.0-1.12","","<img src=""img/green-r.png"" border=""10"">","null","trial","32","","0.8,0.2","3:go_c","1",""
"null","","html-keyboard-response","619","999008","0.0-8.0-2.12","","<div style=""font-size:60px;"">+</div>","null","","","","","","",""
"null","","image-keyboard-response","620","1000516","0.0-8.0-0.13","","img/pink.png","null","trial","32","false","0.8,0.2","1:go_a","",""
"null","","html-keyboard-response","621","1001521","0.0-8.0-1.13","","<img src=""img/pink-n.png"">","null","trial","32","","0.8,0.2","1:go_a","0",""
"null","","html-keyboard-response","622","1002539","0.0-8.0-2.13","","<div style=""font-size:60px;"">+</div>","null","","","","","","",""
"798.8349999650382","","image-keyboard-response","623","1003339","0.0-8.0-0.14","","img/red.png","32","trial","null","false","0.2,0.8","4:nogo_d","",""
"null","","html-keyboard-response","624","1004341","0.0-8.0-1.14","","<img src=""img/red-n.png"" border=""10"">","null","trial","null","","0.2,0.8","4:nogo_d","0",""
"null","","html-keyboard-response","625","1005350","0.0-8.0-2.14","","<div style=""font-size:60px;"">+</div>","null","","","","","","",""
"656.9500000332482","","image-keyboard-response","626","1006008","0.0-8.0-0.15","","img/yellow.png","32","trial","null","false","0.2,0.8","2:nogo_b","",""
"null","","html-keyboard-response","627","1007020","0.0-8.0-1.15","","<img src=""img/yellow-n.png"" border=""10"">","null","trial","null","","0.2,0.8","2:nogo_b","0",""
"null","","html-keyboard-response","628","1008025","0.0-8.0-2.15","","<div style=""font-size:60px;"">+</div>","null","","","","","","",""
"885.5399999883957","","image-keyboard-response","629","1008911","0.0-8.0-0.16","","img/red.png","32","trial","null","false","0.2,0.8","4:nogo_d","",""
"null","","html-keyboard-response","630","1009918","0.0-8.0-1.16","","<img src=""img/red-n.png"" border=""10"">","null","trial","null","","0.2,0.8","4:nogo_d","0",""
"null","","html-keyboard-response","631","1010924","0.0-8.0-2.16","","<div style=""font-size:60px;"">+</div>","null","","","","","","",""
"592.5500000012107","","image-keyboard-response","632","1011518","0.0-8.0-0.17","","img/pink.png","32","trial","32","true","0.8,0.2","1:go_a","",""
"null","","html-keyboard-response","633","1012522","0.0-8.0-1.17","","<img src=""img/pink-r.png"" border=""10"">","null","trial","32","","0.8,0.2","1:go_a","1",""
"null","","html-keyboard-response","634","1013538","0.0-8.0-2.17","","<div style=""font-size:60px;"">+</div>","null","","","","","","",""
"null","","image-keyboard-response","635","1015043","0.0-8.0-0.18","","img/green.png","null","trial","32","false","0.8,0.2","3:go_c","",""
"null","","html-keyboard-response","636","1016057","0.0-8.0-1.18","","<img src=""img/green-n.png"">","null","trial","32","","0.8,0.2","3:go_c","0",""
"null","","html-keyboard-response","637","1017059","0.0-8.0-2.18","","<div style=""font-size:60px;"">+</div>","null","","","","","","",""
"403.4949999768287","","image-keyboard-response","638","1017463","0.0-8.0-0.19","","img/yellow.png","32","trial","null","false","0.2,0.8","2:nogo_b","",""
"null","","html-keyboard-response","639","1018469","0.0-8.0-1.19","","<img src=""img/yellow-n.png"" border=""10"">","null","trial","null","","0.2,0.8","2:nogo_b","0",""
"null","","html-keyboard-response","640","1019485","0.0-8.0-2.19","","<div style=""font-size:60px;"">+</div>","null","","","","","","",""
"null","","image-keyboard-response","641","1020995","0.0-8.0-0.20","","img/green.png","null","trial","32","false","0.8,0.2","3:go_c","",""
"null","","html-keyboard-response","642","1021999","0.0-8.0-1.20","","<img src=""img/green-n.png"">","null","trial","32","","0.8,0.2","3:go_c","0",""
"null","","html-keyboard-response","643","1023002","0.0-8.0-2.20","","<div style=""font-size:60px;"">+</div>","null","","","","","","",""
"493.50000004051253","","image-keyboard-response","644","1023496","0.0-8.0-0.21","","img/yellow.png","32","trial","null","false","0.2,0.8","2:nogo_b","",""
"null","","html-keyboard-response","645","1024500","0.0-8.0-1.21","","<img src=""img/yellow-n.png"" border=""10"">","null","trial","null","","0.2,0.8","2:nogo_b","0",""
"null","","html-keyboard-response","646","1025504","0.0-8.0-2.21","","<div style=""font-size:60px;"">+</div>","null","","","","","","",""
"648.1299999868497","","image-keyboard-response","647","1026153","0.0-8.0-0.22","","img/red.png","32","trial","null","false","0.2,0.8","4:nogo_d","",""
"null","","html-keyboard-response","648","1027160","0.0-8.0-1.22","","<img src=""img/red-n.png"" border=""10"">","null","trial","null","","0.2,0.8","4:nogo_d","0",""
"null","","html-keyboard-response","649","1028165","0.0-8.0-2.22","","<div style=""font-size:60px;"">+</div>","null","","","","","","",""
"null","","image-keyboard-response","650","1029669","0.0-8.0-0.23","","img/pink.png","null","trial","32","false","0.8,0.2","1:go_a","",""
"null","","html-keyboard-response","651","1030672","0.0-8.0-1.23","","<img src=""img/pink-r.png"">","null","trial","32","","0.8,0.2","1:go_a","1",""
"null","","html-keyboard-response","652","1031677","0.0-8.0-2.23","","<div style=""font-size:60px;"">+</div>","null","","","","","","",""
"null","","image-keyboard-response","653","1033180","0.0-8.0-0.24","","img/red.png","null","trial","null","true","0.2,0.8","4:nogo_d","",""
"null","","html-keyboard-response","654","1034186","0.0-8.0-1.24","","<img src=""img/red-n.png"">","null","trial","null","","0.2,0.8","4:nogo_d","0",""
"null","","html-keyboard-response","655","1035193","0.0-8.0-2.24","","<div style=""font-size:60px;"">+</div>","null","","","","","","",""
"479.784999974072","","image-keyboard-response","656","1035674","0.0-8.0-0.25","","img/yellow.png","32","trial","null","false","0.2,0.8","2:nogo_b","",""
"null","","html-keyboard-response","657","1036684","0.0-8.0-1.25","","<img src=""img/yellow-n.png"" border=""10"">","null","trial","null","","0.2,0.8","2:nogo_b","0",""
"null","","html-keyboard-response","658","1037688","0.0-8.0-2.25","","<div style=""font-size:60px;"">+</div>","null","","","","","","",""
"631.7850000341423","","image-keyboard-response","659","1038321","0.0-8.0-0.26","","img/pink.png","32","trial","32","true","0.8,0.2","1:go_a","",""
"null","","html-keyboard-response","660","1039330","0.0-8.0-1.26","","<img src=""img/pink-r.png"" border=""10"">","null","trial","32","","0.8,0.2","1:go_a","1",""
"null","","html-keyboard-response","661","1040333","0.0-8.0-2.26","","<div style=""font-size:60px;"">+</div>","null","","","","","","",""
"351.75999999046326","","image-keyboard-response","662","1040686","0.0-8.0-0.27","","img/green.png","32","trial","32","true","0.8,0.2","3:go_c","",""
"null","","html-keyboard-response","663","1041692","0.0-8.0-1.27","","<img src=""img/green-r.png"" border=""10"">","null","trial","32","","0.8,0.2","3:go_c","1",""
"null","","html-keyboard-response","664","1042695","0.0-8.0-2.27","","<div style=""font-size:60px;"">+</div>","null","","","","","","",""
"784.7400000318885","","image-keyboard-response","665","1043481","0.0-8.0-0.28","","img/pink.png","32","trial","32","true","0.8,0.2","1:go_a","",""
"null","","html-keyboard-response","666","1044490","0.0-8.0-1.28","","<img src=""img/pink-r.png"" border=""10"">","null","trial","32","","0.8,0.2","1:go_a","1",""
"null","","html-keyboard-response","667","1045497","0.0-8.0-2.28","","<div style=""font-size:60px;"">+</div>","null","","","","","","",""
"1049.1499999770895","","image-keyboard-response","668","1046547","0.0-8.0-0.29","","img/green.png","32","trial","32","true","0.8,0.2","3:go_c","",""
"null","","html-keyboard-response","669","1047557","0.0-8.0-1.29","","<img src=""img/green-r.png"" border=""10"">","null","trial","32","","0.8,0.2","3:go_c","1",""
"null","","html-keyboard-response","670","1048564","0.0-8.0-2.29","","<div style=""font-size:60px;"">+</div>","null","","","","","","",""
"587.9299999796785","","image-keyboard-response","671","1049153","0.0-8.0-0.30","","img/red.png","32","trial","null","false","0.2,0.8","4:nogo_d","",""
"null","","html-keyboard-response","672","1050156","0.0-8.0-1.30","","<img src=""img/red-n.png"" border=""10"">","null","trial","null","","0.2,0.8","4:nogo_d","0",""
"null","","html-keyboard-response","673","1051163","0.0-8.0-2.30","","<div style=""font-size:60px;"">+</div>","null","","","","","","",""
"358.55999996419996","","image-keyboard-response","674","1051522","0.0-8.0-0.31","","img/yellow.png","32","trial","null","false","0.2,0.8","2:nogo_b","",""
