"rt","url","trial_type","trial_index","time_elapsed","internal_node_id","view_history","stimulus","key_press","test_part","correct_response","correct","use_rew","which_stim","reward","responses"
"6873.924999992596","consent.html","external-html","0","7025","0.0-0.0","","","","","","","","","",""
"78216.52000001632","","instructions","1","85244","0.0-1.0","[{""page_index"":0,""viewing_time"":6206.2150000128895},{""page_index"":1,""viewing_time"":10588.279999996303},{""page_index"":2,""viewing_time"":4357.625000004191},{""page_index"":3,""viewing_time"":30884.674999979325},{""page_index"":4,""viewing_time"":10263.10999999987},{""page_index"":5,""viewing_time"":4708.915000024717},{""page_index"":6,""viewing_time"":11206.174999999348}]","","","","","","","","",""
"null","","image-keyboard-response","2","86752","0.0-2.0-0.0","","img/test3.PNG","null","practice","null","true","","","",""
"null","","html-keyboard-response","3","87761","0.0-2.0-1.0","","<img src=""img/test3-reward.PNG"">","null","","","","","","",""
"null","","html-keyboard-response","4","88769","0.0-2.0-2.0","","<div style=""font-size:60px;"">+</div>","null","","","","","","",""
"null","","image-keyboard-response","5","90275","0.0-2.0-0.1","","img/test2.PNG","null","practice","null","true","","","",""
"null","","html-keyboard-response","6","91287","0.0-2.0-1.1","","<img src=""img/test2-reward.PNG"">","null","","","","","","",""
"null","","html-keyboard-response","7","92291","0.0-2.0-2.1","","<div style=""font-size:60px;"">+</div>","null","","","","","","",""
"376.7050000024028","","image-keyboard-response","8","92669","0.0-2.0-0.2","","img/test1.PNG","32","practice","32","true","","","",""
"null","","html-keyboard-response","9","93682","0.0-2.0-1.2","","<img src=""img/test1-reward.PNG"" border=""10px; grey"">","null","","","","","","",""
"null","","html-keyboard-response","10","94690","0.0-2.0-2.2","","<div style=""font-size:60px;"">+</div>","null","","","","","","",""
"770.3099999926053","","image-keyboard-response","11","95461","0.0-2.0-0.3","","img/test1.PNG","32","practice","32","true","","","",""
"null","","html-keyboard-response","12","96467","0.0-2.0-1.3","","<img src=""img/test1-reward.PNG"" border=""10px; grey"">","null","","","","","","",""
"null","","html-keyboard-response","13","97472","0.0-2.0-2.3","","<div style=""font-size:60px;"">+</div>","null","","","","","","",""
"1328.3400000073016","","image-keyboard-response","14","98803","0.0-2.0-0.4","","img/test3.PNG","32","practice","null","false","","","",""
"null","","html-keyboard-response","15","99807","0.0-2.0-1.4","","<img src=""img/test3-neutral.PNG"" border=""10px; grey"">","null","","","","","","",""
"null","","html-keyboard-response","16","100812","0.0-2.0-2.4","","<div style=""font-size:60px;"">+</div>","null","","","","","","",""
"null","","image-keyboard-response","17","102325","0.0-2.0-0.5","","img/test2.PNG","null","practice","null","true","","","",""
"null","","html-keyboard-response","18","103327","0.0-2.0-1.5","","<img src=""img/test2-reward.PNG"">","null","","","","","","",""
"null","","html-keyboard-response","19","104328","0.0-2.0-2.5","","<div style=""font-size:60px;"">+</div>","null","","","","","","",""
"414.10500000347383","","image-keyboard-response","20","104744","0.0-2.0-0.6","","img/test1.PNG","32","practice","32","true","","","",""
"null","","html-keyboard-response","21","105747","0.0-2.0-1.6","","<img src=""img/test1-reward.PNG"" border=""10px; grey"">","null","","","","","","",""
"null","","html-keyboard-response","22","106749","0.0-2.0-2.6","","<div style=""font-size:60px;"">+</div>","null","","","","","","",""
"null","","image-keyboard-response","23","108257","0.0-2.0-0.7","","img/test3.PNG","null","practice","null","true","","","",""
"null","","html-keyboard-response","24","109261","0.0-2.0-1.7","","<img src=""img/test3-reward.PNG"">","null","","","","","","",""
"null","","html-keyboard-response","25","110264","0.0-2.0-2.7","","<div style=""font-size:60px;"">+</div>","null","","","","","","",""
"null","","image-keyboard-response","26","111768","0.0-2.0-0.8","","img/test2.PNG","null","practice","null","true","","","",""
"null","","html-keyboard-response","27","112772","0.0-2.0-1.8","","<img src=""img/test2-reward.PNG"">","null","","","","","","",""
"null","","html-keyboard-response","28","113774","0.0-2.0-2.8","","<div style=""font-size:60px;"">+</div>","null","","","","","","",""
"null","","image-keyboard-response","29","115285","0.0-2.0-0.9","","img/test3.PNG","null","practice","null","true","","","",""
"null","","html-keyboard-response","30","116294","0.0-2.0-1.9","","<img src=""img/test3-reward.PNG"">","null","","","","","","",""
"null","","html-keyboard-response","31","117304","0.0-2.0-2.9","","<div style=""font-size:60px;"">+</div>","null","","","","","","",""
"null","","image-keyboard-response","32","118814","0.0-2.0-0.10","","img/test2.PNG","null","practice","null","true","","","",""
"null","","html-keyboard-response","33","119820","0.0-2.0-1.10","","<img src=""img/test2-reward.PNG"">","null","","","","","","",""
"null","","html-keyboard-response","34","120825","0.0-2.0-2.10","","<div style=""font-size:60px;"">+</div>","null","","","","","","",""
"475.5750000185799","","image-keyboard-response","35","121302","0.0-2.0-0.11","","img/test1.PNG","32","practice","32","true","","","",""
"null","","html-keyboard-response","36","122315","0.0-2.0-1.11","","<img src=""img/test1-reward.PNG"" border=""10px; grey"">","null","","","","","","",""
"null","","html-keyboard-response","37","123327","0.0-2.0-2.11","","<div style=""font-size:60px;"">+</div>","null","","","","","","",""
"2478.064999973867","","instructions","38","125806","0.0-3.0","[{""page_index"":0,""viewing_time"":2477.744999981951}]","","","","","","","","",""
"898.7900000065565","","image-keyboard-response","39","126706","0.0-4.0-0.0","","img/purple.png","32","trial","32","true","0.8,0.2","1:go_a","",""
"null","","html-keyboard-response","40","127711","0.0-4.0-1.0","","<img src=""img/purple-r.png"" border=""10"">","null","trial","32","","0.8,0.2","1:go_a","1",""
"null","","html-keyboard-response","41","128719","0.0-4.0-2.0","","<div style=""font-size:60px;"">+</div>","null","","","","","","",""
"406.8800000241026","","image-keyboard-response","42","129127","0.0-4.0-0.1","","img/orange.png","32","trial","null","false","0.2,0.8","2:nogo_b","",""
"null","","html-keyboard-response","43","130144","0.0-4.0-1.1","","<img src=""img/orange-n.png"" border=""10"">","null","trial","null","","0.2,0.8","2:nogo_b","0",""
"null","","html-keyboard-response","44","131148","0.0-4.0-2.1","","<div style=""font-size:60px;"">+</div>","null","","","","","","",""
"498.06499999249354","","image-keyboard-response","45","131647","0.0-4.0-0.2","","img/purple.png","32","trial","32","true","0.8,0.2","1:go_a","",""
"null","","html-keyboard-response","46","132662","0.0-4.0-1.2","","<img src=""img/purple-r.png"" border=""10"">","null","trial","32","","0.8,0.2","1:go_a","1",""
"null","","html-keyboard-response","47","133671","0.0-4.0-2.2","","<div style=""font-size:60px;"">+</div>","null","","","","","","",""
"null","","image-keyboard-response","48","135180","0.0-4.0-0.3","","img/orange.png","null","trial","null","true","0.2,0.8","2:nogo_b","",""
"null","","html-keyboard-response","49","136186","0.0-4.0-1.3","","<img src=""img/orange-r.png"">","null","trial","null","","0.2,0.8","2:nogo_b","1",""
"null","","html-keyboard-response","50","137189","0.0-4.0-2.3","","<div style=""font-size:60px;"">+</div>","null","","","","","","",""
"null","","image-keyboard-response","51","138693","0.0-4.0-0.4","","img/orange.png","null","trial","null","true","0.2,0.8","2:nogo_b","",""
"null","","html-keyboard-response","52","139705","0.0-4.0-1.4","","<img src=""img/orange-n.png"">","null","trial","null","","0.2,0.8","2:nogo_b","0",""
"null","","html-keyboard-response","53","140708","0.0-4.0-2.4","","<div style=""font-size:60px;"">+</div>","null","","","","","","",""
"405.16999998362735","","image-keyboard-response","54","141115","0.0-4.0-0.5","","img/purple.png","32","trial","32","true","0.8,0.2","1:go_a","",""
"null","","html-keyboard-response","55","142123","0.0-4.0-1.5","","<img src=""img/purple-r.png"" border=""10"">","null","trial","32","","0.8,0.2","1:go_a","1",""
"null","","html-keyboard-response","56","143131","0.0-4.0-2.5","","<div style=""font-size:60px;"">+</div>","null","","","","","","",""
"450.459999992745","","image-keyboard-response","57","143583","0.0-4.0-0.6","","img/purple.png","32","trial","32","true","0.8,0.2","1:go_a","",""
"null","","html-keyboard-response","58","144591","0.0-4.0-1.6","","<img src=""img/purple-r.png"" border=""10"">","null","trial","32","","0.8,0.2","1:go_a","1",""
"null","","html-keyboard-response","59","145597","0.0-4.0-2.6","","<div style=""font-size:60px;"">+</div>","null","","","","","","",""
"null","","image-keyboard-response","60","147105","0.0-4.0-0.7","","img/orange.png","null","trial","null","true","0.2,0.8","2:nogo_b","",""
"null","","html-keyboard-response","61","148117","0.0-4.0-1.7","","<img src=""img/orange-n.png"">","null","trial","null","","0.2,0.8","2:nogo_b","0",""
"null","","html-keyboard-response","62","149122","0.0-4.0-2.7","","<div style=""font-size:60px;"">+</div>","null","","","","","","",""
"509.82499998644926","","image-keyboard-response","63","149634","0.0-4.0-0.8","","img/orange.png","32","trial","null","false","0.2,0.8","2:nogo_b","",""
"null","","html-keyboard-response","64","150647","0.0-4.0-1.8","","<img src=""img/orange-r.png"" border=""10"">","null","trial","null","","0.2,0.8","2:nogo_b","1",""
"null","","html-keyboard-response","65","151657","0.0-4.0-2.8","","<div style=""font-size:60px;"">+</div>","null","","","","","","",""
"556.060000002617","","image-keyboard-response","66","152214","0.0-4.0-0.9","","img/purple.png","32","trial","32","true","0.8,0.2","1:go_a","",""
"null","","html-keyboard-response","67","153218","0.0-4.0-1.9","","<img src=""img/purple-n.png"" border=""10"">","null","trial","32","","0.8,0.2","1:go_a","0",""
"null","","html-keyboard-response","68","154229","0.0-4.0-2.9","","<div style=""font-size:60px;"">+</div>","null","","","","","","",""
"665.1299999793991","","image-keyboard-response","69","154896","0.0-4.0-0.10","","img/purple.png","32","trial","32","true","0.8,0.2","1:go_a","",""
"null","","html-keyboard-response","70","155904","0.0-4.0-1.10","","<img src=""img/purple-n.png"" border=""10"">","null","trial","32","","0.8,0.2","1:go_a","0",""
"null","","html-keyboard-response","71","156910","0.0-4.0-2.10","","<div style=""font-size:60px;"">+</div>","null","","","","","","",""
"622.9049999965355","","image-keyboard-response","72","157534","0.0-4.0-0.11","","img/orange.png","32","trial","null","false","0.2,0.8","2:nogo_b","",""
"null","","html-keyboard-response","73","158541","0.0-4.0-1.11","","<img src=""img/orange-n.png"" border=""10"">","null","trial","null","","0.2,0.8","2:nogo_b","0",""
"null","","html-keyboard-response","74","159557","0.0-4.0-2.11","","<div style=""font-size:60px;"">+</div>","null","","","","","","",""
"1294.5150000159629","","image-keyboard-response","75","160853","0.0-4.0-0.12","","img/purple.png","32","trial","32","true","0.8,0.2","1:go_a","",""
"null","","html-keyboard-response","76","161870","0.0-4.0-1.12","","<img src=""img/purple-r.png"" border=""10"">","null","trial","32","","0.8,0.2","1:go_a","1",""
"null","","html-keyboard-response","77","162874","0.0-4.0-2.12","","<div style=""font-size:60px;"">+</div>","null","","","","","","",""
"670.1750000065658","","image-keyboard-response","78","163545","0.0-4.0-0.13","","img/orange.png","32","trial","null","false","0.2,0.8","2:nogo_b","",""
"null","","html-keyboard-response","79","164554","0.0-4.0-1.13","","<img src=""img/orange-n.png"" border=""10"">","null","trial","null","","0.2,0.8","2:nogo_b","0",""
"null","","html-keyboard-response","80","165560","0.0-4.0-2.13","","<div style=""font-size:60px;"">+</div>","null","","","","","","",""
"812.6550000160933","","image-keyboard-response","81","166374","0.0-4.0-0.14","","img/purple.png","32","trial","32","true","0.8,0.2","1:go_a","",""
"null","","html-keyboard-response","82","167385","0.0-4.0-1.14","","<img src=""img/purple-r.png"" border=""10"">","null","trial","32","","0.8,0.2","1:go_a","1",""
"null","","html-keyboard-response","83","168397","0.0-4.0-2.14","","<div style=""font-size:60px;"">+</div>","null","","","","","","",""
"null","","image-keyboard-response","84","169905","0.0-4.0-0.15","","img/orange.png","null","trial","null","true","0.2,0.8","2:nogo_b","",""
"null","","html-keyboard-response","85","170907","0.0-4.0-1.15","","<img src=""img/orange-r.png"">","null","trial","null","","0.2,0.8","2:nogo_b","1",""
"null","","html-keyboard-response","86","171913","0.0-4.0-2.15","","<div style=""font-size:60px;"">+</div>","null","","","","","","",""
"384.2249999870546","","image-keyboard-response","87","172298","0.0-4.0-0.16","","img/purple.png","32","trial","32","true","0.8,0.2","1:go_a","",""
"null","","html-keyboard-response","88","173302","0.0-4.0-1.16","","<img src=""img/purple-n.png"" border=""10"">","null","trial","32","","0.8,0.2","1:go_a","0",""
"null","","html-keyboard-response","89","174308","0.0-4.0-2.16","","<div style=""font-size:60px;"">+</div>","null","","","","","","",""
"null","","image-keyboard-response","90","175811","0.0-4.0-0.17","","img/orange.png","null","trial","null","true","0.2,0.8","2:nogo_b","",""
"null","","html-keyboard-response","91","176816","0.0-4.0-1.17","","<img src=""img/orange-r.png"">","null","trial","null","","0.2,0.8","2:nogo_b","1",""
"null","","html-keyboard-response","92","177822","0.0-4.0-2.17","","<div style=""font-size:60px;"">+</div>","null","","","","","","",""
"422.4650000105612","","image-keyboard-response","93","178246","0.0-4.0-0.18","","img/purple.png","32","trial","32","true","0.8,0.2","1:go_a","",""
"null","","html-keyboard-response","94","179255","0.0-4.0-1.18","","<img src=""img/purple-r.png"" border=""10"">","null","trial","32","","0.8,0.2","1:go_a","1",""
"null","","html-keyboard-response","95","180258","0.0-4.0-2.18","","<div style=""font-size:60px;"">+</div>","null","","","","","","",""
"1039.9650000035763","","image-keyboard-response","96","181300","0.0-4.0-0.19","","img/orange.png","32","trial","null","false","0.2,0.8","2:nogo_b","",""
"null","","html-keyboard-response","97","182317","0.0-4.0-1.19","","<img src=""img/orange-n.png"" border=""10"">","null","trial","null","","0.2,0.8","2:nogo_b","0",""
"null","","html-keyboard-response","98","183319","0.0-4.0-2.19","","<div style=""font-size:60px;"">+</div>","null","","","","","","",""
"null","","image-keyboard-response","99","184826","0.0-4.0-0.20","","img/orange.png","null","trial","null","true","0.2,0.8","2:nogo_b","",""
"null","","html-keyboard-response","100","185835","0.0-4.0-1.20","","<img src=""img/orange-n.png"">","null","trial","null","","0.2,0.8","2:nogo_b","0",""
"null","","html-keyboard-response","101","186843","0.0-4.0-2.20","","<div style=""font-size:60px;"">+</div>","null","","","","","","",""
"338.194999989355","","image-keyboard-response","102","187183","0.0-4.0-0.21","","img/purple.png","32","trial","32","true","0.8,0.2","1:go_a","",""
"null","","html-keyboard-response","103","188197","0.0-4.0-1.21","","<img src=""img/purple-n.png"" border=""10"">","null","trial","32","","0.8,0.2","1:go_a","0",""
"null","","html-keyboard-response","104","189205","0.0-4.0-2.21","","<div style=""font-size:60px;"">+</div>","null","","","","","","",""
"564.539999992121","","image-keyboard-response","105","189771","0.0-4.0-0.22","","img/purple.png","32","trial","32","true","0.8,0.2","1:go_a","",""
"null","","html-keyboard-response","106","190777","0.0-4.0-1.22","","<img src=""img/purple-r.png"" border=""10"">","null","trial","32","","0.8,0.2","1:go_a","1",""
"null","","html-keyboard-response","107","191781","0.0-4.0-2.22","","<div style=""font-size:60px;"">+</div>","null","","","","","","",""
"1094.8799999896437","","image-keyboard-response","108","192877","0.0-4.0-0.23","","img/orange.png","32","trial","null","false","0.2,0.8","2:nogo_b","",""
"null","","html-keyboard-response","109","193884","0.0-4.0-1.23","","<img src=""img/orange-n.png"" border=""10"">","null","trial","null","","0.2,0.8","2:nogo_b","0",""
"null","","html-keyboard-response","110","194886","0.0-4.0-2.23","","<div style=""font-size:60px;"">+</div>","null","","","","","","",""
"886.7900000186637","","image-keyboard-response","111","195774","0.0-4.0-0.24","","img/orange.png","32","trial","null","false","0.2,0.8","2:nogo_b","",""
"null","","html-keyboard-response","112","196779","0.0-4.0-1.24","","<img src=""img/orange-n.png"" border=""10"">","null","trial","null","","0.2,0.8","2:nogo_b","0",""
"null","","html-keyboard-response","113","197780","0.0-4.0-2.24","","<div style=""font-size:60px;"">+</div>","null","","","","","","",""
"1510.61500000651","","image-keyboard-response","114","199292","0.0-4.0-0.25","","img/purple.png","32","trial","32","true","0.8,0.2","1:go_a","",""
"null","","html-keyboard-response","115","200304","0.0-4.0-1.25","","<img src=""img/purple-r.png"" border=""10"">","null","trial","32","","0.8,0.2","1:go_a","1",""
"null","","html-keyboard-response","116","201319","0.0-4.0-2.25","","<div style=""font-size:60px;"">+</div>","null","","","","","","",""
"null","","image-keyboard-response","117","202821","0.0-4.0-0.26","","img/purple.png","null","trial","32","false","0.8,0.2","1:go_a","",""
"null","","html-keyboard-response","118","203824","0.0-4.0-1.26","","<img src=""img/purple-n.png"">","null","trial","32","","0.8,0.2","1:go_a","0",""
"null","","html-keyboard-response","119","204834","0.0-4.0-2.26","","<div style=""font-size:60px;"">+</div>","null","","","","","","",""
"770.3700000129174","","image-keyboard-response","120","205605","0.0-4.0-0.27","","img/orange.png","32","trial","null","false","0.2,0.8","2:nogo_b","",""
"null","","html-keyboard-response","121","206612","0.0-4.0-1.27","","<img src=""img/orange-n.png"" border=""10"">","null","trial","null","","0.2,0.8","2:nogo_b","0",""
"null","","html-keyboard-response","122","207624","0.0-4.0-2.27","","<div style=""font-size:60px;"">+</div>","null","","","","","","",""
"556.7049999954179","","image-keyboard-response","123","208182","0.0-4.0-0.28","","img/purple.png","32","trial","32","true","0.8,0.2","1:go_a","",""
"null","","html-keyboard-response","124","209191","0.0-4.0-1.28","","<img src=""img/purple-n.png"" border=""10"">","null","trial","32","","0.8,0.2","1:go_a","0",""
"null","","html-keyboard-response","125","210199","0.0-4.0-2.28","","<div style=""font-size:60px;"">+</div>","null","","","","","","",""
"761.5150000201538","","image-keyboard-response","126","210962","0.0-4.0-0.29","","img/orange.png","32","trial","null","false","0.2,0.8","2:nogo_b","",""
"null","","html-keyboard-response","127","211965","0.0-4.0-1.29","","<img src=""img/orange-n.png"" border=""10"">","null","trial","null","","0.2,0.8","2:nogo_b","0",""
"null","","html-keyboard-response","128","212974","0.0-4.0-2.29","","<div style=""font-size:60px;"">+</div>","null","","","","","","",""
"null","","image-keyboard-response","129","214483","0.0-4.0-0.30","","img/orange.png","null","trial","null","true","0.2,0.8","2:nogo_b","",""
"null","","html-keyboard-response","130","215485","0.0-4.0-1.30","","<img src=""img/orange-r.png"">","null","trial","null","","0.2,0.8","2:nogo_b","1",""
"null","","html-keyboard-response","131","216489","0.0-4.0-2.30","","<div style=""font-size:60px;"">+</div>","null","","","","","","",""
"335.55499999783933","","image-keyboard-response","132","216826","0.0-4.0-0.31","","img/purple.png","32","trial","32","true","0.8,0.2","1:go_a","",""
"null","","html-keyboard-response","133","217830","0.0-4.0-1.31","","<img src=""img/purple-n.png"" border=""10"">","null","trial","32","","0.8,0.2","1:go_a","0",""
"null","","html-keyboard-response","134","218837","0.0-4.0-2.31","","<div style=""font-size:60px;"">+</div>","null","","","","","","",""
"479.8000000009779","","image-keyboard-response","135","219318","0.0-4.0-0.32","","img/purple.png","32","trial","32","true","0.8,0.2","1:go_a","",""
"null","","html-keyboard-response","136","220329","0.0-4.0-1.32","","<img src=""img/purple-r.png"" border=""10"">","null","trial","32","","0.8,0.2","1:go_a","1",""
"null","","html-keyboard-response","137","221343","0.0-4.0-2.32","","<div style=""font-size:60px;"">+</div>","null","","","","","","",""
"null","","image-keyboard-response","138","222851","0.0-4.0-0.33","","img/orange.png","null","trial","null","true","0.2,0.8","2:nogo_b","",""
"null","","html-keyboard-response","139","223858","0.0-4.0-1.33","","<img src=""img/orange-r.png"">","null","trial","null","","0.2,0.8","2:nogo_b","1",""
"null","","html-keyboard-response","140","224859","0.0-4.0-2.33","","<div style=""font-size:60px;"">+</div>","null","","","","","","",""
"null","","image-keyboard-response","141","226367","0.0-4.0-0.34","","img/purple.png","null","trial","32","false","0.8,0.2","1:go_a","",""
"null","","html-keyboard-response","142","227382","0.0-4.0-1.34","","<img src=""img/purple-n.png"">","null","trial","32","","0.8,0.2","1:go_a","0",""
"null","","html-keyboard-response","143","228387","0.0-4.0-2.34","","<div style=""font-size:60px;"">+</div>","null","","","","","","",""
"null","","image-keyboard-response","144","229892","0.0-4.0-0.35","","img/orange.png","null","trial","null","true","0.2,0.8","2:nogo_b","",""
"null","","html-keyboard-response","145","230897","0.0-4.0-1.35","","<img src=""img/orange-r.png"">","null","trial","null","","0.2,0.8","2:nogo_b","1",""
"null","","html-keyboard-response","146","231903","0.0-4.0-2.35","","<div style=""font-size:60px;"">+</div>","null","","","","","","",""
"751.3500000059139","","image-keyboard-response","147","232655","0.0-4.0-0.36","","img/purple.png","32","trial","32","true","0.8,0.2","1:go_a","",""
"null","","html-keyboard-response","148","233665","0.0-4.0-1.36","","<img src=""img/purple-r.png"" border=""10"">","null","trial","32","","0.8,0.2","1:go_a","1",""
"null","","html-keyboard-response","149","234678","0.0-4.0-2.36","","<div style=""font-size:60px;"">+</div>","null","","","","","","",""
"null","","image-keyboard-response","150","236187","0.0-4.0-0.37","","img/orange.png","null","trial","null","true","0.2,0.8","2:nogo_b","",""
"null","","html-keyboard-response","151","237193","0.0-4.0-1.37","","<img src=""img/orange-r.png"">","null","trial","null","","0.2,0.8","2:nogo_b","1",""
"null","","html-keyboard-response","152","238195","0.0-4.0-2.37","","<div style=""font-size:60px;"">+</div>","null","","","","","","",""
"null","","image-keyboard-response","153","239700","0.0-4.0-0.38","","img/purple.png","null","trial","32","false","0.8,0.2","1:go_a","",""
"null","","html-keyboard-response","154","240707","0.0-4.0-1.38","","<img src=""img/purple-n.png"">","null","trial","32","","0.8,0.2","1:go_a","0",""
"null","","html-keyboard-response","155","241709","0.0-4.0-2.38","","<div style=""font-size:60px;"">+</div>","null","","","","","","",""
"1159.299999999348","","image-keyboard-response","156","242870","0.0-4.0-0.39","","img/orange.png","32","trial","null","false","0.2,0.8","2:nogo_b","",""
"null","","html-keyboard-response","157","243879","0.0-4.0-1.39","","<img src=""img/orange-n.png"" border=""10"">","null","trial","null","","0.2,0.8","2:nogo_b","0",""
"null","","html-keyboard-response","158","244881","0.0-4.0-2.39","","<div style=""font-size:60px;"">+</div>","null","","","","","","",""
"542.8549999778625","","image-keyboard-response","159","245426","0.0-4.0-0.40","","img/orange.png","32","trial","null","false","0.2,0.8","2:nogo_b","",""
"null","","html-keyboard-response","160","246430","0.0-4.0-1.40","","<img src=""img/orange-n.png"" border=""10"">","null","trial","null","","0.2,0.8","2:nogo_b","0",""
"null","","html-keyboard-response","161","247435","0.0-4.0-2.40","","<div style=""font-size:60px;"">+</div>","null","","","","","","",""
"774.3950000149198","","image-keyboard-response","162","248211","0.0-4.0-0.41","","img/purple.png","32","trial","32","true","0.8,0.2","1:go_a","",""
"null","","html-keyboard-response","163","249225","0.0-4.0-1.41","","<img src=""img/purple-r.png"" border=""10"">","null","trial","32","","0.8,0.2","1:go_a","1",""
"null","","html-keyboard-response","164","250232","0.0-4.0-2.41","","<div style=""font-size:60px;"">+</div>","null","","","","","","",""
"1201.1649999767542","","image-keyboard-response","165","251434","0.0-4.0-0.42","","img/orange.png","32","trial","null","false","0.2,0.8","2:nogo_b","",""
"null","","html-keyboard-response","166","252439","0.0-4.0-1.42","","<img src=""img/orange-n.png"" border=""10"">","null","trial","null","","0.2,0.8","2:nogo_b","0",""
"null","","html-keyboard-response","167","253443","0.0-4.0-2.42","","<div style=""font-size:60px;"">+</div>","null","","","","","","",""
"780.0700000079814","","image-keyboard-response","168","254224","0.0-4.0-0.43","","img/purple.png","32","trial","32","true","0.8,0.2","1:go_a","",""
"null","","html-keyboard-response","169","255231","0.0-4.0-1.43","","<img src=""img/purple-n.png"" border=""10"">","null","trial","32","","0.8,0.2","1:go_a","0",""
"null","","html-keyboard-response","170","256239","0.0-4.0-2.43","","<div style=""font-size:60px;"">+</div>","null","","","","","","",""
"null","","image-keyboard-response","171","257747","0.0-4.0-0.44","","img/purple.png","null","trial","32","false","0.8,0.2","1:go_a","",""
"null","","html-keyboard-response","172","258751","0.0-4.0-1.44","","<img src=""img/purple-n.png"">","null","trial","32","","0.8,0.2","1:go_a","0",""
"null","","html-keyboard-response","173","259758","0.0-4.0-2.44","","<div style=""font-size:60px;"">+</div>","null","","","","","","",""
"446.3349999859929","","image-keyboard-response","174","260206","0.0-4.0-0.45","","img/orange.png","32","trial","null","false","0.2,0.8","2:nogo_b","",""
"null","","html-keyboard-response","175","261216","0.0-4.0-1.45","","<img src=""img/orange-n.png"" border=""10"">","null","trial","null","","0.2,0.8","2:nogo_b","0",""
"null","","html-keyboard-response","176","262224","0.0-4.0-2.45","","<div style=""font-size:60px;"">+</div>","null","","","","","","",""
"493.14000000595115","","image-keyboard-response","177","262718","0.0-4.0-0.46","","img/orange.png","32","trial","null","false","0.2,0.8","2:nogo_b","",""
"null","","html-keyboard-response","178","263725","0.0-4.0-1.46","","<img src=""img/orange-n.png"" border=""10"">","null","trial","null","","0.2,0.8","2:nogo_b","0",""
"null","","html-keyboard-response","179","264731","0.0-4.0-2.46","","<div style=""font-size:60px;"">+</div>","null","","","","","","",""
"696.204999985639","","image-keyboard-response","180","265429","0.0-4.0-0.47","","img/purple.png","32","trial","32","true","0.8,0.2","1:go_a","",""
"null","","html-keyboard-response","181","266439","0.0-4.0-1.47","","<img src=""img/purple-r.png"" border=""10"">","null","trial","32","","0.8,0.2","1:go_a","1",""
"null","","html-keyboard-response","182","267447","0.0-4.0-2.47","","<div style=""font-size:60px;"">+</div>","null","","","","","","",""
"null","","image-keyboard-response","183","268953","0.0-4.0-0.48","","img/orange.png","null","trial","null","true","0.2,0.8","2:nogo_b","",""
"null","","html-keyboard-response","184","269957","0.0-4.0-1.48","","<img src=""img/orange-r.png"">","null","trial","null","","0.2,0.8","2:nogo_b","1",""
"null","","html-keyboard-response","185","270959","0.0-4.0-2.48","","<div style=""font-size:60px;"">+</div>","null","","","","","","",""
"532.2100000048522","","image-keyboard-response","186","271493","0.0-4.0-0.49","","img/purple.png","32","trial","32","true","0.8,0.2","1:go_a","",""
"null","","html-keyboard-response","187","272503","0.0-4.0-1.49","","<img src=""img/purple-r.png"" border=""10"">","null","trial","32","","0.8,0.2","1:go_a","1",""
"null","","html-keyboard-response","188","273519","0.0-4.0-2.49","","<div style=""font-size:60px;"">+</div>","null","","","","","","",""
"null","","image-keyboard-response","189","275024","0.0-4.0-0.50","","img/orange.png","null","trial","null","true","0.2,0.8","2:nogo_b","",""
"null","","html-keyboard-response","190","276028","0.0-4.0-1.50","","<img src=""img/orange-r.png"">","null","trial","null","","0.2,0.8","2:nogo_b","1",""
"null","","html-keyboard-response","191","277033","0.0-4.0-2.50","","<div style=""font-size:60px;"">+</div>","null","","","","","","",""
"400.3049999882933","","image-keyboard-response","192","277434","0.0-4.0-0.51","","img/purple.png","32","trial","32","true","0.8,0.2","1:go_a","",""
"null","","html-keyboard-response","193","278437","0.0-4.0-1.51","","<img src=""img/purple-r.png"" border=""10"">","null","trial","32","","0.8,0.2","1:go_a","1",""
"null","","html-keyboard-response","194","279443","0.0-4.0-2.51","","<div style=""font-size:60px;"">+</div>","null","","","","","","",""
"null","","image-keyboard-response","195","280945","0.0-4.0-0.52","","img/orange.png","null","trial","null","true","0.2,0.8","2:nogo_b","",""
"null","","html-keyboard-response","196","281947","0.0-4.0-1.52","","<img src=""img/orange-r.png"">","null","trial","null","","0.2,0.8","2:nogo_b","1",""
"null","","html-keyboard-response","197","282955","0.0-4.0-2.52","","<div style=""font-size:60px;"">+</div>","null","","","","","","",""
"1073.6249999899883","","image-keyboard-response","198","284030","0.0-4.0-0.53","","img/purple.png","32","trial","32","true","0.8,0.2","1:go_a","",""
"null","","html-keyboard-response","199","285036","0.0-4.0-1.53","","<img src=""img/purple-n.png"" border=""10"">","null","trial","32","","0.8,0.2","1:go_a","0",""
"null","","html-keyboard-response","200","286053","0.0-4.0-2.53","","<div style=""font-size:60px;"">+</div>","null","","","","","","",""
"1285.7399999920744","","image-keyboard-response","201","287340","0.0-4.0-0.54","","img/purple.png","32","trial","32","true","0.8,0.2","1:go_a","",""
"null","","html-keyboard-response","202","288343","0.0-4.0-1.54","","<img src=""img/purple-r.png"" border=""10"">","null","trial","32","","0.8,0.2","1:go_a","1",""
"null","","html-keyboard-response","203","289351","0.0-4.0-2.54","","<div style=""font-size:60px;"">+</div>","null","","","","","","",""
"null","","image-keyboard-response","204","290859","0.0-4.0-0.55","","img/orange.png","null","trial","null","true","0.2,0.8","2:nogo_b","",""
"null","","html-keyboard-response","205","291863","0.0-4.0-1.55","","<img src=""img/orange-r.png"">","null","trial","null","","0.2,0.8","2:nogo_b","1",""
"null","","html-keyboard-response","206","292872","0.0-4.0-2.55","","<div style=""font-size:60px;"">+</div>","null","","","","","","",""
"1111.2399999983609","","image-keyboard-response","207","293984","0.0-4.0-0.56","","img/orange.png","32","trial","null","false","0.2,0.8","2:nogo_b","",""
"null","","html-keyboard-response","208","294993","0.0-4.0-1.56","","<img src=""img/orange-r.png"" border=""10"">","null","trial","null","","0.2,0.8","2:nogo_b","1",""
"null","","html-keyboard-response","209","295996","0.0-4.0-2.56","","<div style=""font-size:60px;"">+</div>","null","","","","","","",""
"null","","image-keyboard-response","210","297503","0.0-4.0-0.57","","img/purple.png","null","trial","32","false","0.8,0.2","1:go_a","",""
"null","","html-keyboard-response","211","298521","0.0-4.0-1.57","","<img src=""img/purple-n.png"">","null","trial","32","","0.8,0.2","1:go_a","0",""
"null","","html-keyboard-response","212","299523","0.0-4.0-2.57","","<div style=""font-size:60px;"">+</div>","null","","","","","","",""
"475.5099999892991","","image-keyboard-response","213","300000","0.0-4.0-0.58","","img/purple.png","32","trial","32","true","0.8,0.2","1:go_a","",""
"null","","html-keyboard-response","214","301006","0.0-4.0-1.58","","<img src=""img/purple-r.png"" border=""10"">","null","trial","32","","0.8,0.2","1:go_a","1",""
"null","","html-keyboard-response","215","302009","0.0-4.0-2.58","","<div style=""font-size:60px;"">+</div>","null","","","","","","",""
"null","","image-keyboard-response","216","303515","0.0-4.0-0.59","","img/orange.png","null","trial","null","true","0.2,0.8","2:nogo_b","",""
"null","","html-keyboard-response","217","304521","0.0-4.0-1.59","","<img src=""img/orange-r.png"">","null","trial","null","","0.2,0.8","2:nogo_b","1",""
"null","","html-keyboard-response","218","305525","0.0-4.0-2.59","","<div style=""font-size:60px;"">+</div>","null","","","","","","",""
"2922.984999982873","","instructions","219","308448","0.0-5.0","[{""page_index"":0,""viewing_time"":2922.4649999814574}]","","","","","","","","",""
"797.5999999907799","","image-keyboard-response","220","309248","0.0-6.0-0.0","","img/orange.png","32","trial","32","true","0.8,0.2","1:go_a","",""
"null","","html-keyboard-response","221","310253","0.0-6.0-1.0","","<img src=""img/orange-r.png"" border=""10"">","null","trial","32","","0.8,0.2","1:go_a","1",""
"null","","html-keyboard-response","222","311256","0.0-6.0-2.0","","<div style=""font-size:60px;"">+</div>","null","","","","","","",""
"null","","image-keyboard-response","223","312764","0.0-6.0-0.1","","img/pink.png","null","trial","null","true","0,1","4:nogo_d","",""
"null","","html-keyboard-response","224","313768","0.0-6.0-1.1","","<img src=""img/pink-r.png"">","null","trial","null","","0,1","4:nogo_d","1",""
"null","","html-keyboard-response","225","314778","0.0-6.0-2.1","","<div style=""font-size:60px;"">+</div>","null","","","","","","",""
"475.47999999369495","","image-keyboard-response","226","315255","0.0-6.0-0.2","","img/purple.png","32","trial","null","false","0.2,0.8","2:nogo_b","",""
"null","","html-keyboard-response","227","316258","0.0-6.0-1.2","","<img src=""img/purple-n.png"" border=""10"">","null","trial","null","","0.2,0.8","2:nogo_b","0",""
"null","","html-keyboard-response","228","317268","0.0-6.0-2.2","","<div style=""font-size:60px;"">+</div>","null","","","","","","",""
"null","","image-keyboard-response","229","318777","0.0-6.0-0.3","","img/red.png","null","trial","32","false","1,0","3:go_c","",""
"null","","html-keyboard-response","230","319785","0.0-6.0-1.3","","<img src=""img/red-n.png"">","null","trial","32","","1,0","3:go_c","0",""
"null","","html-keyboard-response","231","320787","0.0-6.0-2.3","","<div style=""font-size:60px;"">+</div>","null","","","","","","",""
"403.3950000011828","","image-keyboard-response","232","321191","0.0-6.0-0.4","","img/orange.png","32","trial","32","true","0.8,0.2","1:go_a","",""
"null","","html-keyboard-response","233","322195","0.0-6.0-1.4","","<img src=""img/orange-r.png"" border=""10"">","null","trial","32","","0.8,0.2","1:go_a","1",""
"null","","html-keyboard-response","234","323199","0.0-6.0-2.4","","<div style=""font-size:60px;"">+</div>","null","","","","","","",""
"775.9650000080001","","image-keyboard-response","235","323976","0.0-6.0-0.5","","img/red.png","32","trial","32","true","1,0","3:go_c","",""
"null","","html-keyboard-response","236","324986","0.0-6.0-1.5","","<img src=""img/red-r.png"" border=""10"">","null","trial","32","","1,0","3:go_c","1",""
"null","","html-keyboard-response","237","325993","0.0-6.0-2.5","","<div style=""font-size:60px;"">+</div>","null","","","","","","",""
"null","","image-keyboard-response","238","327497","0.0-6.0-0.6","","img/purple.png","null","trial","null","true","0.2,0.8","2:nogo_b","",""
"null","","html-keyboard-response","239","328509","0.0-6.0-1.6","","<img src=""img/purple-r.png"">","null","trial","null","","0.2,0.8","2:nogo_b","1",""
"null","","html-keyboard-response","240","329521","0.0-6.0-2.6","","<div style=""font-size:60px;"">+</div>","null","","","","","","",""
"861.5500000014435","","image-keyboard-response","241","330384","0.0-6.0-0.7","","img/pink.png","32","trial","null","false","0,1","4:nogo_d","",""
"null","","html-keyboard-response","242","331392","0.0-6.0-1.7","","<img src=""img/pink-n.png"" border=""10"">","null","trial","null","","0,1","4:nogo_d","0",""
"null","","html-keyboard-response","243","332407","0.0-6.0-2.7","","<div style=""font-size:60px;"">+</div>","null","","","","","","",""
"null","","image-keyboard-response","244","333909","0.0-6.0-0.8","","img/orange.png","null","trial","32","false","0.8,0.2","1:go_a","",""
"null","","html-keyboard-response","245","334911","0.0-6.0-1.8","","<img src=""img/orange-n.png"">","null","trial","32","","0.8,0.2","1:go_a","0",""
"null","","html-keyboard-response","246","335920","0.0-6.0-2.8","","<div style=""font-size:60px;"">+</div>","null","","","","","","",""
"405.4149999865331","","image-keyboard-response","247","336327","0.0-6.0-0.9","","img/pink.png","32","trial","null","false","0,1","4:nogo_d","",""
"null","","html-keyboard-response","248","337341","0.0-6.0-1.9","","<img src=""img/pink-n.png"" border=""10"">","null","trial","null","","0,1","4:nogo_d","0",""
"null","","html-keyboard-response","249","338349","0.0-6.0-2.9","","<div style=""font-size:60px;"">+</div>","null","","","","","","",""
"480.21999999764375","","image-keyboard-response","250","338831","0.0-6.0-0.10","","img/purple.png","32","trial","null","false","0.2,0.8","2:nogo_b","",""
"null","","html-keyboard-response","251","339840","0.0-6.0-1.10","","<img src=""img/purple-r.png"" border=""10"">","null","trial","null","","0.2,0.8","2:nogo_b","1",""
"null","","html-keyboard-response","252","340856","0.0-6.0-2.10","","<div style=""font-size:60px;"">+</div>","null","","","","","","",""
"661.6999999969266","","image-keyboard-response","253","341519","0.0-6.0-0.11","","img/red.png","32","trial","32","true","1,0","3:go_c","",""
"null","","html-keyboard-response","254","342529","0.0-6.0-1.11","","<img src=""img/red-r.png"" border=""10"">","null","trial","32","","1,0","3:go_c","1",""
"null","","html-keyboard-response","255","343537","0.0-6.0-2.11","","<div style=""font-size:60px;"">+</div>","null","","","","","","",""
"650.4650000133552","","image-keyboard-response","256","344189","0.0-6.0-0.12","","img/pink.png","32","trial","null","false","0,1","4:nogo_d","",""
"null","","html-keyboard-response","257","345198","0.0-6.0-1.12","","<img src=""img/pink-n.png"" border=""10"">","null","trial","null","","0,1","4:nogo_d","0",""
"null","","html-keyboard-response","258","346203","0.0-6.0-2.12","","<div style=""font-size:60px;"">+</div>","null","","","","","","",""
"468.33000000333413","","image-keyboard-response","259","346673","0.0-6.0-0.13","","img/red.png","32","trial","32","true","1,0","3:go_c","",""
"null","","html-keyboard-response","260","347678","0.0-6.0-1.13","","<img src=""img/red-r.png"" border=""10"">","null","trial","32","","1,0","3:go_c","1",""
"null","","html-keyboard-response","261","348685","0.0-6.0-2.13","","<div style=""font-size:60px;"">+</div>","null","","","","","","",""
"516.6599999938626","","image-keyboard-response","262","349203","0.0-6.0-0.14","","img/orange.png","32","trial","32","true","0.8,0.2","1:go_a","",""
"null","","html-keyboard-response","263","350209","0.0-6.0-1.14","","<img src=""img/orange-r.png"" border=""10"">","null","trial","32","","0.8,0.2","1:go_a","1",""
"null","","html-keyboard-response","264","351212","0.0-6.0-2.14","","<div style=""font-size:60px;"">+</div>","null","","","","","","",""
"735.370000009425","","image-keyboard-response","265","351948","0.0-6.0-0.15","","img/purple.png","32","trial","null","false","0.2,0.8","2:nogo_b","",""
"null","","html-keyboard-response","266","352955","0.0-6.0-1.15","","<img src=""img/purple-n.png"" border=""10"">","null","trial","null","","0.2,0.8","2:nogo_b","0",""
"null","","html-keyboard-response","267","353965","0.0-6.0-2.15","","<div style=""font-size:60px;"">+</div>","null","","","","","","",""
"1219.7049999958836","","image-keyboard-response","268","355186","0.0-6.0-0.16","","img/pink.png","32","trial","null","false","0,1","4:nogo_d","",""
"null","","html-keyboard-response","269","356195","0.0-6.0-1.16","","<img src=""img/pink-n.png"" border=""10"">","null","trial","null","","0,1","4:nogo_d","0",""
"null","","html-keyboard-response","270","357203","0.0-6.0-2.16","","<div style=""font-size:60px;"">+</div>","null","","","","","","",""
"585.6750000093598","","image-keyboard-response","271","357783","0.0-6.0-0.17","","img/purple.png","32","trial","null","false","0.2,0.8","2:nogo_b","",""
"null","","html-keyboard-response","272","358791","0.0-6.0-1.17","","<img src=""img/purple-n.png"" border=""10"">","null","trial","null","","0.2,0.8","2:nogo_b","0",""
"null","","html-keyboard-response","273","359795","0.0-6.0-2.17","","<div style=""font-size:60px;"">+</div>","null","","","","","","",""
"472.9700000025332","","image-keyboard-response","274","360269","0.0-6.0-0.18","","img/orange.png","32","trial","32","true","0.8,0.2","1:go_a","",""
"null","","html-keyboard-response","275","361275","0.0-6.0-1.18","","<img src=""img/orange-n.png"" border=""10"">","null","trial","32","","0.8,0.2","1:go_a","0",""
"null","","html-keyboard-response","276","362291","0.0-6.0-2.18","","<div style=""font-size:60px;"">+</div>","null","","","","","","",""
"635.840000002645","","image-keyboard-response","277","362929","0.0-6.0-0.19","","img/red.png","32","trial","32","true","1,0","3:go_c","",""
"null","","html-keyboard-response","278","363942","0.0-6.0-1.19","","<img src=""img/red-r.png"" border=""10"">","null","trial","32","","1,0","3:go_c","1",""
"null","","html-keyboard-response","279","364944","0.0-6.0-2.19","","<div style=""font-size:60px;"">+</div>","null","","","","","","",""
"null","","image-keyboard-response","280","366448","0.0-6.0-0.20","","img/purple.png","null","trial","null","true","0.2,0.8","2:nogo_b","",""
"null","","html-keyboard-response","281","367452","0.0-6.0-1.20","","<img src=""img/purple-r.png"">","null","trial","null","","0.2,0.8","2:nogo_b","1",""
"null","","html-keyboard-response","282","368458","0.0-6.0-2.20","","<div style=""font-size:60px;"">+</div>","null","","","","","","",""
"null","","image-keyboard-response","283","369962","0.0-6.0-0.21","","img/orange.png","null","trial","32","false","0.8,0.2","1:go_a","",""
"null","","html-keyboard-response","284","370969","0.0-6.0-1.21","","<img src=""img/orange-n.png"">","null","trial","32","","0.8,0.2","1:go_a","0",""
"null","","html-keyboard-response","285","371977","0.0-6.0-2.21","","<div style=""font-size:60px;"">+</div>","null","","","","","","",""
"null","","image-keyboard-response","286","373486","0.0-6.0-0.22","","img/red.png","null","trial","32","false","1,0","3:go_c","",""
"null","","html-keyboard-response","287","374494","0.0-6.0-1.22","","<img src=""img/red-n.png"">","null","trial","32","","1,0","3:go_c","0",""
"null","","html-keyboard-response","288","375495","0.0-6.0-2.22","","<div style=""font-size:60px;"">+</div>","null","","","","","","",""
"495.519999996759","","image-keyboard-response","289","375992","0.0-6.0-0.23","","img/pink.png","32","trial","null","false","0,1","4:nogo_d","",""
"null","","html-keyboard-response","290","376998","0.0-6.0-1.23","","<img src=""img/pink-n.png"" border=""10"">","null","trial","null","","0,1","4:nogo_d","0",""
"null","","html-keyboard-response","291","378006","0.0-6.0-2.23","","<div style=""font-size:60px;"">+</div>","null","","","","","","",""
"1135.9250000095926","","image-keyboard-response","292","379143","0.0-6.0-0.24","","img/orange.png","32","trial","32","true","0.8,0.2","1:go_a","",""
"null","","html-keyboard-response","293","380146","0.0-6.0-1.24","","<img src=""img/orange-r.png"" border=""10"">","null","trial","32","","0.8,0.2","1:go_a","1",""
"null","","html-keyboard-response","294","381149","0.0-6.0-2.24","","<div style=""font-size:60px;"">+</div>","null","","","","","","",""
"1159.6149999822956","","image-keyboard-response","295","382310","0.0-6.0-0.25","","img/red.png","32","trial","32","true","1,0","3:go_c","",""
"null","","html-keyboard-response","296","383319","0.0-6.0-1.25","","<img src=""img/red-r.png"" border=""10"">","null","trial","32","","1,0","3:go_c","1",""
"null","","html-keyboard-response","297","384322","0.0-6.0-2.25","","<div style=""font-size:60px;"">+</div>","null","","","","","","",""
"null","","image-keyboard-response","298","385828","0.0-6.0-0.26","","img/pink.png","null","trial","null","true","0,1","4:nogo_d","",""
"null","","html-keyboard-response","299","386835","0.0-6.0-1.26","","<img src=""img/pink-r.png"">","null","trial","null","","0,1","4:nogo_d","1",""
"null","","html-keyboard-response","300","387840","0.0-6.0-2.26","","<div style=""font-size:60px;"">+</div>","null","","","","","","",""
"565.4400000057649","","image-keyboard-response","301","388407","0.0-6.0-0.27","","img/purple.png","32","trial","null","false","0.2,0.8","2:nogo_b","",""
"null","","html-keyboard-response","302","389416","0.0-6.0-1.27","","<img src=""img/purple-n.png"" border=""10"">","null","trial","null","","0.2,0.8","2:nogo_b","0",""
"null","","html-keyboard-response","303","390419","0.0-6.0-2.27","","<div style=""font-size:60px;"">+</div>","null","","","","","","",""
"866.8949999846518","","image-keyboard-response","304","391287","0.0-6.0-0.28","","img/red.png","32","trial","32","true","1,0","3:go_c","",""
"null","","html-keyboard-response","305","392293","0.0-6.0-1.28","","<img src=""img/red-r.png"" border=""10"">","null","trial","32","","1,0","3:go_c","1",""
"null","","html-keyboard-response","306","393295","0.0-6.0-2.28","","<div style=""font-size:60px;"">+</div>","null","","","","","","",""
"null","","image-keyboard-response","307","394801","0.0-6.0-0.29","","img/pink.png","null","trial","null","true","0,1","4:nogo_d","",""
"null","","html-keyboard-response","308","395810","0.0-6.0-1.29","","<img src=""img/pink-r.png"">","null","trial","null","","0,1","4:nogo_d","1",""
"null","","html-keyboard-response","309","396816","0.0-6.0-2.29","","<div style=""font-size:60px;"">+</div>","null","","","","","","",""
"457.67000000341795","","image-keyboard-response","310","397275","0.0-6.0-0.30","","img/purple.png","32","trial","null","false","0.2,0.8","2:nogo_b","",""
"null","","html-keyboard-response","311","398282","0.0-6.0-1.30","","<img src=""img/purple-n.png"" border=""10"">","null","trial","null","","0.2,0.8","2:nogo_b","0",""
"null","","html-keyboard-response","312","399291","0.0-6.0-2.30","","<div style=""font-size:60px;"">+</div>","null","","","","","","",""
"520.5500000156462","","image-keyboard-response","313","399812","0.0-6.0-0.31","","img/orange.png","32","trial","32","true","0.8,0.2","1:go_a","",""
"null","","html-keyboard-response","314","400817","0.0-6.0-1.31","","<img src=""img/orange-n.png"" border=""10"">","null","trial","32","","0.8,0.2","1:go_a","0",""
"null","","html-keyboard-response","315","401820","0.0-6.0-2.31","","<div style=""font-size:60px;"">+</div>","null","","","","","","",""
"1091.9099999882746","","image-keyboard-response","316","402913","0.0-6.0-0.32","","img/purple.png","32","trial","null","false","0.2,0.8","2:nogo_b","",""
"null","","html-keyboard-response","317","403929","0.0-6.0-1.32","","<img src=""img/purple-r.png"" border=""10"">","null","trial","null","","0.2,0.8","2:nogo_b","1",""
"null","","html-keyboard-response","318","404934","0.0-6.0-2.32","","<div style=""font-size:60px;"">+</div>","null","","","","","","",""
"724.8450000188313","","image-keyboard-response","319","405660","0.0-6.0-0.33","","img/pink.png","32","trial","null","false","0,1","4:nogo_d","",""
"null","","html-keyboard-response","320","406669","0.0-6.0-1.33","","<img src=""img/pink-n.png"" border=""10"">","null","trial","null","","0,1","4:nogo_d","0",""
"null","","html-keyboard-response","321","407675","0.0-6.0-2.33","","<div style=""font-size:60px;"">+</div>","null","","","","","","",""
"1218.1100000161678","","image-keyboard-response","322","408894","0.0-6.0-0.34","","img/orange.png","32","trial","32","true","0.8,0.2","1:go_a","",""
"null","","html-keyboard-response","323","409907","0.0-6.0-1.34","","<img src=""img/orange-r.png"" border=""10"">","null","trial","32","","0.8,0.2","1:go_a","1",""
"null","","html-keyboard-response","324","410915","0.0-6.0-2.34","","<div style=""font-size:60px;"">+</div>","null","","","","","","",""
"566.0949999873992","","image-keyboard-response","325","411482","0.0-6.0-0.35","","img/red.png","32","trial","32","true","1,0","3:go_c","",""
"null","","html-keyboard-response","326","412485","0.0-6.0-1.35","","<img src=""img/red-r.png"" border=""10"">","null","trial","32","","1,0","3:go_c","1",""
"null","","html-keyboard-response","327","413502","0.0-6.0-2.35","","<div style=""font-size:60px;"">+</div>","null","","","","","","",""
"9.19500002055429","","image-keyboard-response","328","413512","0.0-6.0-0.36","","img/purple.png","32","trial","null","false","0.2,0.8","2:nogo_b","",""
"null","","html-keyboard-response","329","414519","0.0-6.0-1.36","","<img src=""img/purple-n.png"" border=""10"">","null","trial","null","","0.2,0.8","2:nogo_b","0",""
"null","","html-keyboard-response","330","415531","0.0-6.0-2.36","","<div style=""font-size:60px;"">+</div>","null","","","","","","",""
"1332.4849999917205","","image-keyboard-response","331","416865","0.0-6.0-0.37","","img/pink.png","32","trial","null","false","0,1","4:nogo_d","",""
"null","","html-keyboard-response","332","417878","0.0-6.0-1.37","","<img src=""img/pink-n.png"" border=""10"">","null","trial","null","","0,1","4:nogo_d","0",""
"null","","html-keyboard-response","333","418885","0.0-6.0-2.37","","<div style=""font-size:60px;"">+</div>","null","","","","","","",""
"null","","image-keyboard-response","334","420394","0.0-6.0-0.38","","img/red.png","null","trial","32","false","1,0","3:go_c","",""
"null","","html-keyboard-response","335","421397","0.0-6.0-1.38","","<img src=""img/red-n.png"">","null","trial","32","","1,0","3:go_c","0",""
"null","","html-keyboard-response","336","422404","0.0-6.0-2.38","","<div style=""font-size:60px;"">+</div>","null","","","","","","",""
"410.9150000149384","","image-keyboard-response","337","422817","0.0-6.0-0.39","","img/orange.png","32","trial","32","true","0.8,0.2","1:go_a","",""
"null","","html-keyboard-response","338","423820","0.0-6.0-1.39","","<img src=""img/orange-r.png"" border=""10"">","null","trial","32","","0.8,0.2","1:go_a","1",""
"null","","html-keyboard-response","339","424824","0.0-6.0-2.39","","<div style=""font-size:60px;"">+</div>","null","","","","","","",""
"617.2549999901094","","image-keyboard-response","340","425443","0.0-6.0-0.40","","img/orange.png","32","trial","32","true","0.8,0.2","1:go_a","",""
"null","","html-keyboard-response","341","426451","0.0-6.0-1.40","","<img src=""img/orange-r.png"" border=""10"">","null","trial","32","","0.8,0.2","1:go_a","1",""
"null","","html-keyboard-response","342","427457","0.0-6.0-2.40","","<div style=""font-size:60px;"">+</div>","null","","","","","","",""
"null","","image-keyboard-response","343","428961","0.0-6.0-0.41","","img/red.png","null","trial","32","false","1,0","3:go_c","",""
"null","","html-keyboard-response","344","429968","0.0-6.0-1.41","","<img src=""img/red-n.png"">","null","trial","32","","1,0","3:go_c","0",""
"null","","html-keyboard-response","345","430973","0.0-6.0-2.41","","<div style=""font-size:60px;"">+</div>","null","","","","","","",""
"471.77999999257736","","image-keyboard-response","346","431446","0.0-6.0-0.42","","img/pink.png","32","trial","null","false","0,1","4:nogo_d","",""
"null","","html-keyboard-response","347","432457","0.0-6.0-1.42","","<img src=""img/pink-n.png"" border=""10"">","null","trial","null","","0,1","4:nogo_d","0",""
"null","","html-keyboard-response","348","433462","0.0-6.0-2.42","","<div style=""font-size:60px;"">+</div>","null","","","","","","",""
"908.4649999858811","","image-keyboard-response","349","434372","0.0-6.0-0.43","","img/purple.png","32","trial","null","false","0.2,0.8","2:nogo_b","",""
"null","","html-keyboard-response","350","435382","0.0-6.0-1.43","","<img src=""img/purple-n.png"" border=""10"">","null","trial","null","","0.2,0.8","2:nogo_b","0",""
"null","","html-keyboard-response","351","436387","0.0-6.0-2.43","","<div style=""font-size:60px;"">+</div>","null","","","","","","",""
"347.27500000735745","","image-keyboard-response","352","436736","0.0-6.0-0.44","","img/orange.png","32","trial","32","true","0.8,0.2","1:go_a","",""
"null","","html-keyboard-response","353","437742","0.0-6.0-1.44","","<img src=""img/orange-n.png"" border=""10"">","null","trial","32","","0.8,0.2","1:go_a","0",""
"null","","html-keyboard-response","354","438751","0.0-6.0-2.44","","<div style=""font-size:60px;"">+</div>","null","","","","","","",""
"596.6800000169314","","image-keyboard-response","355","439349","0.0-6.0-0.45","","img/pink.png","32","trial","null","false","0,1","4:nogo_d","",""
"null","","html-keyboard-response","356","440365","0.0-6.0-1.45","","<img src=""img/pink-n.png"" border=""10"">","null","trial","null","","0,1","4:nogo_d","0",""
"null","","html-keyboard-response","357","441370","0.0-6.0-2.45","","<div style=""font-size:60px;"">+</div>","null","","","","","","",""
"838.4049999876879","","image-keyboard-response","358","442210","0.0-6.0-0.46","","img/red.png","32","trial","32","true","1,0","3:go_c","",""
"null","","html-keyboard-response","359","443220","0.0-6.0-1.46","","<img src=""img/red-r.png"" border=""10"">","null","trial","32","","1,0","3:go_c","1",""
"null","","html-keyboard-response","360","444235","0.0-6.0-2.46","","<div style=""font-size:60px;"">+</div>","null","","","","","","",""
"1478.9900000032503","","image-keyboard-response","361","445716","0.0-6.0-0.47","","img/purple.png","32","trial","null","false","0.2,0.8","2:nogo_b","",""
"null","","html-keyboard-response","362","446721","0.0-6.0-1.47","","<img src=""img/purple-n.png"" border=""10"">","null","trial","null","","0.2,0.8","2:nogo_b","0",""
"null","","html-keyboard-response","363","447725","0.0-6.0-2.47","","<div style=""font-size:60px;"">+</div>","null","","","","","","",""
"null","","image-keyboard-response","364","449235","0.0-6.0-0.48","","img/red.png","null","trial","32","false","1,0","3:go_c","",""
"null","","html-keyboard-response","365","450241","0.0-6.0-1.48","","<img src=""img/red-n.png"">","null","trial","32","","1,0","3:go_c","0",""
"null","","html-keyboard-response","366","451247","0.0-6.0-2.48","","<div style=""font-size:60px;"">+</div>","null","","","","","","",""
"680.7899999839719","","image-keyboard-response","367","451929","0.0-6.0-0.49","","img/pink.png","32","trial","null","false","0,1","4:nogo_d","",""
"null","","html-keyboard-response","368","452942","0.0-6.0-1.49","","<img src=""img/pink-n.png"" border=""10"">","null","trial","null","","0,1","4:nogo_d","0",""
"null","","html-keyboard-response","369","453949","0.0-6.0-2.49","","<div style=""font-size:60px;"">+</div>","null","","","","","","",""
"793.8100000028498","","image-keyboard-response","370","454744","0.0-6.0-0.50","","img/purple.png","32","trial","null","false","0.2,0.8","2:nogo_b","",""
"null","","html-keyboard-response","371","455753","0.0-6.0-1.50","","<img src=""img/purple-n.png"" border=""10"">","null","trial","null","","0.2,0.8","2:nogo_b","0",""
"null","","html-keyboard-response","372","456762","0.0-6.0-2.50","","<div style=""font-size:60px;"">+</div>","null","","","","","","",""
"453.37999999173917","","image-keyboard-response","373","457217","0.0-6.0-0.51","","img/orange.png","32","trial","32","true","0.8,0.2","1:go_a","",""
"null","","html-keyboard-response","374","458220","0.0-6.0-1.51","","<img src=""img/orange-r.png"" border=""10"">","null","trial","32","","0.8,0.2","1:go_a","1",""
"null","","html-keyboard-response","375","459226","0.0-6.0-2.51","","<div style=""font-size:60px;"">+</div>","null","","","","","","",""
"591.4599999960046","","image-keyboard-response","376","459819","0.0-6.0-0.52","","img/pink.png","32","trial","null","false","0,1","4:nogo_d","",""
"null","","html-keyboard-response","377","460832","0.0-6.0-1.52","","<img src=""img/pink-n.png"" border=""10"">","null","trial","null","","0,1","4:nogo_d","0",""
"null","","html-keyboard-response","378","461844","0.0-6.0-2.52","","<div style=""font-size:60px;"">+</div>","null","","","","","","",""
"287.0050000201445","","image-keyboard-response","379","462133","0.0-6.0-0.53","","img/red.png","32","trial","32","true","1,0","3:go_c","",""
"null","","html-keyboard-response","380","463137","0.0-6.0-1.53","","<img src=""img/red-r.png"" border=""10"">","null","trial","32","","1,0","3:go_c","1",""
"null","","html-keyboard-response","381","464143","0.0-6.0-2.53","","<div style=""font-size:60px;"">+</div>","null","","","","","","",""
"994.7300000058021","","image-keyboard-response","382","465140","0.0-6.0-0.54","","img/purple.png","32","trial","null","false","0.2,0.8","2:nogo_b","",""
"null","","html-keyboard-response","383","466144","0.0-6.0-1.54","","<img src=""img/purple-r.png"" border=""10"">","null","trial","null","","0.2,0.8","2:nogo_b","1",""
"null","","html-keyboard-response","384","467156","0.0-6.0-2.54","","<div style=""font-size:60px;"">+</div>","null","","","","","","",""
"511.43000001320615","","image-keyboard-response","385","467669","0.0-6.0-0.55","","img/orange.png","32","trial","32","true","0.8,0.2","1:go_a","",""
"null","","html-keyboard-response","386","468678","0.0-6.0-1.55","","<img src=""img/orange-r.png"" border=""10"">","null","trial","32","","0.8,0.2","1:go_a","1",""
"null","","html-keyboard-response","387","469680","0.0-6.0-2.55","","<div style=""font-size:60px;"">+</div>","null","","","","","","",""
"677.140000014333","","image-keyboard-response","388","470359","0.0-6.0-0.56","","img/red.png","32","trial","32","true","1,0","3:go_c","",""
"null","","html-keyboard-response","389","471367","0.0-6.0-1.56","","<img src=""img/red-r.png"" border=""10"">","null","trial","32","","1,0","3:go_c","1",""
"null","","html-keyboard-response","390","472378","0.0-6.0-2.56","","<div style=""font-size:60px;"">+</div>","null","","","","","","",""
"null","","image-keyboard-response","391","473883","0.0-6.0-0.57","","img/pink.png","null","trial","null","true","0,1","4:nogo_d","",""
"null","","html-keyboard-response","392","474891","0.0-6.0-1.57","","<img src=""img/pink-r.png"">","null","trial","null","","0,1","4:nogo_d","1",""
"null","","html-keyboard-response","393","475897","0.0-6.0-2.57","","<div style=""font-size:60px;"">+</div>","null","","","","","","",""
"500.78999999095686","","image-keyboard-response","394","476399","0.0-6.0-0.58","","img/purple.png","32","trial","null","false","0.2,0.8","2:nogo_b","",""
"null","","html-keyboard-response","395","477412","0.0-6.0-1.58","","<img src=""img/purple-n.png"" border=""10"">","null","trial","null","","0.2,0.8","2:nogo_b","0",""
"null","","html-keyboard-response","396","478413","0.0-6.0-2.58","","<div style=""font-size:60px;"">+</div>","null","","","","","","",""
"432.65500001143664","","image-keyboard-response","397","478847","0.0-6.0-0.59","","img/orange.png","32","trial","32","true","0.8,0.2","1:go_a","",""
"null","","html-keyboard-response","398","479851","0.0-6.0-1.59","","<img src=""img/orange-n.png"" border=""10"">","null","trial","32","","0.8,0.2","1:go_a","0",""
"null","","html-keyboard-response","399","480853","0.0-6.0-2.59","","<div style=""font-size:60px;"">+</div>","null","","","","","","",""
"643.1699999957345","","image-keyboard-response","400","481497","0.0-6.0-0.60","","img/pink.png","32","trial","null","false","0,1","4:nogo_d","",""
"null","","html-keyboard-response","401","482509","0.0-6.0-1.60","","<img src=""img/pink-n.png"" border=""10"">","null","trial","null","","0,1","4:nogo_d","0",""
"null","","html-keyboard-response","402","483517","0.0-6.0-2.60","","<div style=""font-size:60px;"">+</div>","null","","","","","","",""
"558.244999992894","","image-keyboard-response","403","484076","0.0-6.0-0.61","","img/red.png","32","trial","32","true","1,0","3:go_c","",""
"null","","html-keyboard-response","404","485080","0.0-6.0-1.61","","<img src=""img/red-r.png"" border=""10"">","null","trial","32","","1,0","3:go_c","1",""
"null","","html-keyboard-response","405","486093","0.0-6.0-2.61","","<div style=""font-size:60px;"">+</div>","null","","","","","","",""
"1216.5950000053272","","image-keyboard-response","406","487311","0.0-6.0-0.62","","img/purple.png","32","trial","null","false","0.2,0.8","2:nogo_b","",""
"null","","html-keyboard-response","407","488320","0.0-6.0-1.62","","<img src=""img/purple-n.png"" border=""10"">","null","trial","null","","0.2,0.8","2:nogo_b","0",""
"null","","html-keyboard-response","408","489323","0.0-6.0-2.62","","<div style=""font-size:60px;"">+</div>","null","","","","","","",""
"1330.6400000001304","","image-keyboard-response","409","490655","0.0-6.0-0.63","","img/orange.png","32","trial","32","true","0.8,0.2","1:go_a","",""
"null","","html-keyboard-response","410","491670","0.0-6.0-1.63","","<img src=""img/orange-r.png"" border=""10"">","null","trial","32","","0.8,0.2","1:go_a","1",""
"null","","html-keyboard-response","411","492679","0.0-6.0-2.63","","<div style=""font-size:60px;"">+</div>","null","","","","","","",""
"437.91999999666587","","image-keyboard-response","412","493118","0.0-6.0-0.64","","img/orange.png","32","trial","32","true","0.8,0.2","1:go_a","",""
"null","","html-keyboard-response","413","494125","0.0-6.0-1.64","","<img src=""img/orange-r.png"" border=""10"">","null","trial","32","","0.8,0.2","1:go_a","1",""
"null","","html-keyboard-response","414","495127","0.0-6.0-2.64","","<div style=""font-size:60px;"">+</div>","null","","","","","","",""
"586.6000000096392","","image-keyboard-response","415","495715","0.0-6.0-0.65","","img/purple.png","32","trial","null","false","0.2,0.8","2:nogo_b","",""
"null","","html-keyboard-response","416","496721","0.0-6.0-1.65","","<img src=""img/purple-n.png"" border=""10"">","null","trial","null","","0.2,0.8","2:nogo_b","0",""
"null","","html-keyboard-response","417","497729","0.0-6.0-2.65","","<div style=""font-size:60px;"">+</div>","null","","","","","","",""
"null","","image-keyboard-response","418","499239","0.0-6.0-0.66","","img/red.png","null","trial","32","false","1,0","3:go_c","",""
"null","","html-keyboard-response","419","500243","0.0-6.0-1.66","","<img src=""img/red-n.png"">","null","trial","32","","1,0","3:go_c","0",""
"null","","html-keyboard-response","420","501245","0.0-6.0-2.66","","<div style=""font-size:60px;"">+</div>","null","","","","","","",""
"573.420000000624","","image-keyboard-response","421","501820","0.0-6.0-0.67","","img/pink.png","32","trial","null","false","0,1","4:nogo_d","",""
"null","","html-keyboard-response","422","502827","0.0-6.0-1.67","","<img src=""img/pink-n.png"" border=""10"">","null","trial","null","","0,1","4:nogo_d","0",""
"null","","html-keyboard-response","423","503833","0.0-6.0-2.67","","<div style=""font-size:60px;"">+</div>","null","","","","","","",""
"1192.9850000014994","","image-keyboard-response","424","505027","0.0-6.0-0.68","","img/orange.png","32","trial","32","true","0.8,0.2","1:go_a","",""
"null","","html-keyboard-response","425","506029","0.0-6.0-1.68","","<img src=""img/orange-r.png"" border=""10"">","null","trial","32","","0.8,0.2","1:go_a","1",""
"null","","html-keyboard-response","426","507036","0.0-6.0-2.68","","<div style=""font-size:60px;"">+</div>","null","","","","","","",""
"401.7150000145193","","image-keyboard-response","427","507439","0.0-6.0-0.69","","img/red.png","32","trial","32","true","1,0","3:go_c","",""
"null","","html-keyboard-response","428","508456","0.0-6.0-1.69","","<img src=""img/red-r.png"" border=""10"">","null","trial","32","","1,0","3:go_c","1",""
"null","","html-keyboard-response","429","509457","0.0-6.0-2.69","","<div style=""font-size:60px;"">+</div>","null","","","","","","",""
"1002.1950000082143","","image-keyboard-response","430","510461","0.0-6.0-0.70","","img/pink.png","32","trial","null","false","0,1","4:nogo_d","",""
"null","","html-keyboard-response","431","511477","0.0-6.0-1.70","","<img src=""img/pink-n.png"" border=""10"">","null","trial","null","","0,1","4:nogo_d","0",""
"null","","html-keyboard-response","432","512487","0.0-6.0-2.70","","<div style=""font-size:60px;"">+</div>","null","","","","","","",""
"null","","image-keyboard-response","433","513994","0.0-6.0-0.71","","img/purple.png","null","trial","null","true","0.2,0.8","2:nogo_b","",""
"null","","html-keyboard-response","434","515000","0.0-6.0-1.71","","<img src=""img/purple-r.png"">","null","trial","null","","0.2,0.8","2:nogo_b","1",""
"null","","html-keyboard-response","435","516005","0.0-6.0-2.71","","<div style=""font-size:60px;"">+</div>","null","","","","","","",""
"320.26500001666136","","image-keyboard-response","436","516326","0.0-6.0-0.72","","img/red.png","32","trial","32","true","1,0","3:go_c","",""
"null","","html-keyboard-response","437","517333","0.0-6.0-1.72","","<img src=""img/red-r.png"" border=""10"">","null","trial","32","","1,0","3:go_c","1",""
"null","","html-keyboard-response","438","518339","0.0-6.0-2.72","","<div style=""font-size:60px;"">+</div>","null","","","","","","",""
"550.3000000026077","","image-keyboard-response","439","518891","0.0-6.0-0.73","","img/orange.png","32","trial","32","true","0.8,0.2","1:go_a","",""
"null","","html-keyboard-response","440","519897","0.0-6.0-1.73","","<img src=""img/orange-r.png"" border=""10"">","null","trial","32","","0.8,0.2","1:go_a","1",""
"null","","html-keyboard-response","441","520902","0.0-6.0-2.73","","<div style=""font-size:60px;"">+</div>","null","","","","","","",""
"null","","image-keyboard-response","442","522411","0.0-6.0-0.74","","img/pink.png","null","trial","null","true","0,1","4:nogo_d","",""
"null","","html-keyboard-response","443","523421","0.0-6.0-1.74","","<img src=""img/pink-r.png"">","null","trial","null","","0,1","4:nogo_d","1",""
"null","","html-keyboard-response","444","524425","0.0-6.0-2.74","","<div style=""font-size:60px;"">+</div>","null","","","","","","",""
"596.7100000125356","","image-keyboard-response","445","525023","0.0-6.0-0.75","","img/purple.png","32","trial","null","false","0.2,0.8","2:nogo_b","",""
"null","","html-keyboard-response","446","526029","0.0-6.0-1.75","","<img src=""img/purple-r.png"" border=""10"">","null","trial","null","","0.2,0.8","2:nogo_b","1",""
"null","","html-keyboard-response","447","527037","0.0-6.0-2.75","","<div style=""font-size:60px;"">+</div>","null","","","","","","",""
"838.4650000080001","","image-keyboard-response","448","527877","0.0-6.0-0.76","","img/purple.png","32","trial","null","false","0.2,0.8","2:nogo_b","",""
"null","","html-keyboard-response","449","528883","0.0-6.0-1.76","","<img src=""img/purple-n.png"" border=""10"">","null","trial","null","","0.2,0.8","2:nogo_b","0",""
"null","","html-keyboard-response","450","529889","0.0-6.0-2.76","","<div style=""font-size:60px;"">+</div>","null","","","","","","",""
"null","","image-keyboard-response","451","531394","0.0-6.0-0.77","","img/pink.png","null","trial","null","true","0,1","4:nogo_d","",""
"null","","html-keyboard-response","452","532402","0.0-6.0-1.77","","<img src=""img/pink-r.png"">","null","trial","null","","0,1","4:nogo_d","1",""
"null","","html-keyboard-response","453","533409","0.0-6.0-2.77","","<div style=""font-size:60px;"">+</div>","null","","","","","","",""
"1115.9999999799766","","image-keyboard-response","454","534526","0.0-6.0-0.78","","img/orange.png","32","trial","32","true","0.8,0.2","1:go_a","",""
"null","","html-keyboard-response","455","535536","0.0-6.0-1.78","","<img src=""img/orange-r.png"" border=""10"">","null","trial","32","","0.8,0.2","1:go_a","1",""
"null","","html-keyboard-response","456","536547","0.0-6.0-2.78","","<div style=""font-size:60px;"">+</div>","null","","","","","","",""
"1406.2149999954272","","image-keyboard-response","457","537955","0.0-6.0-0.79","","img/red.png","32","trial","32","true","1,0","3:go_c","",""
"null","","html-keyboard-response","458","538963","0.0-6.0-1.79","","<img src=""img/red-r.png"" border=""10"">","null","trial","32","","1,0","3:go_c","1",""
"null","","html-keyboard-response","459","539969","0.0-6.0-2.79","","<div style=""font-size:60px;"">+</div>","null","","","","","","",""
"null","","image-keyboard-response","460","541479","0.0-6.0-0.80","","img/pink.png","null","trial","null","true","0,1","4:nogo_d","",""
"null","","html-keyboard-response","461","542485","0.0-6.0-1.80","","<img src=""img/pink-r.png"">","null","trial","null","","0,1","4:nogo_d","1",""
"null","","html-keyboard-response","462","543491","0.0-6.0-2.80","","<div style=""font-size:60px;"">+</div>","null","","","","","","",""
"638.8300000107847","","image-keyboard-response","463","544131","0.0-6.0-0.81","","img/orange.png","32","trial","32","true","0.8,0.2","1:go_a","",""
"null","","html-keyboard-response","464","545137","0.0-6.0-1.81","","<img src=""img/orange-r.png"" border=""10"">","null","trial","32","","0.8,0.2","1:go_a","1",""
"null","","html-keyboard-response","465","546138","0.0-6.0-2.81","","<div style=""font-size:60px;"">+</div>","null","","","","","","",""
"1166.5700000012293","","image-keyboard-response","466","547306","0.0-6.0-0.82","","img/red.png","32","trial","32","true","1,0","3:go_c","",""
"null","","html-keyboard-response","467","548311","0.0-6.0-1.82","","<img src=""img/red-r.png"" border=""10"">","null","trial","32","","1,0","3:go_c","1",""
"null","","html-keyboard-response","468","549322","0.0-6.0-2.82","","<div style=""font-size:60px;"">+</div>","null","","","","","","",""
"574.0599999844562","","image-keyboard-response","469","549897","0.0-6.0-0.83","","img/purple.png","32","trial","null","false","0.2,0.8","2:nogo_b","",""
"null","","html-keyboard-response","470","550901","0.0-6.0-1.83","","<img src=""img/purple-n.png"" border=""10"">","null","trial","null","","0.2,0.8","2:nogo_b","0",""
"null","","html-keyboard-response","471","551911","0.0-6.0-2.83","","<div style=""font-size:60px;"">+</div>","null","","","","","","",""
"1041.5849999990314","","image-keyboard-response","472","552954","0.0-6.0-0.84","","img/orange.png","32","trial","32","true","0.8,0.2","1:go_a","",""
"null","","html-keyboard-response","473","553960","0.0-6.0-1.84","","<img src=""img/orange-r.png"" border=""10"">","null","trial","32","","0.8,0.2","1:go_a","1",""
"null","","html-keyboard-response","474","554971","0.0-6.0-2.84","","<div style=""font-size:60px;"">+</div>","null","","","","","","",""
"762.9399999859743","","image-keyboard-response","475","555735","0.0-6.0-0.85","","img/purple.png","32","trial","null","false","0.2,0.8","2:nogo_b","",""
"null","","html-keyboard-response","476","556741","0.0-6.0-1.85","","<img src=""img/purple-r.png"" border=""10"">","null","trial","null","","0.2,0.8","2:nogo_b","1",""
"null","","html-keyboard-response","477","557751","0.0-6.0-2.85","","<div style=""font-size:60px;"">+</div>","null","","","","","","",""
"null","","image-keyboard-response","478","559263","0.0-6.0-0.86","","img/pink.png","null","trial","null","true","0,1","4:nogo_d","",""
"null","","html-keyboard-response","479","560267","0.0-6.0-1.86","","<img src=""img/pink-r.png"">","null","trial","null","","0,1","4:nogo_d","1",""
"null","","html-keyboard-response","480","561271","0.0-6.0-2.86","","<div style=""font-size:60px;"">+</div>","null","","","","","","",""
"688.2199999818113","","image-keyboard-response","481","561961","0.0-6.0-0.87","","img/red.png","32","trial","32","true","1,0","3:go_c","",""
"null","","html-keyboard-response","482","562967","0.0-6.0-1.87","","<img src=""img/red-r.png"" border=""10"">","null","trial","32","","1,0","3:go_c","1",""
"null","","html-keyboard-response","483","563975","0.0-6.0-2.87","","<div style=""font-size:60px;"">+</div>","null","","","","","","",""
"1047.374999994645","","image-keyboard-response","484","565024","0.0-6.0-0.88","","img/red.png","32","trial","32","true","1,0","3:go_c","",""
"null","","html-keyboard-response","485","566027","0.0-6.0-1.88","","<img src=""img/red-r.png"" border=""10"">","null","trial","32","","1,0","3:go_c","1",""
"null","","html-keyboard-response","486","567029","0.0-6.0-2.88","","<div style=""font-size:60px;"">+</div>","null","","","","","","",""
"1183.0750000081025","","image-keyboard-response","487","568214","0.0-6.0-0.89","","img/pink.png","32","trial","null","false","0,1","4:nogo_d","",""
"null","","html-keyboard-response","488","569218","0.0-6.0-1.89","","<img src=""img/pink-n.png"" border=""10"">","null","trial","null","","0,1","4:nogo_d","0",""
"null","","html-keyboard-response","489","570229","0.0-6.0-2.89","","<div style=""font-size:60px;"">+</div>","null","","","","","","",""
"702.0299999858253","","image-keyboard-response","490","570932","0.0-6.0-0.90","","img/purple.png","32","trial","null","false","0.2,0.8","2:nogo_b","",""
"null","","html-keyboard-response","491","571937","0.0-6.0-1.90","","<img src=""img/purple-n.png"" border=""10"">","null","trial","null","","0.2,0.8","2:nogo_b","0",""
"null","","html-keyboard-response","492","572939","0.0-6.0-2.90","","<div style=""font-size:60px;"">+</div>","null","","","","","","",""
"560.9249999979511","","image-keyboard-response","493","573501","0.0-6.0-0.91","","img/orange.png","32","trial","32","true","0.8,0.2","1:go_a","",""
"null","","html-keyboard-response","494","574503","0.0-6.0-1.91","","<img src=""img/orange-r.png"" border=""10"">","null","trial","32","","0.8,0.2","1:go_a","1",""
"null","","html-keyboard-response","495","575507","0.0-6.0-2.91","","<div style=""font-size:60px;"">+</div>","null","","","","","","",""
"1023.4150000032969","","image-keyboard-response","496","576531","0.0-6.0-0.92","","img/purple.png","32","trial","null","false","0.2,0.8","2:nogo_b","",""
"null","","html-keyboard-response","497","577539","0.0-6.0-1.92","","<img src=""img/purple-n.png"" border=""10"">","null","trial","null","","0.2,0.8","2:nogo_b","0",""
"null","","html-keyboard-response","498","578553","0.0-6.0-2.92","","<div style=""font-size:60px;"">+</div>","null","","","","","","",""
"null","","image-keyboard-response","499","580060","0.0-6.0-0.93","","img/pink.png","null","trial","null","true","0,1","4:nogo_d","",""
"null","","html-keyboard-response","500","581069","0.0-6.0-1.93","","<img src=""img/pink-r.png"">","null","trial","null","","0,1","4:nogo_d","1",""
"null","","html-keyboard-response","501","582075","0.0-6.0-2.93","","<div style=""font-size:60px;"">+</div>","null","","","","","","",""
"484.82499999227","","image-keyboard-response","502","582561","0.0-6.0-0.94","","img/red.png","32","trial","32","true","1,0","3:go_c","",""
"null","","html-keyboard-response","503","583577","0.0-6.0-1.94","","<img src=""img/red-r.png"" border=""10"">","null","trial","32","","1,0","3:go_c","1",""
"null","","html-keyboard-response","504","584578","0.0-6.0-2.94","","<div style=""font-size:60px;"">+</div>","null","","","","","","",""
"642.0999999972992","","image-keyboard-response","505","585222","0.0-6.0-0.95","","img/orange.png","32","trial","32","true","0.8,0.2","1:go_a","",""
"null","","html-keyboard-response","506","586227","0.0-6.0-1.95","","<img src=""img/orange-r.png"" border=""10"">","null","trial","32","","0.8,0.2","1:go_a","1",""
"null","","html-keyboard-response","507","587237","0.0-6.0-2.95","","<div style=""font-size:60px;"">+</div>","null","","","","","","",""
"569.3800000008196","","image-keyboard-response","508","587808","0.0-6.0-0.96","","img/orange.png","32","trial","32","true","0.8,0.2","1:go_a","",""
"null","","html-keyboard-response","509","588819","0.0-6.0-1.96","","<img src=""img/orange-r.png"" border=""10"">","null","trial","32","","0.8,0.2","1:go_a","1",""
"null","","html-keyboard-response","510","589822","0.0-6.0-2.96","","<div style=""font-size:60px;"">+</div>","null","","","","","","",""
"null","","image-keyboard-response","511","591327","0.0-6.0-0.97","","img/purple.png","null","trial","null","true","0.2,0.8","2:nogo_b","",""
"null","","html-keyboard-response","512","592331","0.0-6.0-1.97","","<img src=""img/purple-r.png"">","null","trial","null","","0.2,0.8","2:nogo_b","1",""
"null","","html-keyboard-response","513","593333","0.0-6.0-2.97","","<div style=""font-size:60px;"">+</div>","null","","","","","","",""
"565.614999999525","","image-keyboard-response","514","593900","0.0-6.0-0.98","","img/red.png","32","trial","32","true","1,0","3:go_c","",""
"null","","html-keyboard-response","515","594903","0.0-6.0-1.98","","<img src=""img/red-r.png"" border=""10"">","null","trial","32","","1,0","3:go_c","1",""
"null","","html-keyboard-response","516","595909","0.0-6.0-2.98","","<div style=""font-size:60px;"">+</div>","null","","","","","","",""
"1177.819999982603","","image-keyboard-response","517","597089","0.0-6.0-0.99","","img/pink.png","32","trial","null","false","0,1","4:nogo_d","",""
"null","","html-keyboard-response","518","598099","0.0-6.0-1.99","","<img src=""img/pink-n.png"" border=""10"">","null","trial","null","","0,1","4:nogo_d","0",""
"null","","html-keyboard-response","519","599104","0.0-6.0-2.99","","<div style=""font-size:60px;"">+</div>","null","","","","","","",""
"null","","image-keyboard-response","520","600620","0.0-6.0-0.100","","img/pink.png","null","trial","null","true","0,1","4:nogo_d","",""
"null","","html-keyboard-response","521","601629","0.0-6.0-1.100","","<img src=""img/pink-r.png"">","null","trial","null","","0,1","4:nogo_d","1",""
"null","","html-keyboard-response","522","602643","0.0-6.0-2.100","","<div style=""font-size:60px;"">+</div>","null","","","","","","",""
"null","","image-keyboard-response","523","604146","0.0-6.0-0.101","","img/red.png","null","trial","32","false","1,0","3:go_c","",""
"null","","html-keyboard-response","524","605155","0.0-6.0-1.101","","<img src=""img/red-n.png"">","null","trial","32","","1,0","3:go_c","0",""
"null","","html-keyboard-response","525","606157","0.0-6.0-2.101","","<div style=""font-size:60px;"">+</div>","null","","","","","","",""
"820.2100000053179","","image-keyboard-response","526","606979","0.0-6.0-0.102","","img/orange.png","32","trial","32","true","0.8,0.2","1:go_a","",""
"null","","html-keyboard-response","527","607984","0.0-6.0-1.102","","<img src=""img/orange-r.png"" border=""10"">","null","trial","32","","0.8,0.2","1:go_a","1",""
"null","","html-keyboard-response","528","608991","0.0-6.0-2.102","","<div style=""font-size:60px;"">+</div>","null","","","","","","",""
"1077.6249999762513","","image-keyboard-response","529","610070","0.0-6.0-0.103","","img/purple.png","32","trial","null","false","0.2,0.8","2:nogo_b","",""
"null","","html-keyboard-response","530","611075","0.0-6.0-1.103","","<img src=""img/purple-n.png"" border=""10"">","null","trial","null","","0.2,0.8","2:nogo_b","0",""
"null","","html-keyboard-response","531","612080","0.0-6.0-2.103","","<div style=""font-size:60px;"">+</div>","null","","","","","","",""
"null","","image-keyboard-response","532","613583","0.0-6.0-0.104","","img/purple.png","null","trial","null","true","0.2,0.8","2:nogo_b","",""
"null","","html-keyboard-response","533","614588","0.0-6.0-1.104","","<img src=""img/purple-n.png"">","null","trial","null","","0.2,0.8","2:nogo_b","0",""
"null","","html-keyboard-response","534","615595","0.0-6.0-2.104","","<div style=""font-size:60px;"">+</div>","null","","","","","","",""
"644.2799999786075","","image-keyboard-response","535","616241","0.0-6.0-0.105","","img/pink.png","32","trial","null","false","0,1","4:nogo_d","",""
"null","","html-keyboard-response","536","617256","0.0-6.0-1.105","","<img src=""img/pink-n.png"" border=""10"">","null","trial","null","","0,1","4:nogo_d","0",""
"null","","html-keyboard-response","537","618273","0.0-6.0-2.105","","<div style=""font-size:60px;"">+</div>","null","","","","","","",""
"null","","image-keyboard-response","538","619779","0.0-6.0-0.106","","img/orange.png","null","trial","32","false","0.8,0.2","1:go_a","",""
"null","","html-keyboard-response","539","620797","0.0-6.0-1.106","","<img src=""img/orange-n.png"">","null","trial","32","","0.8,0.2","1:go_a","0",""
"null","","html-keyboard-response","540","621805","0.0-6.0-2.106","","<div style=""font-size:60px;"">+</div>","null","","","","","","",""
"307.69000001600944","","image-keyboard-response","541","622115","0.0-6.0-0.107","","img/red.png","32","trial","32","true","1,0","3:go_c","",""
"null","","html-keyboard-response","542","623119","0.0-6.0-1.107","","<img src=""img/red-r.png"" border=""10"">","null","trial","32","","1,0","3:go_c","1",""
"null","","html-keyboard-response","543","624125","0.0-6.0-2.107","","<div style=""font-size:60px;"">+</div>","null","","","","","","",""
"518.5850000125356","","image-keyboard-response","544","624645","0.0-6.0-0.108","","img/red.png","32","trial","32","true","1,0","3:go_c","",""
"null","","html-keyboard-response","545","625650","0.0-6.0-1.108","","<img src=""img/red-r.png"" border=""10"">","null","trial","32","","1,0","3:go_c","1",""
"null","","html-keyboard-response","546","626653","0.0-6.0-2.108","","<div style=""font-size:60px;"">+</div>","null","","","","","","",""
"null","","image-keyboard-response","547","628160","0.0-6.0-0.109","","img/pink.png","null","trial","null","true","0,1","4:nogo_d","",""
"null","","html-keyboard-response","548","629167","0.0-6.0-1.109","","<img src=""img/pink-r.png"">","null","trial","null","","0,1","4:nogo_d","1",""
"null","","html-keyboard-response","549","630171","0.0-6.0-2.109","","<div style=""font-size:60px;"">+</div>","null","","","","","","",""
"null","","image-keyboard-response","550","631675","0.0-6.0-0.110","","img/purple.png","null","trial","null","true","0.2,0.8","2:nogo_b","",""
"null","","html-keyboard-response","551","632677","0.0-6.0-1.110","","<img src=""img/purple-r.png"">","null","trial","null","","0.2,0.8","2:nogo_b","1",""
"null","","html-keyboard-response","552","633692","0.0-6.0-2.110","","<div style=""font-size:60px;"">+</div>","null","","","","","","",""
"1142.4049999914132","","image-keyboard-response","553","634835","0.0-6.0-0.111","","img/orange.png","32","trial","32","true","0.8,0.2","1:go_a","",""
"null","","html-keyboard-response","554","635839","0.0-6.0-1.111","","<img src=""img/orange-n.png"" border=""10"">","null","trial","32","","0.8,0.2","1:go_a","0",""
"null","","html-keyboard-response","555","636846","0.0-6.0-2.111","","<div style=""font-size:60px;"">+</div>","null","","","","","","",""
"842.1300000045449","","image-keyboard-response","556","637690","0.0-6.0-0.112","","img/pink.png","32","trial","null","false","0,1","4:nogo_d","",""
"null","","html-keyboard-response","557","638699","0.0-6.0-1.112","","<img src=""img/pink-n.png"" border=""10"">","null","trial","null","","0,1","4:nogo_d","0",""
"null","","html-keyboard-response","558","639705","0.0-6.0-2.112","","<div style=""font-size:60px;"">+</div>","null","","","","","","",""
"955.4199999838602","","image-keyboard-response","559","640663","0.0-6.0-0.113","","img/purple.png","32","trial","null","false","0.2,0.8","2:nogo_b","",""
"null","","html-keyboard-response","560","641677","0.0-6.0-1.113","","<img src=""img/purple-n.png"" border=""10"">","null","trial","null","","0.2,0.8","2:nogo_b","0",""
"null","","html-keyboard-response","561","642684","0.0-6.0-2.113","","<div style=""font-size:60px;"">+</div>","null","","","","","","",""
"720.5449999892153","","image-keyboard-response","562","643406","0.0-6.0-0.114","","img/red.png","32","trial","32","true","1,0","3:go_c","",""
"null","","html-keyboard-response","563","644408","0.0-6.0-1.114","","<img src=""img/red-r.png"" border=""10"">","null","trial","32","","1,0","3:go_c","1",""
"null","","html-keyboard-response","564","645416","0.0-6.0-2.114","","<div style=""font-size:60px;"">+</div>","null","","","","","","",""
"null","","image-keyboard-response","565","646921","0.0-6.0-0.115","","img/orange.png","null","trial","32","false","0.8,0.2","1:go_a","",""
"null","","html-keyboard-response","566","647924","0.0-6.0-1.115","","<img src=""img/orange-n.png"">","null","trial","32","","0.8,0.2","1:go_a","0",""
"null","","html-keyboard-response","567","648925","0.0-6.0-2.115","","<div style=""font-size:60px;"">+</div>","null","","","","","","",""
"696.3250000262633","","image-keyboard-response","568","649623","0.0-6.0-0.116","","img/purple.png","32","trial","null","false","0.2,0.8","2:nogo_b","",""
"null","","html-keyboard-response","569","650633","0.0-6.0-1.116","","<img src=""img/purple-n.png"" border=""10"">","null","trial","null","","0.2,0.8","2:nogo_b","0",""
"null","","html-keyboard-response","570","651649","0.0-6.0-2.116","","<div style=""font-size:60px;"">+</div>","null","","","","","","",""
"596.9650000042748","","image-keyboard-response","571","652247","0.0-6.0-0.117","","img/orange.png","32","trial","32","true","0.8,0.2","1:go_a","",""
"null","","html-keyboard-response","572","653259","0.0-6.0-1.117","","<img src=""img/orange-r.png"" border=""10"">","null","trial","32","","0.8,0.2","1:go_a","1",""
"null","","html-keyboard-response","573","654265","0.0-6.0-2.117","","<div style=""font-size:60px;"">+</div>","null","","","","","","",""
"756.5450000111014","","image-keyboard-response","574","655023","0.0-6.0-0.118","","img/red.png","32","trial","32","true","1,0","3:go_c","",""
"null","","html-keyboard-response","575","656034","0.0-6.0-1.118","","<img src=""img/red-r.png"" border=""10"">","null","trial","32","","1,0","3:go_c","1",""
"null","","html-keyboard-response","576","657042","0.0-6.0-2.118","","<div style=""font-size:60px;"">+</div>","null","","","","","","",""
"650.8350000076462","","image-keyboard-response","577","657695","0.0-6.0-0.119","","img/pink.png","32","trial","null","false","0,1","4:nogo_d","",""
"null","","html-keyboard-response","578","658699","0.0-6.0-1.119","","<img src=""img/pink-n.png"" border=""10"">","null","trial","null","","0,1","4:nogo_d","0",""
"null","","html-keyboard-response","579","659703","0.0-6.0-2.119","","<div style=""font-size:60px;"">+</div>","null","","","","","","",""
"196946.32499999716","","instructions","580","856650","0.0-7.0","[{""page_index"":0,""viewing_time"":196945.65499998862}]","","","","","","","","",""
"1061.680000013439","","image-keyboard-response","581","857715","0.0-8.0-0.0","","img/blue.png","32","trial","32","true","0.8,0.2","1:go_a","",""
"null","","html-keyboard-response","582","858719","0.0-8.0-1.0","","<img src=""img/blue-r.png"" border=""10"">","null","trial","32","","0.8,0.2","1:go_a","1",""
"null","","html-keyboard-response","583","859725","0.0-8.0-2.0","","<div style=""font-size:60px;"">+</div>","null","","","","","","",""
"314.2799999914132","","image-keyboard-response","584","860040","0.0-8.0-0.1","","img/red.png","32","trial","null","false","0.2,0.8","2:nogo_b","",""
"null","","html-keyboard-response","585","861047","0.0-8.0-1.1","","<img src=""img/red-n.png"" border=""10"">","null","trial","null","","0.2,0.8","2:nogo_b","0",""
"null","","html-keyboard-response","586","862053","0.0-8.0-2.1","","<div style=""font-size:60px;"">+</div>","null","","","","","","",""
"98.01499999593943","","image-keyboard-response","587","862153","0.0-8.0-0.2","","img/yellow.png","32","trial","null","false","0.2,0.8","4:nogo_d","",""
"null","","html-keyboard-response","588","863159","0.0-8.0-1.2","","<img src=""img/yellow-n.png"" border=""10"">","null","trial","null","","0.2,0.8","4:nogo_d","0",""
"null","","html-keyboard-response","589","864163","0.0-8.0-2.2","","<div style=""font-size:60px;"">+</div>","null","","","","","","",""
"495.7249999861233","","image-keyboard-response","590","864660","0.0-8.0-0.3","","img/green.png","32","trial","32","true","0.8,0.2","3:go_c","",""
"null","","html-keyboard-response","591","865670","0.0-8.0-1.3","","<img src=""img/green-n.png"" border=""10"">","null","trial","32","","0.8,0.2","3:go_c","0",""
"null","","html-keyboard-response","592","866673","0.0-8.0-2.3","","<div style=""font-size:60px;"">+</div>","null","","","","","","",""
"null","","image-keyboard-response","593","868177","0.0-8.0-0.4","","img/green.png","null","trial","32","false","0.8,0.2","3:go_c","",""
"null","","html-keyboard-response","594","869179","0.0-8.0-1.4","","<img src=""img/green-n.png"">","null","trial","32","","0.8,0.2","3:go_c","0",""
"null","","html-keyboard-response","595","870183","0.0-8.0-2.4","","<div style=""font-size:60px;"">+</div>","null","","","","","","",""
"487.5950000132434","","image-keyboard-response","596","870672","0.0-8.0-0.5","","img/red.png","32","trial","null","false","0.2,0.8","2:nogo_b","",""
"null","","html-keyboard-response","597","871677","0.0-8.0-1.5","","<img src=""img/red-n.png"" border=""10"">","null","trial","null","","0.2,0.8","2:nogo_b","0",""
"null","","html-keyboard-response","598","872683","0.0-8.0-2.5","","<div style=""font-size:60px;"">+</div>","null","","","","","","",""
"583.9900000137277","","image-keyboard-response","599","873269","0.0-8.0-0.6","","img/blue.png","32","trial","32","true","0.8,0.2","1:go_a","",""
"null","","html-keyboard-response","600","874275","0.0-8.0-1.6","","<img src=""img/blue-n.png"" border=""10"">","null","trial","32","","0.8,0.2","1:go_a","0",""
"null","","html-keyboard-response","601","875291","0.0-8.0-2.6","","<div style=""font-size:60px;"">+</div>","null","","","","","","",""
"396.2300000130199","","image-keyboard-response","602","875689","0.0-8.0-0.7","","img/yellow.png","32","trial","null","false","0.2,0.8","4:nogo_d","",""
"null","","html-keyboard-response","603","876698","0.0-8.0-1.7","","<img src=""img/yellow-n.png"" border=""10"">","null","trial","null","","0.2,0.8","4:nogo_d","0",""
"null","","html-keyboard-response","604","877705","0.0-8.0-2.7","","<div style=""font-size:60px;"">+</div>","null","","","","","","",""
"null","","image-keyboard-response","605","879213","0.0-8.0-0.8","","img/green.png","null","trial","32","false","0.8,0.2","3:go_c","",""
"null","","html-keyboard-response","606","880217","0.0-8.0-1.8","","<img src=""img/green-r.png"">","null","trial","32","","0.8,0.2","3:go_c","1",""
"null","","html-keyboard-response","607","881226","0.0-8.0-2.8","","<div style=""font-size:60px;"">+</div>","null","","","","","","",""
"null","","image-keyboard-response","608","882733","0.0-8.0-0.9","","img/blue.png","null","trial","32","false","0.8,0.2","1:go_a","",""
"null","","html-keyboard-response","609","883735","0.0-8.0-1.9","","<img src=""img/blue-n.png"">","null","trial","32","","0.8,0.2","1:go_a","0",""
"null","","html-keyboard-response","610","884741","0.0-8.0-2.9","","<div style=""font-size:60px;"">+</div>","null","","","","","","",""
"976.5949999855366","","image-keyboard-response","611","885719","0.0-8.0-0.10","","img/yellow.png","32","trial","null","false","0.2,0.8","4:nogo_d","",""
"null","","html-keyboard-response","612","886723","0.0-8.0-1.10","","<img src=""img/yellow-r.png"" border=""10"">","null","trial","null","","0.2,0.8","4:nogo_d","1",""
"null","","html-keyboard-response","613","887727","0.0-8.0-2.10","","<div style=""font-size:60px;"">+</div>","null","","","","","","",""
"449.1299999936018","","image-keyboard-response","614","888177","0.0-8.0-0.11","","img/red.png","32","trial","null","false","0.2,0.8","2:nogo_b","",""
"null","","html-keyboard-response","615","889195","0.0-8.0-1.11","","<img src=""img/red-n.png"" border=""10"">","null","trial","null","","0.2,0.8","2:nogo_b","0",""
"null","","html-keyboard-response","616","890197","0.0-8.0-2.11","","<div style=""font-size:60px;"">+</div>","null","","","","","","",""
"685.0649999978486","","image-keyboard-response","617","890883","0.0-8.0-0.12","","img/yellow.png","32","trial","null","false","0.2,0.8","4:nogo_d","",""
"null","","html-keyboard-response","618","891889","0.0-8.0-1.12","","<img src=""img/yellow-n.png"" border=""10"">","null","trial","null","","0.2,0.8","4:nogo_d","0",""
"null","","html-keyboard-response","619","892893","0.0-8.0-2.12","","<div style=""font-size:60px;"">+</div>","null","","","","","","",""
"583.7849999952596","","image-keyboard-response","620","893478","0.0-8.0-0.13","","img/green.png","32","trial","32","true","0.8,0.2","3:go_c","",""
"null","","html-keyboard-response","621","894482","0.0-8.0-1.13","","<img src=""img/green-r.png"" border=""10"">","null","trial","32","","0.8,0.2","3:go_c","1",""
"null","","html-keyboard-response","622","895490","0.0-8.0-2.13","","<div style=""font-size:60px;"">+</div>","null","","","","","","",""
"1347.4149999965448","","image-keyboard-response","623","896838","0.0-8.0-0.14","","img/blue.png","32","trial","32","true","0.8,0.2","1:go_a","",""
"null","","html-keyboard-response","624","897846","0.0-8.0-1.14","","<img src=""img/blue-r.png"" border=""10"">","null","trial","32","","0.8,0.2","1:go_a","1",""
"null","","html-keyboard-response","625","898850","0.0-8.0-2.14","","<div style=""font-size:60px;"">+</div>","null","","","","","","",""
"650.4349999886472","","image-keyboard-response","626","899502","0.0-8.0-0.15","","img/red.png","32","trial","null","false","0.2,0.8","2:nogo_b","",""
"null","","html-keyboard-response","627","900512","0.0-8.0-1.15","","<img src=""img/red-n.png"" border=""10"">","null","trial","null","","0.2,0.8","2:nogo_b","0",""
"null","","html-keyboard-response","628","901516","0.0-8.0-2.15","","<div style=""font-size:60px;"">+</div>","null","","","","","","",""
"261.5850000001956","","image-keyboard-response","629","901779","0.0-8.0-0.16","","img/yellow.png","32","trial","null","false","0.2,0.8","4:nogo_d","",""
"null","","html-keyboard-response","630","902794","0.0-8.0-1.16","","<img src=""img/yellow-n.png"" border=""10"">","null","trial","null","","0.2,0.8","4:nogo_d","0",""
"null","","html-keyboard-response","631","903799","0.0-8.0-2.16","","<div style=""font-size:60px;"">+</div>","null","","","","","","",""
"867.8299999737646","","image-keyboard-response","632","904668","0.0-8.0-0.17","","img/red.png","32","trial","null","false","0.2,0.8","2:nogo_b","",""
"null","","html-keyboard-response","633","905676","0.0-8.0-1.17","","<img src=""img/red-n.png"" border=""10"">","null","trial","null","","0.2,0.8","2:nogo_b","0",""
"null","","html-keyboard-response","634","906684","0.0-8.0-2.17","","<div style=""font-size:60px;"">+</div>","null","","","","","","",""
"780.0700000079814","","image-keyboard-response","635","907466","0.0-8.0-0.18","","img/green.png","32","trial","32","true","0.8,0.2","3:go_c","",""
"null","","html-keyboard-response","636","908472","0.0-8.0-1.18","","<img src=""img/green-r.png"" border=""10"">","null","trial","32","","0.8,0.2","3:go_c","1",""
"null","","html-keyboard-response","637","909476","0.0-8.0-2.18","","<div style=""font-size:60px;"">+</div>","null","","","","","","",""
"1385.8950000139885","","image-keyboard-response","638","910863","0.0-8.0-0.19","","img/blue.png","32","trial","32","true","0.8,0.2","1:go_a","",""
"null","","html-keyboard-response","639","911866","0.0-8.0-1.19","","<img src=""img/blue-n.png"" border=""10"">","null","trial","32","","0.8,0.2","1:go_a","0",""
"null","","html-keyboard-response","640","912868","0.0-8.0-2.19","","<div style=""font-size:60px;"">+</div>","null","","","","","","",""
"null","","image-keyboard-response","641","914374","0.0-8.0-0.20","","img/red.png","null","trial","null","true","0.2,0.8","2:nogo_b","",""
"null","","html-keyboard-response","642","915382","0.0-8.0-1.20","","<img src=""img/red-r.png"">","null","trial","null","","0.2,0.8","2:nogo_b","1",""
"null","","html-keyboard-response","643","916398","0.0-8.0-2.20","","<div style=""font-size:60px;"">+</div>","null","","","","","","",""
"698.8649999839254","","image-keyboard-response","644","917099","0.0-8.0-0.21","","img/green.png","32","trial","32","true","0.8,0.2","3:go_c","",""
"null","","html-keyboard-response","645","918104","0.0-8.0-1.21","","<img src=""img/green-r.png"" border=""10"">","null","trial","32","","0.8,0.2","3:go_c","1",""
"null","","html-keyboard-response","646","919112","0.0-8.0-2.21","","<div style=""font-size:60px;"">+</div>","null","","","","","","",""
"325.11999999405816","","image-keyboard-response","647","919439","0.0-8.0-0.22","","img/blue.png","32","trial","32","true","0.8,0.2","1:go_a","",""
"null","","html-keyboard-response","648","920453","0.0-8.0-1.22","","<img src=""img/blue-r.png"" border=""10"">","null","trial","32","","0.8,0.2","1:go_a","1",""
"null","","html-keyboard-response","649","921462","0.0-8.0-2.22","","<div style=""font-size:60px;"">+</div>","null","","","","","","",""
"1228.31999999471","","image-keyboard-response","650","922691","0.0-8.0-0.23","","img/yellow.png","32","trial","null","false","0.2,0.8","4:nogo_d","",""
"null","","html-keyboard-response","651","923695","0.0-8.0-1.23","","<img src=""img/yellow-n.png"" border=""10"">","null","trial","null","","0.2,0.8","4:nogo_d","0",""
"null","","html-keyboard-response","652","924705","0.0-8.0-2.23","","<div style=""font-size:60px;"">+</div>","null","","","","","","",""
"1433.0699999991339","","image-keyboard-response","653","926139","0.0-8.0-0.24","","img/red.png","32","trial","null","false","0.2,0.8","2:nogo_b","",""
"null","","html-keyboard-response","654","927145","0.0-8.0-1.24","","<img src=""img/red-n.png"" border=""10"">","null","trial","null","","0.2,0.8","2:nogo_b","0",""
"null","","html-keyboard-response","655","928150","0.0-8.0-2.24","","<div style=""font-size:60px;"">+</div>","null","","","","","","",""
"1456.7150000075344","","image-keyboard-response","656","929608","0.0-8.0-0.25","","img/yellow.png","32","trial","null","false","0.2,0.8","4:nogo_d","",""
"null","","html-keyboard-response","657","930610","0.0-8.0-1.25","","<img src=""img/yellow-n.png"" border=""10"">","null","trial","null","","0.2,0.8","4:nogo_d","0",""
"null","","html-keyboard-response","658","931625","0.0-8.0-2.25","","<div style=""font-size:60px;"">+</div>","null","","","","","","",""
"null","","image-keyboard-response","659","933130","0.0-8.0-0.26","","img/green.png","null","trial","32","false","0.8,0.2","3:go_c","",""
"null","","html-keyboard-response","660","934137","0.0-8.0-1.26","","<img src=""img/green-n.png"">","null","trial","32","","0.8,0.2","3:go_c","0",""
"null","","html-keyboard-response","661","935144","0.0-8.0-2.26","","<div style=""font-size:60px;"">+</div>","null","","","","","","",""
"null","","image-keyboard-response","662","936650","0.0-8.0-0.27","","img/blue.png","null","trial","32","false","0.8,0.2","1:go_a","",""
"null","","html-keyboard-response","663","937660","0.0-8.0-1.27","","<img src=""img/blue-n.png"">","null","trial","32","","0.8,0.2","1:go_a","0",""
"null","","html-keyboard-response","664","938676","0.0-8.0-2.27","","<div style=""font-size:60px;"">+</div>","null","","","","","","",""
"329.3249999987893","","image-keyboard-response","665","939007","0.0-8.0-0.28","","img/red.png","32","trial","null","false","0.2,0.8","2:nogo_b","",""
"null","","html-keyboard-response","666","940012","0.0-8.0-1.28","","<img src=""img/red-n.png"" border=""10"">","null","trial","null","","0.2,0.8","2:nogo_b","0",""
"null","","html-keyboard-response","667","941016","0.0-8.0-2.28","","<div style=""font-size:60px;"">+</div>","null","","","","","","",""
"null","","image-keyboard-response","668","942532","0.0-8.0-0.29","","img/yellow.png","null","trial","null","true","0.2,0.8","4:nogo_d","",""
"null","","html-keyboard-response","669","943536","0.0-8.0-1.29","","<img src=""img/yellow-r.png"">","null","trial","null","","0.2,0.8","4:nogo_d","1",""
"null","","html-keyboard-response","670","944544","0.0-8.0-2.29","","<div style=""font-size:60px;"">+</div>","null","","","","","","",""
"831.6500000073574","","image-keyboard-response","671","945376","0.0-8.0-0.30","","img/green.png","32","trial","32","true","0.8,0.2","3:go_c","",""
"null","","html-keyboard-response","672","946382","0.0-8.0-1.30","","<img src=""img/green-r.png"" border=""10"">","null","trial","32","","0.8,0.2","3:go_c","1",""
"null","","html-keyboard-response","673","947390","0.0-8.0-2.30","","<div style=""font-size:60px;"">+</div>","null","","","","","","",""
"670.8550000039395","","image-keyboard-response","674","948062","0.0-8.0-0.31","","img/blue.png","32","trial","32","true","0.8,0.2","1:go_a","",""
"null","","html-keyboard-response","675","949066","0.0-8.0-1.31","","<img src=""img/blue-n.png"" border=""10"">","null","trial","32","","0.8,0.2","1:go_a","0",""
