"rt","url","trial_type","trial_index","time_elapsed","internal_node_id","view_history","stimulus","key_press","test_part","correct_response","correct","use_rew","which_stim","reward","responses"
"1978058.7599999853","consent.html","external-html","0","1978253","0.0-0.0","","","","","","","","","",""
"165097.320000001","","instructions","1","2143352","0.0-1.0","[{""page_index"":0,""viewing_time"":5860.97000000882},{""page_index"":1,""viewing_time"":34963.9099999913},{""page_index"":2,""viewing_time"":10601.840000017546},{""page_index"":3,""viewing_time"":44140.079999982845},{""page_index"":4,""viewing_time"":22244.035000010394},{""page_index"":5,""viewing_time"":30876.00499999849},{""page_index"":6,""viewing_time"":16409.86499999417}]","","","","","","","","",""
"null","","image-keyboard-response","2","2144854","0.0-2.0-0.0","","img/test2.PNG","null","practice","null","true","","","",""
"null","","html-keyboard-response","3","2145856","0.0-2.0-1.0","","<img src=""img/test2-reward.PNG"">","null","","","","","","",""
"null","","html-keyboard-response","4","2146858","0.0-2.0-2.0","","<div style=""font-size:60px;"">+</div>","null","","","","","","",""
"545.4599999934435","","image-keyboard-response","5","2147404","0.0-2.0-0.1","","img/test1.PNG","32","practice","32","true","","","",""
"null","","html-keyboard-response","6","2148406","0.0-2.0-1.1","","<img src=""img/test1-reward.PNG"" border=""10px; grey"">","null","","","","","","",""
"null","","html-keyboard-response","7","2149407","0.0-2.0-2.1","","<div style=""font-size:60px;"">+</div>","null","","","","","","",""
"null","","image-keyboard-response","8","2150909","0.0-2.0-0.2","","img/test3.PNG","null","practice","null","true","","","",""
"null","","html-keyboard-response","9","2151910","0.0-2.0-1.2","","<img src=""img/test3-reward.PNG"">","null","","","","","","",""
"null","","html-keyboard-response","10","2152912","0.0-2.0-2.2","","<div style=""font-size:60px;"">+</div>","null","","","","","","",""
"null","","image-keyboard-response","11","2154414","0.0-2.0-0.3","","img/test2.PNG","null","practice","null","true","","","",""
"null","","html-keyboard-response","12","2155416","0.0-2.0-1.3","","<img src=""img/test2-reward.PNG"">","null","","","","","","",""
"null","","html-keyboard-response","13","2156416","0.0-2.0-2.3","","<div style=""font-size:60px;"">+</div>","null","","","","","","",""
"null","","image-keyboard-response","14","2157919","0.0-2.0-0.4","","img/test3.PNG","null","practice","null","true","","","",""
"null","","html-keyboard-response","15","2158921","0.0-2.0-1.4","","<img src=""img/test3-reward.PNG"">","null","","","","","","",""
"null","","html-keyboard-response","16","2159921","0.0-2.0-2.4","","<div style=""font-size:60px;"">+</div>","null","","","","","","",""
"417.5350000150502","","image-keyboard-response","17","2160340","0.0-2.0-0.5","","img/test1.PNG","32","practice","32","true","","","",""
"null","","html-keyboard-response","18","2161341","0.0-2.0-1.5","","<img src=""img/test1-reward.PNG"" border=""10px; grey"">","null","","","","","","",""
"null","","html-keyboard-response","19","2162343","0.0-2.0-2.5","","<div style=""font-size:60px;"">+</div>","null","","","","","","",""
"null","","image-keyboard-response","20","2163845","0.0-2.0-0.6","","img/test2.PNG","null","practice","null","true","","","",""
"null","","html-keyboard-response","21","2164847","0.0-2.0-1.6","","<img src=""img/test2-reward.PNG"">","null","","","","","","",""
"null","","html-keyboard-response","22","2165848","0.0-2.0-2.6","","<div style=""font-size:60px;"">+</div>","null","","","","","","",""
"370.75000000186265","","image-keyboard-response","23","2166220","0.0-2.0-0.7","","img/test1.PNG","32","practice","32","true","","","",""
"null","","html-keyboard-response","24","2167221","0.0-2.0-1.7","","<img src=""img/test1-reward.PNG"" border=""10px; grey"">","null","","","","","","",""
"null","","html-keyboard-response","25","2168223","0.0-2.0-2.7","","<div style=""font-size:60px;"">+</div>","null","","","","","","",""
"null","","image-keyboard-response","26","2169724","0.0-2.0-0.8","","img/test3.PNG","null","practice","null","true","","","",""
"null","","html-keyboard-response","27","2170725","0.0-2.0-1.8","","<img src=""img/test3-reward.PNG"">","null","","","","","","",""
"null","","html-keyboard-response","28","2171727","0.0-2.0-2.8","","<div style=""font-size:60px;"">+</div>","null","","","","","","",""
"null","","image-keyboard-response","29","2173228","0.0-2.0-0.9","","img/test3.PNG","null","practice","null","true","","","",""
"null","","html-keyboard-response","30","2174230","0.0-2.0-1.9","","<img src=""img/test3-reward.PNG"">","null","","","","","","",""
"null","","html-keyboard-response","31","2175231","0.0-2.0-2.9","","<div style=""font-size:60px;"">+</div>","null","","","","","","",""
"null","","image-keyboard-response","32","2176732","0.0-2.0-0.10","","img/test2.PNG","null","practice","null","true","","","",""
"null","","html-keyboard-response","33","2177734","0.0-2.0-1.10","","<img src=""img/test2-reward.PNG"">","null","","","","","","",""
"null","","html-keyboard-response","34","2178735","0.0-2.0-2.10","","<div style=""font-size:60px;"">+</div>","null","","","","","","",""
"499.77999998349696","","image-keyboard-response","35","2179236","0.0-2.0-0.11","","img/test1.PNG","32","practice","32","true","","","",""
"null","","html-keyboard-response","36","2180237","0.0-2.0-1.11","","<img src=""img/test1-reward.PNG"" border=""10px; grey"">","null","","","","","","",""
"null","","html-keyboard-response","37","2181238","0.0-2.0-2.11","","<div style=""font-size:60px;"">+</div>","null","","","","","","",""
"12181.409999989904","","instructions","38","2193420","0.0-3.0","[{""page_index"":0,""viewing_time"":12181.27999998955}]","","","","","","","","",""
"1174.5950000188313","","image-keyboard-response","39","2194596","0.0-4.0-0.0","","img/orange.png","32","trial","32","true","0.8,0.2","1:go_a","",""
"null","","html-keyboard-response","40","2195599","0.0-4.0-1.0","","<img src=""img/orange-n.png"" border=""10"">","null","trial","32","","0.8,0.2","1:go_a","0",""
"null","","html-keyboard-response","41","2196601","0.0-4.0-2.0","","<div style=""font-size:60px;"">+</div>","null","","","","","","",""
"1122.1199999856763","","image-keyboard-response","42","2197723","0.0-4.0-0.1","","img/yellow.png","32","trial","null","false","0.2,0.8","2:nogo_b","",""
"null","","html-keyboard-response","43","2198726","0.0-4.0-1.1","","<img src=""img/yellow-n.png"" border=""10"">","null","trial","null","","0.2,0.8","2:nogo_b","0",""
"null","","html-keyboard-response","44","2199728","0.0-4.0-2.1","","<div style=""font-size:60px;"">+</div>","null","","","","","","",""
"null","","image-keyboard-response","45","2201228","0.0-4.0-0.2","","img/yellow.png","null","trial","null","true","0.2,0.8","2:nogo_b","",""
"null","","html-keyboard-response","46","2202231","0.0-4.0-1.2","","<img src=""img/yellow-r.png"">","null","trial","null","","0.2,0.8","2:nogo_b","1",""
"null","","html-keyboard-response","47","2203232","0.0-4.0-2.2","","<div style=""font-size:60px;"">+</div>","null","","","","","","",""
"null","","image-keyboard-response","48","2204734","0.0-4.0-0.3","","img/orange.png","null","trial","32","false","0.8,0.2","1:go_a","",""
"null","","html-keyboard-response","49","2205736","0.0-4.0-1.3","","<img src=""img/orange-r.png"">","null","trial","32","","0.8,0.2","1:go_a","1",""
"null","","html-keyboard-response","50","2206738","0.0-4.0-2.3","","<div style=""font-size:60px;"">+</div>","null","","","","","","",""
"null","","image-keyboard-response","51","2208240","0.0-4.0-0.4","","img/orange.png","null","trial","32","false","0.8,0.2","1:go_a","",""
"null","","html-keyboard-response","52","2209241","0.0-4.0-1.4","","<img src=""img/orange-n.png"">","null","trial","32","","0.8,0.2","1:go_a","0",""
"null","","html-keyboard-response","53","2210243","0.0-4.0-2.4","","<div style=""font-size:60px;"">+</div>","null","","","","","","",""
"1008.4350000256673","","image-keyboard-response","54","2211252","0.0-4.0-0.5","","img/yellow.png","32","trial","null","false","0.2,0.8","2:nogo_b","",""
"null","","html-keyboard-response","55","2212253","0.0-4.0-1.5","","<img src=""img/yellow-n.png"" border=""10"">","null","trial","null","","0.2,0.8","2:nogo_b","0",""
"null","","html-keyboard-response","56","2213254","0.0-4.0-2.5","","<div style=""font-size:60px;"">+</div>","null","","","","","","",""
"null","","image-keyboard-response","57","2214756","0.0-4.0-0.6","","img/orange.png","null","trial","32","false","0.8,0.2","1:go_a","",""
"null","","html-keyboard-response","58","2215757","0.0-4.0-1.6","","<img src=""img/orange-n.png"">","null","trial","32","","0.8,0.2","1:go_a","0",""
"null","","html-keyboard-response","59","2216758","0.0-4.0-2.6","","<div style=""font-size:60px;"">+</div>","null","","","","","","",""
"null","","image-keyboard-response","60","2218259","0.0-4.0-0.7","","img/yellow.png","null","trial","null","true","0.2,0.8","2:nogo_b","",""
"null","","html-keyboard-response","61","2219260","0.0-4.0-1.7","","<img src=""img/yellow-n.png"">","null","trial","null","","0.2,0.8","2:nogo_b","0",""
"null","","html-keyboard-response","62","2220262","0.0-4.0-2.7","","<div style=""font-size:60px;"">+</div>","null","","","","","","",""
"null","","image-keyboard-response","63","2221763","0.0-4.0-0.8","","img/yellow.png","null","trial","null","true","0.2,0.8","2:nogo_b","",""
"null","","html-keyboard-response","64","2222765","0.0-4.0-1.8","","<img src=""img/yellow-r.png"">","null","trial","null","","0.2,0.8","2:nogo_b","1",""
"null","","html-keyboard-response","65","2223767","0.0-4.0-2.8","","<div style=""font-size:60px;"">+</div>","null","","","","","","",""
"1284.0800000121817","","image-keyboard-response","66","2225052","0.0-4.0-0.9","","img/orange.png","32","trial","32","true","0.8,0.2","1:go_a","",""
"null","","html-keyboard-response","67","2226054","0.0-4.0-1.9","","<img src=""img/orange-n.png"" border=""10"">","null","trial","32","","0.8,0.2","1:go_a","0",""
"null","","html-keyboard-response","68","2227055","0.0-4.0-2.9","","<div style=""font-size:60px;"">+</div>","null","","","","","","",""
"null","","image-keyboard-response","69","2228557","0.0-4.0-0.10","","img/orange.png","null","trial","32","false","0.8,0.2","1:go_a","",""
"null","","html-keyboard-response","70","2229560","0.0-4.0-1.10","","<img src=""img/orange-n.png"">","null","trial","32","","0.8,0.2","1:go_a","0",""
"null","","html-keyboard-response","71","2230561","0.0-4.0-2.10","","<div style=""font-size:60px;"">+</div>","null","","","","","","",""
"834.1650000074878","","image-keyboard-response","72","2231395","0.0-4.0-0.11","","img/yellow.png","32","trial","null","false","0.2,0.8","2:nogo_b","",""
"null","","html-keyboard-response","73","2232397","0.0-4.0-1.11","","<img src=""img/yellow-n.png"" border=""10"">","null","trial","null","","0.2,0.8","2:nogo_b","0",""
"null","","html-keyboard-response","74","2233399","0.0-4.0-2.11","","<div style=""font-size:60px;"">+</div>","null","","","","","","",""
"null","","image-keyboard-response","75","2234900","0.0-4.0-0.12","","img/orange.png","null","trial","32","false","0.8,0.2","1:go_a","",""
"null","","html-keyboard-response","76","2235902","0.0-4.0-1.12","","<img src=""img/orange-r.png"">","null","trial","32","","0.8,0.2","1:go_a","1",""
"null","","html-keyboard-response","77","2236903","0.0-4.0-2.12","","<div style=""font-size:60px;"">+</div>","null","","","","","","",""
"null","","image-keyboard-response","78","2238405","0.0-4.0-0.13","","img/yellow.png","null","trial","null","true","0.2,0.8","2:nogo_b","",""
"null","","html-keyboard-response","79","2239406","0.0-4.0-1.13","","<img src=""img/yellow-n.png"">","null","trial","null","","0.2,0.8","2:nogo_b","0",""
"null","","html-keyboard-response","80","2240407","0.0-4.0-2.13","","<div style=""font-size:60px;"">+</div>","null","","","","","","",""
"515.5850000157952","","image-keyboard-response","81","2240924","0.0-4.0-0.14","","img/orange.png","32","trial","32","true","0.8,0.2","1:go_a","",""
"null","","html-keyboard-response","82","2241925","0.0-4.0-1.14","","<img src=""img/orange-r.png"" border=""10"">","null","trial","32","","0.8,0.2","1:go_a","1",""
"null","","html-keyboard-response","83","2242927","0.0-4.0-2.14","","<div style=""font-size:60px;"">+</div>","null","","","","","","",""
"null","","image-keyboard-response","84","2244429","0.0-4.0-0.15","","img/yellow.png","null","trial","null","true","0.2,0.8","2:nogo_b","",""
"null","","html-keyboard-response","85","2245430","0.0-4.0-1.15","","<img src=""img/yellow-r.png"">","null","trial","null","","0.2,0.8","2:nogo_b","1",""
"null","","html-keyboard-response","86","2246431","0.0-4.0-2.15","","<div style=""font-size:60px;"">+</div>","null","","","","","","",""
"null","","image-keyboard-response","87","2247933","0.0-4.0-0.16","","img/yellow.png","null","trial","null","true","0.2,0.8","2:nogo_b","",""
"null","","html-keyboard-response","88","2248934","0.0-4.0-1.16","","<img src=""img/yellow-r.png"">","null","trial","null","","0.2,0.8","2:nogo_b","1",""
"null","","html-keyboard-response","89","2249936","0.0-4.0-2.16","","<div style=""font-size:60px;"">+</div>","null","","","","","","",""
"1035.264999984298","","image-keyboard-response","90","2250972","0.0-4.0-0.17","","img/orange.png","32","trial","32","true","0.8,0.2","1:go_a","",""
"null","","html-keyboard-response","91","2251973","0.0-4.0-1.17","","<img src=""img/orange-r.png"" border=""10"">","null","trial","32","","0.8,0.2","1:go_a","1",""
"null","","html-keyboard-response","92","2252974","0.0-4.0-2.17","","<div style=""font-size:60px;"">+</div>","null","","","","","","",""
"821.1000000005588","","image-keyboard-response","93","2253795","0.0-4.0-0.18","","img/yellow.png","32","trial","null","false","0.2,0.8","2:nogo_b","",""
"null","","html-keyboard-response","94","2254797","0.0-4.0-1.18","","<img src=""img/yellow-n.png"" border=""10"">","null","trial","null","","0.2,0.8","2:nogo_b","0",""
"null","","html-keyboard-response","95","2255799","0.0-4.0-2.18","","<div style=""font-size:60px;"">+</div>","null","","","","","","",""
"851.8049999838695","","image-keyboard-response","96","2256651","0.0-4.0-0.19","","img/orange.png","32","trial","32","true","0.8,0.2","1:go_a","",""
"null","","html-keyboard-response","97","2257655","0.0-4.0-1.19","","<img src=""img/orange-r.png"" border=""10"">","null","trial","32","","0.8,0.2","1:go_a","1",""
"null","","html-keyboard-response","98","2258655","0.0-4.0-2.19","","<div style=""font-size:60px;"">+</div>","null","","","","","","",""
"null","","image-keyboard-response","99","2260158","0.0-4.0-0.20","","img/yellow.png","null","trial","null","true","0.2,0.8","2:nogo_b","",""
"null","","html-keyboard-response","100","2261160","0.0-4.0-1.20","","<img src=""img/yellow-r.png"">","null","trial","null","","0.2,0.8","2:nogo_b","1",""
"null","","html-keyboard-response","101","2262161","0.0-4.0-2.20","","<div style=""font-size:60px;"">+</div>","null","","","","","","",""
"649.8999999896623","","image-keyboard-response","102","2262812","0.0-4.0-0.21","","img/orange.png","32","trial","32","true","0.8,0.2","1:go_a","",""
"null","","html-keyboard-response","103","2263815","0.0-4.0-1.21","","<img src=""img/orange-r.png"" border=""10"">","null","trial","32","","0.8,0.2","1:go_a","1",""
"null","","html-keyboard-response","104","2264816","0.0-4.0-2.21","","<div style=""font-size:60px;"">+</div>","null","","","","","","",""
"506.4750000019558","","image-keyboard-response","105","2265323","0.0-4.0-0.22","","img/orange.png","32","trial","32","true","0.8,0.2","1:go_a","",""
"null","","html-keyboard-response","106","2266325","0.0-4.0-1.22","","<img src=""img/orange-r.png"" border=""10"">","null","trial","32","","0.8,0.2","1:go_a","1",""
"null","","html-keyboard-response","107","2267327","0.0-4.0-2.22","","<div style=""font-size:60px;"">+</div>","null","","","","","","",""
"732.335000007879","","image-keyboard-response","108","2268059","0.0-4.0-0.23","","img/yellow.png","32","trial","null","false","0.2,0.8","2:nogo_b","",""
"null","","html-keyboard-response","109","2269061","0.0-4.0-1.23","","<img src=""img/yellow-r.png"" border=""10"">","null","trial","null","","0.2,0.8","2:nogo_b","1",""
"null","","html-keyboard-response","110","2270062","0.0-4.0-2.23","","<div style=""font-size:60px;"">+</div>","null","","","","","","",""
"628.919999988284","","image-keyboard-response","111","2270692","0.0-4.0-0.24","","img/yellow.png","32","trial","null","false","0.2,0.8","2:nogo_b","",""
"null","","html-keyboard-response","112","2271695","0.0-4.0-1.24","","<img src=""img/yellow-n.png"" border=""10"">","null","trial","null","","0.2,0.8","2:nogo_b","0",""
"null","","html-keyboard-response","113","2272696","0.0-4.0-2.24","","<div style=""font-size:60px;"">+</div>","null","","","","","","",""
"314.64500000560656","","image-keyboard-response","114","2273012","0.0-4.0-0.25","","img/orange.png","32","trial","32","true","0.8,0.2","1:go_a","",""
"null","","html-keyboard-response","115","2274013","0.0-4.0-1.25","","<img src=""img/orange-r.png"" border=""10"">","null","trial","32","","0.8,0.2","1:go_a","1",""
"null","","html-keyboard-response","116","2275015","0.0-4.0-2.25","","<div style=""font-size:60px;"">+</div>","null","","","","","","",""
"475.7950000059791","","image-keyboard-response","117","2275492","0.0-4.0-0.26","","img/orange.png","32","trial","32","true","0.8,0.2","1:go_a","",""
"null","","html-keyboard-response","118","2276496","0.0-4.0-1.26","","<img src=""img/orange-r.png"" border=""10"">","null","trial","32","","0.8,0.2","1:go_a","1",""
"null","","html-keyboard-response","119","2277498","0.0-4.0-2.26","","<div style=""font-size:60px;"">+</div>","null","","","","","","",""
"680.9350000116974","","image-keyboard-response","120","2278179","0.0-4.0-0.27","","img/yellow.png","32","trial","null","false","0.2,0.8","2:nogo_b","",""
"null","","html-keyboard-response","121","2279181","0.0-4.0-1.27","","<img src=""img/yellow-n.png"" border=""10"">","null","trial","null","","0.2,0.8","2:nogo_b","0",""
"null","","html-keyboard-response","122","2280182","0.0-4.0-2.27","","<div style=""font-size:60px;"">+</div>","null","","","","","","",""
"1100.5000000004657","","image-keyboard-response","123","2281284","0.0-4.0-0.28","","img/yellow.png","32","trial","null","false","0.2,0.8","2:nogo_b","",""
"null","","html-keyboard-response","124","2282286","0.0-4.0-1.28","","<img src=""img/yellow-n.png"" border=""10"">","null","trial","null","","0.2,0.8","2:nogo_b","0",""
"null","","html-keyboard-response","125","2283287","0.0-4.0-2.28","","<div style=""font-size:60px;"">+</div>","null","","","","","","",""
"867.4900000039488","","image-keyboard-response","126","2284163","0.0-4.0-0.29","","img/orange.png","32","trial","32","true","0.8,0.2","1:go_a","",""
"null","","html-keyboard-response","127","2285164","0.0-4.0-1.29","","<img src=""img/orange-r.png"" border=""10"">","null","trial","32","","0.8,0.2","1:go_a","1",""
"null","","html-keyboard-response","128","2286166","0.0-4.0-2.29","","<div style=""font-size:60px;"">+</div>","null","","","","","","",""
"836.2600000109524","","image-keyboard-response","129","2287003","0.0-4.0-0.30","","img/yellow.png","32","trial","null","false","0.2,0.8","2:nogo_b","",""
"null","","html-keyboard-response","130","2288005","0.0-4.0-1.30","","<img src=""img/yellow-n.png"" border=""10"">","null","trial","null","","0.2,0.8","2:nogo_b","0",""
"null","","html-keyboard-response","131","2289006","0.0-4.0-2.30","","<div style=""font-size:60px;"">+</div>","null","","","","","","",""
"643.7849999931641","","image-keyboard-response","132","2289651","0.0-4.0-0.31","","img/orange.png","32","trial","32","true","0.8,0.2","1:go_a","",""
"null","","html-keyboard-response","133","2290652","0.0-4.0-1.31","","<img src=""img/orange-r.png"" border=""10"">","null","trial","32","","0.8,0.2","1:go_a","1",""
"null","","html-keyboard-response","134","2291653","0.0-4.0-2.31","","<div style=""font-size:60px;"">+</div>","null","","","","","","",""
"null","","image-keyboard-response","135","2293155","0.0-4.0-0.32","","img/yellow.png","null","trial","null","true","0.2,0.8","2:nogo_b","",""
"null","","html-keyboard-response","136","2294157","0.0-4.0-1.32","","<img src=""img/yellow-r.png"">","null","trial","null","","0.2,0.8","2:nogo_b","1",""
"null","","html-keyboard-response","137","2295159","0.0-4.0-2.32","","<div style=""font-size:60px;"">+</div>","null","","","","","","",""
"763.1000000108033","","image-keyboard-response","138","2295923","0.0-4.0-0.33","","img/orange.png","32","trial","32","true","0.8,0.2","1:go_a","",""
"null","","html-keyboard-response","139","2296925","0.0-4.0-1.33","","<img src=""img/orange-n.png"" border=""10"">","null","trial","32","","0.8,0.2","1:go_a","0",""
"null","","html-keyboard-response","140","2297926","0.0-4.0-2.33","","<div style=""font-size:60px;"">+</div>","null","","","","","","",""
"611.6399999884889","","image-keyboard-response","141","2298539","0.0-4.0-0.34","","img/orange.png","32","trial","32","true","0.8,0.2","1:go_a","",""
"null","","html-keyboard-response","142","2299540","0.0-4.0-1.34","","<img src=""img/orange-r.png"" border=""10"">","null","trial","32","","0.8,0.2","1:go_a","1",""
"null","","html-keyboard-response","143","2300540","0.0-4.0-2.34","","<div style=""font-size:60px;"">+</div>","null","","","","","","",""
"405.68500000517815","","image-keyboard-response","144","2300947","0.0-4.0-0.35","","img/yellow.png","32","trial","null","false","0.2,0.8","2:nogo_b","",""
"null","","html-keyboard-response","145","2301949","0.0-4.0-1.35","","<img src=""img/yellow-r.png"" border=""10"">","null","trial","null","","0.2,0.8","2:nogo_b","1",""
"null","","html-keyboard-response","146","2302950","0.0-4.0-2.35","","<div style=""font-size:60px;"">+</div>","null","","","","","","",""
"588.4249999946915","","image-keyboard-response","147","2303539","0.0-4.0-0.36","","img/orange.png","32","trial","32","true","0.8,0.2","1:go_a","",""
"null","","html-keyboard-response","148","2304541","0.0-4.0-1.36","","<img src=""img/orange-n.png"" border=""10"">","null","trial","32","","0.8,0.2","1:go_a","0",""
"null","","html-keyboard-response","149","2305542","0.0-4.0-2.36","","<div style=""font-size:60px;"">+</div>","null","","","","","","",""
"602.9550000093877","","image-keyboard-response","150","2306147","0.0-4.0-0.37","","img/yellow.png","32","trial","null","false","0.2,0.8","2:nogo_b","",""
"null","","html-keyboard-response","151","2307148","0.0-4.0-1.37","","<img src=""img/yellow-n.png"" border=""10"">","null","trial","null","","0.2,0.8","2:nogo_b","0",""
"null","","html-keyboard-response","152","2308149","0.0-4.0-2.37","","<div style=""font-size:60px;"">+</div>","null","","","","","","",""
"444.8750000158325","","image-keyboard-response","153","2308595","0.0-4.0-0.38","","img/orange.png","32","trial","32","true","0.8,0.2","1:go_a","",""
"null","","html-keyboard-response","154","2309596","0.0-4.0-1.38","","<img src=""img/orange-r.png"" border=""10"">","null","trial","32","","0.8,0.2","1:go_a","1",""
"null","","html-keyboard-response","155","2310597","0.0-4.0-2.38","","<div style=""font-size:60px;"">+</div>","null","","","","","","",""
"1165.4449999919161","","image-keyboard-response","156","2311763","0.0-4.0-0.39","","img/yellow.png","32","trial","null","false","0.2,0.8","2:nogo_b","",""
"null","","html-keyboard-response","157","2312764","0.0-4.0-1.39","","<img src=""img/yellow-n.png"" border=""10"">","null","trial","null","","0.2,0.8","2:nogo_b","0",""
"null","","html-keyboard-response","158","2313765","0.0-4.0-2.39","","<div style=""font-size:60px;"">+</div>","null","","","","","","",""
"733.5049999817275","","image-keyboard-response","159","2314499","0.0-4.0-0.40","","img/yellow.png","32","trial","null","false","0.2,0.8","2:nogo_b","",""
"null","","html-keyboard-response","160","2315503","0.0-4.0-1.40","","<img src=""img/yellow-r.png"" border=""10"">","null","trial","null","","0.2,0.8","2:nogo_b","1",""
"null","","html-keyboard-response","161","2316504","0.0-4.0-2.40","","<div style=""font-size:60px;"">+</div>","null","","","","","","",""
"578.4850000054576","","image-keyboard-response","162","2317083","0.0-4.0-0.41","","img/orange.png","32","trial","32","true","0.8,0.2","1:go_a","",""
"null","","html-keyboard-response","163","2318085","0.0-4.0-1.41","","<img src=""img/orange-n.png"" border=""10"">","null","trial","32","","0.8,0.2","1:go_a","0",""
"null","","html-keyboard-response","164","2319087","0.0-4.0-2.41","","<div style=""font-size:60px;"">+</div>","null","","","","","","",""
"611.2949999808334","","image-keyboard-response","165","2319699","0.0-4.0-0.42","","img/orange.png","32","trial","32","true","0.8,0.2","1:go_a","",""
"null","","html-keyboard-response","166","2320700","0.0-4.0-1.42","","<img src=""img/orange-r.png"" border=""10"">","null","trial","32","","0.8,0.2","1:go_a","1",""
"null","","html-keyboard-response","167","2321702","0.0-4.0-2.42","","<div style=""font-size:60px;"">+</div>","null","","","","","","",""
"null","","image-keyboard-response","168","2323203","0.0-4.0-0.43","","img/yellow.png","null","trial","null","true","0.2,0.8","2:nogo_b","",""
"null","","html-keyboard-response","169","2324205","0.0-4.0-1.43","","<img src=""img/yellow-n.png"">","null","trial","null","","0.2,0.8","2:nogo_b","0",""
"null","","html-keyboard-response","170","2325207","0.0-4.0-2.43","","<div style=""font-size:60px;"">+</div>","null","","","","","","",""
"323.13999999314547","","image-keyboard-response","171","2325531","0.0-4.0-0.44","","img/orange.png","32","trial","32","true","0.8,0.2","1:go_a","",""
"null","","html-keyboard-response","172","2326533","0.0-4.0-1.44","","<img src=""img/orange-r.png"" border=""10"">","null","trial","32","","0.8,0.2","1:go_a","1",""
"null","","html-keyboard-response","173","2327534","0.0-4.0-2.44","","<div style=""font-size:60px;"">+</div>","null","","","","","","",""
"null","","image-keyboard-response","174","2329036","0.0-4.0-0.45","","img/yellow.png","null","trial","null","true","0.2,0.8","2:nogo_b","",""
"null","","html-keyboard-response","175","2330038","0.0-4.0-1.45","","<img src=""img/yellow-r.png"">","null","trial","null","","0.2,0.8","2:nogo_b","1",""
"null","","html-keyboard-response","176","2331039","0.0-4.0-2.45","","<div style=""font-size:60px;"">+</div>","null","","","","","","",""
"147.19499999750406","","image-keyboard-response","177","2331187","0.0-4.0-0.46","","img/orange.png","32","trial","32","true","0.8,0.2","1:go_a","",""
"null","","html-keyboard-response","178","2332188","0.0-4.0-1.46","","<img src=""img/orange-r.png"" border=""10"">","null","trial","32","","0.8,0.2","1:go_a","1",""
"null","","html-keyboard-response","179","2333189","0.0-4.0-2.46","","<div style=""font-size:60px;"">+</div>","null","","","","","","",""
"null","","image-keyboard-response","180","2334690","0.0-4.0-0.47","","img/yellow.png","null","trial","null","true","0.2,0.8","2:nogo_b","",""
"null","","html-keyboard-response","181","2335691","0.0-4.0-1.47","","<img src=""img/yellow-r.png"">","null","trial","null","","0.2,0.8","2:nogo_b","1",""
"null","","html-keyboard-response","182","2336693","0.0-4.0-2.47","","<div style=""font-size:60px;"">+</div>","null","","","","","","",""
"381.6399999782443","","image-keyboard-response","183","2337075","0.0-4.0-0.48","","img/orange.png","32","trial","32","true","0.8,0.2","1:go_a","",""
"null","","html-keyboard-response","184","2338077","0.0-4.0-1.48","","<img src=""img/orange-r.png"" border=""10"">","null","trial","32","","0.8,0.2","1:go_a","1",""
"null","","html-keyboard-response","185","2339078","0.0-4.0-2.48","","<div style=""font-size:60px;"">+</div>","null","","","","","","",""
"644.2999999853782","","image-keyboard-response","186","2339723","0.0-4.0-0.49","","img/yellow.png","32","trial","null","false","0.2,0.8","2:nogo_b","",""
"null","","html-keyboard-response","187","2340724","0.0-4.0-1.49","","<img src=""img/yellow-r.png"" border=""10"">","null","trial","null","","0.2,0.8","2:nogo_b","1",""
"null","","html-keyboard-response","188","2341726","0.0-4.0-2.49","","<div style=""font-size:60px;"">+</div>","null","","","","","","",""
"540.6749999965541","","image-keyboard-response","189","2342267","0.0-4.0-0.50","","img/yellow.png","32","trial","null","false","0.2,0.8","2:nogo_b","",""
"null","","html-keyboard-response","190","2343270","0.0-4.0-1.50","","<img src=""img/yellow-n.png"" border=""10"">","null","trial","null","","0.2,0.8","2:nogo_b","0",""
"null","","html-keyboard-response","191","2344271","0.0-4.0-2.50","","<div style=""font-size:60px;"">+</div>","null","","","","","","",""
"387.6450000097975","","image-keyboard-response","192","2344659","0.0-4.0-0.51","","img/orange.png","32","trial","32","true","0.8,0.2","1:go_a","",""
"null","","html-keyboard-response","193","2345661","0.0-4.0-1.51","","<img src=""img/orange-r.png"" border=""10"">","null","trial","32","","0.8,0.2","1:go_a","1",""
"null","","html-keyboard-response","194","2346662","0.0-4.0-2.51","","<div style=""font-size:60px;"">+</div>","null","","","","","","",""
"null","","image-keyboard-response","195","2348163","0.0-4.0-0.52","","img/yellow.png","null","trial","null","true","0.2,0.8","2:nogo_b","",""
"null","","html-keyboard-response","196","2349164","0.0-4.0-1.52","","<img src=""img/yellow-r.png"">","null","trial","null","","0.2,0.8","2:nogo_b","1",""
"null","","html-keyboard-response","197","2350166","0.0-4.0-2.52","","<div style=""font-size:60px;"">+</div>","null","","","","","","",""
"397.32499999785796","","image-keyboard-response","198","2350563","0.0-4.0-0.53","","img/orange.png","32","trial","32","true","0.8,0.2","1:go_a","",""
"null","","html-keyboard-response","199","2351566","0.0-4.0-1.53","","<img src=""img/orange-r.png"" border=""10"">","null","trial","32","","0.8,0.2","1:go_a","1",""
"null","","html-keyboard-response","200","2352568","0.0-4.0-2.53","","<div style=""font-size:60px;"">+</div>","null","","","","","","",""
"387.4949999731034","","image-keyboard-response","201","2352956","0.0-4.0-0.54","","img/yellow.png","32","trial","null","false","0.2,0.8","2:nogo_b","",""
"null","","html-keyboard-response","202","2353957","0.0-4.0-1.54","","<img src=""img/yellow-n.png"" border=""10"">","null","trial","null","","0.2,0.8","2:nogo_b","0",""
"null","","html-keyboard-response","203","2354959","0.0-4.0-2.54","","<div style=""font-size:60px;"">+</div>","null","","","","","","",""
"556.0249999980442","","image-keyboard-response","204","2355516","0.0-4.0-0.55","","img/orange.png","32","trial","32","true","0.8,0.2","1:go_a","",""
"null","","html-keyboard-response","205","2356518","0.0-4.0-1.55","","<img src=""img/orange-r.png"" border=""10"">","null","trial","32","","0.8,0.2","1:go_a","1",""
"null","","html-keyboard-response","206","2357520","0.0-4.0-2.55","","<div style=""font-size:60px;"">+</div>","null","","","","","","",""
"null","","image-keyboard-response","207","2359021","0.0-4.0-0.56","","img/yellow.png","null","trial","null","true","0.2,0.8","2:nogo_b","",""
"null","","html-keyboard-response","208","2360023","0.0-4.0-1.56","","<img src=""img/yellow-n.png"">","null","trial","null","","0.2,0.8","2:nogo_b","0",""
"null","","html-keyboard-response","209","2361025","0.0-4.0-2.56","","<div style=""font-size:60px;"">+</div>","null","","","","","","",""
"577.8450000211596","","image-keyboard-response","210","2361604","0.0-4.0-0.57","","img/orange.png","32","trial","32","true","0.8,0.2","1:go_a","",""
"null","","html-keyboard-response","211","2362607","0.0-4.0-1.57","","<img src=""img/orange-r.png"" border=""10"">","null","trial","32","","0.8,0.2","1:go_a","1",""
"null","","html-keyboard-response","212","2363609","0.0-4.0-2.57","","<div style=""font-size:60px;"">+</div>","null","","","","","","",""
"800.9400000153109","","image-keyboard-response","213","2364412","0.0-4.0-0.58","","img/orange.png","32","trial","32","true","0.8,0.2","1:go_a","",""
"null","","html-keyboard-response","214","2365413","0.0-4.0-1.58","","<img src=""img/orange-n.png"" border=""10"">","null","trial","32","","0.8,0.2","1:go_a","0",""
"null","","html-keyboard-response","215","2366414","0.0-4.0-2.58","","<div style=""font-size:60px;"">+</div>","null","","","","","","",""
"null","","image-keyboard-response","216","2367916","0.0-4.0-0.59","","img/yellow.png","null","trial","null","true","0.2,0.8","2:nogo_b","",""
"null","","html-keyboard-response","217","2368917","0.0-4.0-1.59","","<img src=""img/yellow-r.png"">","null","trial","null","","0.2,0.8","2:nogo_b","1",""
"null","","html-keyboard-response","218","2369918","0.0-4.0-2.59","","<div style=""font-size:60px;"">+</div>","null","","","","","","",""
"17871.409999992233","","instructions","219","2387790","0.0-5.0","[{""page_index"":0,""viewing_time"":17871.274999982677}]","","","","","","","","",""
"1044.8049999829382","","image-keyboard-response","220","2388835","0.0-6.0-0.0","","img/red.png","32","trial","null","false","0,1","4:nogo_d","",""
"null","","html-keyboard-response","221","2389838","0.0-6.0-1.0","","<img src=""img/red-n.png"" border=""10"">","null","trial","null","","0,1","4:nogo_d","0",""
"null","","html-keyboard-response","222","2390839","0.0-6.0-2.0","","<div style=""font-size:60px;"">+</div>","null","","","","","","",""
"347.2849999964237","","image-keyboard-response","223","2391187","0.0-6.0-0.1","","img/blue.png","32","trial","null","false","0.2,0.8","2:nogo_b","",""
"null","","html-keyboard-response","224","2392189","0.0-6.0-1.1","","<img src=""img/blue-n.png"" border=""10"">","null","trial","null","","0.2,0.8","2:nogo_b","0",""
"null","","html-keyboard-response","225","2393190","0.0-6.0-2.1","","<div style=""font-size:60px;"">+</div>","null","","","","","","",""
"628.9150000084192","","image-keyboard-response","226","2393819","0.0-6.0-0.2","","img/green.png","32","trial","32","true","1,0","3:go_c","",""
"null","","html-keyboard-response","227","2394822","0.0-6.0-1.2","","<img src=""img/green-r.png"" border=""10"">","null","trial","32","","1,0","3:go_c","1",""
"null","","html-keyboard-response","228","2395823","0.0-6.0-2.2","","<div style=""font-size:60px;"">+</div>","null","","","","","","",""
"1012.1349999969825","","image-keyboard-response","229","2396835","0.0-6.0-0.3","","img/purple.png","32","trial","32","true","0.8,0.2","1:go_a","",""
"null","","html-keyboard-response","230","2397836","0.0-6.0-1.3","","<img src=""img/purple-n.png"" border=""10"">","null","trial","32","","0.8,0.2","1:go_a","0",""
"null","","html-keyboard-response","231","2398837","0.0-6.0-2.3","","<div style=""font-size:60px;"">+</div>","null","","","","","","",""
"1205.4449999993667","","image-keyboard-response","232","2400043","0.0-6.0-0.4","","img/purple.png","32","trial","32","true","0.8,0.2","1:go_a","",""
"null","","html-keyboard-response","233","2401045","0.0-6.0-1.4","","<img src=""img/purple-n.png"" border=""10"">","null","trial","32","","0.8,0.2","1:go_a","0",""
"null","","html-keyboard-response","234","2402047","0.0-6.0-2.4","","<div style=""font-size:60px;"">+</div>","null","","","","","","",""
"659.8949999902397","","image-keyboard-response","235","2402707","0.0-6.0-0.5","","img/red.png","32","trial","null","false","0,1","4:nogo_d","",""
"null","","html-keyboard-response","236","2403709","0.0-6.0-1.5","","<img src=""img/red-n.png"" border=""10"">","null","trial","null","","0,1","4:nogo_d","0",""
"null","","html-keyboard-response","237","2404711","0.0-6.0-2.5","","<div style=""font-size:60px;"">+</div>","null","","","","","","",""
"555.7649999978021","","image-keyboard-response","238","2405267","0.0-6.0-0.6","","img/green.png","32","trial","32","true","1,0","3:go_c","",""
"null","","html-keyboard-response","239","2406269","0.0-6.0-1.6","","<img src=""img/green-r.png"" border=""10"">","null","trial","32","","1,0","3:go_c","1",""
"null","","html-keyboard-response","240","2407270","0.0-6.0-2.6","","<div style=""font-size:60px;"">+</div>","null","","","","","","",""
"null","","image-keyboard-response","241","2408771","0.0-6.0-0.7","","img/blue.png","null","trial","null","true","0.2,0.8","2:nogo_b","",""
"null","","html-keyboard-response","242","2409773","0.0-6.0-1.7","","<img src=""img/blue-r.png"">","null","trial","null","","0.2,0.8","2:nogo_b","1",""
"null","","html-keyboard-response","243","2410774","0.0-6.0-2.7","","<div style=""font-size:60px;"">+</div>","null","","","","","","",""
"1132.465000002645","","image-keyboard-response","244","2411907","0.0-6.0-0.8","","img/green.png","32","trial","32","true","1,0","3:go_c","",""
"null","","html-keyboard-response","245","2412910","0.0-6.0-1.8","","<img src=""img/green-r.png"" border=""10"">","null","trial","32","","1,0","3:go_c","1",""
"null","","html-keyboard-response","246","2413911","0.0-6.0-2.8","","<div style=""font-size:60px;"">+</div>","null","","","","","","",""
"null","","image-keyboard-response","247","2415413","0.0-6.0-0.9","","img/red.png","null","trial","null","true","0,1","4:nogo_d","",""
"null","","html-keyboard-response","248","2416415","0.0-6.0-1.9","","<img src=""img/red-r.png"">","null","trial","null","","0,1","4:nogo_d","1",""
"null","","html-keyboard-response","249","2417415","0.0-6.0-2.9","","<div style=""font-size:60px;"">+</div>","null","","","","","","",""
"null","","image-keyboard-response","250","2418917","0.0-6.0-0.10","","img/blue.png","null","trial","null","true","0.2,0.8","2:nogo_b","",""
"null","","html-keyboard-response","251","2419918","0.0-6.0-1.10","","<img src=""img/blue-r.png"">","null","trial","null","","0.2,0.8","2:nogo_b","1",""
"null","","html-keyboard-response","252","2420920","0.0-6.0-2.10","","<div style=""font-size:60px;"">+</div>","null","","","","","","",""
"null","","image-keyboard-response","253","2422421","0.0-6.0-0.11","","img/purple.png","null","trial","32","false","0.8,0.2","1:go_a","",""
"null","","html-keyboard-response","254","2423423","0.0-6.0-1.11","","<img src=""img/purple-n.png"">","null","trial","32","","0.8,0.2","1:go_a","0",""
"null","","html-keyboard-response","255","2424424","0.0-6.0-2.11","","<div style=""font-size:60px;"">+</div>","null","","","","","","",""
"null","","image-keyboard-response","256","2425925","0.0-6.0-0.12","","img/purple.png","null","trial","32","false","0.8,0.2","1:go_a","",""
"null","","html-keyboard-response","257","2426926","0.0-6.0-1.12","","<img src=""img/purple-r.png"">","null","trial","32","","0.8,0.2","1:go_a","1",""
"null","","html-keyboard-response","258","2427927","0.0-6.0-2.12","","<div style=""font-size:60px;"">+</div>","null","","","","","","",""
"null","","image-keyboard-response","259","2429428","0.0-6.0-0.13","","img/red.png","null","trial","null","true","0,1","4:nogo_d","",""
"null","","html-keyboard-response","260","2430430","0.0-6.0-1.13","","<img src=""img/red-r.png"">","null","trial","null","","0,1","4:nogo_d","1",""
"null","","html-keyboard-response","261","2431431","0.0-6.0-2.13","","<div style=""font-size:60px;"">+</div>","null","","","","","","",""
"547.9650000049733","","image-keyboard-response","262","2431980","0.0-6.0-0.14","","img/green.png","32","trial","32","true","1,0","3:go_c","",""
"null","","html-keyboard-response","263","2432981","0.0-6.0-1.14","","<img src=""img/green-r.png"" border=""10"">","null","trial","32","","1,0","3:go_c","1",""
"null","","html-keyboard-response","264","2433981","0.0-6.0-2.14","","<div style=""font-size:60px;"">+</div>","null","","","","","","",""
"1101.374999998603","","image-keyboard-response","265","2435083","0.0-6.0-0.15","","img/blue.png","32","trial","null","false","0.2,0.8","2:nogo_b","",""
"null","","html-keyboard-response","266","2436085","0.0-6.0-1.15","","<img src=""img/blue-n.png"" border=""10"">","null","trial","null","","0.2,0.8","2:nogo_b","0",""
"null","","html-keyboard-response","267","2437086","0.0-6.0-2.15","","<div style=""font-size:60px;"">+</div>","null","","","","","","",""
"null","","image-keyboard-response","268","2438587","0.0-6.0-0.16","","img/blue.png","null","trial","null","true","0.2,0.8","2:nogo_b","",""
"null","","html-keyboard-response","269","2439589","0.0-6.0-1.16","","<img src=""img/blue-r.png"">","null","trial","null","","0.2,0.8","2:nogo_b","1",""
"null","","html-keyboard-response","270","2440591","0.0-6.0-2.16","","<div style=""font-size:60px;"">+</div>","null","","","","","","",""
"null","","image-keyboard-response","271","2442092","0.0-6.0-0.17","","img/purple.png","null","trial","32","false","0.8,0.2","1:go_a","",""
"null","","html-keyboard-response","272","2443094","0.0-6.0-1.17","","<img src=""img/purple-n.png"">","null","trial","32","","0.8,0.2","1:go_a","0",""
"null","","html-keyboard-response","273","2444096","0.0-6.0-2.17","","<div style=""font-size:60px;"">+</div>","null","","","","","","",""
"738.9449999900535","","image-keyboard-response","274","2444835","0.0-6.0-0.18","","img/green.png","32","trial","32","true","1,0","3:go_c","",""
"null","","html-keyboard-response","275","2445837","0.0-6.0-1.18","","<img src=""img/green-r.png"" border=""10"">","null","trial","32","","1,0","3:go_c","1",""
"null","","html-keyboard-response","276","2446838","0.0-6.0-2.18","","<div style=""font-size:60px;"">+</div>","null","","","","","","",""
"772.7500000037253","","image-keyboard-response","277","2447611","0.0-6.0-0.19","","img/red.png","32","trial","null","false","0,1","4:nogo_d","",""
"null","","html-keyboard-response","278","2448613","0.0-6.0-1.19","","<img src=""img/red-n.png"" border=""10"">","null","trial","null","","0,1","4:nogo_d","0",""
"null","","html-keyboard-response","279","2449614","0.0-6.0-2.19","","<div style=""font-size:60px;"">+</div>","null","","","","","","",""
"null","","image-keyboard-response","280","2451116","0.0-6.0-0.20","","img/purple.png","null","trial","32","false","0.8,0.2","1:go_a","",""
"null","","html-keyboard-response","281","2452118","0.0-6.0-1.20","","<img src=""img/purple-n.png"">","null","trial","32","","0.8,0.2","1:go_a","0",""
"null","","html-keyboard-response","282","2453119","0.0-6.0-2.20","","<div style=""font-size:60px;"">+</div>","null","","","","","","",""
"731.6850000061095","","image-keyboard-response","283","2453851","0.0-6.0-0.21","","img/red.png","32","trial","null","false","0,1","4:nogo_d","",""
"null","","html-keyboard-response","284","2454853","0.0-6.0-1.21","","<img src=""img/red-n.png"" border=""10"">","null","trial","null","","0,1","4:nogo_d","0",""
"null","","html-keyboard-response","285","2455854","0.0-6.0-2.21","","<div style=""font-size:60px;"">+</div>","null","","","","","","",""
"748.5600000075065","","image-keyboard-response","286","2456603","0.0-6.0-0.22","","img/green.png","32","trial","32","true","1,0","3:go_c","",""
"null","","html-keyboard-response","287","2457605","0.0-6.0-1.22","","<img src=""img/green-r.png"" border=""10"">","null","trial","32","","1,0","3:go_c","1",""
"null","","html-keyboard-response","288","2458606","0.0-6.0-2.22","","<div style=""font-size:60px;"">+</div>","null","","","","","","",""
"null","","image-keyboard-response","289","2460108","0.0-6.0-0.23","","img/blue.png","null","trial","null","true","0.2,0.8","2:nogo_b","",""
"null","","html-keyboard-response","290","2461109","0.0-6.0-1.23","","<img src=""img/blue-r.png"">","null","trial","null","","0.2,0.8","2:nogo_b","1",""
"null","","html-keyboard-response","291","2462110","0.0-6.0-2.23","","<div style=""font-size:60px;"">+</div>","null","","","","","","",""
"652.5499999988824","","image-keyboard-response","292","2462763","0.0-6.0-0.24","","img/blue.png","32","trial","null","false","0.2,0.8","2:nogo_b","",""
"null","","html-keyboard-response","293","2463765","0.0-6.0-1.24","","<img src=""img/blue-n.png"" border=""10"">","null","trial","null","","0.2,0.8","2:nogo_b","0",""
"null","","html-keyboard-response","294","2464766","0.0-6.0-2.24","","<div style=""font-size:60px;"">+</div>","null","","","","","","",""
"796.6850000079721","","image-keyboard-response","295","2465563","0.0-6.0-0.25","","img/red.png","32","trial","null","false","0,1","4:nogo_d","",""
"null","","html-keyboard-response","296","2466565","0.0-6.0-1.25","","<img src=""img/red-n.png"" border=""10"">","null","trial","null","","0,1","4:nogo_d","0",""
"null","","html-keyboard-response","297","2467566","0.0-6.0-2.25","","<div style=""font-size:60px;"">+</div>","null","","","","","","",""
"836.9200000013225","","image-keyboard-response","298","2468403","0.0-6.0-0.26","","img/green.png","32","trial","32","true","1,0","3:go_c","",""
"null","","html-keyboard-response","299","2469406","0.0-6.0-1.26","","<img src=""img/green-r.png"" border=""10"">","null","trial","32","","1,0","3:go_c","1",""
"null","","html-keyboard-response","300","2470407","0.0-6.0-2.26","","<div style=""font-size:60px;"">+</div>","null","","","","","","",""
"null","","image-keyboard-response","301","2471909","0.0-6.0-0.27","","img/purple.png","null","trial","32","false","0.8,0.2","1:go_a","",""
"null","","html-keyboard-response","302","2472911","0.0-6.0-1.27","","<img src=""img/purple-n.png"">","null","trial","32","","0.8,0.2","1:go_a","0",""
"null","","html-keyboard-response","303","2473911","0.0-6.0-2.27","","<div style=""font-size:60px;"">+</div>","null","","","","","","",""
"null","","image-keyboard-response","304","2475413","0.0-6.0-0.28","","img/red.png","null","trial","null","true","0,1","4:nogo_d","",""
"null","","html-keyboard-response","305","2476415","0.0-6.0-1.28","","<img src=""img/red-r.png"">","null","trial","null","","0,1","4:nogo_d","1",""
"null","","html-keyboard-response","306","2477417","0.0-6.0-2.28","","<div style=""font-size:60px;"">+</div>","null","","","","","","",""
"null","","image-keyboard-response","307","2478919","0.0-6.0-0.29","","img/blue.png","null","trial","null","true","0.2,0.8","2:nogo_b","",""
"null","","html-keyboard-response","308","2479921","0.0-6.0-1.29","","<img src=""img/blue-r.png"">","null","trial","null","","0.2,0.8","2:nogo_b","1",""
"null","","html-keyboard-response","309","2480922","0.0-6.0-2.29","","<div style=""font-size:60px;"">+</div>","null","","","","","","",""
"672.9650000054389","","image-keyboard-response","310","2481595","0.0-6.0-0.30","","img/green.png","32","trial","32","true","1,0","3:go_c","",""
"null","","html-keyboard-response","311","2482597","0.0-6.0-1.30","","<img src=""img/green-r.png"" border=""10"">","null","trial","32","","1,0","3:go_c","1",""
"null","","html-keyboard-response","312","2483598","0.0-6.0-2.30","","<div style=""font-size:60px;"">+</div>","null","","","","","","",""
"null","","image-keyboard-response","313","2485099","0.0-6.0-0.31","","img/purple.png","null","trial","32","false","0.8,0.2","1:go_a","",""
"null","","html-keyboard-response","314","2486101","0.0-6.0-1.31","","<img src=""img/purple-n.png"">","null","trial","32","","0.8,0.2","1:go_a","0",""
"null","","html-keyboard-response","315","2487103","0.0-6.0-2.31","","<div style=""font-size:60px;"">+</div>","null","","","","","","",""
"763.5550000118092","","image-keyboard-response","316","2487867","0.0-6.0-0.32","","img/red.png","32","trial","null","false","0,1","4:nogo_d","",""
"null","","html-keyboard-response","317","2488869","0.0-6.0-1.32","","<img src=""img/red-n.png"" border=""10"">","null","trial","null","","0,1","4:nogo_d","0",""
"null","","html-keyboard-response","318","2489871","0.0-6.0-2.32","","<div style=""font-size:60px;"">+</div>","null","","","","","","",""
"660.620000009425","","image-keyboard-response","319","2490532","0.0-6.0-0.33","","img/green.png","32","trial","32","true","1,0","3:go_c","",""
"null","","html-keyboard-response","320","2491534","0.0-6.0-1.33","","<img src=""img/green-r.png"" border=""10"">","null","trial","32","","1,0","3:go_c","1",""
"null","","html-keyboard-response","321","2492536","0.0-6.0-2.33","","<div style=""font-size:60px;"">+</div>","null","","","","","","",""
"null","","image-keyboard-response","322","2494037","0.0-6.0-0.34","","img/purple.png","null","trial","32","false","0.8,0.2","1:go_a","",""
"null","","html-keyboard-response","323","2495039","0.0-6.0-1.34","","<img src=""img/purple-n.png"">","null","trial","32","","0.8,0.2","1:go_a","0",""
"null","","html-keyboard-response","324","2496039","0.0-6.0-2.34","","<div style=""font-size:60px;"">+</div>","null","","","","","","",""
"827.4600000008941","","image-keyboard-response","325","2496867","0.0-6.0-0.35","","img/blue.png","32","trial","null","false","0.2,0.8","2:nogo_b","",""
"null","","html-keyboard-response","326","2497870","0.0-6.0-1.35","","<img src=""img/blue-n.png"" border=""10"">","null","trial","null","","0.2,0.8","2:nogo_b","0",""
"null","","html-keyboard-response","327","2498871","0.0-6.0-2.35","","<div style=""font-size:60px;"">+</div>","null","","","","","","",""
"635.5649999752641","","image-keyboard-response","328","2499507","0.0-6.0-0.36","","img/blue.png","32","trial","null","false","0.2,0.8","2:nogo_b","",""
"null","","html-keyboard-response","329","2500509","0.0-6.0-1.36","","<img src=""img/blue-n.png"" border=""10"">","null","trial","null","","0.2,0.8","2:nogo_b","0",""
"null","","html-keyboard-response","330","2501511","0.0-6.0-2.36","","<div style=""font-size:60px;"">+</div>","null","","","","","","",""
"null","","image-keyboard-response","331","2503012","0.0-6.0-0.37","","img/red.png","null","trial","null","true","0,1","4:nogo_d","",""
"null","","html-keyboard-response","332","2504014","0.0-6.0-1.37","","<img src=""img/red-r.png"">","null","trial","null","","0,1","4:nogo_d","1",""
"null","","html-keyboard-response","333","2505016","0.0-6.0-2.37","","<div style=""font-size:60px;"">+</div>","null","","","","","","",""
"915.1800000108778","","image-keyboard-response","334","2505931","0.0-6.0-0.38","","img/green.png","32","trial","32","true","1,0","3:go_c","",""
"null","","html-keyboard-response","335","2506933","0.0-6.0-1.38","","<img src=""img/green-r.png"" border=""10"">","null","trial","32","","1,0","3:go_c","1",""
"null","","html-keyboard-response","336","2507934","0.0-6.0-2.38","","<div style=""font-size:60px;"">+</div>","null","","","","","","",""
"null","","image-keyboard-response","337","2509436","0.0-6.0-0.39","","img/purple.png","null","trial","32","false","0.8,0.2","1:go_a","",""
"null","","html-keyboard-response","338","2510437","0.0-6.0-1.39","","<img src=""img/purple-n.png"">","null","trial","32","","0.8,0.2","1:go_a","0",""
"null","","html-keyboard-response","339","2511439","0.0-6.0-2.39","","<div style=""font-size:60px;"">+</div>","null","","","","","","",""
"null","","image-keyboard-response","340","2512939","0.0-6.0-0.40","","img/blue.png","null","trial","null","true","0.2,0.8","2:nogo_b","",""
"null","","html-keyboard-response","341","2513942","0.0-6.0-1.40","","<img src=""img/blue-r.png"">","null","trial","null","","0.2,0.8","2:nogo_b","1",""
"null","","html-keyboard-response","342","2514943","0.0-6.0-2.40","","<div style=""font-size:60px;"">+</div>","null","","","","","","",""
"907.7200000174344","","image-keyboard-response","343","2515851","0.0-6.0-0.41","","img/red.png","32","trial","null","false","0,1","4:nogo_d","",""
"null","","html-keyboard-response","344","2516853","0.0-6.0-1.41","","<img src=""img/red-n.png"" border=""10"">","null","trial","null","","0,1","4:nogo_d","0",""
"null","","html-keyboard-response","345","2517855","0.0-6.0-2.41","","<div style=""font-size:60px;"">+</div>","null","","","","","","",""
"null","","image-keyboard-response","346","2519355","0.0-6.0-0.42","","img/purple.png","null","trial","32","false","0.8,0.2","1:go_a","",""
"null","","html-keyboard-response","347","2520357","0.0-6.0-1.42","","<img src=""img/purple-n.png"">","null","trial","32","","0.8,0.2","1:go_a","0",""
"null","","html-keyboard-response","348","2521357","0.0-6.0-2.42","","<div style=""font-size:60px;"">+</div>","null","","","","","","",""
"637.2350000021979","","image-keyboard-response","349","2521995","0.0-6.0-0.43","","img/green.png","32","trial","32","true","1,0","3:go_c","",""
"null","","html-keyboard-response","350","2522998","0.0-6.0-1.43","","<img src=""img/green-r.png"" border=""10"">","null","trial","32","","1,0","3:go_c","1",""
"null","","html-keyboard-response","351","2523999","0.0-6.0-2.43","","<div style=""font-size:60px;"">+</div>","null","","","","","","",""
"null","","image-keyboard-response","352","2525502","0.0-6.0-0.44","","img/blue.png","null","trial","null","true","0.2,0.8","2:nogo_b","",""
"null","","html-keyboard-response","353","2526503","0.0-6.0-1.44","","<img src=""img/blue-r.png"">","null","trial","null","","0.2,0.8","2:nogo_b","1",""
"null","","html-keyboard-response","354","2527504","0.0-6.0-2.44","","<div style=""font-size:60px;"">+</div>","null","","","","","","",""
"null","","image-keyboard-response","355","2529006","0.0-6.0-0.45","","img/purple.png","null","trial","32","false","0.8,0.2","1:go_a","",""
"null","","html-keyboard-response","356","2530008","0.0-6.0-1.45","","<img src=""img/purple-r.png"">","null","trial","32","","0.8,0.2","1:go_a","1",""
"null","","html-keyboard-response","357","2531010","0.0-6.0-2.45","","<div style=""font-size:60px;"">+</div>","null","","","","","","",""
"null","","image-keyboard-response","358","2532511","0.0-6.0-0.46","","img/red.png","null","trial","null","true","0,1","4:nogo_d","",""
"null","","html-keyboard-response","359","2533515","0.0-6.0-1.46","","<img src=""img/red-r.png"">","null","trial","null","","0,1","4:nogo_d","1",""
"null","","html-keyboard-response","360","2534518","0.0-6.0-2.46","","<div style=""font-size:60px;"">+</div>","null","","","","","","",""
"612.7050000070594","","image-keyboard-response","361","2535131","0.0-6.0-0.47","","img/green.png","32","trial","32","true","1,0","3:go_c","",""
"null","","html-keyboard-response","362","2536134","0.0-6.0-1.47","","<img src=""img/green-r.png"" border=""10"">","null","trial","32","","1,0","3:go_c","1",""
"null","","html-keyboard-response","363","2537135","0.0-6.0-2.47","","<div style=""font-size:60px;"">+</div>","null","","","","","","",""
"627.89000000339","","image-keyboard-response","364","2537763","0.0-6.0-0.48","","img/blue.png","32","trial","null","false","0.2,0.8","2:nogo_b","",""
"null","","html-keyboard-response","365","2538766","0.0-6.0-1.48","","<img src=""img/blue-n.png"" border=""10"">","null","trial","null","","0.2,0.8","2:nogo_b","0",""
"null","","html-keyboard-response","366","2539768","0.0-6.0-2.48","","<div style=""font-size:60px;"">+</div>","null","","","","","","",""
"755.7599999997765","","image-keyboard-response","367","2540524","0.0-6.0-0.49","","img/green.png","32","trial","32","true","1,0","3:go_c","",""
"null","","html-keyboard-response","368","2541527","0.0-6.0-1.49","","<img src=""img/green-r.png"" border=""10"">","null","trial","32","","1,0","3:go_c","1",""
"null","","html-keyboard-response","369","2542529","0.0-6.0-2.49","","<div style=""font-size:60px;"">+</div>","null","","","","","","",""
"null","","image-keyboard-response","370","2544030","0.0-6.0-0.50","","img/purple.png","null","trial","32","false","0.8,0.2","1:go_a","",""
"null","","html-keyboard-response","371","2545032","0.0-6.0-1.50","","<img src=""img/purple-r.png"">","null","trial","32","","0.8,0.2","1:go_a","1",""
"null","","html-keyboard-response","372","2546033","0.0-6.0-2.50","","<div style=""font-size:60px;"">+</div>","null","","","","","","",""
"409.7350000231527","","image-keyboard-response","373","2546443","0.0-6.0-0.51","","img/red.png","32","trial","null","false","0,1","4:nogo_d","",""
"null","","html-keyboard-response","374","2547446","0.0-6.0-1.51","","<img src=""img/red-n.png"" border=""10"">","null","trial","null","","0,1","4:nogo_d","0",""
"null","","html-keyboard-response","375","2548447","0.0-6.0-2.51","","<div style=""font-size:60px;"">+</div>","null","","","","","","",""
"563.5149999875575","","image-keyboard-response","376","2549011","0.0-6.0-0.52","","img/purple.png","32","trial","32","true","0.8,0.2","1:go_a","",""
"null","","html-keyboard-response","377","2550014","0.0-6.0-1.52","","<img src=""img/purple-r.png"" border=""10"">","null","trial","32","","0.8,0.2","1:go_a","1",""
"null","","html-keyboard-response","378","2551015","0.0-6.0-2.52","","<div style=""font-size:60px;"">+</div>","null","","","","","","",""
"811.6950000110082","","image-keyboard-response","379","2551827","0.0-6.0-0.53","","img/red.png","32","trial","null","false","0,1","4:nogo_d","",""
"null","","html-keyboard-response","380","2552828","0.0-6.0-1.53","","<img src=""img/red-n.png"" border=""10"">","null","trial","null","","0,1","4:nogo_d","0",""
"null","","html-keyboard-response","381","2553830","0.0-6.0-2.53","","<div style=""font-size:60px;"">+</div>","null","","","","","","",""
"638.390000007581","","image-keyboard-response","382","2554469","0.0-6.0-0.54","","img/green.png","32","trial","32","true","1,0","3:go_c","",""
"null","","html-keyboard-response","383","2555472","0.0-6.0-1.54","","<img src=""img/green-r.png"" border=""10"">","null","trial","32","","1,0","3:go_c","1",""
"null","","html-keyboard-response","384","2556479","0.0-6.0-2.54","","<div style=""font-size:60px;"">+</div>","null","","","","","","",""
"531.7750000101514","","image-keyboard-response","385","2557011","0.0-6.0-0.55","","img/blue.png","32","trial","null","false","0.2,0.8","2:nogo_b","",""
"null","","html-keyboard-response","386","2558013","0.0-6.0-1.55","","<img src=""img/blue-n.png"" border=""10"">","null","trial","null","","0.2,0.8","2:nogo_b","0",""
"null","","html-keyboard-response","387","2559014","0.0-6.0-2.55","","<div style=""font-size:60px;"">+</div>","null","","","","","","",""
"null","","image-keyboard-response","388","2560516","0.0-6.0-0.56","","img/blue.png","null","trial","null","true","0.2,0.8","2:nogo_b","",""
"null","","html-keyboard-response","389","2561518","0.0-6.0-1.56","","<img src=""img/blue-r.png"">","null","trial","null","","0.2,0.8","2:nogo_b","1",""
"null","","html-keyboard-response","390","2562521","0.0-6.0-2.56","","<div style=""font-size:60px;"">+</div>","null","","","","","","",""
"634.0499999932945","","image-keyboard-response","391","2563155","0.0-6.0-0.57","","img/red.png","32","trial","null","false","0,1","4:nogo_d","",""
"null","","html-keyboard-response","392","2564157","0.0-6.0-1.57","","<img src=""img/red-n.png"" border=""10"">","null","trial","null","","0,1","4:nogo_d","0",""
"null","","html-keyboard-response","393","2565158","0.0-6.0-2.57","","<div style=""font-size:60px;"">+</div>","null","","","","","","",""
"636.7599999937229","","image-keyboard-response","394","2565796","0.0-6.0-0.58","","img/green.png","32","trial","32","true","1,0","3:go_c","",""
"null","","html-keyboard-response","395","2566797","0.0-6.0-1.58","","<img src=""img/green-r.png"" border=""10"">","null","trial","32","","1,0","3:go_c","1",""
"null","","html-keyboard-response","396","2567798","0.0-6.0-2.58","","<div style=""font-size:60px;"">+</div>","null","","","","","","",""
"723.3500000145286","","image-keyboard-response","397","2568522","0.0-6.0-0.59","","img/purple.png","32","trial","32","true","0.8,0.2","1:go_a","",""
"null","","html-keyboard-response","398","2569525","0.0-6.0-1.59","","<img src=""img/purple-r.png"" border=""10"">","null","trial","32","","0.8,0.2","1:go_a","1",""
"null","","html-keyboard-response","399","2570527","0.0-6.0-2.59","","<div style=""font-size:60px;"">+</div>","null","","","","","","",""
"603.4799999911338","","image-keyboard-response","400","2571131","0.0-6.0-0.60","","img/blue.png","32","trial","null","false","0.2,0.8","2:nogo_b","",""
"null","","html-keyboard-response","401","2572134","0.0-6.0-1.60","","<img src=""img/blue-r.png"" border=""10"">","null","trial","null","","0.2,0.8","2:nogo_b","1",""
"null","","html-keyboard-response","402","2573135","0.0-6.0-2.60","","<div style=""font-size:60px;"">+</div>","null","","","","","","",""
"null","","image-keyboard-response","403","2574636","0.0-6.0-0.61","","img/red.png","null","trial","null","true","0,1","4:nogo_d","",""
"null","","html-keyboard-response","404","2575638","0.0-6.0-1.61","","<img src=""img/red-r.png"">","null","trial","null","","0,1","4:nogo_d","1",""
"null","","html-keyboard-response","405","2576640","0.0-6.0-2.61","","<div style=""font-size:60px;"">+</div>","null","","","","","","",""
"595.1549999881536","","image-keyboard-response","406","2577235","0.0-6.0-0.62","","img/green.png","32","trial","32","true","1,0","3:go_c","",""
"null","","html-keyboard-response","407","2578237","0.0-6.0-1.62","","<img src=""img/green-r.png"" border=""10"">","null","trial","32","","1,0","3:go_c","1",""
"null","","html-keyboard-response","408","2579239","0.0-6.0-2.62","","<div style=""font-size:60px;"">+</div>","null","","","","","","",""
"null","","image-keyboard-response","409","2580740","0.0-6.0-0.63","","img/purple.png","null","trial","32","false","0.8,0.2","1:go_a","",""
"null","","html-keyboard-response","410","2581743","0.0-6.0-1.63","","<img src=""img/purple-n.png"">","null","trial","32","","0.8,0.2","1:go_a","0",""
"null","","html-keyboard-response","411","2582745","0.0-6.0-2.63","","<div style=""font-size:60px;"">+</div>","null","","","","","","",""
"1010.0950000053272","","image-keyboard-response","412","2583755","0.0-6.0-0.64","","img/green.png","32","trial","32","true","1,0","3:go_c","",""
"null","","html-keyboard-response","413","2584758","0.0-6.0-1.64","","<img src=""img/green-r.png"" border=""10"">","null","trial","32","","1,0","3:go_c","1",""
"null","","html-keyboard-response","414","2585758","0.0-6.0-2.64","","<div style=""font-size:60px;"">+</div>","null","","","","","","",""
"null","","image-keyboard-response","415","2587259","0.0-6.0-0.65","","img/purple.png","null","trial","32","false","0.8,0.2","1:go_a","",""
"null","","html-keyboard-response","416","2588261","0.0-6.0-1.65","","<img src=""img/purple-n.png"">","null","trial","32","","0.8,0.2","1:go_a","0",""
"null","","html-keyboard-response","417","2589264","0.0-6.0-2.65","","<div style=""font-size:60px;"">+</div>","null","","","","","","",""
"null","","image-keyboard-response","418","2590765","0.0-6.0-0.66","","img/blue.png","null","trial","null","true","0.2,0.8","2:nogo_b","",""
"null","","html-keyboard-response","419","2591767","0.0-6.0-1.66","","<img src=""img/blue-r.png"">","null","trial","null","","0.2,0.8","2:nogo_b","1",""
"null","","html-keyboard-response","420","2592769","0.0-6.0-2.66","","<div style=""font-size:60px;"">+</div>","null","","","","","","",""
"489.61499999882653","","image-keyboard-response","421","2593259","0.0-6.0-0.67","","img/red.png","32","trial","null","false","0,1","4:nogo_d","",""
"null","","html-keyboard-response","422","2594261","0.0-6.0-1.67","","<img src=""img/red-n.png"" border=""10"">","null","trial","null","","0,1","4:nogo_d","0",""
"null","","html-keyboard-response","423","2595262","0.0-6.0-2.67","","<div style=""font-size:60px;"">+</div>","null","","","","","","",""
"null","","image-keyboard-response","424","2596763","0.0-6.0-0.68","","img/purple.png","null","trial","32","false","0.8,0.2","1:go_a","",""
"null","","html-keyboard-response","425","2597765","0.0-6.0-1.68","","<img src=""img/purple-n.png"">","null","trial","32","","0.8,0.2","1:go_a","0",""
"null","","html-keyboard-response","426","2598766","0.0-6.0-2.68","","<div style=""font-size:60px;"">+</div>","null","","","","","","",""
"661.1749999867752","","image-keyboard-response","427","2599427","0.0-6.0-0.69","","img/green.png","32","trial","32","true","1,0","3:go_c","",""
"null","","html-keyboard-response","428","2600429","0.0-6.0-1.69","","<img src=""img/green-r.png"" border=""10"">","null","trial","32","","1,0","3:go_c","1",""
"null","","html-keyboard-response","429","2601430","0.0-6.0-2.69","","<div style=""font-size:60px;"">+</div>","null","","","","","","",""
"860.3100000182167","","image-keyboard-response","430","2602291","0.0-6.0-0.70","","img/blue.png","32","trial","null","false","0.2,0.8","2:nogo_b","",""
"null","","html-keyboard-response","431","2603293","0.0-6.0-1.70","","<img src=""img/blue-n.png"" border=""10"">","null","trial","null","","0.2,0.8","2:nogo_b","0",""
"null","","html-keyboard-response","432","2604295","0.0-6.0-2.70","","<div style=""font-size:60px;"">+</div>","null","","","","","","",""
"null","","image-keyboard-response","433","2605796","0.0-6.0-0.71","","img/red.png","null","trial","null","true","0,1","4:nogo_d","",""
"null","","html-keyboard-response","434","2606797","0.0-6.0-1.71","","<img src=""img/red-r.png"">","null","trial","null","","0,1","4:nogo_d","1",""
"null","","html-keyboard-response","435","2607798","0.0-6.0-2.71","","<div style=""font-size:60px;"">+</div>","null","","","","","","",""
"740.6550000011921","","image-keyboard-response","436","2608539","0.0-6.0-0.72","","img/blue.png","32","trial","null","false","0.2,0.8","2:nogo_b","",""
"null","","html-keyboard-response","437","2609541","0.0-6.0-1.72","","<img src=""img/blue-n.png"" border=""10"">","null","trial","null","","0.2,0.8","2:nogo_b","0",""
"null","","html-keyboard-response","438","2610542","0.0-6.0-2.72","","<div style=""font-size:60px;"">+</div>","null","","","","","","",""
"null","","image-keyboard-response","439","2612043","0.0-6.0-0.73","","img/red.png","null","trial","null","true","0,1","4:nogo_d","",""
"null","","html-keyboard-response","440","2613046","0.0-6.0-1.73","","<img src=""img/red-r.png"">","null","trial","null","","0,1","4:nogo_d","1",""
"null","","html-keyboard-response","441","2614047","0.0-6.0-2.73","","<div style=""font-size:60px;"">+</div>","null","","","","","","",""
"null","","image-keyboard-response","442","2615549","0.0-6.0-0.74","","img/purple.png","null","trial","32","false","0.8,0.2","1:go_a","",""
"null","","html-keyboard-response","443","2616550","0.0-6.0-1.74","","<img src=""img/purple-n.png"">","null","trial","32","","0.8,0.2","1:go_a","0",""
"null","","html-keyboard-response","444","2617551","0.0-6.0-2.74","","<div style=""font-size:60px;"">+</div>","null","","","","","","",""
"507.44999997504056","","image-keyboard-response","445","2618059","0.0-6.0-0.75","","img/green.png","32","trial","32","true","1,0","3:go_c","",""
"null","","html-keyboard-response","446","2619062","0.0-6.0-1.75","","<img src=""img/green-r.png"" border=""10"">","null","trial","32","","1,0","3:go_c","1",""
"null","","html-keyboard-response","447","2620063","0.0-6.0-2.75","","<div style=""font-size:60px;"">+</div>","null","","","","","","",""
"627.2150000152178","","image-keyboard-response","448","2620691","0.0-6.0-0.76","","img/purple.png","32","trial","32","true","0.8,0.2","1:go_a","",""
"null","","html-keyboard-response","449","2621692","0.0-6.0-1.76","","<img src=""img/purple-r.png"" border=""10"">","null","trial","32","","0.8,0.2","1:go_a","1",""
"null","","html-keyboard-response","450","2622694","0.0-6.0-2.76","","<div style=""font-size:60px;"">+</div>","null","","","","","","",""
"636.7100000204518","","image-keyboard-response","451","2623331","0.0-6.0-0.77","","img/green.png","32","trial","32","true","1,0","3:go_c","",""
"null","","html-keyboard-response","452","2624334","0.0-6.0-1.77","","<img src=""img/green-r.png"" border=""10"">","null","trial","32","","1,0","3:go_c","1",""
"null","","html-keyboard-response","453","2625335","0.0-6.0-2.77","","<div style=""font-size:60px;"">+</div>","null","","","","","","",""
"578.9550000047311","","image-keyboard-response","454","2625915","0.0-6.0-0.78","","img/red.png","32","trial","null","false","0,1","4:nogo_d","",""
"null","","html-keyboard-response","455","2626917","0.0-6.0-1.78","","<img src=""img/red-n.png"" border=""10"">","null","trial","null","","0,1","4:nogo_d","0",""
"null","","html-keyboard-response","456","2627918","0.0-6.0-2.78","","<div style=""font-size:60px;"">+</div>","null","","","","","","",""
"null","","image-keyboard-response","457","2629420","0.0-6.0-0.79","","img/blue.png","null","trial","null","true","0.2,0.8","2:nogo_b","",""
"null","","html-keyboard-response","458","2630421","0.0-6.0-1.79","","<img src=""img/blue-r.png"">","null","trial","null","","0.2,0.8","2:nogo_b","1",""
"null","","html-keyboard-response","459","2631422","0.0-6.0-2.79","","<div style=""font-size:60px;"">+</div>","null","","","","","","",""
"876.1999999983236","","image-keyboard-response","460","2632299","0.0-6.0-0.80","","img/green.png","32","trial","32","true","1,0","3:go_c","",""
"null","","html-keyboard-response","461","2633301","0.0-6.0-1.80","","<img src=""img/green-r.png"" border=""10"">","null","trial","32","","1,0","3:go_c","1",""
"null","","html-keyboard-response","462","2634302","0.0-6.0-2.80","","<div style=""font-size:60px;"">+</div>","null","","","","","","",""
"1124.7250000014901","","image-keyboard-response","463","2635427","0.0-6.0-0.81","","img/purple.png","32","trial","32","true","0.8,0.2","1:go_a","",""
"null","","html-keyboard-response","464","2636428","0.0-6.0-1.81","","<img src=""img/purple-r.png"" border=""10"">","null","trial","32","","0.8,0.2","1:go_a","1",""
"null","","html-keyboard-response","465","2637429","0.0-6.0-2.81","","<div style=""font-size:60px;"">+</div>","null","","","","","","",""
"565.2699999921024","","image-keyboard-response","466","2637995","0.0-6.0-0.82","","img/red.png","32","trial","null","false","0,1","4:nogo_d","",""
"null","","html-keyboard-response","467","2638997","0.0-6.0-1.82","","<img src=""img/red-n.png"" border=""10"">","null","trial","null","","0,1","4:nogo_d","0",""
"null","","html-keyboard-response","468","2639999","0.0-6.0-2.82","","<div style=""font-size:60px;"">+</div>","null","","","","","","",""
"667.2799999942072","","image-keyboard-response","469","2640667","0.0-6.0-0.83","","img/blue.png","32","trial","null","false","0.2,0.8","2:nogo_b","",""
"null","","html-keyboard-response","470","2641669","0.0-6.0-1.83","","<img src=""img/blue-n.png"" border=""10"">","null","trial","null","","0.2,0.8","2:nogo_b","0",""
"null","","html-keyboard-response","471","2642670","0.0-6.0-2.83","","<div style=""font-size:60px;"">+</div>","null","","","","","","",""
"null","","image-keyboard-response","472","2644173","0.0-6.0-0.84","","img/blue.png","null","trial","null","true","0.2,0.8","2:nogo_b","",""
"null","","html-keyboard-response","473","2645175","0.0-6.0-1.84","","<img src=""img/blue-n.png"">","null","trial","null","","0.2,0.8","2:nogo_b","0",""
"null","","html-keyboard-response","474","2646176","0.0-6.0-2.84","","<div style=""font-size:60px;"">+</div>","null","","","","","","",""
"1082.834999979008","","image-keyboard-response","475","2647259","0.0-6.0-0.85","","img/green.png","32","trial","32","true","1,0","3:go_c","",""
"null","","html-keyboard-response","476","2648262","0.0-6.0-1.85","","<img src=""img/green-r.png"" border=""10"">","null","trial","32","","1,0","3:go_c","1",""
"null","","html-keyboard-response","477","2649263","0.0-6.0-2.85","","<div style=""font-size:60px;"">+</div>","null","","","","","","",""
"null","","image-keyboard-response","478","2650764","0.0-6.0-0.86","","img/red.png","null","trial","null","true","0,1","4:nogo_d","",""
"null","","html-keyboard-response","479","2651767","0.0-6.0-1.86","","<img src=""img/red-r.png"">","null","trial","null","","0,1","4:nogo_d","1",""
"null","","html-keyboard-response","480","2652769","0.0-6.0-2.86","","<div style=""font-size:60px;"">+</div>","null","","","","","","",""
"593.4699999922886","","image-keyboard-response","481","2653363","0.0-6.0-0.87","","img/purple.png","32","trial","32","true","0.8,0.2","1:go_a","",""
"null","","html-keyboard-response","482","2654366","0.0-6.0-1.87","","<img src=""img/purple-n.png"" border=""10"">","null","trial","32","","0.8,0.2","1:go_a","0",""
"null","","html-keyboard-response","483","2655367","0.0-6.0-2.87","","<div style=""font-size:60px;"">+</div>","null","","","","","","",""
"771.5050000115298","","image-keyboard-response","484","2656139","0.0-6.0-0.88","","img/blue.png","32","trial","null","false","0.2,0.8","2:nogo_b","",""
"null","","html-keyboard-response","485","2657145","0.0-6.0-1.88","","<img src=""img/blue-r.png"" border=""10"">","null","trial","null","","0.2,0.8","2:nogo_b","1",""
"null","","html-keyboard-response","486","2658146","0.0-6.0-2.88","","<div style=""font-size:60px;"">+</div>","null","","","","","","",""
"512.7449999852106","","image-keyboard-response","487","2658659","0.0-6.0-0.89","","img/green.png","32","trial","32","true","1,0","3:go_c","",""
"null","","html-keyboard-response","488","2659661","0.0-6.0-1.89","","<img src=""img/green-r.png"" border=""10"">","null","trial","32","","1,0","3:go_c","1",""
"null","","html-keyboard-response","489","2660663","0.0-6.0-2.89","","<div style=""font-size:60px;"">+</div>","null","","","","","","",""
"null","","image-keyboard-response","490","2662164","0.0-6.0-0.90","","img/red.png","null","trial","null","true","0,1","4:nogo_d","",""
"null","","html-keyboard-response","491","2663166","0.0-6.0-1.90","","<img src=""img/red-r.png"">","null","trial","null","","0,1","4:nogo_d","1",""
"null","","html-keyboard-response","492","2664170","0.0-6.0-2.90","","<div style=""font-size:60px;"">+</div>","null","","","","","","",""
"520.9999999785796","","image-keyboard-response","493","2664691","0.0-6.0-0.91","","img/purple.png","32","trial","32","true","0.8,0.2","1:go_a","",""
"null","","html-keyboard-response","494","2665695","0.0-6.0-1.91","","<img src=""img/purple-n.png"" border=""10"">","null","trial","32","","0.8,0.2","1:go_a","0",""
"null","","html-keyboard-response","495","2666697","0.0-6.0-2.91","","<div style=""font-size:60px;"">+</div>","null","","","","","","",""
"738.0649999831803","","image-keyboard-response","496","2667435","0.0-6.0-0.92","","img/red.png","32","trial","null","false","0,1","4:nogo_d","",""
"null","","html-keyboard-response","497","2668437","0.0-6.0-1.92","","<img src=""img/red-n.png"" border=""10"">","null","trial","null","","0,1","4:nogo_d","0",""
"null","","html-keyboard-response","498","2669438","0.0-6.0-2.92","","<div style=""font-size:60px;"">+</div>","null","","","","","","",""
"null","","image-keyboard-response","499","2670940","0.0-6.0-0.93","","img/blue.png","null","trial","null","true","0.2,0.8","2:nogo_b","",""
"null","","html-keyboard-response","500","2671942","0.0-6.0-1.93","","<img src=""img/blue-r.png"">","null","trial","null","","0.2,0.8","2:nogo_b","1",""
"null","","html-keyboard-response","501","2672943","0.0-6.0-2.93","","<div style=""font-size:60px;"">+</div>","null","","","","","","",""
"635.9799999915995","","image-keyboard-response","502","2673579","0.0-6.0-0.94","","img/green.png","32","trial","32","true","1,0","3:go_c","",""
"null","","html-keyboard-response","503","2674582","0.0-6.0-1.94","","<img src=""img/green-r.png"" border=""10"">","null","trial","32","","1,0","3:go_c","1",""
"null","","html-keyboard-response","504","2675592","0.0-6.0-2.94","","<div style=""font-size:60px;"">+</div>","null","","","","","","",""
"null","","image-keyboard-response","505","2677094","0.0-6.0-0.95","","img/purple.png","null","trial","32","false","0.8,0.2","1:go_a","",""
"null","","html-keyboard-response","506","2678095","0.0-6.0-1.95","","<img src=""img/purple-r.png"">","null","trial","32","","0.8,0.2","1:go_a","1",""
"null","","html-keyboard-response","507","2679096","0.0-6.0-2.95","","<div style=""font-size:60px;"">+</div>","null","","","","","","",""
"914.2649999996647","","image-keyboard-response","508","2680011","0.0-6.0-0.96","","img/red.png","32","trial","null","false","0,1","4:nogo_d","",""
"null","","html-keyboard-response","509","2681013","0.0-6.0-1.96","","<img src=""img/red-n.png"" border=""10"">","null","trial","null","","0,1","4:nogo_d","0",""
"null","","html-keyboard-response","510","2682014","0.0-6.0-2.96","","<div style=""font-size:60px;"">+</div>","null","","","","","","",""
"null","","image-keyboard-response","511","2683520","0.0-6.0-0.97","","img/blue.png","null","trial","null","true","0.2,0.8","2:nogo_b","",""
"null","","html-keyboard-response","512","2684526","0.0-6.0-1.97","","<img src=""img/blue-r.png"">","null","trial","null","","0.2,0.8","2:nogo_b","1",""
"null","","html-keyboard-response","513","2685528","0.0-6.0-2.97","","<div style=""font-size:60px;"">+</div>","null","","","","","","",""
"858.6500000087544","","image-keyboard-response","514","2686388","0.0-6.0-0.98","","img/purple.png","32","trial","32","true","0.8,0.2","1:go_a","",""
"null","","html-keyboard-response","515","2687389","0.0-6.0-1.98","","<img src=""img/purple-r.png"" border=""10"">","null","trial","32","","0.8,0.2","1:go_a","1",""
"null","","html-keyboard-response","516","2688391","0.0-6.0-2.98","","<div style=""font-size:60px;"">+</div>","null","","","","","","",""
"659.3599999905564","","image-keyboard-response","517","2689051","0.0-6.0-0.99","","img/green.png","32","trial","32","true","1,0","3:go_c","",""
"null","","html-keyboard-response","518","2690053","0.0-6.0-1.99","","<img src=""img/green-r.png"" border=""10"">","null","trial","32","","1,0","3:go_c","1",""
"null","","html-keyboard-response","519","2691054","0.0-6.0-2.99","","<div style=""font-size:60px;"">+</div>","null","","","","","","",""
"692.4100000178441","","image-keyboard-response","520","2691747","0.0-6.0-0.100","","img/green.png","32","trial","32","true","1,0","3:go_c","",""
"null","","html-keyboard-response","521","2692749","0.0-6.0-1.100","","<img src=""img/green-r.png"" border=""10"">","null","trial","32","","1,0","3:go_c","1",""
"null","","html-keyboard-response","522","2693750","0.0-6.0-2.100","","<div style=""font-size:60px;"">+</div>","null","","","","","","",""
"null","","image-keyboard-response","523","2695252","0.0-6.0-0.101","","img/blue.png","null","trial","null","true","0.2,0.8","2:nogo_b","",""
"null","","html-keyboard-response","524","2696254","0.0-6.0-1.101","","<img src=""img/blue-r.png"">","null","trial","null","","0.2,0.8","2:nogo_b","1",""
"null","","html-keyboard-response","525","2697254","0.0-6.0-2.101","","<div style=""font-size:60px;"">+</div>","null","","","","","","",""
"500.3200000207871","","image-keyboard-response","526","2697755","0.0-6.0-0.102","","img/red.png","32","trial","null","false","0,1","4:nogo_d","",""
"null","","html-keyboard-response","527","2698757","0.0-6.0-1.102","","<img src=""img/red-n.png"" border=""10"">","null","trial","null","","0,1","4:nogo_d","0",""
"null","","html-keyboard-response","528","2699758","0.0-6.0-2.102","","<div style=""font-size:60px;"">+</div>","null","","","","","","",""
"null","","image-keyboard-response","529","2701260","0.0-6.0-0.103","","img/purple.png","null","trial","32","false","0.8,0.2","1:go_a","",""
"null","","html-keyboard-response","530","2702262","0.0-6.0-1.103","","<img src=""img/purple-n.png"">","null","trial","32","","0.8,0.2","1:go_a","0",""
"null","","html-keyboard-response","531","2703264","0.0-6.0-2.103","","<div style=""font-size:60px;"">+</div>","null","","","","","","",""
"null","","image-keyboard-response","532","2704765","0.0-6.0-0.104","","img/purple.png","null","trial","32","false","0.8,0.2","1:go_a","",""
"null","","html-keyboard-response","533","2705768","0.0-6.0-1.104","","<img src=""img/purple-n.png"">","null","trial","32","","0.8,0.2","1:go_a","0",""
"null","","html-keyboard-response","534","2706769","0.0-6.0-2.104","","<div style=""font-size:60px;"">+</div>","null","","","","","","",""
"953.9100000108592","","image-keyboard-response","535","2707723","0.0-6.0-0.105","","img/blue.png","32","trial","null","false","0.2,0.8","2:nogo_b","",""
"null","","html-keyboard-response","536","2708725","0.0-6.0-1.105","","<img src=""img/blue-n.png"" border=""10"">","null","trial","null","","0.2,0.8","2:nogo_b","0",""
"null","","html-keyboard-response","537","2709727","0.0-6.0-2.105","","<div style=""font-size:60px;"">+</div>","null","","","","","","",""
"612.2449999963865","","image-keyboard-response","538","2710340","0.0-6.0-0.106","","img/green.png","32","trial","32","true","1,0","3:go_c","",""
"null","","html-keyboard-response","539","2711342","0.0-6.0-1.106","","<img src=""img/green-r.png"" border=""10"">","null","trial","32","","1,0","3:go_c","1",""
"null","","html-keyboard-response","540","2712343","0.0-6.0-2.106","","<div style=""font-size:60px;"">+</div>","null","","","","","","",""
"null","","image-keyboard-response","541","2713844","0.0-6.0-0.107","","img/red.png","null","trial","null","true","0,1","4:nogo_d","",""
"null","","html-keyboard-response","542","2714846","0.0-6.0-1.107","","<img src=""img/red-r.png"">","null","trial","null","","0,1","4:nogo_d","1",""
"null","","html-keyboard-response","543","2715847","0.0-6.0-2.107","","<div style=""font-size:60px;"">+</div>","null","","","","","","",""
"null","","image-keyboard-response","544","2717349","0.0-6.0-0.108","","img/red.png","null","trial","null","true","0,1","4:nogo_d","",""
"null","","html-keyboard-response","545","2718350","0.0-6.0-1.108","","<img src=""img/red-r.png"">","null","trial","null","","0,1","4:nogo_d","1",""
"null","","html-keyboard-response","546","2719351","0.0-6.0-2.108","","<div style=""font-size:60px;"">+</div>","null","","","","","","",""
"1067.8199999965727","","image-keyboard-response","547","2720419","0.0-6.0-0.109","","img/blue.png","32","trial","null","false","0.2,0.8","2:nogo_b","",""
"null","","html-keyboard-response","548","2721422","0.0-6.0-1.109","","<img src=""img/blue-n.png"" border=""10"">","null","trial","null","","0.2,0.8","2:nogo_b","0",""
"null","","html-keyboard-response","549","2722424","0.0-6.0-2.109","","<div style=""font-size:60px;"">+</div>","null","","","","","","",""
"1018.9049999755807","","image-keyboard-response","550","2723443","0.0-6.0-0.110","","img/purple.png","32","trial","32","true","0.8,0.2","1:go_a","",""
"null","","html-keyboard-response","551","2724445","0.0-6.0-1.110","","<img src=""img/purple-r.png"" border=""10"">","null","trial","32","","0.8,0.2","1:go_a","1",""
"null","","html-keyboard-response","552","2725447","0.0-6.0-2.110","","<div style=""font-size:60px;"">+</div>","null","","","","","","",""
"564.0150000108406","","image-keyboard-response","553","2726011","0.0-6.0-0.111","","img/green.png","32","trial","32","true","1,0","3:go_c","",""
"null","","html-keyboard-response","554","2727013","0.0-6.0-1.111","","<img src=""img/green-r.png"" border=""10"">","null","trial","32","","1,0","3:go_c","1",""
"null","","html-keyboard-response","555","2728015","0.0-6.0-2.111","","<div style=""font-size:60px;"">+</div>","null","","","","","","",""
"null","","image-keyboard-response","556","2729517","0.0-6.0-0.112","","img/red.png","null","trial","null","true","0,1","4:nogo_d","",""
"null","","html-keyboard-response","557","2730523","0.0-6.0-1.112","","<img src=""img/red-r.png"">","null","trial","null","","0,1","4:nogo_d","1",""
"null","","html-keyboard-response","558","2731525","0.0-6.0-2.112","","<div style=""font-size:60px;"">+</div>","null","","","","","","",""
"604.5700000254437","","image-keyboard-response","559","2732131","0.0-6.0-0.113","","img/green.png","32","trial","32","true","1,0","3:go_c","",""
"null","","html-keyboard-response","560","2733133","0.0-6.0-1.113","","<img src=""img/green-r.png"" border=""10"">","null","trial","32","","1,0","3:go_c","1",""
"null","","html-keyboard-response","561","2734134","0.0-6.0-2.113","","<div style=""font-size:60px;"">+</div>","null","","","","","","",""
"868.1249999795109","","image-keyboard-response","562","2735003","0.0-6.0-0.114","","img/blue.png","32","trial","null","false","0.2,0.8","2:nogo_b","",""
"null","","html-keyboard-response","563","2736005","0.0-6.0-1.114","","<img src=""img/blue-n.png"" border=""10"">","null","trial","null","","0.2,0.8","2:nogo_b","0",""
"null","","html-keyboard-response","564","2737007","0.0-6.0-2.114","","<div style=""font-size:60px;"">+</div>","null","","","","","","",""
"null","","image-keyboard-response","565","2738510","0.0-6.0-0.115","","img/purple.png","null","trial","32","false","0.8,0.2","1:go_a","",""
"null","","html-keyboard-response","566","2739512","0.0-6.0-1.115","","<img src=""img/purple-n.png"">","null","trial","32","","0.8,0.2","1:go_a","0",""
"null","","html-keyboard-response","567","2740514","0.0-6.0-2.115","","<div style=""font-size:60px;"">+</div>","null","","","","","","",""
"616.5350000085309","","image-keyboard-response","568","2741131","0.0-6.0-0.116","","img/green.png","32","trial","32","true","1,0","3:go_c","",""
"null","","html-keyboard-response","569","2742133","0.0-6.0-1.116","","<img src=""img/green-r.png"" border=""10"">","null","trial","32","","1,0","3:go_c","1",""
"null","","html-keyboard-response","570","2743135","0.0-6.0-2.116","","<div style=""font-size:60px;"">+</div>","null","","","","","","",""
"1284.14000000339","","image-keyboard-response","571","2744419","0.0-6.0-0.117","","img/blue.png","32","trial","null","false","0.2,0.8","2:nogo_b","",""
"null","","html-keyboard-response","572","2745422","0.0-6.0-1.117","","<img src=""img/blue-r.png"" border=""10"">","null","trial","null","","0.2,0.8","2:nogo_b","1",""
"null","","html-keyboard-response","573","2746423","0.0-6.0-2.117","","<div style=""font-size:60px;"">+</div>","null","","","","","","",""
"714.9649999914691","","image-keyboard-response","574","2747139","0.0-6.0-0.118","","img/purple.png","32","trial","32","true","0.8,0.2","1:go_a","",""
"null","","html-keyboard-response","575","2748141","0.0-6.0-1.118","","<img src=""img/purple-r.png"" border=""10"">","null","trial","32","","0.8,0.2","1:go_a","1",""
"null","","html-keyboard-response","576","2749142","0.0-6.0-2.118","","<div style=""font-size:60px;"">+</div>","null","","","","","","",""
"596.3849999830127","","image-keyboard-response","577","2749739","0.0-6.0-0.119","","img/red.png","32","trial","null","false","0,1","4:nogo_d","",""
"null","","html-keyboard-response","578","2750741","0.0-6.0-1.119","","<img src=""img/red-n.png"" border=""10"">","null","trial","null","","0,1","4:nogo_d","0",""
"null","","html-keyboard-response","579","2751742","0.0-6.0-2.119","","<div style=""font-size:60px;"">+</div>","null","","","","","","",""
"94681.19500001194","","instructions","580","2846423","0.0-7.0","[{""page_index"":0,""viewing_time"":94681.05000001378}]","","","","","","","","",""
"1178.6400000271387","","image-keyboard-response","581","2847603","0.0-8.0-0.0","","img/purple.png","32","trial","null","false","0.2,0.8","2:nogo_b","",""
"null","","html-keyboard-response","582","2848606","0.0-8.0-1.0","","<img src=""img/purple-n.png"" border=""10"">","null","trial","null","","0.2,0.8","2:nogo_b","0",""
"null","","html-keyboard-response","583","2849607","0.0-8.0-2.0","","<div style=""font-size:60px;"">+</div>","null","","","","","","",""
"523.1700000003912","","image-keyboard-response","584","2850131","0.0-8.0-0.1","","img/yellow.png","32","trial","32","true","0.8,0.2","3:go_c","",""
"null","","html-keyboard-response","585","2851132","0.0-8.0-1.1","","<img src=""img/yellow-r.png"" border=""10"">","null","trial","32","","0.8,0.2","3:go_c","1",""
"null","","html-keyboard-response","586","2852133","0.0-8.0-2.1","","<div style=""font-size:60px;"">+</div>","null","","","","","","",""
"525.3650000086054","","image-keyboard-response","587","2852659","0.0-8.0-0.2","","img/green.png","32","trial","null","false","0.2,0.8","4:nogo_d","",""
"null","","html-keyboard-response","588","2853661","0.0-8.0-1.2","","<img src=""img/green-n.png"" border=""10"">","null","trial","null","","0.2,0.8","4:nogo_d","0",""
"null","","html-keyboard-response","589","2854663","0.0-8.0-2.2","","<div style=""font-size:60px;"">+</div>","null","","","","","","",""
"555.2549999845214","","image-keyboard-response","590","2855219","0.0-8.0-0.3","","img/grey.png","32","trial","32","true","0.8,0.2","1:go_a","",""
"null","","html-keyboard-response","591","2856221","0.0-8.0-1.3","","<img src=""img/grey-r.png"" border=""10"">","null","trial","32","","0.8,0.2","1:go_a","1",""
"null","","html-keyboard-response","592","2857223","0.0-8.0-2.3","","<div style=""font-size:60px;"">+</div>","null","","","","","","",""
"732.1350000277162","","image-keyboard-response","593","2857955","0.0-8.0-0.4","","img/grey.png","32","trial","32","true","0.8,0.2","1:go_a","",""
"null","","html-keyboard-response","594","2858956","0.0-8.0-1.4","","<img src=""img/grey-r.png"" border=""10"">","null","trial","32","","0.8,0.2","1:go_a","1",""
"null","","html-keyboard-response","595","2859958","0.0-8.0-2.4","","<div style=""font-size:60px;"">+</div>","null","","","","","","",""
"460.835000005085","","image-keyboard-response","596","2860419","0.0-8.0-0.5","","img/yellow.png","32","trial","32","true","0.8,0.2","3:go_c","",""
"null","","html-keyboard-response","597","2861420","0.0-8.0-1.5","","<img src=""img/yellow-r.png"" border=""10"">","null","trial","32","","0.8,0.2","3:go_c","1",""
"null","","html-keyboard-response","598","2862422","0.0-8.0-2.5","","<div style=""font-size:60px;"">+</div>","null","","","","","","",""
"852.8649999932386","","image-keyboard-response","599","2863275","0.0-8.0-0.6","","img/purple.png","32","trial","null","false","0.2,0.8","2:nogo_b","",""
"null","","html-keyboard-response","600","2864278","0.0-8.0-1.6","","<img src=""img/purple-n.png"" border=""10"">","null","trial","null","","0.2,0.8","2:nogo_b","0",""
"null","","html-keyboard-response","601","2865279","0.0-8.0-2.6","","<div style=""font-size:60px;"">+</div>","null","","","","","","",""
"707.605000003241","","image-keyboard-response","602","2865987","0.0-8.0-0.7","","img/green.png","32","trial","null","false","0.2,0.8","4:nogo_d","",""
"null","","html-keyboard-response","603","2866989","0.0-8.0-1.7","","<img src=""img/green-r.png"" border=""10"">","null","trial","null","","0.2,0.8","4:nogo_d","1",""
"null","","html-keyboard-response","604","2867991","0.0-8.0-2.7","","<div style=""font-size:60px;"">+</div>","null","","","","","","",""
"563.3950000051409","","image-keyboard-response","605","2868555","0.0-8.0-0.8","","img/green.png","32","trial","null","false","0.2,0.8","4:nogo_d","",""
"null","","html-keyboard-response","606","2869558","0.0-8.0-1.8","","<img src=""img/green-n.png"" border=""10"">","null","trial","null","","0.2,0.8","4:nogo_d","0",""
"null","","html-keyboard-response","607","2870560","0.0-8.0-2.8","","<div style=""font-size:60px;"">+</div>","null","","","","","","",""
"586.3200000021607","","image-keyboard-response","608","2871147","0.0-8.0-0.9","","img/grey.png","32","trial","32","true","0.8,0.2","1:go_a","",""
"null","","html-keyboard-response","609","2872149","0.0-8.0-1.9","","<img src=""img/grey-r.png"" border=""10"">","null","trial","32","","0.8,0.2","1:go_a","1",""
"null","","html-keyboard-response","610","2873151","0.0-8.0-2.9","","<div style=""font-size:60px;"">+</div>","null","","","","","","",""
"411.9250000221655","","image-keyboard-response","611","2873563","0.0-8.0-0.10","","img/yellow.png","32","trial","32","true","0.8,0.2","3:go_c","",""
"null","","html-keyboard-response","612","2874566","0.0-8.0-1.10","","<img src=""img/yellow-r.png"" border=""10"">","null","trial","32","","0.8,0.2","3:go_c","1",""
"null","","html-keyboard-response","613","2875567","0.0-8.0-2.10","","<div style=""font-size:60px;"">+</div>","null","","","","","","",""
"835.0250000078231","","image-keyboard-response","614","2876403","0.0-8.0-0.11","","img/purple.png","32","trial","null","false","0.2,0.8","2:nogo_b","",""
"null","","html-keyboard-response","615","2877406","0.0-8.0-1.11","","<img src=""img/purple-n.png"" border=""10"">","null","trial","null","","0.2,0.8","2:nogo_b","0",""
"null","","html-keyboard-response","616","2878406","0.0-8.0-2.11","","<div style=""font-size:60px;"">+</div>","null","","","","","","",""
"260.4649999993853","","image-keyboard-response","617","2878667","0.0-8.0-0.12","","img/purple.png","32","trial","null","false","0.2,0.8","2:nogo_b","",""
"null","","html-keyboard-response","618","2879670","0.0-8.0-1.12","","<img src=""img/purple-n.png"" border=""10"">","null","trial","null","","0.2,0.8","2:nogo_b","0",""
"null","","html-keyboard-response","619","2880672","0.0-8.0-2.12","","<div style=""font-size:60px;"">+</div>","null","","","","","","",""
"610.9799999976531","","image-keyboard-response","620","2881283","0.0-8.0-0.13","","img/green.png","32","trial","null","false","0.2,0.8","4:nogo_d","",""
"null","","html-keyboard-response","621","2882284","0.0-8.0-1.13","","<img src=""img/green-n.png"" border=""10"">","null","trial","null","","0.2,0.8","4:nogo_d","0",""
"null","","html-keyboard-response","622","2883285","0.0-8.0-2.13","","<div style=""font-size:60px;"">+</div>","null","","","","","","",""
"300.9599999929778","","image-keyboard-response","623","2883587","0.0-8.0-0.14","","img/grey.png","32","trial","32","true","0.8,0.2","1:go_a","",""
"null","","html-keyboard-response","624","2884589","0.0-8.0-1.14","","<img src=""img/grey-r.png"" border=""10"">","null","trial","32","","0.8,0.2","1:go_a","1",""
"null","","html-keyboard-response","625","2885591","0.0-8.0-2.14","","<div style=""font-size:60px;"">+</div>","null","","","","","","",""
"531.7199999988079","","image-keyboard-response","626","2886123","0.0-8.0-0.15","","img/yellow.png","32","trial","32","true","0.8,0.2","3:go_c","",""
"null","","html-keyboard-response","627","2887126","0.0-8.0-1.15","","<img src=""img/yellow-r.png"" border=""10"">","null","trial","32","","0.8,0.2","3:go_c","1",""
"null","","html-keyboard-response","628","2888126","0.0-8.0-2.15","","<div style=""font-size:60px;"">+</div>","null","","","","","","",""
"475.9950000150129","","image-keyboard-response","629","2888603","0.0-8.0-0.16","","img/grey.png","32","trial","32","true","0.8,0.2","1:go_a","",""
"null","","html-keyboard-response","630","2889605","0.0-8.0-1.16","","<img src=""img/grey-r.png"" border=""10"">","null","trial","32","","0.8,0.2","1:go_a","1",""
"null","","html-keyboard-response","631","2890606","0.0-8.0-2.16","","<div style=""font-size:60px;"">+</div>","null","","","","","","",""
"516.5599999893457","","image-keyboard-response","632","2891123","0.0-8.0-0.17","","img/yellow.png","32","trial","32","true","0.8,0.2","3:go_c","",""
"null","","html-keyboard-response","633","2892125","0.0-8.0-1.17","","<img src=""img/yellow-r.png"" border=""10"">","null","trial","32","","0.8,0.2","3:go_c","1",""
"null","","html-keyboard-response","634","2893127","0.0-8.0-2.17","","<div style=""font-size:60px;"">+</div>","null","","","","","","",""
"null","","image-keyboard-response","635","2894628","0.0-8.0-0.18","","img/purple.png","null","trial","null","true","0.2,0.8","2:nogo_b","",""
"null","","html-keyboard-response","636","2895629","0.0-8.0-1.18","","<img src=""img/purple-r.png"">","null","trial","null","","0.2,0.8","2:nogo_b","1",""
"null","","html-keyboard-response","637","2896631","0.0-8.0-2.18","","<div style=""font-size:60px;"">+</div>","null","","","","","","",""
"843.4550000233576","","image-keyboard-response","638","2897475","0.0-8.0-0.19","","img/green.png","32","trial","null","false","0.2,0.8","4:nogo_d","",""
"null","","html-keyboard-response","639","2898481","0.0-8.0-1.19","","<img src=""img/green-r.png"" border=""10"">","null","trial","null","","0.2,0.8","4:nogo_d","1",""
"null","","html-keyboard-response","640","2899482","0.0-8.0-2.19","","<div style=""font-size:60px;"">+</div>","null","","","","","","",""
"543.7950000050478","","image-keyboard-response","641","2900027","0.0-8.0-0.20","","img/grey.png","32","trial","32","true","0.8,0.2","1:go_a","",""
"null","","html-keyboard-response","642","2901029","0.0-8.0-1.20","","<img src=""img/grey-r.png"" border=""10"">","null","trial","32","","0.8,0.2","1:go_a","1",""
"null","","html-keyboard-response","643","2902031","0.0-8.0-2.20","","<div style=""font-size:60px;"">+</div>","null","","","","","","",""
"595.8150000078604","","image-keyboard-response","644","2902627","0.0-8.0-0.21","","img/green.png","32","trial","null","false","0.2,0.8","4:nogo_d","",""
"null","","html-keyboard-response","645","2903630","0.0-8.0-1.21","","<img src=""img/green-r.png"" border=""10"">","null","trial","null","","0.2,0.8","4:nogo_d","1",""
"null","","html-keyboard-response","646","2904631","0.0-8.0-2.21","","<div style=""font-size:60px;"">+</div>","null","","","","","","",""
"579.1250000186265","","image-keyboard-response","647","2905211","0.0-8.0-0.22","","img/yellow.png","32","trial","32","true","0.8,0.2","3:go_c","",""
"null","","html-keyboard-response","648","2906214","0.0-8.0-1.22","","<img src=""img/yellow-r.png"" border=""10"">","null","trial","32","","0.8,0.2","3:go_c","1",""
"null","","html-keyboard-response","649","2907215","0.0-8.0-2.22","","<div style=""font-size:60px;"">+</div>","null","","","","","","",""
"null","","image-keyboard-response","650","2908716","0.0-8.0-0.23","","img/purple.png","null","trial","null","true","0.2,0.8","2:nogo_b","",""
"null","","html-keyboard-response","651","2909718","0.0-8.0-1.23","","<img src=""img/purple-r.png"">","null","trial","null","","0.2,0.8","2:nogo_b","1",""
"null","","html-keyboard-response","652","2910720","0.0-8.0-2.23","","<div style=""font-size:60px;"">+</div>","null","","","","","","",""
"null","","image-keyboard-response","653","2912221","0.0-8.0-0.24","","img/purple.png","null","trial","null","true","0.2,0.8","2:nogo_b","",""
"null","","html-keyboard-response","654","2913222","0.0-8.0-1.24","","<img src=""img/purple-r.png"">","null","trial","null","","0.2,0.8","2:nogo_b","1",""
"null","","html-keyboard-response","655","2914225","0.0-8.0-2.24","","<div style=""font-size:60px;"">+</div>","null","","","","","","",""
"490.10999998403713","","image-keyboard-response","656","2914715","0.0-8.0-0.25","","img/yellow.png","32","trial","32","true","0.8,0.2","3:go_c","",""
"null","","html-keyboard-response","657","2915718","0.0-8.0-1.25","","<img src=""img/yellow-r.png"" border=""10"">","null","trial","32","","0.8,0.2","3:go_c","1",""
"null","","html-keyboard-response","658","2916720","0.0-8.0-2.25","","<div style=""font-size:60px;"">+</div>","null","","","","","","",""
"546.6599999926984","","image-keyboard-response","659","2917267","0.0-8.0-0.26","","img/green.png","32","trial","null","false","0.2,0.8","4:nogo_d","",""
"null","","html-keyboard-response","660","2918270","0.0-8.0-1.26","","<img src=""img/green-n.png"" border=""10"">","null","trial","null","","0.2,0.8","4:nogo_d","0",""
"null","","html-keyboard-response","661","2919271","0.0-8.0-2.26","","<div style=""font-size:60px;"">+</div>","null","","","","","","",""
"611.5549999810755","","image-keyboard-response","662","2919883","0.0-8.0-0.27","","img/grey.png","32","trial","32","true","0.8,0.2","1:go_a","",""
"null","","html-keyboard-response","663","2920885","0.0-8.0-1.27","","<img src=""img/grey-r.png"" border=""10"">","null","trial","32","","0.8,0.2","1:go_a","1",""
"null","","html-keyboard-response","664","2921886","0.0-8.0-2.27","","<div style=""font-size:60px;"">+</div>","null","","","","","","",""
"445.0199999846518","","image-keyboard-response","665","2922332","0.0-8.0-0.28","","img/grey.png","32","trial","32","true","0.8,0.2","1:go_a","",""
"null","","html-keyboard-response","666","2923333","0.0-8.0-1.28","","<img src=""img/grey-n.png"" border=""10"">","null","trial","32","","0.8,0.2","1:go_a","0",""
"null","","html-keyboard-response","667","2924334","0.0-8.0-2.28","","<div style=""font-size:60px;"">+</div>","null","","","","","","",""
"580.8099999846891","","image-keyboard-response","668","2924915","0.0-8.0-0.29","","img/yellow.png","32","trial","32","true","0.8,0.2","3:go_c","",""
"null","","html-keyboard-response","669","2925917","0.0-8.0-1.29","","<img src=""img/yellow-r.png"" border=""10"">","null","trial","32","","0.8,0.2","3:go_c","1",""
"null","","html-keyboard-response","670","2926918","0.0-8.0-2.29","","<div style=""font-size:60px;"">+</div>","null","","","","","","",""
"null","","image-keyboard-response","671","2928420","0.0-8.0-0.30","","img/purple.png","null","trial","null","true","0.2,0.8","2:nogo_b","",""
"null","","html-keyboard-response","672","2929422","0.0-8.0-1.30","","<img src=""img/purple-r.png"">","null","trial","null","","0.2,0.8","2:nogo_b","1",""
"null","","html-keyboard-response","673","2930423","0.0-8.0-2.30","","<div style=""font-size:60px;"">+</div>","null","","","","","","",""
