"rt","url","trial_type","trial_index","time_elapsed","internal_node_id","view_history","stimulus","key_press","test_part","correct_response","correct","use_rew","which_stim","reward","responses"
"159834.2150000026","consent.html","external-html","0","160007","0.0-0.0","","","","","","","","","",""
"113708.83000000322","","instructions","1","273717","0.0-1.0","[{""page_index"":0,""viewing_time"":2796.9450000018696},{""page_index"":1,""viewing_time"":18663.619999999355},{""page_index"":2,""viewing_time"":4975.86500000034},{""page_index"":3,""viewing_time"":20128.02499999816},{""page_index"":4,""viewing_time"":36575.73500000581},{""page_index"":5,""viewing_time"":7983.914999997069},{""page_index"":6,""viewing_time"":22583.839999999327}]","","","","","","","","",""
"null","","image-keyboard-response","2","275225","0.0-2.0-0.0","","img/test3.PNG","null","practice","null","true","","","",""
"null","","html-keyboard-response","3","276240","0.0-2.0-1.0","","<img src=""img/test3-reward.PNG"">","null","","","","","","",""
"null","","html-keyboard-response","4","277255","0.0-2.0-2.0","","<div style=""font-size:60px;"">+</div>","null","","","","","","",""
"459.2200000042794","","image-keyboard-response","5","277715","0.0-2.0-0.1","","img/test1.PNG","32","practice","32","true","","","",""
"null","","html-keyboard-response","6","278729","0.0-2.0-1.1","","<img src=""img/test1-reward.PNG"" border=""10px; grey"">","null","","","","","","",""
"null","","html-keyboard-response","7","279745","0.0-2.0-2.1","","<div style=""font-size:60px;"">+</div>","null","","","","","","",""
"null","","image-keyboard-response","8","281261","0.0-2.0-0.2","","img/test2.PNG","null","practice","null","true","","","",""
"null","","html-keyboard-response","9","282277","0.0-2.0-1.2","","<img src=""img/test2-reward.PNG"">","null","","","","","","",""
"null","","html-keyboard-response","10","283287","0.0-2.0-2.2","","<div style=""font-size:60px;"">+</div>","null","","","","","","",""
"null","","image-keyboard-response","11","284798","0.0-2.0-0.3","","img/test2.PNG","null","practice","null","true","","","",""
"null","","html-keyboard-response","12","285811","0.0-2.0-1.3","","<img src=""img/test2-reward.PNG"">","null","","","","","","",""
"null","","html-keyboard-response","13","286827","0.0-2.0-2.3","","<div style=""font-size:60px;"">+</div>","null","","","","","","",""
"615.7299999977113","","image-keyboard-response","14","287443","0.0-2.0-0.4","","img/test1.PNG","32","practice","32","true","","","",""
"null","","html-keyboard-response","15","288454","0.0-2.0-1.4","","<img src=""img/test1-reward.PNG"" border=""10px; grey"">","null","","","","","","",""
"null","","html-keyboard-response","16","289456","0.0-2.0-2.4","","<div style=""font-size:60px;"">+</div>","null","","","","","","",""
"null","","image-keyboard-response","17","290961","0.0-2.0-0.5","","img/test3.PNG","null","practice","null","true","","","",""
"null","","html-keyboard-response","18","291972","0.0-2.0-1.5","","<img src=""img/test3-reward.PNG"">","null","","","","","","",""
"null","","html-keyboard-response","19","292973","0.0-2.0-2.5","","<div style=""font-size:60px;"">+</div>","null","","","","","","",""
"null","","image-keyboard-response","20","294475","0.0-2.0-0.6","","img/test2.PNG","null","practice","null","true","","","",""
"null","","html-keyboard-response","21","295485","0.0-2.0-1.6","","<img src=""img/test2-reward.PNG"">","null","","","","","","",""
"null","","html-keyboard-response","22","296497","0.0-2.0-2.6","","<div style=""font-size:60px;"">+</div>","null","","","","","","",""
"553.7149999945541","","image-keyboard-response","23","297051","0.0-2.0-0.7","","img/test1.PNG","32","practice","32","true","","","",""
"null","","html-keyboard-response","24","298061","0.0-2.0-1.7","","<img src=""img/test1-reward.PNG"" border=""10px; grey"">","null","","","","","","",""
"null","","html-keyboard-response","25","299072","0.0-2.0-2.7","","<div style=""font-size:60px;"">+</div>","null","","","","","","",""
"null","","image-keyboard-response","26","300587","0.0-2.0-0.8","","img/test3.PNG","null","practice","null","true","","","",""
"null","","html-keyboard-response","27","301588","0.0-2.0-1.8","","<img src=""img/test3-reward.PNG"">","null","","","","","","",""
"null","","html-keyboard-response","28","302603","0.0-2.0-2.8","","<div style=""font-size:60px;"">+</div>","null","","","","","","",""
"919.6099999971921","","image-keyboard-response","29","303524","0.0-2.0-0.9","","img/test1.PNG","32","practice","32","true","","","",""
"null","","html-keyboard-response","30","304534","0.0-2.0-1.9","","<img src=""img/test1-reward.PNG"" border=""10px; grey"">","null","","","","","","",""
"null","","html-keyboard-response","31","305540","0.0-2.0-2.9","","<div style=""font-size:60px;"">+</div>","null","","","","","","",""
"null","","image-keyboard-response","32","307055","0.0-2.0-0.10","","img/test2.PNG","null","practice","null","true","","","",""
"null","","html-keyboard-response","33","308072","0.0-2.0-1.10","","<img src=""img/test2-reward.PNG"">","null","","","","","","",""
"null","","html-keyboard-response","34","309081","0.0-2.0-2.10","","<div style=""font-size:60px;"">+</div>","null","","","","","","",""
"null","","image-keyboard-response","35","310587","0.0-2.0-0.11","","img/test3.PNG","null","practice","null","true","","","",""
"null","","html-keyboard-response","36","311600","0.0-2.0-1.11","","<img src=""img/test3-reward.PNG"">","null","","","","","","",""
"null","","html-keyboard-response","37","312601","0.0-2.0-2.11","","<div style=""font-size:60px;"">+</div>","null","","","","","","",""
"68898.93499999744","","instructions","38","381500","0.0-3.0","[{""page_index"":0,""viewing_time"":68898.56000000145}]","","","","","","","","",""
"1008.3400000003166","","image-keyboard-response","39","382510","0.0-4.0-0.0","","img/red.png","32","trial","32","true","0.8,0.2","1:go_a","",""
"null","","html-keyboard-response","40","383525","0.0-4.0-1.0","","<img src=""img/red-r.png"" border=""10"">","null","trial","32","","0.8,0.2","1:go_a","1",""
"null","","html-keyboard-response","41","384540","0.0-4.0-2.0","","<div style=""font-size:60px;"">+</div>","null","","","","","","",""
"null","","image-keyboard-response","42","386049","0.0-4.0-0.1","","img/purple.png","null","trial","null","true","0.2,0.8","2:nogo_b","",""
"null","","html-keyboard-response","43","387057","0.0-4.0-1.1","","<img src=""img/purple-r.png"">","null","trial","null","","0.2,0.8","2:nogo_b","1",""
"null","","html-keyboard-response","44","388065","0.0-4.0-2.1","","<div style=""font-size:60px;"">+</div>","null","","","","","","",""
"931.9249999971362","","image-keyboard-response","45","388998","0.0-4.0-0.2","","img/red.png","32","trial","32","true","0.8,0.2","1:go_a","",""
"null","","html-keyboard-response","46","390002","0.0-4.0-1.2","","<img src=""img/red-r.png"" border=""10"">","null","trial","32","","0.8,0.2","1:go_a","1",""
"null","","html-keyboard-response","47","391018","0.0-4.0-2.2","","<div style=""font-size:60px;"">+</div>","null","","","","","","",""
"null","","image-keyboard-response","48","392520","0.0-4.0-0.3","","img/purple.png","null","trial","null","true","0.2,0.8","2:nogo_b","",""
"null","","html-keyboard-response","49","393525","0.0-4.0-1.3","","<img src=""img/purple-n.png"">","null","trial","null","","0.2,0.8","2:nogo_b","0",""
"null","","html-keyboard-response","50","394540","0.0-4.0-2.3","","<div style=""font-size:60px;"">+</div>","null","","","","","","",""
"520.9549999999581","","image-keyboard-response","51","395062","0.0-4.0-0.4","","img/red.png","32","trial","32","true","0.8,0.2","1:go_a","",""
"null","","html-keyboard-response","52","396065","0.0-4.0-1.4","","<img src=""img/red-r.png"" border=""10"">","null","trial","32","","0.8,0.2","1:go_a","1",""
"null","","html-keyboard-response","53","397071","0.0-4.0-2.4","","<div style=""font-size:60px;"">+</div>","null","","","","","","",""
"null","","image-keyboard-response","54","398572","0.0-4.0-0.5","","img/purple.png","null","trial","null","true","0.2,0.8","2:nogo_b","",""
"null","","html-keyboard-response","55","399589","0.0-4.0-1.5","","<img src=""img/purple-n.png"">","null","trial","null","","0.2,0.8","2:nogo_b","0",""
"null","","html-keyboard-response","56","400604","0.0-4.0-2.5","","<div style=""font-size:60px;"">+</div>","null","","","","","","",""
"441.289999995206","","image-keyboard-response","57","401046","0.0-4.0-0.6","","img/red.png","32","trial","32","true","0.8,0.2","1:go_a","",""
"null","","html-keyboard-response","58","402053","0.0-4.0-1.6","","<img src=""img/red-r.png"" border=""10"">","null","trial","32","","0.8,0.2","1:go_a","1",""
"null","","html-keyboard-response","59","403065","0.0-4.0-2.6","","<div style=""font-size:60px;"">+</div>","null","","","","","","",""
"372.38999999681255","","image-keyboard-response","60","403438","0.0-4.0-0.7","","img/purple.png","32","trial","null","false","0.2,0.8","2:nogo_b","",""
"null","","html-keyboard-response","61","404451","0.0-4.0-1.7","","<img src=""img/purple-n.png"" border=""10"">","null","trial","null","","0.2,0.8","2:nogo_b","0",""
"null","","html-keyboard-response","62","405452","0.0-4.0-2.7","","<div style=""font-size:60px;"">+</div>","null","","","","","","",""
"529.3650000021444","","image-keyboard-response","63","405983","0.0-4.0-0.8","","img/red.png","32","trial","32","true","0.8,0.2","1:go_a","",""
"null","","html-keyboard-response","64","406984","0.0-4.0-1.8","","<img src=""img/red-n.png"" border=""10"">","null","trial","32","","0.8,0.2","1:go_a","0",""
"null","","html-keyboard-response","65","407990","0.0-4.0-2.8","","<div style=""font-size:60px;"">+</div>","null","","","","","","",""
"null","","image-keyboard-response","66","409503","0.0-4.0-0.9","","img/purple.png","null","trial","null","true","0.2,0.8","2:nogo_b","",""
"null","","html-keyboard-response","67","410510","0.0-4.0-1.9","","<img src=""img/purple-r.png"">","null","trial","null","","0.2,0.8","2:nogo_b","1",""
"null","","html-keyboard-response","68","411519","0.0-4.0-2.9","","<div style=""font-size:60px;"">+</div>","null","","","","","","",""
"326.5949999986333","","image-keyboard-response","69","411847","0.0-4.0-0.10","","img/red.png","32","trial","32","true","0.8,0.2","1:go_a","",""
"null","","html-keyboard-response","70","412856","0.0-4.0-1.10","","<img src=""img/red-r.png"" border=""10"">","null","trial","32","","0.8,0.2","1:go_a","1",""
"null","","html-keyboard-response","71","413863","0.0-4.0-2.10","","<div style=""font-size:60px;"">+</div>","null","","","","","","",""
"null","","image-keyboard-response","72","415371","0.0-4.0-0.11","","img/purple.png","null","trial","null","true","0.2,0.8","2:nogo_b","",""
"null","","html-keyboard-response","73","416374","0.0-4.0-1.11","","<img src=""img/purple-r.png"">","null","trial","null","","0.2,0.8","2:nogo_b","1",""
"null","","html-keyboard-response","74","417387","0.0-4.0-2.11","","<div style=""font-size:60px;"">+</div>","null","","","","","","",""
"null","","image-keyboard-response","75","418898","0.0-4.0-0.12","","img/purple.png","null","trial","null","true","0.2,0.8","2:nogo_b","",""
"null","","html-keyboard-response","76","419900","0.0-4.0-1.12","","<img src=""img/purple-r.png"">","null","trial","null","","0.2,0.8","2:nogo_b","1",""
"null","","html-keyboard-response","77","420901","0.0-4.0-2.12","","<div style=""font-size:60px;"">+</div>","null","","","","","","",""
"473.7349999995786","","image-keyboard-response","78","421375","0.0-4.0-0.13","","img/red.png","32","trial","32","true","0.8,0.2","1:go_a","",""
"null","","html-keyboard-response","79","422384","0.0-4.0-1.13","","<img src=""img/red-r.png"" border=""10"">","null","trial","32","","0.8,0.2","1:go_a","1",""
"null","","html-keyboard-response","80","423385","0.0-4.0-2.13","","<div style=""font-size:60px;"">+</div>","null","","","","","","",""
"861.5199999985634","","image-keyboard-response","81","424247","0.0-4.0-0.14","","img/red.png","32","trial","32","true","0.8,0.2","1:go_a","",""
"null","","html-keyboard-response","82","425252","0.0-4.0-1.14","","<img src=""img/red-r.png"" border=""10"">","null","trial","32","","0.8,0.2","1:go_a","1",""
"null","","html-keyboard-response","83","426264","0.0-4.0-2.14","","<div style=""font-size:60px;"">+</div>","null","","","","","","",""
"null","","image-keyboard-response","84","427781","0.0-4.0-0.15","","img/purple.png","null","trial","null","true","0.2,0.8","2:nogo_b","",""
"null","","html-keyboard-response","85","428782","0.0-4.0-1.15","","<img src=""img/purple-r.png"">","null","trial","null","","0.2,0.8","2:nogo_b","1",""
"null","","html-keyboard-response","86","429784","0.0-4.0-2.15","","<div style=""font-size:60px;"">+</div>","null","","","","","","",""
"430.38000000524335","","image-keyboard-response","87","430215","0.0-4.0-0.16","","img/red.png","32","trial","32","true","0.8,0.2","1:go_a","",""
"null","","html-keyboard-response","88","431219","0.0-4.0-1.16","","<img src=""img/red-n.png"" border=""10"">","null","trial","32","","0.8,0.2","1:go_a","0",""
"null","","html-keyboard-response","89","432223","0.0-4.0-2.16","","<div style=""font-size:60px;"">+</div>","null","","","","","","",""
"null","","image-keyboard-response","90","433734","0.0-4.0-0.17","","img/purple.png","null","trial","null","true","0.2,0.8","2:nogo_b","",""
"null","","html-keyboard-response","91","434749","0.0-4.0-1.17","","<img src=""img/purple-r.png"">","null","trial","null","","0.2,0.8","2:nogo_b","1",""
"null","","html-keyboard-response","92","435753","0.0-4.0-2.17","","<div style=""font-size:60px;"">+</div>","null","","","","","","",""
"null","","image-keyboard-response","93","437256","0.0-4.0-0.18","","img/purple.png","null","trial","null","true","0.2,0.8","2:nogo_b","",""
"null","","html-keyboard-response","94","438258","0.0-4.0-1.18","","<img src=""img/purple-n.png"">","null","trial","null","","0.2,0.8","2:nogo_b","0",""
"null","","html-keyboard-response","95","439259","0.0-4.0-2.18","","<div style=""font-size:60px;"">+</div>","null","","","","","","",""
"524.4449999954668","","image-keyboard-response","96","439784","0.0-4.0-0.19","","img/red.png","32","trial","32","true","0.8,0.2","1:go_a","",""
"null","","html-keyboard-response","97","440797","0.0-4.0-1.19","","<img src=""img/red-r.png"" border=""10"">","null","trial","32","","0.8,0.2","1:go_a","1",""
"null","","html-keyboard-response","98","441812","0.0-4.0-2.19","","<div style=""font-size:60px;"">+</div>","null","","","","","","",""
"658.6200000019744","","image-keyboard-response","99","442472","0.0-4.0-0.20","","img/red.png","32","trial","32","true","0.8,0.2","1:go_a","",""
"null","","html-keyboard-response","100","443473","0.0-4.0-1.20","","<img src=""img/red-n.png"" border=""10"">","null","trial","32","","0.8,0.2","1:go_a","0",""
"null","","html-keyboard-response","101","444476","0.0-4.0-2.20","","<div style=""font-size:60px;"">+</div>","null","","","","","","",""
"null","","image-keyboard-response","102","445992","0.0-4.0-0.21","","img/purple.png","null","trial","null","true","0.2,0.8","2:nogo_b","",""
"null","","html-keyboard-response","103","447003","0.0-4.0-1.21","","<img src=""img/purple-r.png"">","null","trial","null","","0.2,0.8","2:nogo_b","1",""
"null","","html-keyboard-response","104","448008","0.0-4.0-2.21","","<div style=""font-size:60px;"">+</div>","null","","","","","","",""
"479.1049999985262","","image-keyboard-response","105","448488","0.0-4.0-0.22","","img/red.png","32","trial","32","true","0.8,0.2","1:go_a","",""
"null","","html-keyboard-response","106","449490","0.0-4.0-1.22","","<img src=""img/red-n.png"" border=""10"">","null","trial","32","","0.8,0.2","1:go_a","0",""
"null","","html-keyboard-response","107","450497","0.0-4.0-2.22","","<div style=""font-size:60px;"">+</div>","null","","","","","","",""
"null","","image-keyboard-response","108","452008","0.0-4.0-0.23","","img/purple.png","null","trial","null","true","0.2,0.8","2:nogo_b","",""
"null","","html-keyboard-response","109","453019","0.0-4.0-1.23","","<img src=""img/purple-r.png"">","null","trial","null","","0.2,0.8","2:nogo_b","1",""
"null","","html-keyboard-response","110","454036","0.0-4.0-2.23","","<div style=""font-size:60px;"">+</div>","null","","","","","","",""
"387.73500000388594","","image-keyboard-response","111","454424","0.0-4.0-0.24","","img/red.png","32","trial","32","true","0.8,0.2","1:go_a","",""
"null","","html-keyboard-response","112","455427","0.0-4.0-1.24","","<img src=""img/red-r.png"" border=""10"">","null","trial","32","","0.8,0.2","1:go_a","1",""
"null","","html-keyboard-response","113","456443","0.0-4.0-2.24","","<div style=""font-size:60px;"">+</div>","null","","","","","","",""
"null","","image-keyboard-response","114","457957","0.0-4.0-0.25","","img/purple.png","null","trial","null","true","0.2,0.8","2:nogo_b","",""
"null","","html-keyboard-response","115","458972","0.0-4.0-1.25","","<img src=""img/purple-n.png"">","null","trial","null","","0.2,0.8","2:nogo_b","0",""
"null","","html-keyboard-response","116","459972","0.0-4.0-2.25","","<div style=""font-size:60px;"">+</div>","null","","","","","","",""
"null","","image-keyboard-response","117","461477","0.0-4.0-0.26","","img/purple.png","null","trial","null","true","0.2,0.8","2:nogo_b","",""
"null","","html-keyboard-response","118","462479","0.0-4.0-1.26","","<img src=""img/purple-r.png"">","null","trial","null","","0.2,0.8","2:nogo_b","1",""
"null","","html-keyboard-response","119","463485","0.0-4.0-2.26","","<div style=""font-size:60px;"">+</div>","null","","","","","","",""
"418.38499999721535","","image-keyboard-response","120","463904","0.0-4.0-0.27","","img/red.png","32","trial","32","true","0.8,0.2","1:go_a","",""
"null","","html-keyboard-response","121","464910","0.0-4.0-1.27","","<img src=""img/red-r.png"" border=""10"">","null","trial","32","","0.8,0.2","1:go_a","1",""
"null","","html-keyboard-response","122","465924","0.0-4.0-2.27","","<div style=""font-size:60px;"">+</div>","null","","","","","","",""
"null","","image-keyboard-response","123","467426","0.0-4.0-0.28","","img/purple.png","null","trial","null","true","0.2,0.8","2:nogo_b","",""
"null","","html-keyboard-response","124","468433","0.0-4.0-1.28","","<img src=""img/purple-r.png"">","null","trial","null","","0.2,0.8","2:nogo_b","1",""
"null","","html-keyboard-response","125","469434","0.0-4.0-2.28","","<div style=""font-size:60px;"">+</div>","null","","","","","","",""
"598.1949999986682","","image-keyboard-response","126","470033","0.0-4.0-0.29","","img/red.png","32","trial","32","true","0.8,0.2","1:go_a","",""
"null","","html-keyboard-response","127","471038","0.0-4.0-1.29","","<img src=""img/red-r.png"" border=""10"">","null","trial","32","","0.8,0.2","1:go_a","1",""
"null","","html-keyboard-response","128","472045","0.0-4.0-2.29","","<div style=""font-size:60px;"">+</div>","null","","","","","","",""
"786.7049999986193","","image-keyboard-response","129","472833","0.0-4.0-0.30","","img/red.png","32","trial","32","true","0.8,0.2","1:go_a","",""
"null","","html-keyboard-response","130","473842","0.0-4.0-1.30","","<img src=""img/red-r.png"" border=""10"">","null","trial","32","","0.8,0.2","1:go_a","1",""
"null","","html-keyboard-response","131","474849","0.0-4.0-2.30","","<div style=""font-size:60px;"">+</div>","null","","","","","","",""
"null","","image-keyboard-response","132","476350","0.0-4.0-0.31","","img/purple.png","null","trial","null","true","0.2,0.8","2:nogo_b","",""
"null","","html-keyboard-response","133","477353","0.0-4.0-1.31","","<img src=""img/purple-n.png"">","null","trial","null","","0.2,0.8","2:nogo_b","0",""
"null","","html-keyboard-response","134","478356","0.0-4.0-2.31","","<div style=""font-size:60px;"">+</div>","null","","","","","","",""
"null","","image-keyboard-response","135","479872","0.0-4.0-0.32","","img/purple.png","null","trial","null","true","0.2,0.8","2:nogo_b","",""
"null","","html-keyboard-response","136","480875","0.0-4.0-1.32","","<img src=""img/purple-r.png"">","null","trial","null","","0.2,0.8","2:nogo_b","1",""
"null","","html-keyboard-response","137","481885","0.0-4.0-2.32","","<div style=""font-size:60px;"">+</div>","null","","","","","","",""
"515.1399999958812","","image-keyboard-response","138","482401","0.0-4.0-0.33","","img/red.png","32","trial","32","true","0.8,0.2","1:go_a","",""
"null","","html-keyboard-response","139","483403","0.0-4.0-1.33","","<img src=""img/red-r.png"" border=""10"">","null","trial","32","","0.8,0.2","1:go_a","1",""
"null","","html-keyboard-response","140","484419","0.0-4.0-2.33","","<div style=""font-size:60px;"">+</div>","null","","","","","","",""
"null","","image-keyboard-response","141","485933","0.0-4.0-0.34","","img/purple.png","null","trial","null","true","0.2,0.8","2:nogo_b","",""
"null","","html-keyboard-response","142","486941","0.0-4.0-1.34","","<img src=""img/purple-r.png"">","null","trial","null","","0.2,0.8","2:nogo_b","1",""
"null","","html-keyboard-response","143","487953","0.0-4.0-2.34","","<div style=""font-size:60px;"">+</div>","null","","","","","","",""
"615.205000001879","","image-keyboard-response","144","488569","0.0-4.0-0.35","","img/red.png","32","trial","32","true","0.8,0.2","1:go_a","",""
"null","","html-keyboard-response","145","489572","0.0-4.0-1.35","","<img src=""img/red-r.png"" border=""10"">","null","trial","32","","0.8,0.2","1:go_a","1",""
"null","","html-keyboard-response","146","490572","0.0-4.0-2.35","","<div style=""font-size:60px;"">+</div>","null","","","","","","",""
"null","","image-keyboard-response","147","492073","0.0-4.0-0.36","","img/purple.png","null","trial","null","true","0.2,0.8","2:nogo_b","",""
"null","","html-keyboard-response","148","493082","0.0-4.0-1.36","","<img src=""img/purple-r.png"">","null","trial","null","","0.2,0.8","2:nogo_b","1",""
"null","","html-keyboard-response","149","494095","0.0-4.0-2.36","","<div style=""font-size:60px;"">+</div>","null","","","","","","",""
"433.39999999443535","","image-keyboard-response","150","494529","0.0-4.0-0.37","","img/red.png","32","trial","32","true","0.8,0.2","1:go_a","",""
"null","","html-keyboard-response","151","495540","0.0-4.0-1.37","","<img src=""img/red-r.png"" border=""10"">","null","trial","32","","0.8,0.2","1:go_a","1",""
"null","","html-keyboard-response","152","496556","0.0-4.0-2.37","","<div style=""font-size:60px;"">+</div>","null","","","","","","",""
"652.3200000010547","","image-keyboard-response","153","497209","0.0-4.0-0.38","","img/red.png","32","trial","32","true","0.8,0.2","1:go_a","",""
"null","","html-keyboard-response","154","498222","0.0-4.0-1.38","","<img src=""img/red-r.png"" border=""10"">","null","trial","32","","0.8,0.2","1:go_a","1",""
"null","","html-keyboard-response","155","499227","0.0-4.0-2.38","","<div style=""font-size:60px;"">+</div>","null","","","","","","",""
"null","","image-keyboard-response","156","500731","0.0-4.0-0.39","","img/purple.png","null","trial","null","true","0.2,0.8","2:nogo_b","",""
"null","","html-keyboard-response","157","501740","0.0-4.0-1.39","","<img src=""img/purple-r.png"">","null","trial","null","","0.2,0.8","2:nogo_b","1",""
"null","","html-keyboard-response","158","502750","0.0-4.0-2.39","","<div style=""font-size:60px;"">+</div>","null","","","","","","",""
"450.6949999995413","","image-keyboard-response","159","503201","0.0-4.0-0.40","","img/red.png","32","trial","32","true","0.8,0.2","1:go_a","",""
"null","","html-keyboard-response","160","504218","0.0-4.0-1.40","","<img src=""img/red-r.png"" border=""10"">","null","trial","32","","0.8,0.2","1:go_a","1",""
"null","","html-keyboard-response","161","505234","0.0-4.0-2.40","","<div style=""font-size:60px;"">+</div>","null","","","","","","",""
"null","","image-keyboard-response","162","506737","0.0-4.0-0.41","","img/purple.png","null","trial","null","true","0.2,0.8","2:nogo_b","",""
"null","","html-keyboard-response","163","507750","0.0-4.0-1.41","","<img src=""img/purple-n.png"">","null","trial","null","","0.2,0.8","2:nogo_b","0",""
"null","","html-keyboard-response","164","508754","0.0-4.0-2.41","","<div style=""font-size:60px;"">+</div>","null","","","","","","",""
"null","","image-keyboard-response","165","510256","0.0-4.0-0.42","","img/purple.png","null","trial","null","true","0.2,0.8","2:nogo_b","",""
"null","","html-keyboard-response","166","511259","0.0-4.0-1.42","","<img src=""img/purple-r.png"">","null","trial","null","","0.2,0.8","2:nogo_b","1",""
"null","","html-keyboard-response","167","512275","0.0-4.0-2.42","","<div style=""font-size:60px;"">+</div>","null","","","","","","",""
"758.5299999991548","","image-keyboard-response","168","513034","0.0-4.0-0.43","","img/red.png","32","trial","32","true","0.8,0.2","1:go_a","",""
"null","","html-keyboard-response","169","514040","0.0-4.0-1.43","","<img src=""img/red-n.png"" border=""10"">","null","trial","32","","0.8,0.2","1:go_a","0",""
"null","","html-keyboard-response","170","515047","0.0-4.0-2.43","","<div style=""font-size:60px;"">+</div>","null","","","","","","",""
"null","","image-keyboard-response","171","516561","0.0-4.0-0.44","","img/purple.png","null","trial","null","true","0.2,0.8","2:nogo_b","",""
"null","","html-keyboard-response","172","517571","0.0-4.0-1.44","","<img src=""img/purple-r.png"">","null","trial","null","","0.2,0.8","2:nogo_b","1",""
"null","","html-keyboard-response","173","518575","0.0-4.0-2.44","","<div style=""font-size:60px;"">+</div>","null","","","","","","",""
"490.61000000074273","","image-keyboard-response","174","519066","0.0-4.0-0.45","","img/red.png","32","trial","32","true","0.8,0.2","1:go_a","",""
"null","","html-keyboard-response","175","520073","0.0-4.0-1.45","","<img src=""img/red-n.png"" border=""10"">","null","trial","32","","0.8,0.2","1:go_a","0",""
"null","","html-keyboard-response","176","521087","0.0-4.0-2.45","","<div style=""font-size:60px;"">+</div>","null","","","","","","",""
"873.8200000007055","","image-keyboard-response","177","521962","0.0-4.0-0.46","","img/red.png","32","trial","32","true","0.8,0.2","1:go_a","",""
"null","","html-keyboard-response","178","522964","0.0-4.0-1.46","","<img src=""img/red-n.png"" border=""10"">","null","trial","32","","0.8,0.2","1:go_a","0",""
"null","","html-keyboard-response","179","523968","0.0-4.0-2.46","","<div style=""font-size:60px;"">+</div>","null","","","","","","",""
"null","","image-keyboard-response","180","525478","0.0-4.0-0.47","","img/purple.png","null","trial","null","true","0.2,0.8","2:nogo_b","",""
"null","","html-keyboard-response","181","526479","0.0-4.0-1.47","","<img src=""img/purple-r.png"">","null","trial","null","","0.2,0.8","2:nogo_b","1",""
"null","","html-keyboard-response","182","527482","0.0-4.0-2.47","","<div style=""font-size:60px;"">+</div>","null","","","","","","",""
"null","","image-keyboard-response","183","528988","0.0-4.0-0.48","","img/purple.png","null","trial","null","true","0.2,0.8","2:nogo_b","",""
"null","","html-keyboard-response","184","529992","0.0-4.0-1.48","","<img src=""img/purple-r.png"">","null","trial","null","","0.2,0.8","2:nogo_b","1",""
"null","","html-keyboard-response","185","530999","0.0-4.0-2.48","","<div style=""font-size:60px;"">+</div>","null","","","","","","",""
"530.2400000001071","","image-keyboard-response","186","531530","0.0-4.0-0.49","","img/red.png","32","trial","32","true","0.8,0.2","1:go_a","",""
"null","","html-keyboard-response","187","532535","0.0-4.0-1.49","","<img src=""img/red-r.png"" border=""10"">","null","trial","32","","0.8,0.2","1:go_a","1",""
"null","","html-keyboard-response","188","533541","0.0-4.0-2.49","","<div style=""font-size:60px;"">+</div>","null","","","","","","",""
"652.4049999935087","","image-keyboard-response","189","534194","0.0-4.0-0.50","","img/red.png","32","trial","32","true","0.8,0.2","1:go_a","",""
"null","","html-keyboard-response","190","535196","0.0-4.0-1.50","","<img src=""img/red-r.png"" border=""10"">","null","trial","32","","0.8,0.2","1:go_a","1",""
"null","","html-keyboard-response","191","536198","0.0-4.0-2.50","","<div style=""font-size:60px;"">+</div>","null","","","","","","",""
"null","","image-keyboard-response","192","537702","0.0-4.0-0.51","","img/purple.png","null","trial","null","true","0.2,0.8","2:nogo_b","",""
"null","","html-keyboard-response","193","538718","0.0-4.0-1.51","","<img src=""img/purple-r.png"">","null","trial","null","","0.2,0.8","2:nogo_b","1",""
"null","","html-keyboard-response","194","539729","0.0-4.0-2.51","","<div style=""font-size:60px;"">+</div>","null","","","","","","",""
"592.349999998929","","image-keyboard-response","195","540323","0.0-4.0-0.52","","img/red.png","32","trial","32","true","0.8,0.2","1:go_a","",""
"null","","html-keyboard-response","196","541334","0.0-4.0-1.52","","<img src=""img/red-r.png"" border=""10"">","null","trial","32","","0.8,0.2","1:go_a","1",""
"null","","html-keyboard-response","197","542350","0.0-4.0-2.52","","<div style=""font-size:60px;"">+</div>","null","","","","","","",""
"null","","image-keyboard-response","198","543859","0.0-4.0-0.53","","img/purple.png","null","trial","null","true","0.2,0.8","2:nogo_b","",""
"null","","html-keyboard-response","199","544872","0.0-4.0-1.53","","<img src=""img/purple-r.png"">","null","trial","null","","0.2,0.8","2:nogo_b","1",""
"null","","html-keyboard-response","200","545873","0.0-4.0-2.53","","<div style=""font-size:60px;"">+</div>","null","","","","","","",""
"null","","image-keyboard-response","201","547374","0.0-4.0-0.54","","img/purple.png","null","trial","null","true","0.2,0.8","2:nogo_b","",""
"null","","html-keyboard-response","202","548377","0.0-4.0-1.54","","<img src=""img/purple-r.png"">","null","trial","null","","0.2,0.8","2:nogo_b","1",""
"null","","html-keyboard-response","203","549384","0.0-4.0-2.54","","<div style=""font-size:60px;"">+</div>","null","","","","","","",""
"402.28499999654014","","image-keyboard-response","204","549787","0.0-4.0-0.55","","img/red.png","32","trial","32","true","0.8,0.2","1:go_a","",""
"null","","html-keyboard-response","205","550804","0.0-4.0-1.55","","<img src=""img/red-r.png"" border=""10"">","null","trial","32","","0.8,0.2","1:go_a","1",""
"null","","html-keyboard-response","206","551812","0.0-4.0-2.55","","<div style=""font-size:60px;"">+</div>","null","","","","","","",""
"null","","image-keyboard-response","207","553325","0.0-4.0-0.56","","img/purple.png","null","trial","null","true","0.2,0.8","2:nogo_b","",""
"null","","html-keyboard-response","208","554331","0.0-4.0-1.56","","<img src=""img/purple-n.png"">","null","trial","null","","0.2,0.8","2:nogo_b","0",""
"null","","html-keyboard-response","209","555336","0.0-4.0-2.56","","<div style=""font-size:60px;"">+</div>","null","","","","","","",""
"402.28499999654014","","image-keyboard-response","210","555739","0.0-4.0-0.57","","img/red.png","32","trial","32","true","0.8,0.2","1:go_a","",""
"null","","html-keyboard-response","211","556750","0.0-4.0-1.57","","<img src=""img/red-r.png"" border=""10"">","null","trial","32","","0.8,0.2","1:go_a","1",""
"null","","html-keyboard-response","212","557757","0.0-4.0-2.57","","<div style=""font-size:60px;"">+</div>","null","","","","","","",""
"565.0050000040792","","image-keyboard-response","213","558311","0.0-4.0-0.58","","img/red.png","32","trial","32","true","0.8,0.2","1:go_a","",""
"null","","html-keyboard-response","214","559324","0.0-4.0-1.58","","<img src=""img/red-r.png"" border=""10"">","null","trial","32","","0.8,0.2","1:go_a","1",""
"null","","html-keyboard-response","215","560340","0.0-4.0-2.58","","<div style=""font-size:60px;"">+</div>","null","","","","","","",""
"null","","image-keyboard-response","216","561856","0.0-4.0-0.59","","img/purple.png","null","trial","null","true","0.2,0.8","2:nogo_b","",""
"null","","html-keyboard-response","217","562862","0.0-4.0-1.59","","<img src=""img/purple-n.png"">","null","trial","null","","0.2,0.8","2:nogo_b","0",""
"null","","html-keyboard-response","218","563866","0.0-4.0-2.59","","<div style=""font-size:60px;"">+</div>","null","","","","","","",""
"245538.17999999586","","instructions","219","809416","0.0-5.0","[{""page_index"":0,""viewing_time"":245537.88500000513}]","","","","","","","","",""
"1064.3899999995483","","image-keyboard-response","220","810482","0.0-6.0-0.0","","img/pink.png","32","trial","32","true","0.8,0.2","1:go_a","",""
"null","","html-keyboard-response","221","811483","0.0-6.0-1.0","","<img src=""img/pink-r.png"" border=""10"">","null","trial","32","","0.8,0.2","1:go_a","1",""
"null","","html-keyboard-response","222","812484","0.0-6.0-2.0","","<div style=""font-size:60px;"">+</div>","null","","","","","","",""
"null","","image-keyboard-response","223","813988","0.0-6.0-0.1","","img/yellow.png","null","trial","null","true","0.2,0.8","2:nogo_b","",""
"null","","html-keyboard-response","224","814995","0.0-6.0-1.1","","<img src=""img/yellow-r.png"">","null","trial","null","","0.2,0.8","2:nogo_b","1",""
"null","","html-keyboard-response","225","816007","0.0-6.0-2.1","","<div style=""font-size:60px;"">+</div>","null","","","","","","",""
"null","","image-keyboard-response","226","817513","0.0-6.0-0.2","","img/purple.png","null","trial","32","false","0.8,0.2","3:go_c","",""
"null","","html-keyboard-response","227","818522","0.0-6.0-1.2","","<img src=""img/purple-r.png"">","null","trial","32","","0.8,0.2","3:go_c","1",""
"null","","html-keyboard-response","228","819531","0.0-6.0-2.2","","<div style=""font-size:60px;"">+</div>","null","","","","","","",""
"1110.7499999925494","","image-keyboard-response","229","820643","0.0-6.0-0.3","","img/grey.png","32","trial","null","false","0.2,0.8","4:nogo_d","",""
"null","","html-keyboard-response","230","821648","0.0-6.0-1.3","","<img src=""img/grey-n.png"" border=""10"">","null","trial","null","","0.2,0.8","4:nogo_d","0",""
"null","","html-keyboard-response","231","822657","0.0-6.0-2.3","","<div style=""font-size:60px;"">+</div>","null","","","","","","",""
"null","","image-keyboard-response","232","824167","0.0-6.0-0.4","","img/grey.png","null","trial","null","true","0.2,0.8","4:nogo_d","",""
"null","","html-keyboard-response","233","825172","0.0-6.0-1.4","","<img src=""img/grey-r.png"">","null","trial","null","","0.2,0.8","4:nogo_d","1",""
"null","","html-keyboard-response","234","826182","0.0-6.0-2.4","","<div style=""font-size:60px;"">+</div>","null","","","","","","",""
"923.2300000003306","","image-keyboard-response","235","827107","0.0-6.0-0.5","","img/purple.png","32","trial","32","true","0.8,0.2","3:go_c","",""
"null","","html-keyboard-response","236","828109","0.0-6.0-1.5","","<img src=""img/purple-n.png"" border=""10"">","null","trial","32","","0.8,0.2","3:go_c","0",""
"null","","html-keyboard-response","237","829124","0.0-6.0-2.5","","<div style=""font-size:60px;"">+</div>","null","","","","","","",""
"909.5499999966705","","image-keyboard-response","238","830035","0.0-6.0-0.6","","img/yellow.png","32","trial","null","false","0.2,0.8","2:nogo_b","",""
"null","","html-keyboard-response","239","831044","0.0-6.0-1.6","","<img src=""img/yellow-r.png"" border=""10"">","null","trial","null","","0.2,0.8","2:nogo_b","1",""
"null","","html-keyboard-response","240","832045","0.0-6.0-2.6","","<div style=""font-size:60px;"">+</div>","null","","","","","","",""
"821.0550000076182","","image-keyboard-response","241","832867","0.0-6.0-0.7","","img/pink.png","32","trial","32","true","0.8,0.2","1:go_a","",""
"null","","html-keyboard-response","242","833881","0.0-6.0-1.7","","<img src=""img/pink-r.png"" border=""10"">","null","trial","32","","0.8,0.2","1:go_a","1",""
"null","","html-keyboard-response","243","834890","0.0-6.0-2.7","","<div style=""font-size:60px;"">+</div>","null","","","","","","",""
"null","","image-keyboard-response","244","836403","0.0-6.0-0.8","","img/grey.png","null","trial","null","true","0.2,0.8","4:nogo_d","",""
"null","","html-keyboard-response","245","837414","0.0-6.0-1.8","","<img src=""img/grey-r.png"">","null","trial","null","","0.2,0.8","4:nogo_d","1",""
"null","","html-keyboard-response","246","838426","0.0-6.0-2.8","","<div style=""font-size:60px;"">+</div>","null","","","","","","",""
"792.170000000624","","image-keyboard-response","247","839219","0.0-6.0-0.9","","img/yellow.png","32","trial","null","false","0.2,0.8","2:nogo_b","",""
"null","","html-keyboard-response","248","840225","0.0-6.0-1.9","","<img src=""img/yellow-n.png"" border=""10"">","null","trial","null","","0.2,0.8","2:nogo_b","0",""
"null","","html-keyboard-response","249","841232","0.0-6.0-2.9","","<div style=""font-size:60px;"">+</div>","null","","","","","","",""
"null","","image-keyboard-response","250","842739","0.0-6.0-0.10","","img/purple.png","null","trial","32","false","0.8,0.2","3:go_c","",""
"null","","html-keyboard-response","251","843752","0.0-6.0-1.10","","<img src=""img/purple-r.png"">","null","trial","32","","0.8,0.2","3:go_c","1",""
"null","","html-keyboard-response","252","844752","0.0-6.0-2.10","","<div style=""font-size:60px;"">+</div>","null","","","","","","",""
"746.2999999988824","","image-keyboard-response","253","845499","0.0-6.0-0.11","","img/pink.png","32","trial","32","true","0.8,0.2","1:go_a","",""
"null","","html-keyboard-response","254","846516","0.0-6.0-1.11","","<img src=""img/pink-r.png"" border=""10"">","null","trial","32","","0.8,0.2","1:go_a","1",""
"null","","html-keyboard-response","255","847525","0.0-6.0-2.11","","<div style=""font-size:60px;"">+</div>","null","","","","","","",""
"749.5250000065425","","image-keyboard-response","256","848275","0.0-6.0-0.12","","img/pink.png","32","trial","32","true","0.8,0.2","1:go_a","",""
"null","","html-keyboard-response","257","849288","0.0-6.0-1.12","","<img src=""img/pink-r.png"" border=""10"">","null","trial","32","","0.8,0.2","1:go_a","1",""
"null","","html-keyboard-response","258","850303","0.0-6.0-2.12","","<div style=""font-size:60px;"">+</div>","null","","","","","","",""
"null","","image-keyboard-response","259","851809","0.0-6.0-0.13","","img/grey.png","null","trial","null","true","0.2,0.8","4:nogo_d","",""
"null","","html-keyboard-response","260","852814","0.0-6.0-1.13","","<img src=""img/grey-r.png"">","null","trial","null","","0.2,0.8","4:nogo_d","1",""
"null","","html-keyboard-response","261","853823","0.0-6.0-2.13","","<div style=""font-size:60px;"">+</div>","null","","","","","","",""
"1099.4050000008428","","image-keyboard-response","262","854923","0.0-6.0-0.14","","img/yellow.png","32","trial","null","false","0.2,0.8","2:nogo_b","",""
"null","","html-keyboard-response","263","855930","0.0-6.0-1.14","","<img src=""img/yellow-n.png"" border=""10"">","null","trial","null","","0.2,0.8","2:nogo_b","0",""
"null","","html-keyboard-response","264","856937","0.0-6.0-2.14","","<div style=""font-size:60px;"">+</div>","null","","","","","","",""
"null","","image-keyboard-response","265","858443","0.0-6.0-0.15","","img/purple.png","null","trial","32","false","0.8,0.2","3:go_c","",""
"null","","html-keyboard-response","266","859451","0.0-6.0-1.15","","<img src=""img/purple-n.png"">","null","trial","32","","0.8,0.2","3:go_c","0",""
"null","","html-keyboard-response","267","860453","0.0-6.0-2.15","","<div style=""font-size:60px;"">+</div>","null","","","","","","",""
"null","","image-keyboard-response","268","861968","0.0-6.0-0.16","","img/grey.png","null","trial","null","true","0.2,0.8","4:nogo_d","",""
"null","","html-keyboard-response","269","862970","0.0-6.0-1.16","","<img src=""img/grey-n.png"">","null","trial","null","","0.2,0.8","4:nogo_d","0",""
"null","","html-keyboard-response","270","863981","0.0-6.0-2.16","","<div style=""font-size:60px;"">+</div>","null","","","","","","",""
"1006.150000001071","","image-keyboard-response","271","864988","0.0-6.0-0.17","","img/yellow.png","32","trial","null","false","0.2,0.8","2:nogo_b","",""
"null","","html-keyboard-response","272","865993","0.0-6.0-1.17","","<img src=""img/yellow-n.png"" border=""10"">","null","trial","null","","0.2,0.8","2:nogo_b","0",""
"null","","html-keyboard-response","273","867008","0.0-6.0-2.17","","<div style=""font-size:60px;"">+</div>","null","","","","","","",""
"null","","image-keyboard-response","274","868510","0.0-6.0-0.18","","img/purple.png","null","trial","32","false","0.8,0.2","3:go_c","",""
"null","","html-keyboard-response","275","869524","0.0-6.0-1.18","","<img src=""img/purple-n.png"">","null","trial","32","","0.8,0.2","3:go_c","0",""
"null","","html-keyboard-response","276","870534","0.0-6.0-2.18","","<div style=""font-size:60px;"">+</div>","null","","","","","","",""
"757.0950000081211","","image-keyboard-response","277","871292","0.0-6.0-0.19","","img/pink.png","32","trial","32","true","0.8,0.2","1:go_a","",""
"null","","html-keyboard-response","278","872297","0.0-6.0-1.19","","<img src=""img/pink-r.png"" border=""10"">","null","trial","32","","0.8,0.2","1:go_a","1",""
"null","","html-keyboard-response","279","873306","0.0-6.0-2.19","","<div style=""font-size:60px;"">+</div>","null","","","","","","",""
"864.9750000040513","","image-keyboard-response","280","874172","0.0-6.0-0.20","","img/grey.png","32","trial","null","false","0.2,0.8","4:nogo_d","",""
"null","","html-keyboard-response","281","875174","0.0-6.0-1.20","","<img src=""img/grey-n.png"" border=""10"">","null","trial","null","","0.2,0.8","4:nogo_d","0",""
"null","","html-keyboard-response","282","876175","0.0-6.0-2.20","","<div style=""font-size:60px;"">+</div>","null","","","","","","",""
"1028.8500000024214","","image-keyboard-response","283","877204","0.0-6.0-0.21","","img/pink.png","32","trial","32","true","0.8,0.2","1:go_a","",""
"null","","html-keyboard-response","284","878220","0.0-6.0-1.21","","<img src=""img/pink-n.png"" border=""10"">","null","trial","32","","0.8,0.2","1:go_a","0",""
"null","","html-keyboard-response","285","879236","0.0-6.0-2.21","","<div style=""font-size:60px;"">+</div>","null","","","","","","",""
"null","","image-keyboard-response","286","880750","0.0-6.0-0.22","","img/purple.png","null","trial","32","false","0.8,0.2","3:go_c","",""
"null","","html-keyboard-response","287","881756","0.0-6.0-1.22","","<img src=""img/purple-n.png"">","null","trial","32","","0.8,0.2","3:go_c","0",""
"null","","html-keyboard-response","288","882768","0.0-6.0-2.22","","<div style=""font-size:60px;"">+</div>","null","","","","","","",""
"931.3649999967311","","image-keyboard-response","289","883701","0.0-6.0-0.23","","img/yellow.png","32","trial","null","false","0.2,0.8","2:nogo_b","",""
"null","","html-keyboard-response","290","884702","0.0-6.0-1.23","","<img src=""img/yellow-n.png"" border=""10"">","null","trial","null","","0.2,0.8","2:nogo_b","0",""
"null","","html-keyboard-response","291","885706","0.0-6.0-2.23","","<div style=""font-size:60px;"">+</div>","null","","","","","","",""
"null","","image-keyboard-response","292","887212","0.0-6.0-0.24","","img/yellow.png","null","trial","null","true","0.2,0.8","2:nogo_b","",""
"null","","html-keyboard-response","293","888226","0.0-6.0-1.24","","<img src=""img/yellow-r.png"">","null","trial","null","","0.2,0.8","2:nogo_b","1",""
"null","","html-keyboard-response","294","889234","0.0-6.0-2.24","","<div style=""font-size:60px;"">+</div>","null","","","","","","",""
"null","","image-keyboard-response","295","890740","0.0-6.0-0.25","","img/grey.png","null","trial","null","true","0.2,0.8","4:nogo_d","",""
"null","","html-keyboard-response","296","891744","0.0-6.0-1.25","","<img src=""img/grey-r.png"">","null","trial","null","","0.2,0.8","4:nogo_d","1",""
"null","","html-keyboard-response","297","892754","0.0-6.0-2.25","","<div style=""font-size:60px;"">+</div>","null","","","","","","",""
"897.7300000115065","","image-keyboard-response","298","893653","0.0-6.0-0.26","","img/pink.png","32","trial","32","true","0.8,0.2","1:go_a","",""
"null","","html-keyboard-response","299","894655","0.0-6.0-1.26","","<img src=""img/pink-r.png"" border=""10"">","null","trial","32","","0.8,0.2","1:go_a","1",""
"null","","html-keyboard-response","300","895659","0.0-6.0-2.26","","<div style=""font-size:60px;"">+</div>","null","","","","","","",""
"null","","image-keyboard-response","301","897162","0.0-6.0-0.27","","img/purple.png","null","trial","32","false","0.8,0.2","3:go_c","",""
"null","","html-keyboard-response","302","898168","0.0-6.0-1.27","","<img src=""img/purple-r.png"">","null","trial","32","","0.8,0.2","3:go_c","1",""
"null","","html-keyboard-response","303","899169","0.0-6.0-2.27","","<div style=""font-size:60px;"">+</div>","null","","","","","","",""
"null","","image-keyboard-response","304","900674","0.0-6.0-0.28","","img/yellow.png","null","trial","null","true","0.2,0.8","2:nogo_b","",""
"null","","html-keyboard-response","305","901676","0.0-6.0-1.28","","<img src=""img/yellow-r.png"">","null","trial","null","","0.2,0.8","2:nogo_b","1",""
"null","","html-keyboard-response","306","902677","0.0-6.0-2.28","","<div style=""font-size:60px;"">+</div>","null","","","","","","",""
"695.2149999997346","","image-keyboard-response","307","903373","0.0-6.0-0.29","","img/pink.png","32","trial","32","true","0.8,0.2","1:go_a","",""
"null","","html-keyboard-response","308","904383","0.0-6.0-1.29","","<img src=""img/pink-r.png"" border=""10"">","null","trial","32","","0.8,0.2","1:go_a","1",""
"null","","html-keyboard-response","309","905384","0.0-6.0-2.29","","<div style=""font-size:60px;"">+</div>","null","","","","","","",""
"null","","image-keyboard-response","310","906895","0.0-6.0-0.30","","img/grey.png","null","trial","null","true","0.2,0.8","4:nogo_d","",""
"null","","html-keyboard-response","311","907902","0.0-6.0-1.30","","<img src=""img/grey-r.png"">","null","trial","null","","0.2,0.8","4:nogo_d","1",""
"null","","html-keyboard-response","312","908903","0.0-6.0-2.30","","<div style=""font-size:60px;"">+</div>","null","","","","","","",""
"1053.7449999974342","","image-keyboard-response","313","909957","0.0-6.0-0.31","","img/purple.png","32","trial","32","true","0.8,0.2","3:go_c","",""
"null","","html-keyboard-response","314","910959","0.0-6.0-1.31","","<img src=""img/purple-r.png"" border=""10"">","null","trial","32","","0.8,0.2","3:go_c","1",""
"null","","html-keyboard-response","315","911967","0.0-6.0-2.31","","<div style=""font-size:60px;"">+</div>","null","","","","","","",""
"733.7300000071991","","image-keyboard-response","316","912701","0.0-6.0-0.32","","img/purple.png","32","trial","32","true","0.8,0.2","3:go_c","",""
"null","","html-keyboard-response","317","913705","0.0-6.0-1.32","","<img src=""img/purple-r.png"" border=""10"">","null","trial","32","","0.8,0.2","3:go_c","1",""
"null","","html-keyboard-response","318","914710","0.0-6.0-2.32","","<div style=""font-size:60px;"">+</div>","null","","","","","","",""
"null","","image-keyboard-response","319","916215","0.0-6.0-0.33","","img/grey.png","null","trial","null","true","0.2,0.8","4:nogo_d","",""
"null","","html-keyboard-response","320","917232","0.0-6.0-1.33","","<img src=""img/grey-r.png"">","null","trial","null","","0.2,0.8","4:nogo_d","1",""
"null","","html-keyboard-response","321","918242","0.0-6.0-2.33","","<div style=""font-size:60px;"">+</div>","null","","","","","","",""
"946.8850000121165","","image-keyboard-response","322","919190","0.0-6.0-0.34","","img/pink.png","32","trial","32","true","0.8,0.2","1:go_a","",""
"null","","html-keyboard-response","323","920198","0.0-6.0-1.34","","<img src=""img/pink-r.png"" border=""10"">","null","trial","32","","0.8,0.2","1:go_a","1",""
"null","","html-keyboard-response","324","921201","0.0-6.0-2.34","","<div style=""font-size:60px;"">+</div>","null","","","","","","",""
"null","","image-keyboard-response","325","922703","0.0-6.0-0.35","","img/yellow.png","null","trial","null","true","0.2,0.8","2:nogo_b","",""
"null","","html-keyboard-response","326","923712","0.0-6.0-1.35","","<img src=""img/yellow-r.png"">","null","trial","null","","0.2,0.8","2:nogo_b","1",""
"null","","html-keyboard-response","327","924719","0.0-6.0-2.35","","<div style=""font-size:60px;"">+</div>","null","","","","","","",""
"null","","image-keyboard-response","328","926232","0.0-6.0-0.36","","img/grey.png","null","trial","null","true","0.2,0.8","4:nogo_d","",""
"null","","html-keyboard-response","329","927234","0.0-6.0-1.36","","<img src=""img/grey-r.png"">","null","trial","null","","0.2,0.8","4:nogo_d","1",""
"null","","html-keyboard-response","330","928249","0.0-6.0-2.36","","<div style=""font-size:60px;"">+</div>","null","","","","","","",""
"724.4550000032177","","image-keyboard-response","331","928974","0.0-6.0-0.37","","img/pink.png","32","trial","32","true","0.8,0.2","1:go_a","",""
"null","","html-keyboard-response","332","929976","0.0-6.0-1.37","","<img src=""img/pink-r.png"" border=""10"">","null","trial","32","","0.8,0.2","1:go_a","1",""
"null","","html-keyboard-response","333","930991","0.0-6.0-2.37","","<div style=""font-size:60px;"">+</div>","null","","","","","","",""
"null","","image-keyboard-response","334","932500","0.0-6.0-0.38","","img/yellow.png","null","trial","null","true","0.2,0.8","2:nogo_b","",""
"null","","html-keyboard-response","335","933508","0.0-6.0-1.38","","<img src=""img/yellow-n.png"">","null","trial","null","","0.2,0.8","2:nogo_b","0",""
"null","","html-keyboard-response","336","934517","0.0-6.0-2.38","","<div style=""font-size:60px;"">+</div>","null","","","","","","",""
"680.6550000037532","","image-keyboard-response","337","935198","0.0-6.0-0.39","","img/purple.png","32","trial","32","true","0.8,0.2","3:go_c","",""
"null","","html-keyboard-response","338","936215","0.0-6.0-1.39","","<img src=""img/purple-r.png"" border=""10"">","null","trial","32","","0.8,0.2","3:go_c","1",""
"null","","html-keyboard-response","339","937225","0.0-6.0-2.39","","<div style=""font-size:60px;"">+</div>","null","","","","","","",""
"null","","image-keyboard-response","340","938731","0.0-6.0-0.40","","img/pink.png","null","trial","32","false","0.8,0.2","1:go_a","",""
"null","","html-keyboard-response","341","939741","0.0-6.0-1.40","","<img src=""img/pink-n.png"">","null","trial","32","","0.8,0.2","1:go_a","0",""
"null","","html-keyboard-response","342","940749","0.0-6.0-2.40","","<div style=""font-size:60px;"">+</div>","null","","","","","","",""
"null","","image-keyboard-response","343","942250","0.0-6.0-0.41","","img/grey.png","null","trial","null","true","0.2,0.8","4:nogo_d","",""
"null","","html-keyboard-response","344","943256","0.0-6.0-1.41","","<img src=""img/grey-r.png"">","null","trial","null","","0.2,0.8","4:nogo_d","1",""
"null","","html-keyboard-response","345","944272","0.0-6.0-2.41","","<div style=""font-size:60px;"">+</div>","null","","","","","","",""
"925.7250000082422","","image-keyboard-response","346","945198","0.0-6.0-0.42","","img/purple.png","32","trial","32","true","0.8,0.2","3:go_c","",""
"null","","html-keyboard-response","347","946202","0.0-6.0-1.42","","<img src=""img/purple-r.png"" border=""10"">","null","trial","32","","0.8,0.2","3:go_c","1",""
"null","","html-keyboard-response","348","947207","0.0-6.0-2.42","","<div style=""font-size:60px;"">+</div>","null","","","","","","",""
"null","","image-keyboard-response","349","948719","0.0-6.0-0.43","","img/yellow.png","null","trial","null","true","0.2,0.8","2:nogo_b","",""
"null","","html-keyboard-response","350","949734","0.0-6.0-1.43","","<img src=""img/yellow-r.png"">","null","trial","null","","0.2,0.8","2:nogo_b","1",""
"null","","html-keyboard-response","351","950742","0.0-6.0-2.43","","<div style=""font-size:60px;"">+</div>","null","","","","","","",""
"943.3949999947799","","image-keyboard-response","352","951686","0.0-6.0-0.44","","img/purple.png","32","trial","32","true","0.8,0.2","3:go_c","",""
"null","","html-keyboard-response","353","952699","0.0-6.0-1.44","","<img src=""img/purple-r.png"" border=""10"">","null","trial","32","","0.8,0.2","3:go_c","1",""
"null","","html-keyboard-response","354","953703","0.0-6.0-2.44","","<div style=""font-size:60px;"">+</div>","null","","","","","","",""
"798.8800000021001","","image-keyboard-response","355","954503","0.0-6.0-0.45","","img/pink.png","32","trial","32","true","0.8,0.2","1:go_a","",""
"null","","html-keyboard-response","356","955507","0.0-6.0-1.45","","<img src=""img/pink-r.png"" border=""10"">","null","trial","32","","0.8,0.2","1:go_a","1",""
"null","","html-keyboard-response","357","956520","0.0-6.0-2.45","","<div style=""font-size:60px;"">+</div>","null","","","","","","",""
"null","","image-keyboard-response","358","958035","0.0-6.0-0.46","","img/yellow.png","null","trial","null","true","0.2,0.8","2:nogo_b","",""
"null","","html-keyboard-response","359","959048","0.0-6.0-1.46","","<img src=""img/yellow-r.png"">","null","trial","null","","0.2,0.8","2:nogo_b","1",""
"null","","html-keyboard-response","360","960050","0.0-6.0-2.46","","<div style=""font-size:60px;"">+</div>","null","","","","","","",""
"null","","image-keyboard-response","361","961556","0.0-6.0-0.47","","img/grey.png","null","trial","null","true","0.2,0.8","4:nogo_d","",""
"null","","html-keyboard-response","362","962572","0.0-6.0-1.47","","<img src=""img/grey-r.png"">","null","trial","null","","0.2,0.8","4:nogo_d","1",""
"null","","html-keyboard-response","363","963587","0.0-6.0-2.47","","<div style=""font-size:60px;"">+</div>","null","","","","","","",""
"674.9149999959627","","image-keyboard-response","364","964263","0.0-6.0-0.48","","img/purple.png","32","trial","32","true","0.8,0.2","3:go_c","",""
"null","","html-keyboard-response","365","965277","0.0-6.0-1.48","","<img src=""img/purple-r.png"" border=""10"">","null","trial","32","","0.8,0.2","3:go_c","1",""
"null","","html-keyboard-response","366","966280","0.0-6.0-2.48","","<div style=""font-size:60px;"">+</div>","null","","","","","","",""
"null","","image-keyboard-response","367","967794","0.0-6.0-0.49","","img/yellow.png","null","trial","null","true","0.2,0.8","2:nogo_b","",""
"null","","html-keyboard-response","368","968809","0.0-6.0-1.49","","<img src=""img/yellow-r.png"">","null","trial","null","","0.2,0.8","2:nogo_b","1",""
"null","","html-keyboard-response","369","969823","0.0-6.0-2.49","","<div style=""font-size:60px;"">+</div>","null","","","","","","",""
"null","","image-keyboard-response","370","971336","0.0-6.0-0.50","","img/grey.png","null","trial","null","true","0.2,0.8","4:nogo_d","",""
"null","","html-keyboard-response","371","972341","0.0-6.0-1.50","","<img src=""img/grey-r.png"">","null","trial","null","","0.2,0.8","4:nogo_d","1",""
"null","","html-keyboard-response","372","973352","0.0-6.0-2.50","","<div style=""font-size:60px;"">+</div>","null","","","","","","",""
"886.4749999920605","","image-keyboard-response","373","974239","0.0-6.0-0.51","","img/pink.png","32","trial","32","true","0.8,0.2","1:go_a","",""
"null","","html-keyboard-response","374","975256","0.0-6.0-1.51","","<img src=""img/pink-r.png"" border=""10"">","null","trial","32","","0.8,0.2","1:go_a","1",""
"null","","html-keyboard-response","375","976257","0.0-6.0-2.51","","<div style=""font-size:60px;"">+</div>","null","","","","","","",""
"null","","image-keyboard-response","376","977758","0.0-6.0-0.52","","img/yellow.png","null","trial","null","true","0.2,0.8","2:nogo_b","",""
"null","","html-keyboard-response","377","978764","0.0-6.0-1.52","","<img src=""img/yellow-r.png"">","null","trial","null","","0.2,0.8","2:nogo_b","1",""
"null","","html-keyboard-response","378","979766","0.0-6.0-2.52","","<div style=""font-size:60px;"">+</div>","null","","","","","","",""
"1129.1849999979604","","image-keyboard-response","379","980896","0.0-6.0-0.53","","img/pink.png","32","trial","32","true","0.8,0.2","1:go_a","",""
"null","","html-keyboard-response","380","981911","0.0-6.0-1.53","","<img src=""img/pink-r.png"" border=""10"">","null","trial","32","","0.8,0.2","1:go_a","1",""
"null","","html-keyboard-response","381","982925","0.0-6.0-2.53","","<div style=""font-size:60px;"">+</div>","null","","","","","","",""
"882.1650000027148","","image-keyboard-response","382","983807","0.0-6.0-0.54","","img/purple.png","32","trial","32","true","0.8,0.2","3:go_c","",""
"null","","html-keyboard-response","383","984809","0.0-6.0-1.54","","<img src=""img/purple-r.png"" border=""10"">","null","trial","32","","0.8,0.2","3:go_c","1",""
"null","","html-keyboard-response","384","985821","0.0-6.0-2.54","","<div style=""font-size:60px;"">+</div>","null","","","","","","",""
"null","","image-keyboard-response","385","987336","0.0-6.0-0.55","","img/grey.png","null","trial","null","true","0.2,0.8","4:nogo_d","",""
"null","","html-keyboard-response","386","988337","0.0-6.0-1.55","","<img src=""img/grey-r.png"">","null","trial","null","","0.2,0.8","4:nogo_d","1",""
"null","","html-keyboard-response","387","989337","0.0-6.0-2.55","","<div style=""font-size:60px;"">+</div>","null","","","","","","",""
"941.4849999884609","","image-keyboard-response","388","990280","0.0-6.0-0.56","","img/pink.png","32","trial","32","true","0.8,0.2","1:go_a","",""
"null","","html-keyboard-response","389","991295","0.0-6.0-1.56","","<img src=""img/pink-r.png"" border=""10"">","null","trial","32","","0.8,0.2","1:go_a","1",""
"null","","html-keyboard-response","390","992301","0.0-6.0-2.56","","<div style=""font-size:60px;"">+</div>","null","","","","","","",""
"null","","image-keyboard-response","391","993814","0.0-6.0-0.57","","img/yellow.png","null","trial","null","true","0.2,0.8","2:nogo_b","",""
"null","","html-keyboard-response","392","994823","0.0-6.0-1.57","","<img src=""img/yellow-r.png"">","null","trial","null","","0.2,0.8","2:nogo_b","1",""
"null","","html-keyboard-response","393","995825","0.0-6.0-2.57","","<div style=""font-size:60px;"">+</div>","null","","","","","","",""
"null","","image-keyboard-response","394","997335","0.0-6.0-0.58","","img/grey.png","null","trial","null","true","0.2,0.8","4:nogo_d","",""
"null","","html-keyboard-response","395","998340","0.0-6.0-1.58","","<img src=""img/grey-r.png"">","null","trial","null","","0.2,0.8","4:nogo_d","1",""
"null","","html-keyboard-response","396","999348","0.0-6.0-2.58","","<div style=""font-size:60px;"">+</div>","null","","","","","","",""
"995.0300000054995","","image-keyboard-response","397","1000344","0.0-6.0-0.59","","img/purple.png","32","trial","32","true","0.8,0.2","3:go_c","",""
"null","","html-keyboard-response","398","1001356","0.0-6.0-1.59","","<img src=""img/purple-r.png"" border=""10"">","null","trial","32","","0.8,0.2","3:go_c","1",""
"null","","html-keyboard-response","399","1002368","0.0-6.0-2.59","","<div style=""font-size:60px;"">+</div>","null","","","","","","",""
"null","","image-keyboard-response","400","1003875","0.0-6.0-0.60","","img/yellow.png","null","trial","null","true","0.2,0.8","2:nogo_b","",""
"null","","html-keyboard-response","401","1004876","0.0-6.0-1.60","","<img src=""img/yellow-r.png"">","null","trial","null","","0.2,0.8","2:nogo_b","1",""
"null","","html-keyboard-response","402","1005887","0.0-6.0-2.60","","<div style=""font-size:60px;"">+</div>","null","","","","","","",""
"888.0100000096718","","image-keyboard-response","403","1006776","0.0-6.0-0.61","","img/purple.png","32","trial","32","true","0.8,0.2","3:go_c","",""
"null","","html-keyboard-response","404","1007790","0.0-6.0-1.61","","<img src=""img/purple-r.png"" border=""10"">","null","trial","32","","0.8,0.2","3:go_c","1",""
"null","","html-keyboard-response","405","1008807","0.0-6.0-2.61","","<div style=""font-size:60px;"">+</div>","null","","","","","","",""
"744.7499999980209","","image-keyboard-response","406","1009552","0.0-6.0-0.62","","img/pink.png","32","trial","32","true","0.8,0.2","1:go_a","",""
"null","","html-keyboard-response","407","1010557","0.0-6.0-1.62","","<img src=""img/pink-n.png"" border=""10"">","null","trial","32","","0.8,0.2","1:go_a","0",""
"null","","html-keyboard-response","408","1011572","0.0-6.0-2.62","","<div style=""font-size:60px;"">+</div>","null","","","","","","",""
"null","","image-keyboard-response","409","1013082","0.0-6.0-0.63","","img/grey.png","null","trial","null","true","0.2,0.8","4:nogo_d","",""
"null","","html-keyboard-response","410","1014096","0.0-6.0-1.63","","<img src=""img/grey-r.png"">","null","trial","null","","0.2,0.8","4:nogo_d","1",""
"null","","html-keyboard-response","411","1015097","0.0-6.0-2.63","","<div style=""font-size:60px;"">+</div>","null","","","","","","",""
"null","","image-keyboard-response","412","1016601","0.0-6.0-0.64","","img/yellow.png","null","trial","null","true","0.2,0.8","2:nogo_b","",""
"null","","html-keyboard-response","413","1017618","0.0-6.0-1.64","","<img src=""img/yellow-r.png"">","null","trial","null","","0.2,0.8","2:nogo_b","1",""
"null","","html-keyboard-response","414","1018621","0.0-6.0-2.64","","<div style=""font-size:60px;"">+</div>","null","","","","","","",""
"1091.4800000027753","","image-keyboard-response","415","1019713","0.0-6.0-0.65","","img/purple.png","32","trial","32","true","0.8,0.2","3:go_c","",""
"null","","html-keyboard-response","416","1020727","0.0-6.0-1.65","","<img src=""img/purple-r.png"" border=""10"">","null","trial","32","","0.8,0.2","3:go_c","1",""
"null","","html-keyboard-response","417","1021741","0.0-6.0-2.65","","<div style=""font-size:60px;"">+</div>","null","","","","","","",""
"null","","image-keyboard-response","418","1023249","0.0-6.0-0.66","","img/grey.png","null","trial","null","true","0.2,0.8","4:nogo_d","",""
"null","","html-keyboard-response","419","1024251","0.0-6.0-1.66","","<img src=""img/grey-r.png"">","null","trial","null","","0.2,0.8","4:nogo_d","1",""
"null","","html-keyboard-response","420","1025251","0.0-6.0-2.66","","<div style=""font-size:60px;"">+</div>","null","","","","","","",""
"1084.6250000031432","","image-keyboard-response","421","1026337","0.0-6.0-0.67","","img/pink.png","32","trial","32","true","0.8,0.2","1:go_a","",""
"null","","html-keyboard-response","422","1027340","0.0-6.0-1.67","","<img src=""img/pink-r.png"" border=""10"">","null","trial","32","","0.8,0.2","1:go_a","1",""
"null","","html-keyboard-response","423","1028350","0.0-6.0-2.67","","<div style=""font-size:60px;"">+</div>","null","","","","","","",""
"null","","image-keyboard-response","424","1029856","0.0-6.0-0.68","","img/grey.png","null","trial","null","true","0.2,0.8","4:nogo_d","",""
"null","","html-keyboard-response","425","1030873","0.0-6.0-1.68","","<img src=""img/grey-r.png"">","null","trial","null","","0.2,0.8","4:nogo_d","1",""
"null","","html-keyboard-response","426","1031880","0.0-6.0-2.68","","<div style=""font-size:60px;"">+</div>","null","","","","","","",""
"null","","image-keyboard-response","427","1033383","0.0-6.0-0.69","","img/yellow.png","null","trial","null","true","0.2,0.8","2:nogo_b","",""
"null","","html-keyboard-response","428","1034385","0.0-6.0-1.69","","<img src=""img/yellow-r.png"">","null","trial","null","","0.2,0.8","2:nogo_b","1",""
"null","","html-keyboard-response","429","1035400","0.0-6.0-2.69","","<div style=""font-size:60px;"">+</div>","null","","","","","","",""
"976.7100000026403","","image-keyboard-response","430","1036377","0.0-6.0-0.70","","img/purple.png","32","trial","32","true","0.8,0.2","3:go_c","",""
"null","","html-keyboard-response","431","1037393","0.0-6.0-1.70","","<img src=""img/purple-r.png"" border=""10"">","null","trial","32","","0.8,0.2","3:go_c","1",""
"null","","html-keyboard-response","432","1038404","0.0-6.0-2.70","","<div style=""font-size:60px;"">+</div>","null","","","","","","",""
"916.1450000101468","","image-keyboard-response","433","1039321","0.0-6.0-0.71","","img/pink.png","32","trial","32","true","0.8,0.2","1:go_a","",""
"null","","html-keyboard-response","434","1040337","0.0-6.0-1.71","","<img src=""img/pink-r.png"" border=""10"">","null","trial","32","","0.8,0.2","1:go_a","1",""
"null","","html-keyboard-response","435","1041352","0.0-6.0-2.71","","<div style=""font-size:60px;"">+</div>","null","","","","","","",""
"null","","image-keyboard-response","436","1042856","0.0-6.0-0.72","","img/grey.png","null","trial","null","true","0.2,0.8","4:nogo_d","",""
"null","","html-keyboard-response","437","1043864","0.0-6.0-1.72","","<img src=""img/grey-r.png"">","null","trial","null","","0.2,0.8","4:nogo_d","1",""
"null","","html-keyboard-response","438","1044874","0.0-6.0-2.72","","<div style=""font-size:60px;"">+</div>","null","","","","","","",""
"766.700000007404","","image-keyboard-response","439","1045641","0.0-6.0-0.73","","img/purple.png","32","trial","32","true","0.8,0.2","3:go_c","",""
"null","","html-keyboard-response","440","1046657","0.0-6.0-1.73","","<img src=""img/purple-r.png"" border=""10"">","null","trial","32","","0.8,0.2","3:go_c","1",""
"null","","html-keyboard-response","441","1047671","0.0-6.0-2.73","","<div style=""font-size:60px;"">+</div>","null","","","","","","",""
"null","","image-keyboard-response","442","1049187","0.0-6.0-0.74","","img/yellow.png","null","trial","null","true","0.2,0.8","2:nogo_b","",""
"null","","html-keyboard-response","443","1050189","0.0-6.0-1.74","","<img src=""img/yellow-r.png"">","null","trial","null","","0.2,0.8","2:nogo_b","1",""
"null","","html-keyboard-response","444","1051190","0.0-6.0-2.74","","<div style=""font-size:60px;"">+</div>","null","","","","","","",""
"715.070000005886","","image-keyboard-response","445","1051905","0.0-6.0-0.75","","img/pink.png","32","trial","32","true","0.8,0.2","1:go_a","",""
"null","","html-keyboard-response","446","1052918","0.0-6.0-1.75","","<img src=""img/pink-n.png"" border=""10"">","null","trial","32","","0.8,0.2","1:go_a","0",""
"null","","html-keyboard-response","447","1053934","0.0-6.0-2.75","","<div style=""font-size:60px;"">+</div>","null","","","","","","",""
"null","","image-keyboard-response","448","1055451","0.0-6.0-0.76","","img/yellow.png","null","trial","null","true","0.2,0.8","2:nogo_b","",""
"null","","html-keyboard-response","449","1056453","0.0-6.0-1.76","","<img src=""img/yellow-n.png"">","null","trial","null","","0.2,0.8","2:nogo_b","0",""
"null","","html-keyboard-response","450","1057466","0.0-6.0-2.76","","<div style=""font-size:60px;"">+</div>","null","","","","","","",""
"null","","image-keyboard-response","451","1058970","0.0-6.0-0.77","","img/grey.png","null","trial","null","true","0.2,0.8","4:nogo_d","",""
"null","","html-keyboard-response","452","1059978","0.0-6.0-1.77","","<img src=""img/grey-r.png"">","null","trial","null","","0.2,0.8","4:nogo_d","1",""
"null","","html-keyboard-response","453","1060979","0.0-6.0-2.77","","<div style=""font-size:60px;"">+</div>","null","","","","","","",""
"669.5049999980256","","image-keyboard-response","454","1061650","0.0-6.0-0.78","","img/purple.png","32","trial","32","true","0.8,0.2","3:go_c","",""
"null","","html-keyboard-response","455","1062652","0.0-6.0-1.78","","<img src=""img/purple-r.png"" border=""10"">","null","trial","32","","0.8,0.2","3:go_c","1",""
"null","","html-keyboard-response","456","1063666","0.0-6.0-2.78","","<div style=""font-size:60px;"">+</div>","null","","","","","","",""
"1014.9149999923538","","image-keyboard-response","457","1064682","0.0-6.0-0.79","","img/pink.png","32","trial","32","true","0.8,0.2","1:go_a","",""
"null","","html-keyboard-response","458","1065693","0.0-6.0-1.79","","<img src=""img/pink-n.png"" border=""10"">","null","trial","32","","0.8,0.2","1:go_a","0",""
"null","","html-keyboard-response","459","1066709","0.0-6.0-2.79","","<div style=""font-size:60px;"">+</div>","null","","","","","","",""
"1132.3650000123307","","image-keyboard-response","460","1067842","0.0-6.0-0.80","","img/purple.png","32","trial","32","true","0.8,0.2","3:go_c","",""
"null","","html-keyboard-response","461","1068852","0.0-6.0-1.80","","<img src=""img/purple-r.png"" border=""10"">","null","trial","32","","0.8,0.2","3:go_c","1",""
"null","","html-keyboard-response","462","1069868","0.0-6.0-2.80","","<div style=""font-size:60px;"">+</div>","null","","","","","","",""
"null","","image-keyboard-response","463","1071371","0.0-6.0-0.81","","img/grey.png","null","trial","null","true","0.2,0.8","4:nogo_d","",""
"null","","html-keyboard-response","464","1072383","0.0-6.0-1.81","","<img src=""img/grey-r.png"">","null","trial","null","","0.2,0.8","4:nogo_d","1",""
"null","","html-keyboard-response","465","1073399","0.0-6.0-2.81","","<div style=""font-size:60px;"">+</div>","null","","","","","","",""
"586.2650000054855","","image-keyboard-response","466","1073986","0.0-6.0-0.82","","img/pink.png","32","trial","32","true","0.8,0.2","1:go_a","",""
"null","","html-keyboard-response","467","1074988","0.0-6.0-1.82","","<img src=""img/pink-r.png"" border=""10"">","null","trial","32","","0.8,0.2","1:go_a","1",""
"null","","html-keyboard-response","468","1076007","0.0-6.0-2.82","","<div style=""font-size:60px;"">+</div>","null","","","","","","",""
"null","","image-keyboard-response","469","1077515","0.0-6.0-0.83","","img/yellow.png","null","trial","null","true","0.2,0.8","2:nogo_b","",""
"null","","html-keyboard-response","470","1078530","0.0-6.0-1.83","","<img src=""img/yellow-r.png"">","null","trial","null","","0.2,0.8","2:nogo_b","1",""
"null","","html-keyboard-response","471","1079540","0.0-6.0-2.83","","<div style=""font-size:60px;"">+</div>","null","","","","","","",""
"661.179999995511","","image-keyboard-response","472","1080202","0.0-6.0-0.84","","img/pink.png","32","trial","32","true","0.8,0.2","1:go_a","",""
"null","","html-keyboard-response","473","1081204","0.0-6.0-1.84","","<img src=""img/pink-r.png"" border=""10"">","null","trial","32","","0.8,0.2","1:go_a","1",""
"null","","html-keyboard-response","474","1082218","0.0-6.0-2.84","","<div style=""font-size:60px;"">+</div>","null","","","","","","",""
"950.9699999908917","","image-keyboard-response","475","1083170","0.0-6.0-0.85","","img/purple.png","32","trial","32","true","0.8,0.2","3:go_c","",""
"null","","html-keyboard-response","476","1084174","0.0-6.0-1.85","","<img src=""img/purple-r.png"" border=""10"">","null","trial","32","","0.8,0.2","3:go_c","1",""
"null","","html-keyboard-response","477","1085176","0.0-6.0-2.85","","<div style=""font-size:60px;"">+</div>","null","","","","","","",""
"null","","image-keyboard-response","478","1086686","0.0-6.0-0.86","","img/grey.png","null","trial","null","true","0.2,0.8","4:nogo_d","",""
"null","","html-keyboard-response","479","1087687","0.0-6.0-1.86","","<img src=""img/grey-r.png"">","null","trial","null","","0.2,0.8","4:nogo_d","1",""
"null","","html-keyboard-response","480","1088688","0.0-6.0-2.86","","<div style=""font-size:60px;"">+</div>","null","","","","","","",""
"null","","image-keyboard-response","481","1090193","0.0-6.0-0.87","","img/yellow.png","null","trial","null","true","0.2,0.8","2:nogo_b","",""
"null","","html-keyboard-response","482","1091196","0.0-6.0-1.87","","<img src=""img/yellow-r.png"">","null","trial","null","","0.2,0.8","2:nogo_b","1",""
"null","","html-keyboard-response","483","1092205","0.0-6.0-2.87","","<div style=""font-size:60px;"">+</div>","null","","","","","","",""
"676.6950000019278","","image-keyboard-response","484","1092883","0.0-6.0-0.88","","img/pink.png","32","trial","32","true","0.8,0.2","1:go_a","",""
"null","","html-keyboard-response","485","1093890","0.0-6.0-1.88","","<img src=""img/pink-r.png"" border=""10"">","null","trial","32","","0.8,0.2","1:go_a","1",""
"null","","html-keyboard-response","486","1094906","0.0-6.0-2.88","","<div style=""font-size:60px;"">+</div>","null","","","","","","",""
"null","","image-keyboard-response","487","1096420","0.0-6.0-0.89","","img/yellow.png","null","trial","null","true","0.2,0.8","2:nogo_b","",""
"null","","html-keyboard-response","488","1097436","0.0-6.0-1.89","","<img src=""img/yellow-r.png"">","null","trial","null","","0.2,0.8","2:nogo_b","1",""
"null","","html-keyboard-response","489","1098452","0.0-6.0-2.89","","<div style=""font-size:60px;"">+</div>","null","","","","","","",""
"997.8649999974295","","image-keyboard-response","490","1099451","0.0-6.0-0.90","","img/purple.png","32","trial","32","true","0.8,0.2","3:go_c","",""
"null","","html-keyboard-response","491","1100452","0.0-6.0-1.90","","<img src=""img/purple-n.png"" border=""10"">","null","trial","32","","0.8,0.2","3:go_c","0",""
"null","","html-keyboard-response","492","1101464","0.0-6.0-2.90","","<div style=""font-size:60px;"">+</div>","null","","","","","","",""
"null","","image-keyboard-response","493","1102977","0.0-6.0-0.91","","img/grey.png","null","trial","null","true","0.2,0.8","4:nogo_d","",""
"null","","html-keyboard-response","494","1103987","0.0-6.0-1.91","","<img src=""img/grey-r.png"">","null","trial","null","","0.2,0.8","4:nogo_d","1",""
"null","","html-keyboard-response","495","1104991","0.0-6.0-2.91","","<div style=""font-size:60px;"">+</div>","null","","","","","","",""
"null","","image-keyboard-response","496","1106493","0.0-6.0-0.92","","img/grey.png","null","trial","null","true","0.2,0.8","4:nogo_d","",""
"null","","html-keyboard-response","497","1107509","0.0-6.0-1.92","","<img src=""img/grey-n.png"">","null","trial","null","","0.2,0.8","4:nogo_d","0",""
"null","","html-keyboard-response","498","1108524","0.0-6.0-2.92","","<div style=""font-size:60px;"">+</div>","null","","","","","","",""
"885.9550000051968","","image-keyboard-response","499","1109411","0.0-6.0-0.93","","img/purple.png","32","trial","32","true","0.8,0.2","3:go_c","",""
"null","","html-keyboard-response","500","1110420","0.0-6.0-1.93","","<img src=""img/purple-n.png"" border=""10"">","null","trial","32","","0.8,0.2","3:go_c","0",""
"null","","html-keyboard-response","501","1111422","0.0-6.0-2.93","","<div style=""font-size:60px;"">+</div>","null","","","","","","",""
"515.9550000098534","","image-keyboard-response","502","1111939","0.0-6.0-0.94","","img/pink.png","32","trial","32","true","0.8,0.2","1:go_a","",""
"null","","html-keyboard-response","503","1112944","0.0-6.0-1.94","","<img src=""img/pink-n.png"" border=""10"">","null","trial","32","","0.8,0.2","1:go_a","0",""
"null","","html-keyboard-response","504","1113952","0.0-6.0-2.94","","<div style=""font-size:60px;"">+</div>","null","","","","","","",""
"null","","image-keyboard-response","505","1115465","0.0-6.0-0.95","","img/yellow.png","null","trial","null","true","0.2,0.8","2:nogo_b","",""
"null","","html-keyboard-response","506","1116473","0.0-6.0-1.95","","<img src=""img/yellow-n.png"">","null","trial","null","","0.2,0.8","2:nogo_b","0",""
"null","","html-keyboard-response","507","1117474","0.0-6.0-2.95","","<div style=""font-size:60px;"">+</div>","null","","","","","","",""
"616.0649999948218","","image-keyboard-response","508","1118091","0.0-6.0-0.96","","img/pink.png","32","trial","32","true","0.8,0.2","1:go_a","",""
"null","","html-keyboard-response","509","1119092","0.0-6.0-1.96","","<img src=""img/pink-r.png"" border=""10"">","null","trial","32","","0.8,0.2","1:go_a","1",""
"null","","html-keyboard-response","510","1120094","0.0-6.0-2.96","","<div style=""font-size:60px;"">+</div>","null","","","","","","",""
"null","","image-keyboard-response","511","1121594","0.0-6.0-0.97","","img/yellow.png","null","trial","null","true","0.2,0.8","2:nogo_b","",""
"null","","html-keyboard-response","512","1122596","0.0-6.0-1.97","","<img src=""img/yellow-r.png"">","null","trial","null","","0.2,0.8","2:nogo_b","1",""
"null","","html-keyboard-response","513","1123598","0.0-6.0-2.97","","<div style=""font-size:60px;"">+</div>","null","","","","","","",""
"null","","image-keyboard-response","514","1125099","0.0-6.0-0.98","","img/grey.png","null","trial","null","true","0.2,0.8","4:nogo_d","",""
"null","","html-keyboard-response","515","1126101","0.0-6.0-1.98","","<img src=""img/grey-r.png"">","null","trial","null","","0.2,0.8","4:nogo_d","1",""
"null","","html-keyboard-response","516","1127102","0.0-6.0-2.98","","<div style=""font-size:60px;"">+</div>","null","","","","","","",""
"580.8050000050571","","image-keyboard-response","517","1127684","0.0-6.0-0.99","","img/purple.png","32","trial","32","true","0.8,0.2","3:go_c","",""
"null","","html-keyboard-response","518","1128685","0.0-6.0-1.99","","<img src=""img/purple-r.png"" border=""10"">","null","trial","32","","0.8,0.2","3:go_c","1",""
"null","","html-keyboard-response","519","1129689","0.0-6.0-2.99","","<div style=""font-size:60px;"">+</div>","null","","","","","","",""
"898.0250000022352","","image-keyboard-response","520","1130588","0.0-6.0-0.100","","img/purple.png","32","trial","32","true","0.8,0.2","3:go_c","",""
"null","","html-keyboard-response","521","1131589","0.0-6.0-1.100","","<img src=""img/purple-r.png"" border=""10"">","null","trial","32","","0.8,0.2","3:go_c","1",""
"null","","html-keyboard-response","522","1132591","0.0-6.0-2.100","","<div style=""font-size:60px;"">+</div>","null","","","","","","",""
"null","","image-keyboard-response","523","1134092","0.0-6.0-0.101","","img/grey.png","null","trial","null","true","0.2,0.8","4:nogo_d","",""
"null","","html-keyboard-response","524","1135096","0.0-6.0-1.101","","<img src=""img/grey-r.png"">","null","trial","null","","0.2,0.8","4:nogo_d","1",""
"null","","html-keyboard-response","525","1136097","0.0-6.0-2.101","","<div style=""font-size:60px;"">+</div>","null","","","","","","",""
"null","","image-keyboard-response","526","1137598","0.0-6.0-0.102","","img/yellow.png","null","trial","null","true","0.2,0.8","2:nogo_b","",""
"null","","html-keyboard-response","527","1138599","0.0-6.0-1.102","","<img src=""img/yellow-r.png"">","null","trial","null","","0.2,0.8","2:nogo_b","1",""
"null","","html-keyboard-response","528","1139600","0.0-6.0-2.102","","<div style=""font-size:60px;"">+</div>","null","","","","","","",""
"923.0250000110827","","image-keyboard-response","529","1140524","0.0-6.0-0.103","","img/pink.png","32","trial","32","true","0.8,0.2","1:go_a","",""
"null","","html-keyboard-response","530","1141539","0.0-6.0-1.103","","<img src=""img/pink-r.png"" border=""10"">","null","trial","32","","0.8,0.2","1:go_a","1",""
"null","","html-keyboard-response","531","1142554","0.0-6.0-2.103","","<div style=""font-size:60px;"">+</div>","null","","","","","","",""
"625.3750000032596","","image-keyboard-response","532","1143180","0.0-6.0-0.104","","img/pink.png","32","trial","32","true","0.8,0.2","1:go_a","",""
"null","","html-keyboard-response","533","1144182","0.0-6.0-1.104","","<img src=""img/pink-r.png"" border=""10"">","null","trial","32","","0.8,0.2","1:go_a","1",""
"null","","html-keyboard-response","534","1145183","0.0-6.0-2.104","","<div style=""font-size:60px;"">+</div>","null","","","","","","",""
"null","","image-keyboard-response","535","1146687","0.0-6.0-0.105","","img/yellow.png","null","trial","null","true","0.2,0.8","2:nogo_b","",""
"null","","html-keyboard-response","536","1147694","0.0-6.0-1.105","","<img src=""img/yellow-r.png"">","null","trial","null","","0.2,0.8","2:nogo_b","1",""
"null","","html-keyboard-response","537","1148695","0.0-6.0-2.105","","<div style=""font-size:60px;"">+</div>","null","","","","","","",""
"532.3700000008103","","image-keyboard-response","538","1149228","0.0-6.0-0.106","","img/purple.png","32","trial","32","true","0.8,0.2","3:go_c","",""
"null","","html-keyboard-response","539","1150244","0.0-6.0-1.106","","<img src=""img/purple-r.png"" border=""10"">","null","trial","32","","0.8,0.2","3:go_c","1",""
"null","","html-keyboard-response","540","1151245","0.0-6.0-2.106","","<div style=""font-size:60px;"">+</div>","null","","","","","","",""
"null","","image-keyboard-response","541","1152755","0.0-6.0-0.107","","img/grey.png","null","trial","null","true","0.2,0.8","4:nogo_d","",""
"null","","html-keyboard-response","542","1153768","0.0-6.0-1.107","","<img src=""img/grey-r.png"">","null","trial","null","","0.2,0.8","4:nogo_d","1",""
"null","","html-keyboard-response","543","1154777","0.0-6.0-2.107","","<div style=""font-size:60px;"">+</div>","null","","","","","","",""
"null","","image-keyboard-response","544","1156280","0.0-6.0-0.108","","img/grey.png","null","trial","null","true","0.2,0.8","4:nogo_d","",""
"null","","html-keyboard-response","545","1157288","0.0-6.0-1.108","","<img src=""img/grey-r.png"">","null","trial","null","","0.2,0.8","4:nogo_d","1",""
"null","","html-keyboard-response","546","1158289","0.0-6.0-2.108","","<div style=""font-size:60px;"">+</div>","null","","","","","","",""
"843.0550000048243","","image-keyboard-response","547","1159133","0.0-6.0-0.109","","img/purple.png","32","trial","32","true","0.8,0.2","3:go_c","",""
"null","","html-keyboard-response","548","1160137","0.0-6.0-1.109","","<img src=""img/purple-r.png"" border=""10"">","null","trial","32","","0.8,0.2","3:go_c","1",""
"null","","html-keyboard-response","549","1161152","0.0-6.0-2.109","","<div style=""font-size:60px;"">+</div>","null","","","","","","",""
"1044.074999997858","","image-keyboard-response","550","1162196","0.0-6.0-0.110","","img/pink.png","32","trial","32","true","0.8,0.2","1:go_a","",""
"null","","html-keyboard-response","551","1163212","0.0-6.0-1.110","","<img src=""img/pink-r.png"" border=""10"">","null","trial","32","","0.8,0.2","1:go_a","1",""
"null","","html-keyboard-response","552","1164225","0.0-6.0-2.110","","<div style=""font-size:60px;"">+</div>","null","","","","","","",""
"null","","image-keyboard-response","553","1165727","0.0-6.0-0.111","","img/yellow.png","null","trial","null","true","0.2,0.8","2:nogo_b","",""
"null","","html-keyboard-response","554","1166734","0.0-6.0-1.111","","<img src=""img/yellow-r.png"">","null","trial","null","","0.2,0.8","2:nogo_b","1",""
"null","","html-keyboard-response","555","1167742","0.0-6.0-2.111","","<div style=""font-size:60px;"">+</div>","null","","","","","","",""
"565.9750000049826","","image-keyboard-response","556","1168309","0.0-6.0-0.112","","img/purple.png","32","trial","32","true","0.8,0.2","3:go_c","",""
"null","","html-keyboard-response","557","1169319","0.0-6.0-1.112","","<img src=""img/purple-r.png"" border=""10"">","null","trial","32","","0.8,0.2","3:go_c","1",""
"null","","html-keyboard-response","558","1170326","0.0-6.0-2.112","","<div style=""font-size:60px;"">+</div>","null","","","","","","",""
"null","","image-keyboard-response","559","1171834","0.0-6.0-0.113","","img/grey.png","null","trial","null","true","0.2,0.8","4:nogo_d","",""
"null","","html-keyboard-response","560","1172838","0.0-6.0-1.113","","<img src=""img/grey-r.png"">","null","trial","null","","0.2,0.8","4:nogo_d","1",""
"null","","html-keyboard-response","561","1173847","0.0-6.0-2.113","","<div style=""font-size:60px;"">+</div>","null","","","","","","",""
"949.665000007255","","image-keyboard-response","562","1174797","0.0-6.0-0.114","","img/pink.png","32","trial","32","true","0.8,0.2","1:go_a","",""
"null","","html-keyboard-response","563","1175798","0.0-6.0-1.114","","<img src=""img/pink-n.png"" border=""10"">","null","trial","32","","0.8,0.2","1:go_a","0",""
"null","","html-keyboard-response","564","1176799","0.0-6.0-2.114","","<div style=""font-size:60px;"">+</div>","null","","","","","","",""
"null","","image-keyboard-response","565","1178309","0.0-6.0-0.115","","img/yellow.png","null","trial","null","true","0.2,0.8","2:nogo_b","",""
"null","","html-keyboard-response","566","1179325","0.0-6.0-1.115","","<img src=""img/yellow-r.png"">","null","trial","null","","0.2,0.8","2:nogo_b","1",""
"null","","html-keyboard-response","567","1180339","0.0-6.0-2.115","","<div style=""font-size:60px;"">+</div>","null","","","","","","",""
"null","","image-keyboard-response","568","1181844","0.0-6.0-0.116","","img/yellow.png","null","trial","null","true","0.2,0.8","2:nogo_b","",""
"null","","html-keyboard-response","569","1182851","0.0-6.0-1.116","","<img src=""img/yellow-r.png"">","null","trial","null","","0.2,0.8","2:nogo_b","1",""
"null","","html-keyboard-response","570","1183867","0.0-6.0-2.116","","<div style=""font-size:60px;"">+</div>","null","","","","","","",""
"753.9149999939837","","image-keyboard-response","571","1184621","0.0-6.0-0.117","","img/purple.png","32","trial","32","true","0.8,0.2","3:go_c","",""
"null","","html-keyboard-response","572","1185631","0.0-6.0-1.117","","<img src=""img/purple-r.png"" border=""10"">","null","trial","32","","0.8,0.2","3:go_c","1",""
"null","","html-keyboard-response","573","1186639","0.0-6.0-2.117","","<div style=""font-size:60px;"">+</div>","null","","","","","","",""
"null","","image-keyboard-response","574","1188146","0.0-6.0-0.118","","img/grey.png","null","trial","null","true","0.2,0.8","4:nogo_d","",""
"null","","html-keyboard-response","575","1189162","0.0-6.0-1.118","","<img src=""img/grey-r.png"">","null","trial","null","","0.2,0.8","4:nogo_d","1",""
"null","","html-keyboard-response","576","1190164","0.0-6.0-2.118","","<div style=""font-size:60px;"">+</div>","null","","","","","","",""
"673.3899999961723","","image-keyboard-response","577","1190838","0.0-6.0-0.119","","img/pink.png","32","trial","32","true","0.8,0.2","1:go_a","",""
"null","","html-keyboard-response","578","1191855","0.0-6.0-1.119","","<img src=""img/pink-r.png"" border=""10"">","null","trial","32","","0.8,0.2","1:go_a","1",""
"null","","html-keyboard-response","579","1192861","0.0-6.0-2.119","","<div style=""font-size:60px;"">+</div>","null","","","","","","",""
"115127.63000000268","","instructions","580","1307988","0.0-7.0","[{""page_index"":0,""viewing_time"":115127.3499999952}]","","","","","","","","",""
"946.4849999928847","","image-keyboard-response","581","1308936","0.0-8.0-0.0","","img/orange.png","32","trial","null","false","0.4,0.6","4:nogo_d","",""
"null","","html-keyboard-response","582","1309942","0.0-8.0-1.0","","<img src=""img/orange-r.png"" border=""10"">","null","trial","null","","0.4,0.6","4:nogo_d","1",""
"null","","html-keyboard-response","583","1310946","0.0-8.0-2.0","","<div style=""font-size:60px;"">+</div>","null","","","","","","",""
"813.7149999965914","","image-keyboard-response","584","1311760","0.0-8.0-0.1","","img/green.png","32","trial","null","false","0.2,0.8","2:nogo_b","",""
"null","","html-keyboard-response","585","1312763","0.0-8.0-1.1","","<img src=""img/green-n.png"" border=""10"">","null","trial","null","","0.2,0.8","2:nogo_b","0",""
"null","","html-keyboard-response","586","1313778","0.0-8.0-2.1","","<div style=""font-size:60px;"">+</div>","null","","","","","","",""
"933.6699999985285","","image-keyboard-response","587","1314713","0.0-8.0-0.2","","img/red.png","32","trial","32","true","0.6,0.4","3:go_c","",""
"null","","html-keyboard-response","588","1315721","0.0-8.0-1.2","","<img src=""img/red-r.png"" border=""10"">","null","trial","32","","0.6,0.4","3:go_c","1",""
"null","","html-keyboard-response","589","1316723","0.0-8.0-2.2","","<div style=""font-size:60px;"">+</div>","null","","","","","","",""
"null","","image-keyboard-response","590","1318234","0.0-8.0-0.3","","img/yellow.png","null","trial","32","false","0.8,0.2","1:go_a","",""
"null","","html-keyboard-response","591","1319240","0.0-8.0-1.3","","<img src=""img/yellow-n.png"">","null","trial","32","","0.8,0.2","1:go_a","0",""
"null","","html-keyboard-response","592","1320242","0.0-8.0-2.3","","<div style=""font-size:60px;"">+</div>","null","","","","","","",""
"653.5650000006426","","image-keyboard-response","593","1320897","0.0-8.0-0.4","","img/red.png","32","trial","32","true","0.6,0.4","3:go_c","",""
"null","","html-keyboard-response","594","1321901","0.0-8.0-1.4","","<img src=""img/red-r.png"" border=""10"">","null","trial","32","","0.6,0.4","3:go_c","1",""
"null","","html-keyboard-response","595","1322910","0.0-8.0-2.4","","<div style=""font-size:60px;"">+</div>","null","","","","","","",""
"769.6850000065751","","image-keyboard-response","596","1323681","0.0-8.0-0.5","","img/yellow.png","32","trial","32","true","0.8,0.2","1:go_a","",""
"null","","html-keyboard-response","597","1324683","0.0-8.0-1.5","","<img src=""img/yellow-r.png"" border=""10"">","null","trial","32","","0.8,0.2","1:go_a","1",""
"null","","html-keyboard-response","598","1325684","0.0-8.0-2.5","","<div style=""font-size:60px;"">+</div>","null","","","","","","",""
"788.3650000004563","","image-keyboard-response","599","1326473","0.0-8.0-0.6","","img/orange.png","32","trial","null","false","0.4,0.6","4:nogo_d","",""
"null","","html-keyboard-response","600","1327474","0.0-8.0-1.6","","<img src=""img/orange-n.png"" border=""10"">","null","trial","null","","0.4,0.6","4:nogo_d","0",""
"null","","html-keyboard-response","601","1328477","0.0-8.0-2.6","","<div style=""font-size:60px;"">+</div>","null","","","","","","",""
"null","","image-keyboard-response","602","1329979","0.0-8.0-0.7","","img/green.png","null","trial","null","true","0.2,0.8","2:nogo_b","",""
"null","","html-keyboard-response","603","1330987","0.0-8.0-1.7","","<img src=""img/green-r.png"">","null","trial","null","","0.2,0.8","2:nogo_b","1",""
"null","","html-keyboard-response","604","1332003","0.0-8.0-2.7","","<div style=""font-size:60px;"">+</div>","null","","","","","","",""
"1068.805000002496","","image-keyboard-response","605","1333073","0.0-8.0-0.8","","img/orange.png","32","trial","null","false","0.4,0.6","4:nogo_d","",""
"null","","html-keyboard-response","606","1334079","0.0-8.0-1.8","","<img src=""img/orange-r.png"" border=""10"">","null","trial","null","","0.4,0.6","4:nogo_d","1",""
"null","","html-keyboard-response","607","1335084","0.0-8.0-2.8","","<div style=""font-size:60px;"">+</div>","null","","","","","","",""
"1116.5049999982584","","image-keyboard-response","608","1336201","0.0-8.0-0.9","","img/green.png","32","trial","null","false","0.2,0.8","2:nogo_b","",""
"null","","html-keyboard-response","609","1337212","0.0-8.0-1.9","","<img src=""img/green-n.png"" border=""10"">","null","trial","null","","0.2,0.8","2:nogo_b","0",""
"null","","html-keyboard-response","610","1338214","0.0-8.0-2.9","","<div style=""font-size:60px;"">+</div>","null","","","","","","",""
"null","","image-keyboard-response","611","1339724","0.0-8.0-0.10","","img/yellow.png","null","trial","32","false","0.8,0.2","1:go_a","",""
"null","","html-keyboard-response","612","1340733","0.0-8.0-1.10","","<img src=""img/yellow-r.png"">","null","trial","32","","0.8,0.2","1:go_a","1",""
"null","","html-keyboard-response","613","1341740","0.0-8.0-2.10","","<div style=""font-size:60px;"">+</div>","null","","","","","","",""
"716.710000007879","","image-keyboard-response","614","1342457","0.0-8.0-0.11","","img/red.png","32","trial","32","true","0.6,0.4","3:go_c","",""
"null","","html-keyboard-response","615","1343472","0.0-8.0-1.11","","<img src=""img/red-n.png"" border=""10"">","null","trial","32","","0.6,0.4","3:go_c","0",""
"null","","html-keyboard-response","616","1344477","0.0-8.0-2.11","","<div style=""font-size:60px;"">+</div>","null","","","","","","",""
"1180.1800000101794","","image-keyboard-response","617","1345658","0.0-8.0-0.12","","img/green.png","32","trial","null","false","0.2,0.8","2:nogo_b","",""
"null","","html-keyboard-response","618","1346674","0.0-8.0-1.12","","<img src=""img/green-n.png"" border=""10"">","null","trial","null","","0.2,0.8","2:nogo_b","0",""
"null","","html-keyboard-response","619","1347687","0.0-8.0-2.12","","<div style=""font-size:60px;"">+</div>","null","","","","","","",""
"697.6449999930337","","image-keyboard-response","620","1348386","0.0-8.0-0.13","","img/orange.png","32","trial","null","false","0.4,0.6","4:nogo_d","",""
"null","","html-keyboard-response","621","1349403","0.0-8.0-1.13","","<img src=""img/orange-n.png"" border=""10"">","null","trial","null","","0.4,0.6","4:nogo_d","0",""
"null","","html-keyboard-response","622","1350412","0.0-8.0-2.13","","<div style=""font-size:60px;"">+</div>","null","","","","","","",""
"516.8949999932665","","image-keyboard-response","623","1350930","0.0-8.0-0.14","","img/red.png","32","trial","32","true","0.6,0.4","3:go_c","",""
"null","","html-keyboard-response","624","1351931","0.0-8.0-1.14","","<img src=""img/red-r.png"" border=""10"">","null","trial","32","","0.6,0.4","3:go_c","1",""
"null","","html-keyboard-response","625","1352940","0.0-8.0-2.14","","<div style=""font-size:60px;"">+</div>","null","","","","","","",""
"null","","image-keyboard-response","626","1354451","0.0-8.0-0.15","","img/yellow.png","null","trial","32","false","0.8,0.2","1:go_a","",""
"null","","html-keyboard-response","627","1355467","0.0-8.0-1.15","","<img src=""img/yellow-n.png"">","null","trial","32","","0.8,0.2","1:go_a","0",""
"null","","html-keyboard-response","628","1356482","0.0-8.0-2.15","","<div style=""font-size:60px;"">+</div>","null","","","","","","",""
"654.7949999948032","","image-keyboard-response","629","1357138","0.0-8.0-0.16","","img/red.png","32","trial","32","true","0.6,0.4","3:go_c","",""
"null","","html-keyboard-response","630","1358146","0.0-8.0-1.16","","<img src=""img/red-r.png"" border=""10"">","null","trial","32","","0.6,0.4","3:go_c","1",""
"null","","html-keyboard-response","631","1359161","0.0-8.0-2.16","","<div style=""font-size:60px;"">+</div>","null","","","","","","",""
"1119.8149999980815","","image-keyboard-response","632","1360282","0.0-8.0-0.17","","img/yellow.png","32","trial","32","true","0.8,0.2","1:go_a","",""
"null","","html-keyboard-response","633","1361298","0.0-8.0-1.17","","<img src=""img/yellow-r.png"" border=""10"">","null","trial","32","","0.8,0.2","1:go_a","1",""
"null","","html-keyboard-response","634","1362308","0.0-8.0-2.17","","<div style=""font-size:60px;"">+</div>","null","","","","","","",""
"null","","image-keyboard-response","635","1363820","0.0-8.0-0.18","","img/orange.png","null","trial","null","true","0.4,0.6","4:nogo_d","",""
"null","","html-keyboard-response","636","1364835","0.0-8.0-1.18","","<img src=""img/orange-n.png"">","null","trial","null","","0.4,0.6","4:nogo_d","0",""
"null","","html-keyboard-response","637","1365851","0.0-8.0-2.18","","<div style=""font-size:60px;"">+</div>","null","","","","","","",""
"null","","image-keyboard-response","638","1367365","0.0-8.0-0.19","","img/green.png","null","trial","null","true","0.2,0.8","2:nogo_b","",""
"null","","html-keyboard-response","639","1368379","0.0-8.0-1.19","","<img src=""img/green-r.png"">","null","trial","null","","0.2,0.8","2:nogo_b","1",""
"null","","html-keyboard-response","640","1369387","0.0-8.0-2.19","","<div style=""font-size:60px;"">+</div>","null","","","","","","",""
"null","","image-keyboard-response","641","1370901","0.0-8.0-0.20","","img/green.png","null","trial","null","true","0.2,0.8","2:nogo_b","",""
"null","","html-keyboard-response","642","1371905","0.0-8.0-1.20","","<img src=""img/green-n.png"">","null","trial","null","","0.2,0.8","2:nogo_b","0",""
"null","","html-keyboard-response","643","1372907","0.0-8.0-2.20","","<div style=""font-size:60px;"">+</div>","null","","","","","","",""
"null","","image-keyboard-response","644","1374419","0.0-8.0-0.21","","img/yellow.png","null","trial","32","false","0.8,0.2","1:go_a","",""
"null","","html-keyboard-response","645","1375433","0.0-8.0-1.21","","<img src=""img/yellow-n.png"">","null","trial","32","","0.8,0.2","1:go_a","0",""
"null","","html-keyboard-response","646","1376436","0.0-8.0-2.21","","<div style=""font-size:60px;"">+</div>","null","","","","","","",""
"950.4000000015367","","image-keyboard-response","647","1377387","0.0-8.0-0.22","","img/orange.png","32","trial","null","false","0.4,0.6","4:nogo_d","",""
"null","","html-keyboard-response","648","1378392","0.0-8.0-1.22","","<img src=""img/orange-r.png"" border=""10"">","null","trial","null","","0.4,0.6","4:nogo_d","1",""
"null","","html-keyboard-response","649","1379410","0.0-8.0-2.22","","<div style=""font-size:60px;"">+</div>","null","","","","","","",""
"480.08500000298955","","image-keyboard-response","650","1379891","0.0-8.0-0.23","","img/red.png","32","trial","32","true","0.6,0.4","3:go_c","",""
"null","","html-keyboard-response","651","1380895","0.0-8.0-1.23","","<img src=""img/red-r.png"" border=""10"">","null","trial","32","","0.6,0.4","3:go_c","1",""
"null","","html-keyboard-response","652","1381906","0.0-8.0-2.23","","<div style=""font-size:60px;"">+</div>","null","","","","","","",""
"464.2100000055507","","image-keyboard-response","653","1382371","0.0-8.0-0.24","","img/yellow.png","32","trial","32","true","0.8,0.2","1:go_a","",""
"null","","html-keyboard-response","654","1383373","0.0-8.0-1.24","","<img src=""img/yellow-r.png"" border=""10"">","null","trial","32","","0.8,0.2","1:go_a","1",""
"null","","html-keyboard-response","655","1384377","0.0-8.0-2.24","","<div style=""font-size:60px;"">+</div>","null","","","","","","",""
"null","","image-keyboard-response","656","1385886","0.0-8.0-0.25","","img/green.png","null","trial","null","true","0.2,0.8","2:nogo_b","",""
"null","","html-keyboard-response","657","1386897","0.0-8.0-1.25","","<img src=""img/green-r.png"">","null","trial","null","","0.2,0.8","2:nogo_b","1",""
"null","","html-keyboard-response","658","1387908","0.0-8.0-2.25","","<div style=""font-size:60px;"">+</div>","null","","","","","","",""
"398.2899999974761","","image-keyboard-response","659","1388307","0.0-8.0-0.26","","img/orange.png","32","trial","null","false","0.4,0.6","4:nogo_d","",""
"null","","html-keyboard-response","660","1389323","0.0-8.0-1.26","","<img src=""img/orange-n.png"" border=""10"">","null","trial","null","","0.4,0.6","4:nogo_d","0",""
"null","","html-keyboard-response","661","1390339","0.0-8.0-2.26","","<div style=""font-size:60px;"">+</div>","null","","","","","","",""
"511.2650000085123","","image-keyboard-response","662","1390851","0.0-8.0-0.27","","img/red.png","32","trial","32","true","0.6,0.4","3:go_c","",""
"null","","html-keyboard-response","663","1391861","0.0-8.0-1.27","","<img src=""img/red-r.png"" border=""10"">","null","trial","32","","0.6,0.4","3:go_c","1",""
"null","","html-keyboard-response","664","1392866","0.0-8.0-2.27","","<div style=""font-size:60px;"">+</div>","null","","","","","","",""
"624.6450000035111","","image-keyboard-response","665","1393491","0.0-8.0-0.28","","img/red.png","32","trial","32","true","0.6,0.4","3:go_c","",""
"null","","html-keyboard-response","666","1394505","0.0-8.0-1.28","","<img src=""img/red-r.png"" border=""10"">","null","trial","32","","0.6,0.4","3:go_c","1",""
"null","","html-keyboard-response","667","1395514","0.0-8.0-2.28","","<div style=""font-size:60px;"">+</div>","null","","","","","","",""
"null","","image-keyboard-response","668","1397018","0.0-8.0-0.29","","img/green.png","null","trial","null","true","0.2,0.8","2:nogo_b","",""
"null","","html-keyboard-response","669","1398023","0.0-8.0-1.29","","<img src=""img/green-n.png"">","null","trial","null","","0.2,0.8","2:nogo_b","0",""
"null","","html-keyboard-response","670","1399025","0.0-8.0-2.29","","<div style=""font-size:60px;"">+</div>","null","","","","","","",""
"778.3049999999348","","image-keyboard-response","671","1399804","0.0-8.0-0.30","","img/yellow.png","32","trial","32","true","0.8,0.2","1:go_a","",""
"null","","html-keyboard-response","672","1400806","0.0-8.0-1.30","","<img src=""img/yellow-r.png"" border=""10"">","null","trial","32","","0.8,0.2","1:go_a","1",""
"null","","html-keyboard-response","673","1401818","0.0-8.0-2.30","","<div style=""font-size:60px;"">+</div>","null","","","","","","",""
"824.4600000034552","","image-keyboard-response","674","1402644","0.0-8.0-0.31","","img/orange.png","32","trial","null","false","0.4,0.6","4:nogo_d","",""
"null","","html-keyboard-response","675","1403656","0.0-8.0-1.31","","<img src=""img/orange-r.png"" border=""10"">","null","trial","null","","0.4,0.6","4:nogo_d","1",""
"null","","html-keyboard-response","676","1404660","0.0-8.0-2.31","","<div style=""font-size:60px;"">+</div>","null","","","","","","",""
"726.9049999886192","","image-keyboard-response","677","1405388","0.0-8.0-0.32","","img/orange.png","32","trial","null","false","0.4,0.6","4:nogo_d","",""
"null","","html-keyboard-response","678","1406396","0.0-8.0-1.32","","<img src=""img/orange-r.png"" border=""10"">","null","trial","null","","0.4,0.6","4:nogo_d","1",""
