"rt","url","trial_type","trial_index","time_elapsed","internal_node_id","view_history","stimulus","key_press","test_part","correct_response","correct","use_rew","which_stim","reward","responses"
"3934.1849999909755","consent.html","external-html","0","4041","0.0-0.0","","","","","","","","","",""
"383741.0300000047","","instructions","1","387783","0.0-1.0","[{""page_index"":0,""viewing_time"":5263.785000002827},{""page_index"":1,""viewing_time"":35641.40000000771},{""page_index"":2,""viewing_time"":14295.65499999444},{""page_index"":3,""viewing_time"":51821.140000000014},{""page_index"":4,""viewing_time"":200137.7199999988},{""page_index"":5,""viewing_time"":6876.000000003842},{""page_index"":6,""viewing_time"":69693.74499999685}]","","","","","","","","",""
"null","","image-keyboard-response","2","389288","0.0-2.0-0.0","","img/test2.PNG","null","practice","null","true","","","",""
"null","","html-keyboard-response","3","390294","0.0-2.0-1.0","","<img src=""img/test2-reward.PNG"">","null","","","","","","",""
"null","","html-keyboard-response","4","391306","0.0-2.0-2.0","","<div style=""font-size:60px;"">+</div>","null","","","","","","",""
"null","","image-keyboard-response","5","392811","0.0-2.0-0.1","","img/test3.PNG","null","practice","null","true","","","",""
"null","","html-keyboard-response","6","393819","0.0-2.0-1.1","","<img src=""img/test3-reward.PNG"">","null","","","","","","",""
"null","","html-keyboard-response","7","394828","0.0-2.0-2.1","","<div style=""font-size:60px;"">+</div>","null","","","","","","",""
"355.9250000107568","","image-keyboard-response","8","395187","0.0-2.0-0.2","","img/test1.PNG","32","practice","32","true","","","",""
"null","","html-keyboard-response","9","396207","0.0-2.0-1.2","","<img src=""img/test1-reward.PNG"" border=""10px; grey"">","null","","","","","","",""
"null","","html-keyboard-response","10","397212","0.0-2.0-2.2","","<div style=""font-size:60px;"">+</div>","null","","","","","","",""
"616.9200000003912","","image-keyboard-response","11","397832","0.0-2.0-0.3","","img/test1.PNG","32","practice","32","true","","","",""
"null","","html-keyboard-response","12","398847","0.0-2.0-1.3","","<img src=""img/test1-reward.PNG"" border=""10px; grey"">","null","","","","","","",""
"null","","html-keyboard-response","13","399849","0.0-2.0-2.3","","<div style=""font-size:60px;"">+</div>","null","","","","","","",""
"null","","image-keyboard-response","14","401358","0.0-2.0-0.4","","img/test3.PNG","null","practice","null","true","","","",""
"null","","html-keyboard-response","15","402361","0.0-2.0-1.4","","<img src=""img/test3-reward.PNG"">","null","","","","","","",""
"null","","html-keyboard-response","16","403370","0.0-2.0-2.4","","<div style=""font-size:60px;"">+</div>","null","","","","","","",""
"null","","image-keyboard-response","17","404877","0.0-2.0-0.5","","img/test2.PNG","null","practice","null","true","","","",""
"null","","html-keyboard-response","18","405884","0.0-2.0-1.5","","<img src=""img/test2-reward.PNG"">","null","","","","","","",""
"null","","html-keyboard-response","19","406898","0.0-2.0-2.5","","<div style=""font-size:60px;"">+</div>","null","","","","","","",""
"330.39499999722466","","image-keyboard-response","20","407231","0.0-2.0-0.6","","img/test1.PNG","32","practice","32","true","","","",""
"null","","html-keyboard-response","21","408237","0.0-2.0-1.6","","<img src=""img/test1-reward.PNG"" border=""10px; grey"">","null","","","","","","",""
"null","","html-keyboard-response","22","409245","0.0-2.0-2.6","","<div style=""font-size:60px;"">+</div>","null","","","","","","",""
"null","","image-keyboard-response","23","410760","0.0-2.0-0.7","","img/test3.PNG","null","practice","null","true","","","",""
"null","","html-keyboard-response","24","411765","0.0-2.0-1.7","","<img src=""img/test3-reward.PNG"">","null","","","","","","",""
"null","","html-keyboard-response","25","412770","0.0-2.0-2.7","","<div style=""font-size:60px;"">+</div>","null","","","","","","",""
"null","","image-keyboard-response","26","414288","0.0-2.0-0.8","","img/test2.PNG","null","practice","null","true","","","",""
"null","","html-keyboard-response","27","415293","0.0-2.0-1.8","","<img src=""img/test2-reward.PNG"">","null","","","","","","",""
"null","","html-keyboard-response","28","416305","0.0-2.0-2.8","","<div style=""font-size:60px;"">+</div>","null","","","","","","",""
"null","","image-keyboard-response","29","417816","0.0-2.0-0.9","","img/test3.PNG","null","practice","null","true","","","",""
"null","","html-keyboard-response","30","418825","0.0-2.0-1.9","","<img src=""img/test3-reward.PNG"">","null","","","","","","",""
"null","","html-keyboard-response","31","419846","0.0-2.0-2.9","","<div style=""font-size:60px;"">+</div>","null","","","","","","",""
"null","","image-keyboard-response","32","421350","0.0-2.0-0.10","","img/test2.PNG","null","practice","null","true","","","",""
"null","","html-keyboard-response","33","422355","0.0-2.0-1.10","","<img src=""img/test2-reward.PNG"">","null","","","","","","",""
"null","","html-keyboard-response","34","423359","0.0-2.0-2.10","","<div style=""font-size:60px;"">+</div>","null","","","","","","",""
"536.870000010822","","image-keyboard-response","35","423899","0.0-2.0-0.11","","img/test1.PNG","32","practice","32","true","","","",""
"null","","html-keyboard-response","36","424902","0.0-2.0-1.11","","<img src=""img/test1-reward.PNG"" border=""10px; grey"">","null","","","","","","",""
"null","","html-keyboard-response","37","425909","0.0-2.0-2.11","","<div style=""font-size:60px;"">+</div>","null","","","","","","",""
"32809.01000001177","","instructions","38","458719","0.0-3.0","[{""page_index"":0,""viewing_time"":32808.640000002924}]","","","","","","","","",""
"1345.4649999912363","","image-keyboard-response","39","460071","0.0-4.0-0.0","","img/red.png","32","trial","null","false","0.2,0.8","2:nogo_b","",""
"null","","html-keyboard-response","40","461102","0.0-4.0-1.0","","<img src=""img/red-n.png"" border=""10"">","null","trial","null","","0.2,0.8","2:nogo_b","0",""
"null","","html-keyboard-response","41","462113","0.0-4.0-2.0","","<div style=""font-size:60px;"">+</div>","null","","","","","","",""
"null","","image-keyboard-response","42","463617","0.0-4.0-0.1","","img/purple.png","null","trial","32","false","0.8,0.2","1:go_a","",""
"null","","html-keyboard-response","43","464629","0.0-4.0-1.1","","<img src=""img/purple-r.png"">","null","trial","32","","0.8,0.2","1:go_a","1",""
"null","","html-keyboard-response","44","465640","0.0-4.0-2.1","","<div style=""font-size:60px;"">+</div>","null","","","","","","",""
"820.0299999880372","","image-keyboard-response","45","466462","0.0-4.0-0.2","","img/red.png","32","trial","null","false","0.2,0.8","2:nogo_b","",""
"null","","html-keyboard-response","46","467484","0.0-4.0-1.2","","<img src=""img/red-n.png"" border=""10"">","null","trial","null","","0.2,0.8","2:nogo_b","0",""
"null","","html-keyboard-response","47","468486","0.0-4.0-2.2","","<div style=""font-size:60px;"">+</div>","null","","","","","","",""
"403.05500000249594","","image-keyboard-response","48","468890","0.0-4.0-0.3","","img/purple.png","32","trial","32","true","0.8,0.2","1:go_a","",""
"null","","html-keyboard-response","49","469910","0.0-4.0-1.3","","<img src=""img/purple-r.png"" border=""10"">","null","trial","32","","0.8,0.2","1:go_a","1",""
"null","","html-keyboard-response","50","470914","0.0-4.0-2.3","","<div style=""font-size:60px;"">+</div>","null","","","","","","",""
"null","","image-keyboard-response","51","472420","0.0-4.0-0.4","","img/red.png","null","trial","null","true","0.2,0.8","2:nogo_b","",""
"null","","html-keyboard-response","52","473443","0.0-4.0-1.4","","<img src=""img/red-r.png"">","null","trial","null","","0.2,0.8","2:nogo_b","1",""
"null","","html-keyboard-response","53","474451","0.0-4.0-2.4","","<div style=""font-size:60px;"">+</div>","null","","","","","","",""
"471.76000000035856","","image-keyboard-response","54","474926","0.0-4.0-0.5","","img/purple.png","32","trial","32","true","0.8,0.2","1:go_a","",""
"null","","html-keyboard-response","55","475942","0.0-4.0-1.5","","<img src=""img/purple-n.png"" border=""10"">","null","trial","32","","0.8,0.2","1:go_a","0",""
"null","","html-keyboard-response","56","476946","0.0-4.0-2.5","","<div style=""font-size:60px;"">+</div>","null","","","","","","",""
"777.2750000003725","","image-keyboard-response","57","477726","0.0-4.0-0.6","","img/purple.png","32","trial","32","true","0.8,0.2","1:go_a","",""
"null","","html-keyboard-response","58","478747","0.0-4.0-1.6","","<img src=""img/purple-r.png"" border=""10"">","null","trial","32","","0.8,0.2","1:go_a","1",""
"null","","html-keyboard-response","59","479766","0.0-4.0-2.6","","<div style=""font-size:60px;"">+</div>","null","","","","","","",""
"null","","image-keyboard-response","60","481271","0.0-4.0-0.7","","img/red.png","null","trial","null","true","0.2,0.8","2:nogo_b","",""
"null","","html-keyboard-response","61","482282","0.0-4.0-1.7","","<img src=""img/red-r.png"">","null","trial","null","","0.2,0.8","2:nogo_b","1",""
"null","","html-keyboard-response","62","483286","0.0-4.0-2.7","","<div style=""font-size:60px;"">+</div>","null","","","","","","",""
"null","","image-keyboard-response","63","484801","0.0-4.0-0.8","","img/red.png","null","trial","null","true","0.2,0.8","2:nogo_b","",""
"null","","html-keyboard-response","64","485806","0.0-4.0-1.8","","<img src=""img/red-r.png"">","null","trial","null","","0.2,0.8","2:nogo_b","1",""
"null","","html-keyboard-response","65","486819","0.0-4.0-2.8","","<div style=""font-size:60px;"">+</div>","null","","","","","","",""
"468.35500000452157","","image-keyboard-response","66","487289","0.0-4.0-0.9","","img/purple.png","32","trial","32","true","0.8,0.2","1:go_a","",""
"null","","html-keyboard-response","67","488309","0.0-4.0-1.9","","<img src=""img/purple-r.png"" border=""10"">","null","trial","32","","0.8,0.2","1:go_a","1",""
"null","","html-keyboard-response","68","489324","0.0-4.0-2.9","","<div style=""font-size:60px;"">+</div>","null","","","","","","",""
"347.72499999962747","","image-keyboard-response","69","489675","0.0-4.0-0.10","","img/red.png","32","trial","null","false","0.2,0.8","2:nogo_b","",""
"null","","html-keyboard-response","70","490704","0.0-4.0-1.10","","<img src=""img/red-n.png"" border=""10"">","null","trial","null","","0.2,0.8","2:nogo_b","0",""
"null","","html-keyboard-response","71","491707","0.0-4.0-2.10","","<div style=""font-size:60px;"">+</div>","null","","","","","","",""
"480.2499999932479","","image-keyboard-response","72","492189","0.0-4.0-0.11","","img/purple.png","32","trial","32","true","0.8,0.2","1:go_a","",""
"null","","html-keyboard-response","73","493211","0.0-4.0-1.11","","<img src=""img/purple-r.png"" border=""10"">","null","trial","32","","0.8,0.2","1:go_a","1",""
"null","","html-keyboard-response","74","494215","0.0-4.0-2.11","","<div style=""font-size:60px;"">+</div>","null","","","","","","",""
"null","","image-keyboard-response","75","495730","0.0-4.0-0.12","","img/red.png","null","trial","null","true","0.2,0.8","2:nogo_b","",""
"null","","html-keyboard-response","76","496738","0.0-4.0-1.12","","<img src=""img/red-r.png"">","null","trial","null","","0.2,0.8","2:nogo_b","1",""
"null","","html-keyboard-response","77","497743","0.0-4.0-2.12","","<div style=""font-size:60px;"">+</div>","null","","","","","","",""
"424.58500000066124","","image-keyboard-response","78","498169","0.0-4.0-0.13","","img/purple.png","32","trial","32","true","0.8,0.2","1:go_a","",""
"null","","html-keyboard-response","79","499186","0.0-4.0-1.13","","<img src=""img/purple-n.png"" border=""10"">","null","trial","32","","0.8,0.2","1:go_a","0",""
"null","","html-keyboard-response","80","500193","0.0-4.0-2.13","","<div style=""font-size:60px;"">+</div>","null","","","","","","",""
"471.6950000001816","","image-keyboard-response","81","500669","0.0-4.0-0.14","","img/purple.png","32","trial","32","true","0.8,0.2","1:go_a","",""
"null","","html-keyboard-response","82","501692","0.0-4.0-1.14","","<img src=""img/purple-r.png"" border=""10"">","null","trial","32","","0.8,0.2","1:go_a","1",""
"null","","html-keyboard-response","83","502709","0.0-4.0-2.14","","<div style=""font-size:60px;"">+</div>","null","","","","","","",""
"null","","image-keyboard-response","84","504217","0.0-4.0-0.15","","img/red.png","null","trial","null","true","0.2,0.8","2:nogo_b","",""
"null","","html-keyboard-response","85","505223","0.0-4.0-1.15","","<img src=""img/red-n.png"">","null","trial","null","","0.2,0.8","2:nogo_b","0",""
"null","","html-keyboard-response","86","506225","0.0-4.0-2.15","","<div style=""font-size:60px;"">+</div>","null","","","","","","",""
"null","","image-keyboard-response","87","507733","0.0-4.0-0.16","","img/red.png","null","trial","null","true","0.2,0.8","2:nogo_b","",""
"null","","html-keyboard-response","88","508756","0.0-4.0-1.16","","<img src=""img/red-n.png"">","null","trial","null","","0.2,0.8","2:nogo_b","0",""
"null","","html-keyboard-response","89","509760","0.0-4.0-2.16","","<div style=""font-size:60px;"">+</div>","null","","","","","","",""
"458.2700000028126","","image-keyboard-response","90","510221","0.0-4.0-0.17","","img/purple.png","32","trial","32","true","0.8,0.2","1:go_a","",""
"null","","html-keyboard-response","91","511237","0.0-4.0-1.17","","<img src=""img/purple-n.png"" border=""10"">","null","trial","32","","0.8,0.2","1:go_a","0",""
"null","","html-keyboard-response","92","512241","0.0-4.0-2.17","","<div style=""font-size:60px;"">+</div>","null","","","","","","",""
"454.8700000013923","","image-keyboard-response","93","512698","0.0-4.0-0.18","","img/purple.png","32","trial","32","true","0.8,0.2","1:go_a","",""
"null","","html-keyboard-response","94","513715","0.0-4.0-1.18","","<img src=""img/purple-r.png"" border=""10"">","null","trial","32","","0.8,0.2","1:go_a","1",""
"null","","html-keyboard-response","95","514730","0.0-4.0-2.18","","<div style=""font-size:60px;"">+</div>","null","","","","","","",""
"null","","image-keyboard-response","96","516233","0.0-4.0-0.19","","img/red.png","null","trial","null","true","0.2,0.8","2:nogo_b","",""
"null","","html-keyboard-response","97","517247","0.0-4.0-1.19","","<img src=""img/red-r.png"">","null","trial","null","","0.2,0.8","2:nogo_b","1",""
"null","","html-keyboard-response","98","518267","0.0-4.0-2.19","","<div style=""font-size:60px;"">+</div>","null","","","","","","",""
"null","","image-keyboard-response","99","519781","0.0-4.0-0.20","","img/red.png","null","trial","null","true","0.2,0.8","2:nogo_b","",""
"null","","html-keyboard-response","100","520787","0.0-4.0-1.20","","<img src=""img/red-r.png"">","null","trial","null","","0.2,0.8","2:nogo_b","1",""
"null","","html-keyboard-response","101","521799","0.0-4.0-2.20","","<div style=""font-size:60px;"">+</div>","null","","","","","","",""
"393.7150000128895","","image-keyboard-response","102","522195","0.0-4.0-0.21","","img/purple.png","32","trial","32","true","0.8,0.2","1:go_a","",""
"null","","html-keyboard-response","103","523214","0.0-4.0-1.21","","<img src=""img/purple-n.png"" border=""10"">","null","trial","32","","0.8,0.2","1:go_a","0",""
"null","","html-keyboard-response","104","524235","0.0-4.0-2.21","","<div style=""font-size:60px;"">+</div>","null","","","","","","",""
"null","","image-keyboard-response","105","525752","0.0-4.0-0.22","","img/red.png","null","trial","null","true","0.2,0.8","2:nogo_b","",""
"null","","html-keyboard-response","106","526763","0.0-4.0-1.22","","<img src=""img/red-r.png"">","null","trial","null","","0.2,0.8","2:nogo_b","1",""
"null","","html-keyboard-response","107","527785","0.0-4.0-2.22","","<div style=""font-size:60px;"">+</div>","null","","","","","","",""
"466.6700000088895","","image-keyboard-response","108","528254","0.0-4.0-0.23","","img/purple.png","32","trial","32","true","0.8,0.2","1:go_a","",""
"null","","html-keyboard-response","109","529260","0.0-4.0-1.23","","<img src=""img/purple-r.png"" border=""10"">","null","trial","32","","0.8,0.2","1:go_a","1",""
"null","","html-keyboard-response","110","530274","0.0-4.0-2.23","","<div style=""font-size:60px;"">+</div>","null","","","","","","",""
"528.0899999925168","","image-keyboard-response","111","530804","0.0-4.0-0.24","","img/purple.png","32","trial","32","true","0.8,0.2","1:go_a","",""
"null","","html-keyboard-response","112","531825","0.0-4.0-1.24","","<img src=""img/purple-r.png"" border=""10"">","null","trial","32","","0.8,0.2","1:go_a","1",""
"null","","html-keyboard-response","113","532829","0.0-4.0-2.24","","<div style=""font-size:60px;"">+</div>","null","","","","","","",""
"null","","image-keyboard-response","114","534335","0.0-4.0-0.25","","img/red.png","null","trial","null","true","0.2,0.8","2:nogo_b","",""
"null","","html-keyboard-response","115","535344","0.0-4.0-1.25","","<img src=""img/red-n.png"">","null","trial","null","","0.2,0.8","2:nogo_b","0",""
"null","","html-keyboard-response","116","536356","0.0-4.0-2.25","","<div style=""font-size:60px;"">+</div>","null","","","","","","",""
"348.3649999980116","","image-keyboard-response","117","536707","0.0-4.0-0.26","","img/purple.png","32","trial","32","true","0.8,0.2","1:go_a","",""
"null","","html-keyboard-response","118","537723","0.0-4.0-1.26","","<img src=""img/purple-r.png"" border=""10"">","null","trial","32","","0.8,0.2","1:go_a","1",""
"null","","html-keyboard-response","119","538730","0.0-4.0-2.26","","<div style=""font-size:60px;"">+</div>","null","","","","","","",""
"null","","image-keyboard-response","120","540240","0.0-4.0-0.27","","img/red.png","null","trial","null","true","0.2,0.8","2:nogo_b","",""
"null","","html-keyboard-response","121","541246","0.0-4.0-1.27","","<img src=""img/red-r.png"">","null","trial","null","","0.2,0.8","2:nogo_b","1",""
"null","","html-keyboard-response","122","542258","0.0-4.0-2.27","","<div style=""font-size:60px;"">+</div>","null","","","","","","",""
"271.775000001071","","image-keyboard-response","123","542532","0.0-4.0-0.28","","img/purple.png","32","trial","32","true","0.8,0.2","1:go_a","",""
"null","","html-keyboard-response","124","543547","0.0-4.0-1.28","","<img src=""img/purple-r.png"" border=""10"">","null","trial","32","","0.8,0.2","1:go_a","1",""
"null","","html-keyboard-response","125","544551","0.0-4.0-2.28","","<div style=""font-size:60px;"">+</div>","null","","","","","","",""
"null","","image-keyboard-response","126","546066","0.0-4.0-0.29","","img/red.png","null","trial","null","true","0.2,0.8","2:nogo_b","",""
"null","","html-keyboard-response","127","547081","0.0-4.0-1.29","","<img src=""img/red-r.png"">","null","trial","null","","0.2,0.8","2:nogo_b","1",""
"null","","html-keyboard-response","128","548091","0.0-4.0-2.29","","<div style=""font-size:60px;"">+</div>","null","","","","","","",""
"244.9650000053225","","image-keyboard-response","129","548337","0.0-4.0-0.30","","img/purple.png","32","trial","32","true","0.8,0.2","1:go_a","",""
"null","","html-keyboard-response","130","549354","0.0-4.0-1.30","","<img src=""img/purple-r.png"" border=""10"">","null","trial","32","","0.8,0.2","1:go_a","1",""
"null","","html-keyboard-response","131","550368","0.0-4.0-2.30","","<div style=""font-size:60px;"">+</div>","null","","","","","","",""
"399.9000000039814","","image-keyboard-response","132","550770","0.0-4.0-0.31","","img/red.png","32","trial","null","false","0.2,0.8","2:nogo_b","",""
"null","","html-keyboard-response","133","551786","0.0-4.0-1.31","","<img src=""img/red-n.png"" border=""10"">","null","trial","null","","0.2,0.8","2:nogo_b","0",""
"null","","html-keyboard-response","134","552789","0.0-4.0-2.31","","<div style=""font-size:60px;"">+</div>","null","","","","","","",""
"367.4600000085775","","image-keyboard-response","135","553158","0.0-4.0-0.32","","img/purple.png","32","trial","32","true","0.8,0.2","1:go_a","",""
"null","","html-keyboard-response","136","554169","0.0-4.0-1.32","","<img src=""img/purple-r.png"" border=""10"">","null","trial","32","","0.8,0.2","1:go_a","1",""
"null","","html-keyboard-response","137","555181","0.0-4.0-2.32","","<div style=""font-size:60px;"">+</div>","null","","","","","","",""
"null","","image-keyboard-response","138","556685","0.0-4.0-0.33","","img/red.png","null","trial","null","true","0.2,0.8","2:nogo_b","",""
"null","","html-keyboard-response","139","557690","0.0-4.0-1.33","","<img src=""img/red-n.png"">","null","trial","null","","0.2,0.8","2:nogo_b","0",""
"null","","html-keyboard-response","140","558700","0.0-4.0-2.33","","<div style=""font-size:60px;"">+</div>","null","","","","","","",""
"349.4849999988219","","image-keyboard-response","141","559052","0.0-4.0-0.34","","img/purple.png","32","trial","32","true","0.8,0.2","1:go_a","",""
"null","","html-keyboard-response","142","560064","0.0-4.0-1.34","","<img src=""img/purple-r.png"" border=""10"">","null","trial","32","","0.8,0.2","1:go_a","1",""
"null","","html-keyboard-response","143","561071","0.0-4.0-2.34","","<div style=""font-size:60px;"">+</div>","null","","","","","","",""
"null","","image-keyboard-response","144","562581","0.0-4.0-0.35","","img/red.png","null","trial","null","true","0.2,0.8","2:nogo_b","",""
"null","","html-keyboard-response","145","563587","0.0-4.0-1.35","","<img src=""img/red-r.png"">","null","trial","null","","0.2,0.8","2:nogo_b","1",""
"null","","html-keyboard-response","146","564599","0.0-4.0-2.35","","<div style=""font-size:60px;"">+</div>","null","","","","","","",""
"384.0300000010757","","image-keyboard-response","147","564986","0.0-4.0-0.36","","img/purple.png","32","trial","32","true","0.8,0.2","1:go_a","",""
"null","","html-keyboard-response","148","566009","0.0-4.0-1.36","","<img src=""img/purple-r.png"" border=""10"">","null","trial","32","","0.8,0.2","1:go_a","1",""
"null","","html-keyboard-response","149","567030","0.0-4.0-2.36","","<div style=""font-size:60px;"">+</div>","null","","","","","","",""
"null","","image-keyboard-response","150","568545","0.0-4.0-0.37","","img/red.png","null","trial","null","true","0.2,0.8","2:nogo_b","",""
"null","","html-keyboard-response","151","569551","0.0-4.0-1.37","","<img src=""img/red-n.png"">","null","trial","null","","0.2,0.8","2:nogo_b","0",""
"null","","html-keyboard-response","152","570554","0.0-4.0-2.37","","<div style=""font-size:60px;"">+</div>","null","","","","","","",""
"451.3799999986077","","image-keyboard-response","153","571008","0.0-4.0-0.38","","img/purple.png","32","trial","32","true","0.8,0.2","1:go_a","",""
"null","","html-keyboard-response","154","572027","0.0-4.0-1.38","","<img src=""img/purple-r.png"" border=""10"">","null","trial","32","","0.8,0.2","1:go_a","1",""
"null","","html-keyboard-response","155","573048","0.0-4.0-2.38","","<div style=""font-size:60px;"">+</div>","null","","","","","","",""
"null","","image-keyboard-response","156","574562","0.0-4.0-0.39","","img/red.png","null","trial","null","true","0.2,0.8","2:nogo_b","",""
"null","","html-keyboard-response","157","575568","0.0-4.0-1.39","","<img src=""img/red-r.png"">","null","trial","null","","0.2,0.8","2:nogo_b","1",""
"null","","html-keyboard-response","158","576578","0.0-4.0-2.39","","<div style=""font-size:60px;"">+</div>","null","","","","","","",""
"489.99000000185333","","image-keyboard-response","159","577070","0.0-4.0-0.40","","img/purple.png","32","trial","32","true","0.8,0.2","1:go_a","",""
"null","","html-keyboard-response","160","578093","0.0-4.0-1.40","","<img src=""img/purple-r.png"" border=""10"">","null","trial","32","","0.8,0.2","1:go_a","1",""
"null","","html-keyboard-response","161","579096","0.0-4.0-2.40","","<div style=""font-size:60px;"">+</div>","null","","","","","","",""
"null","","image-keyboard-response","162","580600","0.0-4.0-0.41","","img/red.png","null","trial","null","true","0.2,0.8","2:nogo_b","",""
"null","","html-keyboard-response","163","581605","0.0-4.0-1.41","","<img src=""img/red-r.png"">","null","trial","null","","0.2,0.8","2:nogo_b","1",""
"null","","html-keyboard-response","164","582621","0.0-4.0-2.41","","<div style=""font-size:60px;"">+</div>","null","","","","","","",""
"505.925000004936","","image-keyboard-response","165","583129","0.0-4.0-0.42","","img/purple.png","32","trial","32","true","0.8,0.2","1:go_a","",""
"null","","html-keyboard-response","166","584133","0.0-4.0-1.42","","<img src=""img/purple-n.png"" border=""10"">","null","trial","32","","0.8,0.2","1:go_a","0",""
"null","","html-keyboard-response","167","585147","0.0-4.0-2.42","","<div style=""font-size:60px;"">+</div>","null","","","","","","",""
"null","","image-keyboard-response","168","586652","0.0-4.0-0.43","","img/red.png","null","trial","null","true","0.2,0.8","2:nogo_b","",""
"null","","html-keyboard-response","169","587661","0.0-4.0-1.43","","<img src=""img/red-r.png"">","null","trial","null","","0.2,0.8","2:nogo_b","1",""
"null","","html-keyboard-response","170","588671","0.0-4.0-2.43","","<div style=""font-size:60px;"">+</div>","null","","","","","","",""
"null","","image-keyboard-response","171","590188","0.0-4.0-0.44","","img/red.png","null","trial","null","true","0.2,0.8","2:nogo_b","",""
"null","","html-keyboard-response","172","591200","0.0-4.0-1.44","","<img src=""img/red-r.png"">","null","trial","null","","0.2,0.8","2:nogo_b","1",""
"null","","html-keyboard-response","173","592215","0.0-4.0-2.44","","<div style=""font-size:60px;"">+</div>","null","","","","","","",""
"424.62499999965075","","image-keyboard-response","174","592642","0.0-4.0-0.45","","img/purple.png","32","trial","32","true","0.8,0.2","1:go_a","",""
"null","","html-keyboard-response","175","593657","0.0-4.0-1.45","","<img src=""img/purple-r.png"" border=""10"">","null","trial","32","","0.8,0.2","1:go_a","1",""
"null","","html-keyboard-response","176","594661","0.0-4.0-2.45","","<div style=""font-size:60px;"">+</div>","null","","","","","","",""
"598.6750000010943","","image-keyboard-response","177","595263","0.0-4.0-0.46","","img/purple.png","32","trial","32","true","0.8,0.2","1:go_a","",""
"null","","html-keyboard-response","178","596274","0.0-4.0-1.46","","<img src=""img/purple-r.png"" border=""10"">","null","trial","32","","0.8,0.2","1:go_a","1",""
"null","","html-keyboard-response","179","597279","0.0-4.0-2.46","","<div style=""font-size:60px;"">+</div>","null","","","","","","",""
"null","","image-keyboard-response","180","598797","0.0-4.0-0.47","","img/red.png","null","trial","null","true","0.2,0.8","2:nogo_b","",""
"null","","html-keyboard-response","181","599804","0.0-4.0-1.47","","<img src=""img/red-r.png"">","null","trial","null","","0.2,0.8","2:nogo_b","1",""
"null","","html-keyboard-response","182","600816","0.0-4.0-2.47","","<div style=""font-size:60px;"">+</div>","null","","","","","","",""
"null","","image-keyboard-response","183","602333","0.0-4.0-0.48","","img/red.png","null","trial","null","true","0.2,0.8","2:nogo_b","",""
"null","","html-keyboard-response","184","603354","0.0-4.0-1.48","","<img src=""img/red-r.png"">","null","trial","null","","0.2,0.8","2:nogo_b","1",""
"null","","html-keyboard-response","185","604357","0.0-4.0-2.48","","<div style=""font-size:60px;"">+</div>","null","","","","","","",""
"344.5449999999255","","image-keyboard-response","186","604704","0.0-4.0-0.49","","img/purple.png","32","trial","32","true","0.8,0.2","1:go_a","",""
"null","","html-keyboard-response","187","605718","0.0-4.0-1.49","","<img src=""img/purple-n.png"" border=""10"">","null","trial","32","","0.8,0.2","1:go_a","0",""
"null","","html-keyboard-response","188","606724","0.0-4.0-2.49","","<div style=""font-size:60px;"">+</div>","null","","","","","","",""
"566.8299999961164","","image-keyboard-response","189","607292","0.0-4.0-0.50","","img/purple.png","32","trial","32","true","0.8,0.2","1:go_a","",""
"null","","html-keyboard-response","190","608305","0.0-4.0-1.50","","<img src=""img/purple-r.png"" border=""10"">","null","trial","32","","0.8,0.2","1:go_a","1",""
"null","","html-keyboard-response","191","609312","0.0-4.0-2.50","","<div style=""font-size:60px;"">+</div>","null","","","","","","",""
"null","","image-keyboard-response","192","610831","0.0-4.0-0.51","","img/red.png","null","trial","null","true","0.2,0.8","2:nogo_b","",""
"null","","html-keyboard-response","193","611850","0.0-4.0-1.51","","<img src=""img/red-r.png"">","null","trial","null","","0.2,0.8","2:nogo_b","1",""
"null","","html-keyboard-response","194","612853","0.0-4.0-2.51","","<div style=""font-size:60px;"">+</div>","null","","","","","","",""
"372.40000000747386","","image-keyboard-response","195","613227","0.0-4.0-0.52","","img/purple.png","32","trial","32","true","0.8,0.2","1:go_a","",""
"null","","html-keyboard-response","196","614250","0.0-4.0-1.52","","<img src=""img/purple-r.png"" border=""10"">","null","trial","32","","0.8,0.2","1:go_a","1",""
"null","","html-keyboard-response","197","615266","0.0-4.0-2.52","","<div style=""font-size:60px;"">+</div>","null","","","","","","",""
"null","","image-keyboard-response","198","616779","0.0-4.0-0.53","","img/red.png","null","trial","null","true","0.2,0.8","2:nogo_b","",""
"null","","html-keyboard-response","199","617792","0.0-4.0-1.53","","<img src=""img/red-r.png"">","null","trial","null","","0.2,0.8","2:nogo_b","1",""
"null","","html-keyboard-response","200","618811","0.0-4.0-2.53","","<div style=""font-size:60px;"">+</div>","null","","","","","","",""
"null","","image-keyboard-response","201","620315","0.0-4.0-0.54","","img/red.png","null","trial","null","true","0.2,0.8","2:nogo_b","",""
"null","","html-keyboard-response","202","621337","0.0-4.0-1.54","","<img src=""img/red-n.png"">","null","trial","null","","0.2,0.8","2:nogo_b","0",""
"null","","html-keyboard-response","203","622349","0.0-4.0-2.54","","<div style=""font-size:60px;"">+</div>","null","","","","","","",""
"357.3550000000978","","image-keyboard-response","204","622708","0.0-4.0-0.55","","img/purple.png","32","trial","32","true","0.8,0.2","1:go_a","",""
"null","","html-keyboard-response","205","623729","0.0-4.0-1.55","","<img src=""img/purple-n.png"" border=""10"">","null","trial","32","","0.8,0.2","1:go_a","0",""
"null","","html-keyboard-response","206","624748","0.0-4.0-2.55","","<div style=""font-size:60px;"">+</div>","null","","","","","","",""
"null","","image-keyboard-response","207","626250","0.0-4.0-0.56","","img/red.png","null","trial","null","true","0.2,0.8","2:nogo_b","",""
"null","","html-keyboard-response","208","627257","0.0-4.0-1.56","","<img src=""img/red-r.png"">","null","trial","null","","0.2,0.8","2:nogo_b","1",""
"null","","html-keyboard-response","209","628267","0.0-4.0-2.56","","<div style=""font-size:60px;"">+</div>","null","","","","","","",""
"431.1350000061793","","image-keyboard-response","210","628701","0.0-4.0-0.57","","img/purple.png","32","trial","32","true","0.8,0.2","1:go_a","",""
"null","","html-keyboard-response","211","629707","0.0-4.0-1.57","","<img src=""img/purple-r.png"" border=""10"">","null","trial","32","","0.8,0.2","1:go_a","1",""
"null","","html-keyboard-response","212","630715","0.0-4.0-2.57","","<div style=""font-size:60px;"">+</div>","null","","","","","","",""
"null","","image-keyboard-response","213","632229","0.0-4.0-0.58","","img/red.png","null","trial","null","true","0.2,0.8","2:nogo_b","",""
"null","","html-keyboard-response","214","633238","0.0-4.0-1.58","","<img src=""img/red-r.png"">","null","trial","null","","0.2,0.8","2:nogo_b","1",""
"null","","html-keyboard-response","215","634259","0.0-4.0-2.58","","<div style=""font-size:60px;"">+</div>","null","","","","","","",""
"554.0499999915482","","image-keyboard-response","216","634815","0.0-4.0-0.59","","img/purple.png","32","trial","32","true","0.8,0.2","1:go_a","",""
"null","","html-keyboard-response","217","635836","0.0-4.0-1.59","","<img src=""img/purple-n.png"" border=""10"">","null","trial","32","","0.8,0.2","1:go_a","0",""
"null","","html-keyboard-response","218","636844","0.0-4.0-2.59","","<div style=""font-size:60px;"">+</div>","null","","","","","","",""
"17653.2850000076","","instructions","219","654497","0.0-5.0","[{""page_index"":0,""viewing_time"":17652.805000005173}]","","","","","","","","",""
"726.940000007744","","image-keyboard-response","220","655227","0.0-6.0-0.0","","img/pink.png","32","trial","null","false","0,1","4:nogo_d","",""
"null","","html-keyboard-response","221","656245","0.0-6.0-1.0","","<img src=""img/pink-n.png"" border=""10"">","null","trial","null","","0,1","4:nogo_d","0",""
"null","","html-keyboard-response","222","657262","0.0-6.0-2.0","","<div style=""font-size:60px;"">+</div>","null","","","","","","",""
"413.9499999873806","","image-keyboard-response","223","657678","0.0-6.0-0.1","","img/orange.png","32","trial","32","true","1,0","3:go_c","",""
"null","","html-keyboard-response","224","658689","0.0-6.0-1.1","","<img src=""img/orange-r.png"" border=""10"">","null","trial","32","","1,0","3:go_c","1",""
"null","","html-keyboard-response","225","659693","0.0-6.0-2.1","","<div style=""font-size:60px;"">+</div>","null","","","","","","",""
"null","","image-keyboard-response","226","661202","0.0-6.0-0.2","","img/green.png","null","trial","null","true","0.2,0.8","2:nogo_b","",""
"null","","html-keyboard-response","227","662222","0.0-6.0-1.2","","<img src=""img/green-r.png"">","null","trial","null","","0.2,0.8","2:nogo_b","1",""
"null","","html-keyboard-response","228","663239","0.0-6.0-2.2","","<div style=""font-size:60px;"">+</div>","null","","","","","","",""
"null","","image-keyboard-response","229","664755","0.0-6.0-0.3","","img/red.png","null","trial","32","false","0.8,0.2","1:go_a","",""
"null","","html-keyboard-response","230","665762","0.0-6.0-1.3","","<img src=""img/red-n.png"">","null","trial","32","","0.8,0.2","1:go_a","0",""
"null","","html-keyboard-response","231","666767","0.0-6.0-2.3","","<div style=""font-size:60px;"">+</div>","null","","","","","","",""
"375.69499999517575","","image-keyboard-response","232","667148","0.0-6.0-0.4","","img/orange.png","32","trial","32","true","1,0","3:go_c","",""
"null","","html-keyboard-response","233","668165","0.0-6.0-1.4","","<img src=""img/orange-r.png"" border=""10"">","null","trial","32","","1,0","3:go_c","1",""
"null","","html-keyboard-response","234","669169","0.0-6.0-2.4","","<div style=""font-size:60px;"">+</div>","null","","","","","","",""
"null","","image-keyboard-response","235","670674","0.0-6.0-0.5","","img/pink.png","null","trial","null","true","0,1","4:nogo_d","",""
"null","","html-keyboard-response","236","671679","0.0-6.0-1.5","","<img src=""img/pink-r.png"">","null","trial","null","","0,1","4:nogo_d","1",""
"null","","html-keyboard-response","237","672687","0.0-6.0-2.5","","<div style=""font-size:60px;"">+</div>","null","","","","","","",""
"852.6649999985239","","image-keyboard-response","238","673542","0.0-6.0-0.6","","img/green.png","32","trial","null","false","0.2,0.8","2:nogo_b","",""
"null","","html-keyboard-response","239","674549","0.0-6.0-1.6","","<img src=""img/green-n.png"" border=""10"">","null","trial","null","","0.2,0.8","2:nogo_b","0",""
"null","","html-keyboard-response","240","675560","0.0-6.0-2.6","","<div style=""font-size:60px;"">+</div>","null","","","","","","",""
"548.0550000065705","","image-keyboard-response","241","676110","0.0-6.0-0.7","","img/red.png","32","trial","32","true","0.8,0.2","1:go_a","",""
"null","","html-keyboard-response","242","677129","0.0-6.0-1.7","","<img src=""img/red-r.png"" border=""10"">","null","trial","32","","0.8,0.2","1:go_a","1",""
"null","","html-keyboard-response","243","678148","0.0-6.0-2.7","","<div style=""font-size:60px;"">+</div>","null","","","","","","",""
"709.3500000046333","","image-keyboard-response","244","678860","0.0-6.0-0.8","","img/pink.png","32","trial","null","false","0,1","4:nogo_d","",""
"null","","html-keyboard-response","245","679873","0.0-6.0-1.8","","<img src=""img/pink-n.png"" border=""10"">","null","trial","null","","0,1","4:nogo_d","0",""
"null","","html-keyboard-response","246","680878","0.0-6.0-2.8","","<div style=""font-size:60px;"">+</div>","null","","","","","","",""
"null","","image-keyboard-response","247","682389","0.0-6.0-0.9","","img/green.png","null","trial","null","true","0.2,0.8","2:nogo_b","",""
"null","","html-keyboard-response","248","683395","0.0-6.0-1.9","","<img src=""img/green-r.png"">","null","trial","null","","0.2,0.8","2:nogo_b","1",""
"null","","html-keyboard-response","249","684400","0.0-6.0-2.9","","<div style=""font-size:60px;"">+</div>","null","","","","","","",""
"431.429999996908","","image-keyboard-response","250","684835","0.0-6.0-0.10","","img/orange.png","32","trial","32","true","1,0","3:go_c","",""
"null","","html-keyboard-response","251","685857","0.0-6.0-1.10","","<img src=""img/orange-r.png"" border=""10"">","null","trial","32","","1,0","3:go_c","1",""
"null","","html-keyboard-response","252","686860","0.0-6.0-2.10","","<div style=""font-size:60px;"">+</div>","null","","","","","","",""
"762.9350000061095","","image-keyboard-response","253","687626","0.0-6.0-0.11","","img/red.png","32","trial","32","true","0.8,0.2","1:go_a","",""
"null","","html-keyboard-response","254","688643","0.0-6.0-1.11","","<img src=""img/red-r.png"" border=""10"">","null","trial","32","","0.8,0.2","1:go_a","1",""
"null","","html-keyboard-response","255","689658","0.0-6.0-2.11","","<div style=""font-size:60px;"">+</div>","null","","","","","","",""
"694.3950000131736","","image-keyboard-response","256","690354","0.0-6.0-0.12","","img/red.png","32","trial","32","true","0.8,0.2","1:go_a","",""
"null","","html-keyboard-response","257","691376","0.0-6.0-1.12","","<img src=""img/red-n.png"" border=""10"">","null","trial","32","","0.8,0.2","1:go_a","0",""
"null","","html-keyboard-response","258","692395","0.0-6.0-2.12","","<div style=""font-size:60px;"">+</div>","null","","","","","","",""
"736.8600000045262","","image-keyboard-response","259","693134","0.0-6.0-0.13","","img/pink.png","32","trial","null","false","0,1","4:nogo_d","",""
"null","","html-keyboard-response","260","694144","0.0-6.0-1.13","","<img src=""img/pink-n.png"" border=""10"">","null","trial","null","","0,1","4:nogo_d","0",""
"null","","html-keyboard-response","261","695148","0.0-6.0-2.13","","<div style=""font-size:60px;"">+</div>","null","","","","","","",""
"517.7899999980582","","image-keyboard-response","262","695668","0.0-6.0-0.14","","img/orange.png","32","trial","32","true","1,0","3:go_c","",""
"null","","html-keyboard-response","263","696674","0.0-6.0-1.14","","<img src=""img/orange-r.png"" border=""10"">","null","trial","32","","1,0","3:go_c","1",""
"null","","html-keyboard-response","264","697681","0.0-6.0-2.14","","<div style=""font-size:60px;"">+</div>","null","","","","","","",""
"626.3850000104867","","image-keyboard-response","265","698309","0.0-6.0-0.15","","img/green.png","32","trial","null","false","0.2,0.8","2:nogo_b","",""
"null","","html-keyboard-response","266","699322","0.0-6.0-1.15","","<img src=""img/green-n.png"" border=""10"">","null","trial","null","","0.2,0.8","2:nogo_b","0",""
"null","","html-keyboard-response","267","700326","0.0-6.0-2.15","","<div style=""font-size:60px;"">+</div>","null","","","","","","",""
"600.4500000126427","","image-keyboard-response","268","700928","0.0-6.0-0.16","","img/pink.png","32","trial","null","false","0,1","4:nogo_d","",""
"null","","html-keyboard-response","269","701945","0.0-6.0-1.16","","<img src=""img/pink-n.png"" border=""10"">","null","trial","null","","0,1","4:nogo_d","0",""
"null","","html-keyboard-response","270","702965","0.0-6.0-2.16","","<div style=""font-size:60px;"">+</div>","null","","","","","","",""
"549.4250000047032","","image-keyboard-response","271","703516","0.0-6.0-0.17","","img/orange.png","32","trial","32","true","1,0","3:go_c","",""
"null","","html-keyboard-response","272","704530","0.0-6.0-1.17","","<img src=""img/orange-r.png"" border=""10"">","null","trial","32","","1,0","3:go_c","1",""
"null","","html-keyboard-response","273","705535","0.0-6.0-2.17","","<div style=""font-size:60px;"">+</div>","null","","","","","","",""
"null","","image-keyboard-response","274","707048","0.0-6.0-0.18","","img/green.png","null","trial","null","true","0.2,0.8","2:nogo_b","",""
"null","","html-keyboard-response","275","708055","0.0-6.0-1.18","","<img src=""img/green-r.png"">","null","trial","null","","0.2,0.8","2:nogo_b","1",""
"null","","html-keyboard-response","276","709065","0.0-6.0-2.18","","<div style=""font-size:60px;"">+</div>","null","","","","","","",""
"643.884999997681","","image-keyboard-response","277","709711","0.0-6.0-0.19","","img/red.png","32","trial","32","true","0.8,0.2","1:go_a","",""
"null","","html-keyboard-response","278","710726","0.0-6.0-1.19","","<img src=""img/red-r.png"" border=""10"">","null","trial","32","","0.8,0.2","1:go_a","1",""
"null","","html-keyboard-response","279","711744","0.0-6.0-2.19","","<div style=""font-size:60px;"">+</div>","null","","","","","","",""
"1045.910000000731","","image-keyboard-response","280","712792","0.0-6.0-0.20","","img/orange.png","32","trial","32","true","1,0","3:go_c","",""
"null","","html-keyboard-response","281","713816","0.0-6.0-1.20","","<img src=""img/orange-r.png"" border=""10"">","null","trial","32","","1,0","3:go_c","1",""
"null","","html-keyboard-response","282","714830","0.0-6.0-2.20","","<div style=""font-size:60px;"">+</div>","null","","","","","","",""
"852.2700000030454","","image-keyboard-response","283","715684","0.0-6.0-0.21","","img/red.png","32","trial","32","true","0.8,0.2","1:go_a","",""
"null","","html-keyboard-response","284","716690","0.0-6.0-1.21","","<img src=""img/red-r.png"" border=""10"">","null","trial","32","","0.8,0.2","1:go_a","1",""
"null","","html-keyboard-response","285","717698","0.0-6.0-2.21","","<div style=""font-size:60px;"">+</div>","null","","","","","","",""
"null","","image-keyboard-response","286","719208","0.0-6.0-0.22","","img/green.png","null","trial","null","true","0.2,0.8","2:nogo_b","",""
"null","","html-keyboard-response","287","720216","0.0-6.0-1.22","","<img src=""img/green-r.png"">","null","trial","null","","0.2,0.8","2:nogo_b","1",""
"null","","html-keyboard-response","288","721221","0.0-6.0-2.22","","<div style=""font-size:60px;"">+</div>","null","","","","","","",""
"628.5600000119302","","image-keyboard-response","289","721852","0.0-6.0-0.23","","img/pink.png","32","trial","null","false","0,1","4:nogo_d","",""
"null","","html-keyboard-response","290","722864","0.0-6.0-1.23","","<img src=""img/pink-n.png"" border=""10"">","null","trial","null","","0,1","4:nogo_d","0",""
"null","","html-keyboard-response","291","723871","0.0-6.0-2.23","","<div style=""font-size:60px;"">+</div>","null","","","","","","",""
"621.3950000092154","","image-keyboard-response","292","724497","0.0-6.0-0.24","","img/orange.png","32","trial","32","true","1,0","3:go_c","",""
"null","","html-keyboard-response","293","725505","0.0-6.0-1.24","","<img src=""img/orange-r.png"" border=""10"">","null","trial","32","","1,0","3:go_c","1",""
"null","","html-keyboard-response","294","726513","0.0-6.0-2.24","","<div style=""font-size:60px;"">+</div>","null","","","","","","",""
"614.1050000005635","","image-keyboard-response","295","727129","0.0-6.0-0.25","","img/pink.png","32","trial","null","false","0,1","4:nogo_d","",""
"null","","html-keyboard-response","296","728144","0.0-6.0-1.25","","<img src=""img/pink-n.png"" border=""10"">","null","trial","null","","0,1","4:nogo_d","0",""
"null","","html-keyboard-response","297","729167","0.0-6.0-2.25","","<div style=""font-size:60px;"">+</div>","null","","","","","","",""
"739.3799999990733","","image-keyboard-response","298","729909","0.0-6.0-0.26","","img/red.png","32","trial","32","true","0.8,0.2","1:go_a","",""
"null","","html-keyboard-response","299","730926","0.0-6.0-1.26","","<img src=""img/red-r.png"" border=""10"">","null","trial","32","","0.8,0.2","1:go_a","1",""
"null","","html-keyboard-response","300","731928","0.0-6.0-2.26","","<div style=""font-size:60px;"">+</div>","null","","","","","","",""
"null","","image-keyboard-response","301","733445","0.0-6.0-0.27","","img/green.png","null","trial","null","true","0.2,0.8","2:nogo_b","",""
"null","","html-keyboard-response","302","734457","0.0-6.0-1.27","","<img src=""img/green-r.png"">","null","trial","null","","0.2,0.8","2:nogo_b","1",""
"null","","html-keyboard-response","303","735462","0.0-6.0-2.27","","<div style=""font-size:60px;"">+</div>","null","","","","","","",""
"531.909999990603","","image-keyboard-response","304","735995","0.0-6.0-0.28","","img/orange.png","32","trial","32","true","1,0","3:go_c","",""
"null","","html-keyboard-response","305","737008","0.0-6.0-1.28","","<img src=""img/orange-r.png"" border=""10"">","null","trial","32","","1,0","3:go_c","1",""
"null","","html-keyboard-response","306","738027","0.0-6.0-2.28","","<div style=""font-size:60px;"">+</div>","null","","","","","","",""
"null","","image-keyboard-response","307","739536","0.0-6.0-0.29","","img/green.png","null","trial","null","true","0.2,0.8","2:nogo_b","",""
"null","","html-keyboard-response","308","740541","0.0-6.0-1.29","","<img src=""img/green-r.png"">","null","trial","null","","0.2,0.8","2:nogo_b","1",""
"null","","html-keyboard-response","309","741550","0.0-6.0-2.29","","<div style=""font-size:60px;"">+</div>","null","","","","","","",""
"574.0050000022165","","image-keyboard-response","310","742125","0.0-6.0-0.30","","img/red.png","32","trial","32","true","0.8,0.2","1:go_a","",""
"null","","html-keyboard-response","311","743131","0.0-6.0-1.30","","<img src=""img/red-r.png"" border=""10"">","null","trial","32","","0.8,0.2","1:go_a","1",""
"null","","html-keyboard-response","312","744150","0.0-6.0-2.30","","<div style=""font-size:60px;"">+</div>","null","","","","","","",""
"546.8700000055833","","image-keyboard-response","313","744698","0.0-6.0-0.31","","img/pink.png","32","trial","null","false","0,1","4:nogo_d","",""
"null","","html-keyboard-response","314","745718","0.0-6.0-1.31","","<img src=""img/pink-n.png"" border=""10"">","null","trial","null","","0,1","4:nogo_d","0",""
"null","","html-keyboard-response","315","746736","0.0-6.0-2.31","","<div style=""font-size:60px;"">+</div>","null","","","","","","",""
"null","","image-keyboard-response","316","748254","0.0-6.0-0.32","","img/green.png","null","trial","null","true","0.2,0.8","2:nogo_b","",""
"null","","html-keyboard-response","317","749258","0.0-6.0-1.32","","<img src=""img/green-n.png"">","null","trial","null","","0.2,0.8","2:nogo_b","0",""
"null","","html-keyboard-response","318","750267","0.0-6.0-2.32","","<div style=""font-size:60px;"">+</div>","null","","","","","","",""
"523.3399999997346","","image-keyboard-response","319","750792","0.0-6.0-0.33","","img/orange.png","32","trial","32","true","1,0","3:go_c","",""
"null","","html-keyboard-response","320","751815","0.0-6.0-1.33","","<img src=""img/orange-r.png"" border=""10"">","null","trial","32","","1,0","3:go_c","1",""
"null","","html-keyboard-response","321","752819","0.0-6.0-2.33","","<div style=""font-size:60px;"">+</div>","null","","","","","","",""
"557.6799999980722","","image-keyboard-response","322","753379","0.0-6.0-0.34","","img/red.png","32","trial","32","true","0.8,0.2","1:go_a","",""
"null","","html-keyboard-response","323","754396","0.0-6.0-1.34","","<img src=""img/red-r.png"" border=""10"">","null","trial","32","","0.8,0.2","1:go_a","1",""
"null","","html-keyboard-response","324","755404","0.0-6.0-2.34","","<div style=""font-size:60px;"">+</div>","null","","","","","","",""
"676.885000008042","","image-keyboard-response","325","756084","0.0-6.0-0.35","","img/pink.png","32","trial","null","false","0,1","4:nogo_d","",""
"null","","html-keyboard-response","326","757089","0.0-6.0-1.35","","<img src=""img/pink-n.png"" border=""10"">","null","trial","null","","0,1","4:nogo_d","0",""
"null","","html-keyboard-response","327","758099","0.0-6.0-2.35","","<div style=""font-size:60px;"">+</div>","null","","","","","","",""
"632.0299999933923","","image-keyboard-response","328","758733","0.0-6.0-0.36","","img/pink.png","32","trial","null","false","0,1","4:nogo_d","",""
"null","","html-keyboard-response","329","759740","0.0-6.0-1.36","","<img src=""img/pink-n.png"" border=""10"">","null","trial","null","","0,1","4:nogo_d","0",""
"null","","html-keyboard-response","330","760744","0.0-6.0-2.36","","<div style=""font-size:60px;"">+</div>","null","","","","","","",""
"null","","image-keyboard-response","331","762263","0.0-6.0-0.37","","img/green.png","null","trial","null","true","0.2,0.8","2:nogo_b","",""
"null","","html-keyboard-response","332","763270","0.0-6.0-1.37","","<img src=""img/green-r.png"">","null","trial","null","","0.2,0.8","2:nogo_b","1",""
"null","","html-keyboard-response","333","764279","0.0-6.0-2.37","","<div style=""font-size:60px;"">+</div>","null","","","","","","",""
"933.0049999989569","","image-keyboard-response","334","765214","0.0-6.0-0.38","","img/red.png","32","trial","32","true","0.8,0.2","1:go_a","",""
"null","","html-keyboard-response","335","766232","0.0-6.0-1.38","","<img src=""img/red-r.png"" border=""10"">","null","trial","32","","0.8,0.2","1:go_a","1",""
"null","","html-keyboard-response","336","767252","0.0-6.0-2.38","","<div style=""font-size:60px;"">+</div>","null","","","","","","",""
"508.8250000117114","","image-keyboard-response","337","767763","0.0-6.0-0.39","","img/orange.png","32","trial","32","true","1,0","3:go_c","",""
"null","","html-keyboard-response","338","768782","0.0-6.0-1.39","","<img src=""img/orange-r.png"" border=""10"">","null","trial","32","","1,0","3:go_c","1",""
"null","","html-keyboard-response","339","769785","0.0-6.0-2.39","","<div style=""font-size:60px;"">+</div>","null","","","","","","",""
"null","","image-keyboard-response","340","771288","0.0-6.0-0.40","","img/green.png","null","trial","null","true","0.2,0.8","2:nogo_b","",""
"null","","html-keyboard-response","341","772294","0.0-6.0-1.40","","<img src=""img/green-n.png"">","null","trial","null","","0.2,0.8","2:nogo_b","0",""
"null","","html-keyboard-response","342","773299","0.0-6.0-2.40","","<div style=""font-size:60px;"">+</div>","null","","","","","","",""
"538.5700000042561","","image-keyboard-response","343","773839","0.0-6.0-0.41","","img/orange.png","32","trial","32","true","1,0","3:go_c","",""
"null","","html-keyboard-response","344","774852","0.0-6.0-1.41","","<img src=""img/orange-r.png"" border=""10"">","null","trial","32","","1,0","3:go_c","1",""
"null","","html-keyboard-response","345","775871","0.0-6.0-2.41","","<div style=""font-size:60px;"">+</div>","null","","","","","","",""
"984.1799999994691","","image-keyboard-response","346","776857","0.0-6.0-0.42","","img/red.png","32","trial","32","true","0.8,0.2","1:go_a","",""
"null","","html-keyboard-response","347","777869","0.0-6.0-1.42","","<img src=""img/red-n.png"" border=""10"">","null","trial","32","","0.8,0.2","1:go_a","0",""
"null","","html-keyboard-response","348","778873","0.0-6.0-2.42","","<div style=""font-size:60px;"">+</div>","null","","","","","","",""
"474.2450000048848","","image-keyboard-response","349","779349","0.0-6.0-0.43","","img/pink.png","32","trial","null","false","0,1","4:nogo_d","",""
"null","","html-keyboard-response","350","780361","0.0-6.0-1.43","","<img src=""img/pink-n.png"" border=""10"">","null","trial","null","","0,1","4:nogo_d","0",""
"null","","html-keyboard-response","351","781381","0.0-6.0-2.43","","<div style=""font-size:60px;"">+</div>","null","","","","","","",""
"null","","image-keyboard-response","352","782892","0.0-6.0-0.44","","img/green.png","null","trial","null","true","0.2,0.8","2:nogo_b","",""
"null","","html-keyboard-response","353","783897","0.0-6.0-1.44","","<img src=""img/green-r.png"">","null","trial","null","","0.2,0.8","2:nogo_b","1",""
"null","","html-keyboard-response","354","784914","0.0-6.0-2.44","","<div style=""font-size:60px;"">+</div>","null","","","","","","",""
"438.0349999992177","","image-keyboard-response","355","785354","0.0-6.0-0.45","","img/orange.png","32","trial","32","true","1,0","3:go_c","",""
"null","","html-keyboard-response","356","786371","0.0-6.0-1.45","","<img src=""img/orange-r.png"" border=""10"">","null","trial","32","","1,0","3:go_c","1",""
"null","","html-keyboard-response","357","787377","0.0-6.0-2.45","","<div style=""font-size:60px;"">+</div>","null","","","","","","",""
"550.9149999998044","","image-keyboard-response","358","787931","0.0-6.0-0.46","","img/pink.png","32","trial","null","false","0,1","4:nogo_d","",""
"null","","html-keyboard-response","359","788941","0.0-6.0-1.46","","<img src=""img/pink-n.png"" border=""10"">","null","trial","null","","0,1","4:nogo_d","0",""
"null","","html-keyboard-response","360","789948","0.0-6.0-2.46","","<div style=""font-size:60px;"">+</div>","null","","","","","","",""
"1216.6250000009313","","image-keyboard-response","361","791165","0.0-6.0-0.47","","img/red.png","32","trial","32","true","0.8,0.2","1:go_a","",""
"null","","html-keyboard-response","362","792186","0.0-6.0-1.47","","<img src=""img/red-r.png"" border=""10"">","null","trial","32","","0.8,0.2","1:go_a","1",""
"null","","html-keyboard-response","363","793204","0.0-6.0-2.47","","<div style=""font-size:60px;"">+</div>","null","","","","","","",""
"526.9050000060815","","image-keyboard-response","364","793733","0.0-6.0-0.48","","img/red.png","32","trial","32","true","0.8,0.2","1:go_a","",""
"null","","html-keyboard-response","365","794748","0.0-6.0-1.48","","<img src=""img/red-r.png"" border=""10"">","null","trial","32","","0.8,0.2","1:go_a","1",""
"null","","html-keyboard-response","366","795755","0.0-6.0-2.48","","<div style=""font-size:60px;"">+</div>","null","","","","","","",""
"null","","image-keyboard-response","367","797269","0.0-6.0-0.49","","img/green.png","null","trial","null","true","0.2,0.8","2:nogo_b","",""
"null","","html-keyboard-response","368","798279","0.0-6.0-1.49","","<img src=""img/green-r.png"">","null","trial","null","","0.2,0.8","2:nogo_b","1",""
"null","","html-keyboard-response","369","799288","0.0-6.0-2.49","","<div style=""font-size:60px;"">+</div>","null","","","","","","",""
"489.19999999634456","","image-keyboard-response","370","799779","0.0-6.0-0.50","","img/orange.png","32","trial","32","true","1,0","3:go_c","",""
"null","","html-keyboard-response","371","800788","0.0-6.0-1.50","","<img src=""img/orange-r.png"" border=""10"">","null","trial","32","","1,0","3:go_c","1",""
"null","","html-keyboard-response","372","801808","0.0-6.0-2.50","","<div style=""font-size:60px;"">+</div>","null","","","","","","",""
"601.4950000098906","","image-keyboard-response","373","802412","0.0-6.0-0.51","","img/pink.png","32","trial","null","false","0,1","4:nogo_d","",""
"null","","html-keyboard-response","374","803421","0.0-6.0-1.51","","<img src=""img/pink-n.png"" border=""10"">","null","trial","null","","0,1","4:nogo_d","0",""
"null","","html-keyboard-response","375","804432","0.0-6.0-2.51","","<div style=""font-size:60px;"">+</div>","null","","","","","","",""
"null","","image-keyboard-response","376","805944","0.0-6.0-0.52","","img/green.png","null","trial","null","true","0.2,0.8","2:nogo_b","",""
"null","","html-keyboard-response","377","806949","0.0-6.0-1.52","","<img src=""img/green-r.png"">","null","trial","null","","0.2,0.8","2:nogo_b","1",""
"null","","html-keyboard-response","378","807959","0.0-6.0-2.52","","<div style=""font-size:60px;"">+</div>","null","","","","","","",""
"512.9949999973178","","image-keyboard-response","379","808474","0.0-6.0-0.53","","img/red.png","32","trial","32","true","0.8,0.2","1:go_a","",""
"null","","html-keyboard-response","380","809493","0.0-6.0-1.53","","<img src=""img/red-r.png"" border=""10"">","null","trial","32","","0.8,0.2","1:go_a","1",""
"null","","html-keyboard-response","381","810497","0.0-6.0-2.53","","<div style=""font-size:60px;"">+</div>","null","","","","","","",""
"548.4199999918928","","image-keyboard-response","382","811049","0.0-6.0-0.54","","img/orange.png","32","trial","32","true","1,0","3:go_c","",""
"null","","html-keyboard-response","383","812073","0.0-6.0-1.54","","<img src=""img/orange-r.png"" border=""10"">","null","trial","32","","1,0","3:go_c","1",""
"null","","html-keyboard-response","384","813094","0.0-6.0-2.54","","<div style=""font-size:60px;"">+</div>","null","","","","","","",""
"519.6949999954086","","image-keyboard-response","385","813616","0.0-6.0-0.55","","img/pink.png","32","trial","null","false","0,1","4:nogo_d","",""
"null","","html-keyboard-response","386","814626","0.0-6.0-1.55","","<img src=""img/pink-n.png"" border=""10"">","null","trial","null","","0,1","4:nogo_d","0",""
"null","","html-keyboard-response","387","815655","0.0-6.0-2.55","","<div style=""font-size:60px;"">+</div>","null","","","","","","",""
"437.24500000826083","","image-keyboard-response","388","816094","0.0-6.0-0.56","","img/orange.png","32","trial","32","true","1,0","3:go_c","",""
"null","","html-keyboard-response","389","817116","0.0-6.0-1.56","","<img src=""img/orange-r.png"" border=""10"">","null","trial","32","","1,0","3:go_c","1",""
"null","","html-keyboard-response","390","818118","0.0-6.0-2.56","","<div style=""font-size:60px;"">+</div>","null","","","","","","",""
"406.48000000510365","","image-keyboard-response","391","818526","0.0-6.0-0.57","","img/red.png","32","trial","32","true","0.8,0.2","1:go_a","",""
"null","","html-keyboard-response","392","819546","0.0-6.0-1.57","","<img src=""img/red-n.png"" border=""10"">","null","trial","32","","0.8,0.2","1:go_a","0",""
"null","","html-keyboard-response","393","820565","0.0-6.0-2.57","","<div style=""font-size:60px;"">+</div>","null","","","","","","",""
"null","","image-keyboard-response","394","822069","0.0-6.0-0.58","","img/green.png","null","trial","null","true","0.2,0.8","2:nogo_b","",""
"null","","html-keyboard-response","395","823087","0.0-6.0-1.58","","<img src=""img/green-r.png"">","null","trial","null","","0.2,0.8","2:nogo_b","1",""
"null","","html-keyboard-response","396","824097","0.0-6.0-2.58","","<div style=""font-size:60px;"">+</div>","null","","","","","","",""
"449.0900000091642","","image-keyboard-response","397","824548","0.0-6.0-0.59","","img/pink.png","32","trial","null","false","0,1","4:nogo_d","",""
"null","","html-keyboard-response","398","825563","0.0-6.0-1.59","","<img src=""img/pink-n.png"" border=""10"">","null","trial","null","","0,1","4:nogo_d","0",""
"null","","html-keyboard-response","399","826567","0.0-6.0-2.59","","<div style=""font-size:60px;"">+</div>","null","","","","","","",""
"null","","image-keyboard-response","400","828070","0.0-6.0-0.60","","img/pink.png","null","trial","null","true","0,1","4:nogo_d","",""
"null","","html-keyboard-response","401","829080","0.0-6.0-1.60","","<img src=""img/pink-r.png"">","null","trial","null","","0,1","4:nogo_d","1",""
"null","","html-keyboard-response","402","830087","0.0-6.0-2.60","","<div style=""font-size:60px;"">+</div>","null","","","","","","",""
"null","","image-keyboard-response","403","831599","0.0-6.0-0.61","","img/green.png","null","trial","null","true","0.2,0.8","2:nogo_b","",""
"null","","html-keyboard-response","404","832607","0.0-6.0-1.61","","<img src=""img/green-r.png"">","null","trial","null","","0.2,0.8","2:nogo_b","1",""
"null","","html-keyboard-response","405","833625","0.0-6.0-2.61","","<div style=""font-size:60px;"">+</div>","null","","","","","","",""
"322.8800000069896","","image-keyboard-response","406","833954","0.0-6.0-0.62","","img/orange.png","32","trial","32","true","1,0","3:go_c","",""
"null","","html-keyboard-response","407","834967","0.0-6.0-1.62","","<img src=""img/orange-r.png"" border=""10"">","null","trial","32","","1,0","3:go_c","1",""
"null","","html-keyboard-response","408","835988","0.0-6.0-2.62","","<div style=""font-size:60px;"">+</div>","null","","","","","","",""
"705.6749999901513","","image-keyboard-response","409","836695","0.0-6.0-0.63","","img/red.png","32","trial","32","true","0.8,0.2","1:go_a","",""
"null","","html-keyboard-response","410","837709","0.0-6.0-1.63","","<img src=""img/red-r.png"" border=""10"">","null","trial","32","","0.8,0.2","1:go_a","1",""
"null","","html-keyboard-response","411","838713","0.0-6.0-2.63","","<div style=""font-size:60px;"">+</div>","null","","","","","","",""
"null","","image-keyboard-response","412","840228","0.0-6.0-0.64","","img/green.png","null","trial","null","true","0.2,0.8","2:nogo_b","",""
"null","","html-keyboard-response","413","841237","0.0-6.0-1.64","","<img src=""img/green-r.png"">","null","trial","null","","0.2,0.8","2:nogo_b","1",""
"null","","html-keyboard-response","414","842246","0.0-6.0-2.64","","<div style=""font-size:60px;"">+</div>","null","","","","","","",""
"656.2249999988126","","image-keyboard-response","415","842904","0.0-6.0-0.65","","img/red.png","32","trial","32","true","0.8,0.2","1:go_a","",""
"null","","html-keyboard-response","416","843924","0.0-6.0-1.65","","<img src=""img/red-r.png"" border=""10"">","null","trial","32","","0.8,0.2","1:go_a","1",""
"null","","html-keyboard-response","417","844932","0.0-6.0-2.65","","<div style=""font-size:60px;"">+</div>","null","","","","","","",""
"null","","image-keyboard-response","418","846444","0.0-6.0-0.66","","img/pink.png","null","trial","null","true","0,1","4:nogo_d","",""
"null","","html-keyboard-response","419","847448","0.0-6.0-1.66","","<img src=""img/pink-r.png"">","null","trial","null","","0,1","4:nogo_d","1",""
"null","","html-keyboard-response","420","848466","0.0-6.0-2.66","","<div style=""font-size:60px;"">+</div>","null","","","","","","",""
"452.6449999975739","","image-keyboard-response","421","848920","0.0-6.0-0.67","","img/orange.png","32","trial","32","true","1,0","3:go_c","",""
"null","","html-keyboard-response","422","849935","0.0-6.0-1.67","","<img src=""img/orange-r.png"" border=""10"">","null","trial","32","","1,0","3:go_c","1",""
"null","","html-keyboard-response","423","850951","0.0-6.0-2.67","","<div style=""font-size:60px;"">+</div>","null","","","","","","",""
"682.1800000034273","","image-keyboard-response","424","851635","0.0-6.0-0.68","","img/red.png","32","trial","32","true","0.8,0.2","1:go_a","",""
"null","","html-keyboard-response","425","852654","0.0-6.0-1.68","","<img src=""img/red-r.png"" border=""10"">","null","trial","32","","0.8,0.2","1:go_a","1",""
"null","","html-keyboard-response","426","853673","0.0-6.0-2.68","","<div style=""font-size:60px;"">+</div>","null","","","","","","",""
"null","","image-keyboard-response","427","855186","0.0-6.0-0.69","","img/pink.png","null","trial","null","true","0,1","4:nogo_d","",""
"null","","html-keyboard-response","428","856194","0.0-6.0-1.69","","<img src=""img/pink-r.png"">","null","trial","null","","0,1","4:nogo_d","1",""
"null","","html-keyboard-response","429","857199","0.0-6.0-2.69","","<div style=""font-size:60px;"">+</div>","null","","","","","","",""
"556.2899999931687","","image-keyboard-response","430","857757","0.0-6.0-0.70","","img/orange.png","32","trial","32","true","1,0","3:go_c","",""
"null","","html-keyboard-response","431","858764","0.0-6.0-1.70","","<img src=""img/orange-r.png"" border=""10"">","null","trial","32","","1,0","3:go_c","1",""
"null","","html-keyboard-response","432","859772","0.0-6.0-2.70","","<div style=""font-size:60px;"">+</div>","null","","","","","","",""
"null","","image-keyboard-response","433","861287","0.0-6.0-0.71","","img/green.png","null","trial","null","true","0.2,0.8","2:nogo_b","",""
"null","","html-keyboard-response","434","862302","0.0-6.0-1.71","","<img src=""img/green-r.png"">","null","trial","null","","0.2,0.8","2:nogo_b","1",""
"null","","html-keyboard-response","435","863321","0.0-6.0-2.71","","<div style=""font-size:60px;"">+</div>","null","","","","","","",""
"660.5600000038976","","image-keyboard-response","436","863984","0.0-6.0-0.72","","img/red.png","32","trial","32","true","0.8,0.2","1:go_a","",""
"null","","html-keyboard-response","437","865001","0.0-6.0-1.72","","<img src=""img/red-r.png"" border=""10"">","null","trial","32","","0.8,0.2","1:go_a","1",""
"null","","html-keyboard-response","438","866004","0.0-6.0-2.72","","<div style=""font-size:60px;"">+</div>","null","","","","","","",""
"null","","image-keyboard-response","439","867508","0.0-6.0-0.73","","img/green.png","null","trial","null","true","0.2,0.8","2:nogo_b","",""
"null","","html-keyboard-response","440","868514","0.0-6.0-1.73","","<img src=""img/green-r.png"">","null","trial","null","","0.2,0.8","2:nogo_b","1",""
"null","","html-keyboard-response","441","869517","0.0-6.0-2.73","","<div style=""font-size:60px;"">+</div>","null","","","","","","",""
"461.395000005723","","image-keyboard-response","442","869981","0.0-6.0-0.74","","img/orange.png","32","trial","32","true","1,0","3:go_c","",""
"null","","html-keyboard-response","443","870990","0.0-6.0-1.74","","<img src=""img/orange-r.png"" border=""10"">","null","trial","32","","1,0","3:go_c","1",""
"null","","html-keyboard-response","444","872054","0.0-6.0-2.74","","<div style=""font-size:60px;"">+</div>","null","","","","","","",""
"null","","image-keyboard-response","445","873570","0.0-6.0-0.75","","img/pink.png","null","trial","null","true","0,1","4:nogo_d","",""
"null","","html-keyboard-response","446","874580","0.0-6.0-1.75","","<img src=""img/pink-r.png"">","null","trial","null","","0,1","4:nogo_d","1",""
"null","","html-keyboard-response","447","875599","0.0-6.0-2.75","","<div style=""font-size:60px;"">+</div>","null","","","","","","",""
"null","","image-keyboard-response","448","877107","0.0-6.0-0.76","","img/green.png","null","trial","null","true","0.2,0.8","2:nogo_b","",""
"null","","html-keyboard-response","449","878116","0.0-6.0-1.76","","<img src=""img/green-r.png"">","null","trial","null","","0.2,0.8","2:nogo_b","1",""
"null","","html-keyboard-response","450","879121","0.0-6.0-2.76","","<div style=""font-size:60px;"">+</div>","null","","","","","","",""
"569.2899999994552","","image-keyboard-response","451","879692","0.0-6.0-0.77","","img/red.png","32","trial","32","true","0.8,0.2","1:go_a","",""
"null","","html-keyboard-response","452","880715","0.0-6.0-1.77","","<img src=""img/red-n.png"" border=""10"">","null","trial","32","","0.8,0.2","1:go_a","0",""
"null","","html-keyboard-response","453","881734","0.0-6.0-2.77","","<div style=""font-size:60px;"">+</div>","null","","","","","","",""
"605.7849999924656","","image-keyboard-response","454","882341","0.0-6.0-0.78","","img/orange.png","32","trial","32","true","1,0","3:go_c","",""
"null","","html-keyboard-response","455","883363","0.0-6.0-1.78","","<img src=""img/orange-r.png"" border=""10"">","null","trial","32","","1,0","3:go_c","1",""
"null","","html-keyboard-response","456","884369","0.0-6.0-2.78","","<div style=""font-size:60px;"">+</div>","null","","","","","","",""
"null","","image-keyboard-response","457","885877","0.0-6.0-0.79","","img/pink.png","null","trial","null","true","0,1","4:nogo_d","",""
"null","","html-keyboard-response","458","886896","0.0-6.0-1.79","","<img src=""img/pink-r.png"">","null","trial","null","","0,1","4:nogo_d","1",""
"null","","html-keyboard-response","459","887905","0.0-6.0-2.79","","<div style=""font-size:60px;"">+</div>","null","","","","","","",""
"null","","image-keyboard-response","460","889425","0.0-6.0-0.80","","img/pink.png","null","trial","null","true","0,1","4:nogo_d","",""
"null","","html-keyboard-response","461","890439","0.0-6.0-1.80","","<img src=""img/pink-r.png"">","null","trial","null","","0,1","4:nogo_d","1",""
"null","","html-keyboard-response","462","891477","0.0-6.0-2.80","","<div style=""font-size:60px;"">+</div>","null","","","","","","",""
"609.1499999893131","","image-keyboard-response","463","892089","0.0-6.0-0.81","","img/green.png","32","trial","null","false","0.2,0.8","2:nogo_b","",""
"null","","html-keyboard-response","464","893096","0.0-6.0-1.81","","<img src=""img/green-r.png"" border=""10"">","null","trial","null","","0.2,0.8","2:nogo_b","1",""
"null","","html-keyboard-response","465","894117","0.0-6.0-2.81","","<div style=""font-size:60px;"">+</div>","null","","","","","","",""
"613.0899999989197","","image-keyboard-response","466","894732","0.0-6.0-0.82","","img/orange.png","32","trial","32","true","1,0","3:go_c","",""
"null","","html-keyboard-response","467","895742","0.0-6.0-1.82","","<img src=""img/orange-r.png"" border=""10"">","null","trial","32","","1,0","3:go_c","1",""
"null","","html-keyboard-response","468","896758","0.0-6.0-2.82","","<div style=""font-size:60px;"">+</div>","null","","","","","","",""
"438.7400000123307","","image-keyboard-response","469","897201","0.0-6.0-0.83","","img/red.png","32","trial","32","true","0.8,0.2","1:go_a","",""
"null","","html-keyboard-response","470","898221","0.0-6.0-1.83","","<img src=""img/red-r.png"" border=""10"">","null","trial","32","","0.8,0.2","1:go_a","1",""
"null","","html-keyboard-response","471","899230","0.0-6.0-2.83","","<div style=""font-size:60px;"">+</div>","null","","","","","","",""
"572.3950000101468","","image-keyboard-response","472","899806","0.0-6.0-0.84","","img/orange.png","32","trial","32","true","1,0","3:go_c","",""
"null","","html-keyboard-response","473","900820","0.0-6.0-1.84","","<img src=""img/orange-r.png"" border=""10"">","null","trial","32","","1,0","3:go_c","1",""
"null","","html-keyboard-response","474","901836","0.0-6.0-2.84","","<div style=""font-size:60px;"">+</div>","null","","","","","","",""
"null","","image-keyboard-response","475","903352","0.0-6.0-0.85","","img/pink.png","null","trial","null","true","0,1","4:nogo_d","",""
"null","","html-keyboard-response","476","904357","0.0-6.0-1.85","","<img src=""img/pink-r.png"">","null","trial","null","","0,1","4:nogo_d","1",""
"null","","html-keyboard-response","477","905362","0.0-6.0-2.85","","<div style=""font-size:60px;"">+</div>","null","","","","","","",""
"547.5750000041444","","image-keyboard-response","478","905911","0.0-6.0-0.86","","img/red.png","32","trial","32","true","0.8,0.2","1:go_a","",""
"null","","html-keyboard-response","479","906928","0.0-6.0-1.86","","<img src=""img/red-r.png"" border=""10"">","null","trial","32","","0.8,0.2","1:go_a","1",""
"null","","html-keyboard-response","480","907947","0.0-6.0-2.86","","<div style=""font-size:60px;"">+</div>","null","","","","","","",""
"490.814999997383","","image-keyboard-response","481","908439","0.0-6.0-0.87","","img/green.png","32","trial","null","false","0.2,0.8","2:nogo_b","",""
"null","","html-keyboard-response","482","909459","0.0-6.0-1.87","","<img src=""img/green-n.png"" border=""10"">","null","trial","null","","0.2,0.8","2:nogo_b","0",""
"null","","html-keyboard-response","483","910477","0.0-6.0-2.87","","<div style=""font-size:60px;"">+</div>","null","","","","","","",""
"null","","image-keyboard-response","484","911995","0.0-6.0-0.88","","img/pink.png","null","trial","null","true","0,1","4:nogo_d","",""
"null","","html-keyboard-response","485","913017","0.0-6.0-1.88","","<img src=""img/pink-r.png"">","null","trial","null","","0,1","4:nogo_d","1",""
"null","","html-keyboard-response","486","914034","0.0-6.0-2.88","","<div style=""font-size:60px;"">+</div>","null","","","","","","",""
"446.48500000766944","","image-keyboard-response","487","914482","0.0-6.0-0.89","","img/orange.png","32","trial","32","true","1,0","3:go_c","",""
"null","","html-keyboard-response","488","915489","0.0-6.0-1.89","","<img src=""img/orange-r.png"" border=""10"">","null","trial","32","","1,0","3:go_c","1",""
"null","","html-keyboard-response","489","916493","0.0-6.0-2.89","","<div style=""font-size:60px;"">+</div>","null","","","","","","",""
"1020.2299999946263","","image-keyboard-response","490","917515","0.0-6.0-0.90","","img/red.png","32","trial","32","true","0.8,0.2","1:go_a","",""
"null","","html-keyboard-response","491","918534","0.0-6.0-1.90","","<img src=""img/red-n.png"" border=""10"">","null","trial","32","","0.8,0.2","1:go_a","0",""
"null","","html-keyboard-response","492","919552","0.0-6.0-2.90","","<div style=""font-size:60px;"">+</div>","null","","","","","","",""
"669.3650000088383","","image-keyboard-response","493","920223","0.0-6.0-0.91","","img/green.png","32","trial","null","false","0.2,0.8","2:nogo_b","",""
"null","","html-keyboard-response","494","921233","0.0-6.0-1.91","","<img src=""img/green-n.png"" border=""10"">","null","trial","null","","0.2,0.8","2:nogo_b","0",""
"null","","html-keyboard-response","495","922238","0.0-6.0-2.91","","<div style=""font-size:60px;"">+</div>","null","","","","","","",""
"null","","image-keyboard-response","496","923749","0.0-6.0-0.92","","img/pink.png","null","trial","null","true","0,1","4:nogo_d","",""
"null","","html-keyboard-response","497","924754","0.0-6.0-1.92","","<img src=""img/pink-r.png"">","null","trial","null","","0,1","4:nogo_d","1",""
"null","","html-keyboard-response","498","925766","0.0-6.0-2.92","","<div style=""font-size:60px;"">+</div>","null","","","","","","",""
"686.6600000066683","","image-keyboard-response","499","926455","0.0-6.0-0.93","","img/green.png","32","trial","null","false","0.2,0.8","2:nogo_b","",""
"null","","html-keyboard-response","500","927471","0.0-6.0-1.93","","<img src=""img/green-n.png"" border=""10"">","null","trial","null","","0.2,0.8","2:nogo_b","0",""
"null","","html-keyboard-response","501","928491","0.0-6.0-2.93","","<div style=""font-size:60px;"">+</div>","null","","","","","","",""
"564.2800000059651","","image-keyboard-response","502","929058","0.0-6.0-0.94","","img/red.png","32","trial","32","true","0.8,0.2","1:go_a","",""
"null","","html-keyboard-response","503","930065","0.0-6.0-1.94","","<img src=""img/red-r.png"" border=""10"">","null","trial","32","","0.8,0.2","1:go_a","1",""
"null","","html-keyboard-response","504","931068","0.0-6.0-2.94","","<div style=""font-size:60px;"">+</div>","null","","","","","","",""
"607.6150000008056","","image-keyboard-response","505","931682","0.0-6.0-0.95","","img/orange.png","32","trial","32","true","1,0","3:go_c","",""
"null","","html-keyboard-response","506","932695","0.0-6.0-1.95","","<img src=""img/orange-r.png"" border=""10"">","null","trial","32","","1,0","3:go_c","1",""
"null","","html-keyboard-response","507","933714","0.0-6.0-2.95","","<div style=""font-size:60px;"">+</div>","null","","","","","","",""
"630.0650000048336","","image-keyboard-response","508","934346","0.0-6.0-0.96","","img/orange.png","32","trial","32","true","1,0","3:go_c","",""
"null","","html-keyboard-response","509","935367","0.0-6.0-1.96","","<img src=""img/orange-r.png"" border=""10"">","null","trial","32","","1,0","3:go_c","1",""
"null","","html-keyboard-response","510","936371","0.0-6.0-2.96","","<div style=""font-size:60px;"">+</div>","null","","","","","","",""
"null","","image-keyboard-response","511","937886","0.0-6.0-0.97","","img/pink.png","null","trial","null","true","0,1","4:nogo_d","",""
"null","","html-keyboard-response","512","938892","0.0-6.0-1.97","","<img src=""img/pink-r.png"">","null","trial","null","","0,1","4:nogo_d","1",""
"null","","html-keyboard-response","513","939895","0.0-6.0-2.97","","<div style=""font-size:60px;"">+</div>","null","","","","","","",""
"469.4149999995716","","image-keyboard-response","514","940367","0.0-6.0-0.98","","img/red.png","32","trial","32","true","0.8,0.2","1:go_a","",""
"null","","html-keyboard-response","515","941380","0.0-6.0-1.98","","<img src=""img/red-r.png"" border=""10"">","null","trial","32","","0.8,0.2","1:go_a","1",""
"null","","html-keyboard-response","516","942400","0.0-6.0-2.98","","<div style=""font-size:60px;"">+</div>","null","","","","","","",""
"635.6450000021141","","image-keyboard-response","517","943037","0.0-6.0-0.99","","img/green.png","32","trial","null","false","0.2,0.8","2:nogo_b","",""
"null","","html-keyboard-response","518","944056","0.0-6.0-1.99","","<img src=""img/green-n.png"" border=""10"">","null","trial","null","","0.2,0.8","2:nogo_b","0",""
"null","","html-keyboard-response","519","945070","0.0-6.0-2.99","","<div style=""font-size:60px;"">+</div>","null","","","","","","",""
"504.13500001013745","","image-keyboard-response","520","945575","0.0-6.0-0.100","","img/green.png","32","trial","null","false","0.2,0.8","2:nogo_b","",""
"null","","html-keyboard-response","521","946582","0.0-6.0-1.100","","<img src=""img/green-n.png"" border=""10"">","null","trial","null","","0.2,0.8","2:nogo_b","0",""
"null","","html-keyboard-response","522","947590","0.0-6.0-2.100","","<div style=""font-size:60px;"">+</div>","null","","","","","","",""
"511.33500000287313","","image-keyboard-response","523","948103","0.0-6.0-0.101","","img/pink.png","32","trial","null","false","0,1","4:nogo_d","",""
"null","","html-keyboard-response","524","949120","0.0-6.0-1.101","","<img src=""img/pink-n.png"" border=""10"">","null","trial","null","","0,1","4:nogo_d","0",""
"null","","html-keyboard-response","525","950138","0.0-6.0-2.101","","<div style=""font-size:60px;"">+</div>","null","","","","","","",""
"632.4649999878602","","image-keyboard-response","526","950772","0.0-6.0-0.102","","img/orange.png","32","trial","32","true","1,0","3:go_c","",""
"null","","html-keyboard-response","527","951783","0.0-6.0-1.102","","<img src=""img/orange-r.png"" border=""10"">","null","trial","32","","1,0","3:go_c","1",""
"null","","html-keyboard-response","528","952798","0.0-6.0-2.102","","<div style=""font-size:60px;"">+</div>","null","","","","","","",""
"631.0650000086753","","image-keyboard-response","529","953430","0.0-6.0-0.103","","img/red.png","32","trial","32","true","0.8,0.2","1:go_a","",""
"null","","html-keyboard-response","530","954440","0.0-6.0-1.103","","<img src=""img/red-r.png"" border=""10"">","null","trial","32","","0.8,0.2","1:go_a","1",""
"null","","html-keyboard-response","531","955455","0.0-6.0-2.103","","<div style=""font-size:60px;"">+</div>","null","","","","","","",""
"519.0250000014203","","image-keyboard-response","532","955975","0.0-6.0-0.104","","img/red.png","32","trial","32","true","0.8,0.2","1:go_a","",""
"null","","html-keyboard-response","533","956992","0.0-6.0-1.104","","<img src=""img/red-r.png"" border=""10"">","null","trial","32","","0.8,0.2","1:go_a","1",""
"null","","html-keyboard-response","534","958011","0.0-6.0-2.104","","<div style=""font-size:60px;"">+</div>","null","","","","","","",""
"490.910000007716","","image-keyboard-response","535","958505","0.0-6.0-0.105","","img/orange.png","32","trial","32","true","1,0","3:go_c","",""
"null","","html-keyboard-response","536","959512","0.0-6.0-1.105","","<img src=""img/orange-r.png"" border=""10"">","null","trial","32","","1,0","3:go_c","1",""
"null","","html-keyboard-response","537","960518","0.0-6.0-2.105","","<div style=""font-size:60px;"">+</div>","null","","","","","","",""
"null","","image-keyboard-response","538","962035","0.0-6.0-0.106","","img/pink.png","null","trial","null","true","0,1","4:nogo_d","",""
"null","","html-keyboard-response","539","963041","0.0-6.0-1.106","","<img src=""img/pink-r.png"">","null","trial","null","","0,1","4:nogo_d","1",""
"null","","html-keyboard-response","540","964058","0.0-6.0-2.106","","<div style=""font-size:60px;"">+</div>","null","","","","","","",""
"466.26000000105705","","image-keyboard-response","541","964526","0.0-6.0-0.107","","img/green.png","32","trial","null","false","0.2,0.8","2:nogo_b","",""
"null","","html-keyboard-response","542","965546","0.0-6.0-1.107","","<img src=""img/green-n.png"" border=""10"">","null","trial","null","","0.2,0.8","2:nogo_b","0",""
"null","","html-keyboard-response","543","966553","0.0-6.0-2.107","","<div style=""font-size:60px;"">+</div>","null","","","","","","",""
"null","","image-keyboard-response","544","968063","0.0-6.0-0.108","","img/pink.png","null","trial","null","true","0,1","4:nogo_d","",""
"null","","html-keyboard-response","545","969069","0.0-6.0-1.108","","<img src=""img/pink-r.png"">","null","trial","null","","0,1","4:nogo_d","1",""
"null","","html-keyboard-response","546","970080","0.0-6.0-2.108","","<div style=""font-size:60px;"">+</div>","null","","","","","","",""
"505.5599999905098","","image-keyboard-response","547","970586","0.0-6.0-0.109","","img/orange.png","32","trial","32","true","1,0","3:go_c","",""
"null","","html-keyboard-response","548","971594","0.0-6.0-1.109","","<img src=""img/orange-r.png"" border=""10"">","null","trial","32","","1,0","3:go_c","1",""
"null","","html-keyboard-response","549","972617","0.0-6.0-2.109","","<div style=""font-size:60px;"">+</div>","null","","","","","","",""
"656.4700000017183","","image-keyboard-response","550","973276","0.0-6.0-0.110","","img/green.png","32","trial","null","false","0.2,0.8","2:nogo_b","",""
"null","","html-keyboard-response","551","974283","0.0-6.0-1.110","","<img src=""img/green-n.png"" border=""10"">","null","trial","null","","0.2,0.8","2:nogo_b","0",""
"null","","html-keyboard-response","552","975287","0.0-6.0-2.110","","<div style=""font-size:60px;"">+</div>","null","","","","","","",""
"661.420000004","","image-keyboard-response","553","975950","0.0-6.0-0.111","","img/red.png","32","trial","32","true","0.8,0.2","1:go_a","",""
"null","","html-keyboard-response","554","976964","0.0-6.0-1.111","","<img src=""img/red-n.png"" border=""10"">","null","trial","32","","0.8,0.2","1:go_a","0",""
"null","","html-keyboard-response","555","977980","0.0-6.0-2.111","","<div style=""font-size:60px;"">+</div>","null","","","","","","",""
"710.4749999998603","","image-keyboard-response","556","978693","0.0-6.0-0.112","","img/pink.png","32","trial","null","false","0,1","4:nogo_d","",""
"null","","html-keyboard-response","557","979698","0.0-6.0-1.112","","<img src=""img/pink-n.png"" border=""10"">","null","trial","null","","0,1","4:nogo_d","0",""
"null","","html-keyboard-response","558","980704","0.0-6.0-2.112","","<div style=""font-size:60px;"">+</div>","null","","","","","","",""
"550.9599999932107","","image-keyboard-response","559","981258","0.0-6.0-0.113","","img/orange.png","32","trial","32","true","1,0","3:go_c","",""
"null","","html-keyboard-response","560","982279","0.0-6.0-1.113","","<img src=""img/orange-r.png"" border=""10"">","null","trial","32","","1,0","3:go_c","1",""
"null","","html-keyboard-response","561","983292","0.0-6.0-2.113","","<div style=""font-size:60px;"">+</div>","null","","","","","","",""
"705.774999994901","","image-keyboard-response","562","983999","0.0-6.0-0.114","","img/red.png","32","trial","32","true","0.8,0.2","1:go_a","",""
"null","","html-keyboard-response","563","985007","0.0-6.0-1.114","","<img src=""img/red-r.png"" border=""10"">","null","trial","32","","0.8,0.2","1:go_a","1",""
"null","","html-keyboard-response","564","986017","0.0-6.0-2.114","","<div style=""font-size:60px;"">+</div>","null","","","","","","",""
"731.3299999950686","","image-keyboard-response","565","986750","0.0-6.0-0.115","","img/green.png","32","trial","null","false","0.2,0.8","2:nogo_b","",""
"null","","html-keyboard-response","566","987761","0.0-6.0-1.115","","<img src=""img/green-n.png"" border=""10"">","null","trial","null","","0.2,0.8","2:nogo_b","0",""
"null","","html-keyboard-response","567","988786","0.0-6.0-2.115","","<div style=""font-size:60px;"">+</div>","null","","","","","","",""
"520.1299999898765","","image-keyboard-response","568","989308","0.0-6.0-0.116","","img/orange.png","32","trial","32","true","1,0","3:go_c","",""
"null","","html-keyboard-response","569","990315","0.0-6.0-1.116","","<img src=""img/orange-r.png"" border=""10"">","null","trial","32","","1,0","3:go_c","1",""
"null","","html-keyboard-response","570","991322","0.0-6.0-2.116","","<div style=""font-size:60px;"">+</div>","null","","","","","","",""
"null","","image-keyboard-response","571","992836","0.0-6.0-0.117","","img/pink.png","null","trial","null","true","0,1","4:nogo_d","",""
"null","","html-keyboard-response","572","993845","0.0-6.0-1.117","","<img src=""img/pink-r.png"">","null","trial","null","","0,1","4:nogo_d","1",""
"null","","html-keyboard-response","573","994849","0.0-6.0-2.117","","<div style=""font-size:60px;"">+</div>","null","","","","","","",""
"908.6549999919953","","image-keyboard-response","574","995759","0.0-6.0-0.118","","img/red.png","32","trial","32","true","0.8,0.2","1:go_a","",""
"null","","html-keyboard-response","575","996782","0.0-6.0-1.118","","<img src=""img/red-r.png"" border=""10"">","null","trial","32","","0.8,0.2","1:go_a","1",""
"null","","html-keyboard-response","576","997787","0.0-6.0-2.118","","<div style=""font-size:60px;"">+</div>","null","","","","","","",""
"null","","image-keyboard-response","577","999301","0.0-6.0-0.119","","img/green.png","null","trial","null","true","0.2,0.8","2:nogo_b","",""
"null","","html-keyboard-response","578","1000319","0.0-6.0-1.119","","<img src=""img/green-r.png"">","null","trial","null","","0.2,0.8","2:nogo_b","1",""
"null","","html-keyboard-response","579","1001333","0.0-6.0-2.119","","<div style=""font-size:60px;"">+</div>","null","","","","","","",""
"3393.6499999981606","","instructions","580","1004728","0.0-7.0","[{""page_index"":0,""viewing_time"":3393.2199999981094}]","","","","","","","","",""
"608.8799999997718","","image-keyboard-response","581","1005341","0.0-8.0-0.0","","img/green.png","32","trial","null","false","0.2,0.8","2:nogo_b","",""
"null","","html-keyboard-response","582","1006370","0.0-8.0-1.0","","<img src=""img/green-n.png"" border=""10"">","null","trial","null","","0.2,0.8","2:nogo_b","0",""
"null","","html-keyboard-response","583","1007382","0.0-8.0-2.0","","<div style=""font-size:60px;"">+</div>","null","","","","","","",""
"430.9300000022631","","image-keyboard-response","584","1007816","0.0-8.0-0.1","","img/orange.png","32","trial","32","true","0.8,0.2","1:go_a","",""
"null","","html-keyboard-response","585","1008839","0.0-8.0-1.1","","<img src=""img/orange-r.png"" border=""10"">","null","trial","32","","0.8,0.2","1:go_a","1",""
"null","","html-keyboard-response","586","1009855","0.0-8.0-2.1","","<div style=""font-size:60px;"">+</div>","null","","","","","","",""
"412.9150000080699","","image-keyboard-response","587","1010270","0.0-8.0-0.2","","img/blue.png","32","trial","32","true","0.8,0.2","3:go_c","",""
"null","","html-keyboard-response","588","1011278","0.0-8.0-1.2","","<img src=""img/blue-r.png"" border=""10"">","null","trial","32","","0.8,0.2","3:go_c","1",""
"null","","html-keyboard-response","589","1012284","0.0-8.0-2.2","","<div style=""font-size:60px;"">+</div>","null","","","","","","",""
"571.4900000020862","","image-keyboard-response","590","1012861","0.0-8.0-0.3","","img/yellow.png","32","trial","null","false","0.2,0.8","4:nogo_d","",""
"null","","html-keyboard-response","591","1013878","0.0-8.0-1.3","","<img src=""img/yellow-n.png"" border=""10"">","null","trial","null","","0.2,0.8","4:nogo_d","0",""
"null","","html-keyboard-response","592","1014899","0.0-8.0-2.3","","<div style=""font-size:60px;"">+</div>","null","","","","","","",""
"590.6300000060583","","image-keyboard-response","593","1015491","0.0-8.0-0.4","","img/blue.png","32","trial","32","true","0.8,0.2","3:go_c","",""
"null","","html-keyboard-response","594","1016507","0.0-8.0-1.4","","<img src=""img/blue-n.png"" border=""10"">","null","trial","32","","0.8,0.2","3:go_c","0",""
"null","","html-keyboard-response","595","1017523","0.0-8.0-2.4","","<div style=""font-size:60px;"">+</div>","null","","","","","","",""
"722.7550000097835","","image-keyboard-response","596","1018248","0.0-8.0-0.5","","img/green.png","32","trial","null","false","0.2,0.8","2:nogo_b","",""
"null","","html-keyboard-response","597","1019275","0.0-8.0-1.5","","<img src=""img/green-n.png"" border=""10"">","null","trial","null","","0.2,0.8","2:nogo_b","0",""
"null","","html-keyboard-response","598","1020294","0.0-8.0-2.5","","<div style=""font-size:60px;"">+</div>","null","","","","","","",""
"532.4600000021746","","image-keyboard-response","599","1020828","0.0-8.0-0.6","","img/yellow.png","32","trial","null","false","0.2,0.8","4:nogo_d","",""
"null","","html-keyboard-response","600","1021844","0.0-8.0-1.6","","<img src=""img/yellow-n.png"" border=""10"">","null","trial","null","","0.2,0.8","4:nogo_d","0",""
"null","","html-keyboard-response","601","1022847","0.0-8.0-2.6","","<div style=""font-size:60px;"">+</div>","null","","","","","","",""
"450.68999999784864","","image-keyboard-response","602","1023300","0.0-8.0-0.7","","img/orange.png","32","trial","32","true","0.8,0.2","1:go_a","",""
"null","","html-keyboard-response","603","1024305","0.0-8.0-1.7","","<img src=""img/orange-n.png"" border=""10"">","null","trial","32","","0.8,0.2","1:go_a","0",""
"null","","html-keyboard-response","604","1025314","0.0-8.0-2.7","","<div style=""font-size:60px;"">+</div>","null","","","","","","",""
"462.9950000089593","","image-keyboard-response","605","1025779","0.0-8.0-0.8","","img/orange.png","32","trial","32","true","0.8,0.2","1:go_a","",""
"null","","html-keyboard-response","606","1026802","0.0-8.0-1.8","","<img src=""img/orange-n.png"" border=""10"">","null","trial","32","","0.8,0.2","1:go_a","0",""
"null","","html-keyboard-response","607","1027821","0.0-8.0-2.8","","<div style=""font-size:60px;"">+</div>","null","","","","","","",""
"400.98000000580214","","image-keyboard-response","608","1028224","0.0-8.0-0.9","","img/green.png","32","trial","null","false","0.2,0.8","2:nogo_b","",""
"null","","html-keyboard-response","609","1029239","0.0-8.0-1.9","","<img src=""img/green-n.png"" border=""10"">","null","trial","null","","0.2,0.8","2:nogo_b","0",""
"null","","html-keyboard-response","610","1030259","0.0-8.0-2.9","","<div style=""font-size:60px;"">+</div>","null","","","","","","",""
"541.2849999993341","","image-keyboard-response","611","1030803","0.0-8.0-0.10","","img/blue.png","32","trial","32","true","0.8,0.2","3:go_c","",""
"null","","html-keyboard-response","612","1031825","0.0-8.0-1.10","","<img src=""img/blue-r.png"" border=""10"">","null","trial","32","","0.8,0.2","3:go_c","1",""
"null","","html-keyboard-response","613","1032841","0.0-8.0-2.10","","<div style=""font-size:60px;"">+</div>","null","","","","","","",""
"null","","image-keyboard-response","614","1034353","0.0-8.0-0.11","","img/yellow.png","null","trial","null","true","0.2,0.8","4:nogo_d","",""
"null","","html-keyboard-response","615","1035359","0.0-8.0-1.11","","<img src=""img/yellow-n.png"">","null","trial","null","","0.2,0.8","4:nogo_d","0",""
"null","","html-keyboard-response","616","1036367","0.0-8.0-2.11","","<div style=""font-size:60px;"">+</div>","null","","","","","","",""
"468.0450000014389","","image-keyboard-response","617","1036838","0.0-8.0-0.12","","img/orange.png","32","trial","32","true","0.8,0.2","1:go_a","",""
"null","","html-keyboard-response","618","1037855","0.0-8.0-1.12","","<img src=""img/orange-r.png"" border=""10"">","null","trial","32","","0.8,0.2","1:go_a","1",""
"null","","html-keyboard-response","619","1038860","0.0-8.0-2.12","","<div style=""font-size:60px;"">+</div>","null","","","","","","",""
"470.18499999830965","","image-keyboard-response","620","1039332","0.0-8.0-0.13","","img/blue.png","32","trial","32","true","0.8,0.2","3:go_c","",""
"null","","html-keyboard-response","621","1040350","0.0-8.0-1.13","","<img src=""img/blue-r.png"" border=""10"">","null","trial","32","","0.8,0.2","3:go_c","1",""
"null","","html-keyboard-response","622","1041352","0.0-8.0-2.13","","<div style=""font-size:60px;"">+</div>","null","","","","","","",""
"null","","image-keyboard-response","623","1042867","0.0-8.0-0.14","","img/green.png","null","trial","null","true","0.2,0.8","2:nogo_b","",""
"null","","html-keyboard-response","624","1043878","0.0-8.0-1.14","","<img src=""img/green-r.png"">","null","trial","null","","0.2,0.8","2:nogo_b","1",""
"null","","html-keyboard-response","625","1044900","0.0-8.0-2.14","","<div style=""font-size:60px;"">+</div>","null","","","","","","",""
"null","","image-keyboard-response","626","1046413","0.0-8.0-0.15","","img/yellow.png","null","trial","null","true","0.2,0.8","4:nogo_d","",""
"null","","html-keyboard-response","627","1047422","0.0-8.0-1.15","","<img src=""img/yellow-n.png"">","null","trial","null","","0.2,0.8","4:nogo_d","0",""
"null","","html-keyboard-response","628","1048434","0.0-8.0-2.15","","<div style=""font-size:60px;"">+</div>","null","","","","","","",""
"null","","image-keyboard-response","629","1049949","0.0-8.0-0.16","","img/yellow.png","null","trial","null","true","0.2,0.8","4:nogo_d","",""
"null","","html-keyboard-response","630","1050956","0.0-8.0-1.16","","<img src=""img/yellow-r.png"">","null","trial","null","","0.2,0.8","4:nogo_d","1",""
"null","","html-keyboard-response","631","1051964","0.0-8.0-2.16","","<div style=""font-size:60px;"">+</div>","null","","","","","","",""
"517.305000001099","","image-keyboard-response","632","1052485","0.0-8.0-0.17","","img/blue.png","32","trial","32","true","0.8,0.2","3:go_c","",""
"null","","html-keyboard-response","633","1053508","0.0-8.0-1.17","","<img src=""img/blue-r.png"" border=""10"">","null","trial","32","","0.8,0.2","3:go_c","1",""
"null","","html-keyboard-response","634","1054518","0.0-8.0-2.17","","<div style=""font-size:60px;"">+</div>","null","","","","","","",""
"649.5549999964423","","image-keyboard-response","635","1055171","0.0-8.0-0.18","","img/orange.png","32","trial","32","true","0.8,0.2","1:go_a","",""
"null","","html-keyboard-response","636","1056190","0.0-8.0-1.18","","<img src=""img/orange-r.png"" border=""10"">","null","trial","32","","0.8,0.2","1:go_a","1",""
"null","","html-keyboard-response","637","1057210","0.0-8.0-2.18","","<div style=""font-size:60px;"">+</div>","null","","","","","","",""
"null","","image-keyboard-response","638","1058721","0.0-8.0-0.19","","img/green.png","null","trial","null","true","0.2,0.8","2:nogo_b","",""
"null","","html-keyboard-response","639","1059729","0.0-8.0-1.19","","<img src=""img/green-r.png"">","null","trial","null","","0.2,0.8","2:nogo_b","1",""
"null","","html-keyboard-response","640","1060736","0.0-8.0-2.19","","<div style=""font-size:60px;"">+</div>","null","","","","","","",""
"null","","image-keyboard-response","641","1062253","0.0-8.0-0.20","","img/yellow.png","null","trial","null","true","0.2,0.8","4:nogo_d","",""
"null","","html-keyboard-response","642","1063269","0.0-8.0-1.20","","<img src=""img/yellow-n.png"">","null","trial","null","","0.2,0.8","4:nogo_d","0",""
"null","","html-keyboard-response","643","1064271","0.0-8.0-2.20","","<div style=""font-size:60px;"">+</div>","null","","","","","","",""
"734.2099999950733","","image-keyboard-response","644","1065007","0.0-8.0-0.21","","img/blue.png","32","trial","32","true","0.8,0.2","3:go_c","",""
"null","","html-keyboard-response","645","1066027","0.0-8.0-1.21","","<img src=""img/blue-r.png"" border=""10"">","null","trial","32","","0.8,0.2","3:go_c","1",""
"null","","html-keyboard-response","646","1067047","0.0-8.0-2.21","","<div style=""font-size:60px;"">+</div>","null","","","","","","",""
"null","","image-keyboard-response","647","1068557","0.0-8.0-0.22","","img/green.png","null","trial","null","true","0.2,0.8","2:nogo_b","",""
"null","","html-keyboard-response","648","1069564","0.0-8.0-1.22","","<img src=""img/green-r.png"">","null","trial","null","","0.2,0.8","2:nogo_b","1",""
"null","","html-keyboard-response","649","1070575","0.0-8.0-2.22","","<div style=""font-size:60px;"">+</div>","null","","","","","","",""
"1077.17999999295","","image-keyboard-response","650","1071654","0.0-8.0-0.23","","img/orange.png","32","trial","32","true","0.8,0.2","1:go_a","",""
"null","","html-keyboard-response","651","1072663","0.0-8.0-1.23","","<img src=""img/orange-r.png"" border=""10"">","null","trial","32","","0.8,0.2","1:go_a","1",""
"null","","html-keyboard-response","652","1073674","0.0-8.0-2.23","","<div style=""font-size:60px;"">+</div>","null","","","","","","",""
"557.6299999956973","","image-keyboard-response","653","1074234","0.0-8.0-0.24","","img/orange.png","32","trial","32","true","0.8,0.2","1:go_a","",""
"null","","html-keyboard-response","654","1075254","0.0-8.0-1.24","","<img src=""img/orange-r.png"" border=""10"">","null","trial","32","","0.8,0.2","1:go_a","1",""
"null","","html-keyboard-response","655","1076274","0.0-8.0-2.24","","<div style=""font-size:60px;"">+</div>","null","","","","","","",""
"null","","image-keyboard-response","656","1077790","0.0-8.0-0.25","","img/green.png","null","trial","null","true","0.2,0.8","2:nogo_b","",""
"null","","html-keyboard-response","657","1078814","0.0-8.0-1.25","","<img src=""img/green-r.png"">","null","trial","null","","0.2,0.8","2:nogo_b","1",""
"null","","html-keyboard-response","658","1079816","0.0-8.0-2.25","","<div style=""font-size:60px;"">+</div>","null","","","","","","",""
"718.3999999980442","","image-keyboard-response","659","1080537","0.0-8.0-0.26","","img/blue.png","32","trial","32","true","0.8,0.2","3:go_c","",""
"null","","html-keyboard-response","660","1081557","0.0-8.0-1.26","","<img src=""img/blue-r.png"" border=""10"">","null","trial","32","","0.8,0.2","3:go_c","1",""
"null","","html-keyboard-response","661","1082576","0.0-8.0-2.26","","<div style=""font-size:60px;"">+</div>","null","","","","","","",""
"null","","image-keyboard-response","662","1084086","0.0-8.0-0.27","","img/yellow.png","null","trial","null","true","0.2,0.8","4:nogo_d","",""
"null","","html-keyboard-response","663","1085109","0.0-8.0-1.27","","<img src=""img/yellow-r.png"">","null","trial","null","","0.2,0.8","4:nogo_d","1",""
"null","","html-keyboard-response","664","1086127","0.0-8.0-2.27","","<div style=""font-size:60px;"">+</div>","null","","","","","","",""
"null","","image-keyboard-response","665","1087637","0.0-8.0-0.28","","img/green.png","null","trial","null","true","0.2,0.8","2:nogo_b","",""
"null","","html-keyboard-response","666","1088644","0.0-8.0-1.28","","<img src=""img/green-r.png"">","null","trial","null","","0.2,0.8","2:nogo_b","1",""
"null","","html-keyboard-response","667","1089649","0.0-8.0-2.28","","<div style=""font-size:60px;"">+</div>","null","","","","","","",""
"null","","image-keyboard-response","668","1091157","0.0-8.0-0.29","","img/yellow.png","null","trial","null","true","0.2,0.8","4:nogo_d","",""
"null","","html-keyboard-response","669","1092200","0.0-8.0-1.29","","<img src=""img/yellow-r.png"">","null","trial","null","","0.2,0.8","4:nogo_d","1",""
"null","","html-keyboard-response","670","1093211","0.0-8.0-2.29","","<div style=""font-size:60px;"">+</div>","null","","","","","","",""
"593.5900000040419","","image-keyboard-response","671","1093808","0.0-8.0-0.30","","img/orange.png","32","trial","32","true","0.8,0.2","1:go_a","",""
"null","","html-keyboard-response","672","1094823","0.0-8.0-1.30","","<img src=""img/orange-r.png"" border=""10"">","null","trial","32","","0.8,0.2","1:go_a","1",""
"null","","html-keyboard-response","673","1095841","0.0-8.0-2.30","","<div style=""font-size:60px;"">+</div>","null","","","","","","",""
"1075.125000002794","","image-keyboard-response","674","1096918","0.0-8.0-0.31","","img/blue.png","32","trial","32","true","0.8,0.2","3:go_c","",""
"null","","html-keyboard-response","675","1097938","0.0-8.0-1.31","","<img src=""img/blue-r.png"" border=""10"">","null","trial","32","","0.8,0.2","3:go_c","1",""
"null","","html-keyboard-response","676","1098957","0.0-8.0-2.31","","<div style=""font-size:60px;"">+</div>","null","","","","","","",""
"600.9150000028312","","image-keyboard-response","677","1099560","0.0-8.0-0.32","","img/blue.png","32","trial","32","true","0.8,0.2","3:go_c","",""
"null","","html-keyboard-response","678","1100579","0.0-8.0-1.32","","<img src=""img/blue-r.png"" border=""10"">","null","trial","32","","0.8,0.2","3:go_c","1",""
"null","","html-keyboard-response","679","1101599","0.0-8.0-2.32","","<div style=""font-size:60px;"">+</div>","null","","","","","","",""
