"rt","url","trial_type","trial_index","time_elapsed","internal_node_id","view_history","stimulus","key_press","test_part","correct_response","correct","use_rew","which_stim","reward","responses"
"102386.5249999999","consent.html","external-html","0","103112","0.0-0.0","","","","","","","","","",""
"1278696.6000000003","","instructions","1","1381815","0.0-1.0","[{""page_index"":0,""viewing_time"":5611.769999999524},{""page_index"":1,""viewing_time"":88160.06000000017},{""page_index"":2,""viewing_time"":30771.91500000024},{""page_index"":3,""viewing_time"":71463.60000000006},{""page_index"":4,""viewing_time"":1002832.7550000002},{""page_index"":5,""viewing_time"":51266.55500000017},{""page_index"":6,""viewing_time"":28586.264999999898}]","","","","","","","","",""
"null","","image-keyboard-response","2","1383334","0.0-2.0-0.0","","img/test2.PNG","null","practice","null","true","","","",""
"null","","html-keyboard-response","3","1384352","0.0-2.0-1.0","","<img src=""img/test2-reward.PNG"">","null","","","","","","",""
"null","","html-keyboard-response","4","1385368","0.0-2.0-2.0","","<div style=""font-size:60px;"">+</div>","null","","","","","","",""
"null","","image-keyboard-response","5","1386885","0.0-2.0-0.1","","img/test3.PNG","null","practice","null","true","","","",""
"null","","html-keyboard-response","6","1387897","0.0-2.0-1.1","","<img src=""img/test3-reward.PNG"">","null","","","","","","",""
"null","","html-keyboard-response","7","1388902","0.0-2.0-2.1","","<div style=""font-size:60px;"">+</div>","null","","","","","","",""
"612.2850000010803","","image-keyboard-response","8","1389517","0.0-2.0-0.2","","img/test1.PNG","32","practice","32","true","","","",""
"null","","html-keyboard-response","9","1390534","0.0-2.0-1.2","","<img src=""img/test1-reward.PNG"" border=""10px; grey"">","null","","","","","","",""
"null","","html-keyboard-response","10","1391547","0.0-2.0-2.2","","<div style=""font-size:60px;"">+</div>","null","","","","","","",""
"null","","image-keyboard-response","11","1393051","0.0-2.0-0.3","","img/test2.PNG","null","practice","null","true","","","",""
"null","","html-keyboard-response","12","1394068","0.0-2.0-1.3","","<img src=""img/test2-reward.PNG"">","null","","","","","","",""
"null","","html-keyboard-response","13","1395084","0.0-2.0-2.3","","<div style=""font-size:60px;"">+</div>","null","","","","","","",""
"null","","image-keyboard-response","14","1396600","0.0-2.0-0.4","","img/test3.PNG","null","practice","null","true","","","",""
"null","","html-keyboard-response","15","1397618","0.0-2.0-1.4","","<img src=""img/test3-reward.PNG"">","null","","","","","","",""
"null","","html-keyboard-response","16","1398634","0.0-2.0-2.4","","<div style=""font-size:60px;"">+</div>","null","","","","","","",""
"531.0749999990221","","image-keyboard-response","17","1399167","0.0-2.0-0.5","","img/test1.PNG","32","practice","32","true","","","",""
"null","","html-keyboard-response","18","1400184","0.0-2.0-1.5","","<img src=""img/test1-reward.PNG"" border=""10px; grey"">","null","","","","","","",""
"null","","html-keyboard-response","19","1401201","0.0-2.0-2.5","","<div style=""font-size:60px;"">+</div>","null","","","","","","",""
"null","","image-keyboard-response","20","1402718","0.0-2.0-0.6","","img/test2.PNG","null","practice","null","true","","","",""
"null","","html-keyboard-response","21","1403735","0.0-2.0-1.6","","<img src=""img/test2-reward.PNG"">","null","","","","","","",""
"null","","html-keyboard-response","22","1404750","0.0-2.0-2.6","","<div style=""font-size:60px;"">+</div>","null","","","","","","",""
"491.570000000298","","image-keyboard-response","23","1405244","0.0-2.0-0.7","","img/test1.PNG","32","practice","32","true","","","",""
"null","","html-keyboard-response","24","1406253","0.0-2.0-1.7","","<img src=""img/test1-reward.PNG"" border=""10px; grey"">","null","","","","","","",""
"null","","html-keyboard-response","25","1407257","0.0-2.0-2.7","","<div style=""font-size:60px;"">+</div>","null","","","","","","",""
"null","","image-keyboard-response","26","1408767","0.0-2.0-0.8","","img/test3.PNG","null","practice","null","true","","","",""
"null","","html-keyboard-response","27","1409783","0.0-2.0-1.8","","<img src=""img/test3-reward.PNG"">","null","","","","","","",""
"null","","html-keyboard-response","28","1410790","0.0-2.0-2.8","","<div style=""font-size:60px;"">+</div>","null","","","","","","",""
"490.2050000000745","","image-keyboard-response","29","1411284","0.0-2.0-0.9","","img/test1.PNG","32","practice","32","true","","","",""
"null","","html-keyboard-response","30","1412300","0.0-2.0-1.9","","<img src=""img/test1-reward.PNG"" border=""10px; grey"">","null","","","","","","",""
"null","","html-keyboard-response","31","1413305","0.0-2.0-2.9","","<div style=""font-size:60px;"">+</div>","null","","","","","","",""
"null","","image-keyboard-response","32","1414810","0.0-2.0-0.10","","img/test2.PNG","null","practice","null","true","","","",""
"null","","html-keyboard-response","33","1415827","0.0-2.0-1.10","","<img src=""img/test2-reward.PNG"">","null","","","","","","",""
"null","","html-keyboard-response","34","1416842","0.0-2.0-2.10","","<div style=""font-size:60px;"">+</div>","null","","","","","","",""
"null","","image-keyboard-response","35","1418351","0.0-2.0-0.11","","img/test3.PNG","null","practice","null","true","","","",""
"null","","html-keyboard-response","36","1419366","0.0-2.0-1.11","","<img src=""img/test3-reward.PNG"">","null","","","","","","",""
"null","","html-keyboard-response","37","1420383","0.0-2.0-2.11","","<div style=""font-size:60px;"">+</div>","null","","","","","","",""
"9189.53499999945","","instructions","38","1429574","0.0-3.0","[{""page_index"":0,""viewing_time"":9188.765000000829}]","","","","","","","","",""
"1249.91500000027","","image-keyboard-response","39","1430828","0.0-4.0-0.0","","img/pink.png","32","trial","null","false","0.2,0.8","2:nogo_b","",""
"null","","html-keyboard-response","40","1431842","0.0-4.0-1.0","","<img src=""img/pink-n.png"" border=""10"">","null","trial","null","","0.2,0.8","2:nogo_b","0",""
"null","","html-keyboard-response","41","1432858","0.0-4.0-2.0","","<div style=""font-size:60px;"">+</div>","null","","","","","","",""
"1091.9899999990594","","image-keyboard-response","42","1433952","0.0-4.0-0.1","","img/red.png","32","trial","32","true","0.8,0.2","1:go_a","",""
"null","","html-keyboard-response","43","1434962","0.0-4.0-1.1","","<img src=""img/red-r.png"" border=""10"">","null","trial","32","","0.8,0.2","1:go_a","1",""
"null","","html-keyboard-response","44","1435978","0.0-4.0-2.1","","<div style=""font-size:60px;"">+</div>","null","","","","","","",""
"822.900000001071","","image-keyboard-response","45","1436804","0.0-4.0-0.2","","img/red.png","32","trial","32","true","0.8,0.2","1:go_a","",""
"null","","html-keyboard-response","46","1437815","0.0-4.0-1.2","","<img src=""img/red-r.png"" border=""10"">","null","trial","32","","0.8,0.2","1:go_a","1",""
"null","","html-keyboard-response","47","1438825","0.0-4.0-2.2","","<div style=""font-size:60px;"">+</div>","null","","","","","","",""
"null","","image-keyboard-response","48","1440335","0.0-4.0-0.3","","img/pink.png","null","trial","null","true","0.2,0.8","2:nogo_b","",""
"null","","html-keyboard-response","49","1441350","0.0-4.0-1.3","","<img src=""img/pink-n.png"">","null","trial","null","","0.2,0.8","2:nogo_b","0",""
"null","","html-keyboard-response","50","1442367","0.0-4.0-2.3","","<div style=""font-size:60px;"">+</div>","null","","","","","","",""
"null","","image-keyboard-response","51","1443872","0.0-4.0-0.4","","img/pink.png","null","trial","null","true","0.2,0.8","2:nogo_b","",""
"null","","html-keyboard-response","52","1444888","0.0-4.0-1.4","","<img src=""img/pink-n.png"">","null","trial","null","","0.2,0.8","2:nogo_b","0",""
"null","","html-keyboard-response","53","1445902","0.0-4.0-2.4","","<div style=""font-size:60px;"">+</div>","null","","","","","","",""
"519.5000000002328","","image-keyboard-response","54","1446424","0.0-4.0-0.5","","img/red.png","32","trial","32","true","0.8,0.2","1:go_a","",""
"null","","html-keyboard-response","55","1447433","0.0-4.0-1.5","","<img src=""img/red-r.png"" border=""10"">","null","trial","32","","0.8,0.2","1:go_a","1",""
"null","","html-keyboard-response","56","1448446","0.0-4.0-2.5","","<div style=""font-size:60px;"">+</div>","null","","","","","","",""
"529.0149999998976","","image-keyboard-response","57","1448977","0.0-4.0-0.6","","img/red.png","32","trial","32","true","0.8,0.2","1:go_a","",""
"null","","html-keyboard-response","58","1449994","0.0-4.0-1.6","","<img src=""img/red-n.png"" border=""10"">","null","trial","32","","0.8,0.2","1:go_a","0",""
"null","","html-keyboard-response","59","1451008","0.0-4.0-2.6","","<div style=""font-size:60px;"">+</div>","null","","","","","","",""
"909.5499999984168","","image-keyboard-response","60","1451920","0.0-4.0-0.7","","img/pink.png","32","trial","null","false","0.2,0.8","2:nogo_b","",""
"null","","html-keyboard-response","61","1452944","0.0-4.0-1.7","","<img src=""img/pink-r.png"" border=""10"">","null","trial","null","","0.2,0.8","2:nogo_b","1",""
"null","","html-keyboard-response","62","1453961","0.0-4.0-2.7","","<div style=""font-size:60px;"">+</div>","null","","","","","","",""
"919.1200000005774","","image-keyboard-response","63","1454882","0.0-4.0-0.8","","img/pink.png","32","trial","null","false","0.2,0.8","2:nogo_b","",""
"null","","html-keyboard-response","64","1455887","0.0-4.0-1.8","","<img src=""img/pink-n.png"" border=""10"">","null","trial","null","","0.2,0.8","2:nogo_b","0",""
"null","","html-keyboard-response","65","1456889","0.0-4.0-2.8","","<div style=""font-size:60px;"">+</div>","null","","","","","","",""
"613.9300000013318","","image-keyboard-response","66","1457505","0.0-4.0-0.9","","img/red.png","32","trial","32","true","0.8,0.2","1:go_a","",""
"null","","html-keyboard-response","67","1458523","0.0-4.0-1.9","","<img src=""img/red-r.png"" border=""10"">","null","trial","32","","0.8,0.2","1:go_a","1",""
"null","","html-keyboard-response","68","1459530","0.0-4.0-2.9","","<div style=""font-size:60px;"">+</div>","null","","","","","","",""
"718.7549999998882","","image-keyboard-response","69","1460251","0.0-4.0-0.10","","img/pink.png","32","trial","null","false","0.2,0.8","2:nogo_b","",""
"null","","html-keyboard-response","70","1461274","0.0-4.0-1.10","","<img src=""img/pink-n.png"" border=""10"">","null","trial","null","","0.2,0.8","2:nogo_b","0",""
"null","","html-keyboard-response","71","1462288","0.0-4.0-2.10","","<div style=""font-size:60px;"">+</div>","null","","","","","","",""
"628.8300000014715","","image-keyboard-response","72","1462919","0.0-4.0-0.11","","img/red.png","32","trial","32","true","0.8,0.2","1:go_a","",""
"null","","html-keyboard-response","73","1463928","0.0-4.0-1.11","","<img src=""img/red-r.png"" border=""10"">","null","trial","32","","0.8,0.2","1:go_a","1",""
"null","","html-keyboard-response","74","1464945","0.0-4.0-2.11","","<div style=""font-size:60px;"">+</div>","null","","","","","","",""
"null","","image-keyboard-response","75","1466461","0.0-4.0-0.12","","img/pink.png","null","trial","null","true","0.2,0.8","2:nogo_b","",""
"null","","html-keyboard-response","76","1467476","0.0-4.0-1.12","","<img src=""img/pink-r.png"">","null","trial","null","","0.2,0.8","2:nogo_b","1",""
"null","","html-keyboard-response","77","1468493","0.0-4.0-2.12","","<div style=""font-size:60px;"">+</div>","null","","","","","","",""
"405.69999999925494","","image-keyboard-response","78","1468900","0.0-4.0-0.13","","img/red.png","32","trial","32","true","0.8,0.2","1:go_a","",""
"null","","html-keyboard-response","79","1469918","0.0-4.0-1.13","","<img src=""img/red-r.png"" border=""10"">","null","trial","32","","0.8,0.2","1:go_a","1",""
"null","","html-keyboard-response","80","1470922","0.0-4.0-2.13","","<div style=""font-size:60px;"">+</div>","null","","","","","","",""
"709.9599999983329","","image-keyboard-response","81","1471634","0.0-4.0-0.14","","img/red.png","32","trial","32","true","0.8,0.2","1:go_a","",""
"null","","html-keyboard-response","82","1472648","0.0-4.0-1.14","","<img src=""img/red-r.png"" border=""10"">","null","trial","32","","0.8,0.2","1:go_a","1",""
"null","","html-keyboard-response","83","1473663","0.0-4.0-2.14","","<div style=""font-size:60px;"">+</div>","null","","","","","","",""
"986.8000000005122","","image-keyboard-response","84","1474651","0.0-4.0-0.15","","img/pink.png","32","trial","null","false","0.2,0.8","2:nogo_b","",""
"null","","html-keyboard-response","85","1475659","0.0-4.0-1.15","","<img src=""img/pink-r.png"" border=""10"">","null","trial","null","","0.2,0.8","2:nogo_b","1",""
"null","","html-keyboard-response","86","1476665","0.0-4.0-2.15","","<div style=""font-size:60px;"">+</div>","null","","","","","","",""
"812.7799999983981","","image-keyboard-response","87","1477480","0.0-4.0-0.16","","img/red.png","32","trial","32","true","0.8,0.2","1:go_a","",""
"null","","html-keyboard-response","88","1478497","0.0-4.0-1.16","","<img src=""img/red-r.png"" border=""10"">","null","trial","32","","0.8,0.2","1:go_a","1",""
"null","","html-keyboard-response","89","1479508","0.0-4.0-2.16","","<div style=""font-size:60px;"">+</div>","null","","","","","","",""
"838.0099999995437","","image-keyboard-response","90","1480348","0.0-4.0-0.17","","img/pink.png","32","trial","null","false","0.2,0.8","2:nogo_b","",""
"null","","html-keyboard-response","91","1481365","0.0-4.0-1.17","","<img src=""img/pink-n.png"" border=""10"">","null","trial","null","","0.2,0.8","2:nogo_b","0",""
"null","","html-keyboard-response","92","1482378","0.0-4.0-2.17","","<div style=""font-size:60px;"">+</div>","null","","","","","","",""
"607.434999999823","","image-keyboard-response","93","1482987","0.0-4.0-0.18","","img/red.png","32","trial","32","true","0.8,0.2","1:go_a","",""
"null","","html-keyboard-response","94","1483998","0.0-4.0-1.18","","<img src=""img/red-n.png"" border=""10"">","null","trial","32","","0.8,0.2","1:go_a","0",""
"null","","html-keyboard-response","95","1485014","0.0-4.0-2.18","","<div style=""font-size:60px;"">+</div>","null","","","","","","",""
"776.2249999996275","","image-keyboard-response","96","1485792","0.0-4.0-0.19","","img/pink.png","32","trial","null","false","0.2,0.8","2:nogo_b","",""
"null","","html-keyboard-response","97","1486798","0.0-4.0-1.19","","<img src=""img/pink-r.png"" border=""10"">","null","trial","null","","0.2,0.8","2:nogo_b","1",""
"null","","html-keyboard-response","98","1487823","0.0-4.0-2.19","","<div style=""font-size:60px;"">+</div>","null","","","","","","",""
"490.8599999998696","","image-keyboard-response","99","1488315","0.0-4.0-0.20","","img/red.png","32","trial","32","true","0.8,0.2","1:go_a","",""
"null","","html-keyboard-response","100","1489329","0.0-4.0-1.20","","<img src=""img/red-n.png"" border=""10"">","null","trial","32","","0.8,0.2","1:go_a","0",""
"null","","html-keyboard-response","101","1490347","0.0-4.0-2.20","","<div style=""font-size:60px;"">+</div>","null","","","","","","",""
"1001.8799999998882","","image-keyboard-response","102","1491351","0.0-4.0-0.21","","img/pink.png","32","trial","null","false","0.2,0.8","2:nogo_b","",""
"null","","html-keyboard-response","103","1492363","0.0-4.0-1.21","","<img src=""img/pink-n.png"" border=""10"">","null","trial","null","","0.2,0.8","2:nogo_b","0",""
"null","","html-keyboard-response","104","1493380","0.0-4.0-2.21","","<div style=""font-size:60px;"">+</div>","null","","","","","","",""
"742.8000000000466","","image-keyboard-response","105","1494125","0.0-4.0-0.22","","img/red.png","32","trial","32","true","0.8,0.2","1:go_a","",""
"null","","html-keyboard-response","106","1495137","0.0-4.0-1.22","","<img src=""img/red-n.png"" border=""10"">","null","trial","32","","0.8,0.2","1:go_a","0",""
"null","","html-keyboard-response","107","1496148","0.0-4.0-2.22","","<div style=""font-size:60px;"">+</div>","null","","","","","","",""
"797.8050000001676","","image-keyboard-response","108","1496948","0.0-4.0-0.23","","img/pink.png","32","trial","null","false","0.2,0.8","2:nogo_b","",""
"null","","html-keyboard-response","109","1497963","0.0-4.0-1.23","","<img src=""img/pink-n.png"" border=""10"">","null","trial","null","","0.2,0.8","2:nogo_b","0",""
"null","","html-keyboard-response","110","1498979","0.0-4.0-2.23","","<div style=""font-size:60px;"">+</div>","null","","","","","","",""
"879.3799999984913","","image-keyboard-response","111","1499860","0.0-4.0-0.24","","img/pink.png","32","trial","null","false","0.2,0.8","2:nogo_b","",""
"null","","html-keyboard-response","112","1500881","0.0-4.0-1.24","","<img src=""img/pink-n.png"" border=""10"">","null","trial","null","","0.2,0.8","2:nogo_b","0",""
"null","","html-keyboard-response","113","1501896","0.0-4.0-2.24","","<div style=""font-size:60px;"">+</div>","null","","","","","","",""
"536.380000001518","","image-keyboard-response","114","1502434","0.0-4.0-0.25","","img/red.png","32","trial","32","true","0.8,0.2","1:go_a","",""
"null","","html-keyboard-response","115","1503443","0.0-4.0-1.25","","<img src=""img/red-n.png"" border=""10"">","null","trial","32","","0.8,0.2","1:go_a","0",""
"null","","html-keyboard-response","116","1504448","0.0-4.0-2.25","","<div style=""font-size:60px;"">+</div>","null","","","","","","",""
"1043.4650000007823","","image-keyboard-response","117","1505493","0.0-4.0-0.26","","img/red.png","32","trial","32","true","0.8,0.2","1:go_a","",""
"null","","html-keyboard-response","118","1506499","0.0-4.0-1.26","","<img src=""img/red-r.png"" border=""10"">","null","trial","32","","0.8,0.2","1:go_a","1",""
"null","","html-keyboard-response","119","1507501","0.0-4.0-2.26","","<div style=""font-size:60px;"">+</div>","null","","","","","","",""
"839.734999999404","","image-keyboard-response","120","1508343","0.0-4.0-0.27","","img/pink.png","32","trial","null","false","0.2,0.8","2:nogo_b","",""
"null","","html-keyboard-response","121","1509361","0.0-4.0-1.27","","<img src=""img/pink-n.png"" border=""10"">","null","trial","null","","0.2,0.8","2:nogo_b","0",""
"null","","html-keyboard-response","122","1510364","0.0-4.0-2.27","","<div style=""font-size:60px;"">+</div>","null","","","","","","",""
"585.0049999989569","","image-keyboard-response","123","1510951","0.0-4.0-0.28","","img/red.png","32","trial","32","true","0.8,0.2","1:go_a","",""
"null","","html-keyboard-response","124","1511957","0.0-4.0-1.28","","<img src=""img/red-r.png"" border=""10"">","null","trial","32","","0.8,0.2","1:go_a","1",""
"null","","html-keyboard-response","125","1512974","0.0-4.0-2.28","","<div style=""font-size:60px;"">+</div>","null","","","","","","",""
"null","","image-keyboard-response","126","1514477","0.0-4.0-0.29","","img/pink.png","null","trial","null","true","0.2,0.8","2:nogo_b","",""
"null","","html-keyboard-response","127","1515486","0.0-4.0-1.29","","<img src=""img/pink-r.png"">","null","trial","null","","0.2,0.8","2:nogo_b","1",""
"null","","html-keyboard-response","128","1516490","0.0-4.0-2.29","","<div style=""font-size:60px;"">+</div>","null","","","","","","",""
"1115.8900000008289","","image-keyboard-response","129","1517607","0.0-4.0-0.30","","img/pink.png","32","trial","null","false","0.2,0.8","2:nogo_b","",""
"null","","html-keyboard-response","130","1518615","0.0-4.0-1.30","","<img src=""img/pink-n.png"" border=""10"">","null","trial","null","","0.2,0.8","2:nogo_b","0",""
"null","","html-keyboard-response","131","1519631","0.0-4.0-2.30","","<div style=""font-size:60px;"">+</div>","null","","","","","","",""
"592.8000000005122","","image-keyboard-response","132","1520226","0.0-4.0-0.31","","img/red.png","32","trial","32","true","0.8,0.2","1:go_a","",""
"null","","html-keyboard-response","133","1521240","0.0-4.0-1.31","","<img src=""img/red-n.png"" border=""10"">","null","trial","32","","0.8,0.2","1:go_a","0",""
"null","","html-keyboard-response","134","1522255","0.0-4.0-2.31","","<div style=""font-size:60px;"">+</div>","null","","","","","","",""
"1022.5499999995809","","image-keyboard-response","135","1523280","0.0-4.0-0.32","","img/pink.png","32","trial","null","false","0.2,0.8","2:nogo_b","",""
"null","","html-keyboard-response","136","1524286","0.0-4.0-1.32","","<img src=""img/pink-n.png"" border=""10"">","null","trial","null","","0.2,0.8","2:nogo_b","0",""
"null","","html-keyboard-response","137","1525303","0.0-4.0-2.32","","<div style=""font-size:60px;"">+</div>","null","","","","","","",""
"1002.0650000004098","","image-keyboard-response","138","1526307","0.0-4.0-0.33","","img/red.png","32","trial","32","true","0.8,0.2","1:go_a","",""
"null","","html-keyboard-response","139","1527313","0.0-4.0-1.33","","<img src=""img/red-r.png"" border=""10"">","null","trial","32","","0.8,0.2","1:go_a","1",""
"null","","html-keyboard-response","140","1528319","0.0-4.0-2.33","","<div style=""font-size:60px;"">+</div>","null","","","","","","",""
"716.9000000013039","","image-keyboard-response","141","1529038","0.0-4.0-0.34","","img/red.png","32","trial","32","true","0.8,0.2","1:go_a","",""
"null","","html-keyboard-response","142","1530053","0.0-4.0-1.34","","<img src=""img/red-r.png"" border=""10"">","null","trial","32","","0.8,0.2","1:go_a","1",""
"null","","html-keyboard-response","143","1531068","0.0-4.0-2.34","","<div style=""font-size:60px;"">+</div>","null","","","","","","",""
"null","","image-keyboard-response","144","1532583","0.0-4.0-0.35","","img/pink.png","null","trial","null","true","0.2,0.8","2:nogo_b","",""
"null","","html-keyboard-response","145","1533597","0.0-4.0-1.35","","<img src=""img/pink-r.png"">","null","trial","null","","0.2,0.8","2:nogo_b","1",""
"null","","html-keyboard-response","146","1534606","0.0-4.0-2.35","","<div style=""font-size:60px;"">+</div>","null","","","","","","",""
"984.4300000006333","","image-keyboard-response","147","1535592","0.0-4.0-0.36","","img/pink.png","32","trial","null","false","0.2,0.8","2:nogo_b","",""
"null","","html-keyboard-response","148","1536598","0.0-4.0-1.36","","<img src=""img/pink-n.png"" border=""10"">","null","trial","null","","0.2,0.8","2:nogo_b","0",""
"null","","html-keyboard-response","149","1537613","0.0-4.0-2.36","","<div style=""font-size:60px;"">+</div>","null","","","","","","",""
"578.9050000002608","","image-keyboard-response","150","1538194","0.0-4.0-0.37","","img/red.png","32","trial","32","true","0.8,0.2","1:go_a","",""
"null","","html-keyboard-response","151","1539202","0.0-4.0-1.37","","<img src=""img/red-n.png"" border=""10"">","null","trial","32","","0.8,0.2","1:go_a","0",""
"null","","html-keyboard-response","152","1540208","0.0-4.0-2.37","","<div style=""font-size:60px;"">+</div>","null","","","","","","",""
"1141.7699999983888","","image-keyboard-response","153","1541351","0.0-4.0-0.38","","img/red.png","32","trial","32","true","0.8,0.2","1:go_a","",""
"null","","html-keyboard-response","154","1542364","0.0-4.0-1.38","","<img src=""img/red-r.png"" border=""10"">","null","trial","32","","0.8,0.2","1:go_a","1",""
"null","","html-keyboard-response","155","1543376","0.0-4.0-2.38","","<div style=""font-size:60px;"">+</div>","null","","","","","","",""
"907.7350000008009","","image-keyboard-response","156","1544286","0.0-4.0-0.39","","img/pink.png","32","trial","null","false","0.2,0.8","2:nogo_b","",""
"null","","html-keyboard-response","157","1545301","0.0-4.0-1.39","","<img src=""img/pink-n.png"" border=""10"">","null","trial","null","","0.2,0.8","2:nogo_b","0",""
"null","","html-keyboard-response","158","1546316","0.0-4.0-2.39","","<div style=""font-size:60px;"">+</div>","null","","","","","","",""
"995.0800000005402","","image-keyboard-response","159","1547313","0.0-4.0-0.40","","img/pink.png","32","trial","null","false","0.2,0.8","2:nogo_b","",""
"null","","html-keyboard-response","160","1548332","0.0-4.0-1.40","","<img src=""img/pink-n.png"" border=""10"">","null","trial","null","","0.2,0.8","2:nogo_b","0",""
"null","","html-keyboard-response","161","1549348","0.0-4.0-2.40","","<div style=""font-size:60px;"">+</div>","null","","","","","","",""
"null","","image-keyboard-response","162","1550851","0.0-4.0-0.41","","img/red.png","null","trial","32","false","0.8,0.2","1:go_a","",""
"null","","html-keyboard-response","163","1551868","0.0-4.0-1.41","","<img src=""img/red-n.png"">","null","trial","32","","0.8,0.2","1:go_a","0",""
"null","","html-keyboard-response","164","1552886","0.0-4.0-2.41","","<div style=""font-size:60px;"">+</div>","null","","","","","","",""
"958.5999999998603","","image-keyboard-response","165","1553847","0.0-4.0-0.42","","img/pink.png","32","trial","null","false","0.2,0.8","2:nogo_b","",""
"null","","html-keyboard-response","166","1554852","0.0-4.0-1.42","","<img src=""img/pink-r.png"" border=""10"">","null","trial","null","","0.2,0.8","2:nogo_b","1",""
"null","","html-keyboard-response","167","1555868","0.0-4.0-2.42","","<div style=""font-size:60px;"">+</div>","null","","","","","","",""
"696.5700000000652","","image-keyboard-response","168","1556567","0.0-4.0-0.43","","img/red.png","32","trial","32","true","0.8,0.2","1:go_a","",""
"null","","html-keyboard-response","169","1557580","0.0-4.0-1.43","","<img src=""img/red-r.png"" border=""10"">","null","trial","32","","0.8,0.2","1:go_a","1",""
"null","","html-keyboard-response","170","1558596","0.0-4.0-2.43","","<div style=""font-size:60px;"">+</div>","null","","","","","","",""
"809.150000001071","","image-keyboard-response","171","1559408","0.0-4.0-0.44","","img/red.png","32","trial","32","true","0.8,0.2","1:go_a","",""
"null","","html-keyboard-response","172","1560425","0.0-4.0-1.44","","<img src=""img/red-n.png"" border=""10"">","null","trial","32","","0.8,0.2","1:go_a","0",""
"null","","html-keyboard-response","173","1561434","0.0-4.0-2.44","","<div style=""font-size:60px;"">+</div>","null","","","","","","",""
"null","","image-keyboard-response","174","1562956","0.0-4.0-0.45","","img/pink.png","null","trial","null","true","0.2,0.8","2:nogo_b","",""
"null","","html-keyboard-response","175","1563973","0.0-4.0-1.45","","<img src=""img/pink-r.png"">","null","trial","null","","0.2,0.8","2:nogo_b","1",""
"null","","html-keyboard-response","176","1564988","0.0-4.0-2.45","","<div style=""font-size:60px;"">+</div>","null","","","","","","",""
"1197.3600000001024","","image-keyboard-response","177","1566187","0.0-4.0-0.46","","img/pink.png","32","trial","null","false","0.2,0.8","2:nogo_b","",""
"null","","html-keyboard-response","178","1567191","0.0-4.0-1.46","","<img src=""img/pink-n.png"" border=""10"">","null","trial","null","","0.2,0.8","2:nogo_b","0",""
"null","","html-keyboard-response","179","1568206","0.0-4.0-2.46","","<div style=""font-size:60px;"">+</div>","null","","","","","","",""
"857.3699999996461","","image-keyboard-response","180","1569066","0.0-4.0-0.47","","img/red.png","32","trial","32","true","0.8,0.2","1:go_a","",""
"null","","html-keyboard-response","181","1570081","0.0-4.0-1.47","","<img src=""img/red-r.png"" border=""10"">","null","trial","32","","0.8,0.2","1:go_a","1",""
"null","","html-keyboard-response","182","1571096","0.0-4.0-2.47","","<div style=""font-size:60px;"">+</div>","null","","","","","","",""
"971.5699999995995","","image-keyboard-response","183","1572070","0.0-4.0-0.48","","img/pink.png","32","trial","null","false","0.2,0.8","2:nogo_b","",""
"null","","html-keyboard-response","184","1573081","0.0-4.0-1.48","","<img src=""img/pink-n.png"" border=""10"">","null","trial","null","","0.2,0.8","2:nogo_b","0",""
"null","","html-keyboard-response","185","1574097","0.0-4.0-2.48","","<div style=""font-size:60px;"">+</div>","null","","","","","","",""
"674.1750000000466","","image-keyboard-response","186","1574774","0.0-4.0-0.49","","img/red.png","32","trial","32","true","0.8,0.2","1:go_a","",""
"null","","html-keyboard-response","187","1575787","0.0-4.0-1.49","","<img src=""img/red-r.png"" border=""10"">","null","trial","32","","0.8,0.2","1:go_a","1",""
"null","","html-keyboard-response","188","1576805","0.0-4.0-2.49","","<div style=""font-size:60px;"">+</div>","null","","","","","","",""
"645.9049999995623","","image-keyboard-response","189","1577454","0.0-4.0-0.50","","img/red.png","32","trial","32","true","0.8,0.2","1:go_a","",""
"null","","html-keyboard-response","190","1578472","0.0-4.0-1.50","","<img src=""img/red-r.png"" border=""10"">","null","trial","32","","0.8,0.2","1:go_a","1",""
"null","","html-keyboard-response","191","1579481","0.0-4.0-2.50","","<div style=""font-size:60px;"">+</div>","null","","","","","","",""
"1080.1399999998976","","image-keyboard-response","192","1580563","0.0-4.0-0.51","","img/pink.png","32","trial","null","false","0.2,0.8","2:nogo_b","",""
"null","","html-keyboard-response","193","1581580","0.0-4.0-1.51","","<img src=""img/pink-n.png"" border=""10"">","null","trial","null","","0.2,0.8","2:nogo_b","0",""
"null","","html-keyboard-response","194","1582595","0.0-4.0-2.51","","<div style=""font-size:60px;"">+</div>","null","","","","","","",""
"699.3149999997113","","image-keyboard-response","195","1583297","0.0-4.0-0.52","","img/red.png","32","trial","32","true","0.8,0.2","1:go_a","",""
"null","","html-keyboard-response","196","1584314","0.0-4.0-1.52","","<img src=""img/red-r.png"" border=""10"">","null","trial","32","","0.8,0.2","1:go_a","1",""
"null","","html-keyboard-response","197","1585330","0.0-4.0-2.52","","<div style=""font-size:60px;"">+</div>","null","","","","","","",""
"null","","image-keyboard-response","198","1586834","0.0-4.0-0.53","","img/pink.png","null","trial","null","true","0.2,0.8","2:nogo_b","",""
"null","","html-keyboard-response","199","1587850","0.0-4.0-1.53","","<img src=""img/pink-n.png"">","null","trial","null","","0.2,0.8","2:nogo_b","0",""
"null","","html-keyboard-response","200","1588866","0.0-4.0-2.53","","<div style=""font-size:60px;"">+</div>","null","","","","","","",""
"600.135000000475","","image-keyboard-response","201","1589467","0.0-4.0-0.54","","img/red.png","32","trial","32","true","0.8,0.2","1:go_a","",""
"null","","html-keyboard-response","202","1590487","0.0-4.0-1.54","","<img src=""img/red-r.png"" border=""10"">","null","trial","32","","0.8,0.2","1:go_a","1",""
"null","","html-keyboard-response","203","1591495","0.0-4.0-2.54","","<div style=""font-size:60px;"">+</div>","null","","","","","","",""
"744.9799999995157","","image-keyboard-response","204","1592242","0.0-4.0-0.55","","img/pink.png","32","trial","null","false","0.2,0.8","2:nogo_b","",""
"null","","html-keyboard-response","205","1593253","0.0-4.0-1.55","","<img src=""img/pink-n.png"" border=""10"">","null","trial","null","","0.2,0.8","2:nogo_b","0",""
"null","","html-keyboard-response","206","1594268","0.0-4.0-2.55","","<div style=""font-size:60px;"">+</div>","null","","","","","","",""
"1175.7850000013132","","image-keyboard-response","207","1595445","0.0-4.0-0.56","","img/pink.png","32","trial","null","false","0.2,0.8","2:nogo_b","",""
"null","","html-keyboard-response","208","1596455","0.0-4.0-1.56","","<img src=""img/pink-n.png"" border=""10"">","null","trial","null","","0.2,0.8","2:nogo_b","0",""
"null","","html-keyboard-response","209","1597473","0.0-4.0-2.56","","<div style=""font-size:60px;"">+</div>","null","","","","","","",""
"546.9599999997299","","image-keyboard-response","210","1598022","0.0-4.0-0.57","","img/red.png","32","trial","32","true","0.8,0.2","1:go_a","",""
"null","","html-keyboard-response","211","1599032","0.0-4.0-1.57","","<img src=""img/red-n.png"" border=""10"">","null","trial","32","","0.8,0.2","1:go_a","0",""
"null","","html-keyboard-response","212","1600048","0.0-4.0-2.57","","<div style=""font-size:60px;"">+</div>","null","","","","","","",""
"679.1649999995716","","image-keyboard-response","213","1600729","0.0-4.0-0.58","","img/red.png","32","trial","32","true","0.8,0.2","1:go_a","",""
"null","","html-keyboard-response","214","1601736","0.0-4.0-1.58","","<img src=""img/red-r.png"" border=""10"">","null","trial","32","","0.8,0.2","1:go_a","1",""
"null","","html-keyboard-response","215","1602750","0.0-4.0-2.58","","<div style=""font-size:60px;"">+</div>","null","","","","","","",""
"876.894999999553","","image-keyboard-response","216","1603629","0.0-4.0-0.59","","img/pink.png","32","trial","null","false","0.2,0.8","2:nogo_b","",""
"null","","html-keyboard-response","217","1604643","0.0-4.0-1.59","","<img src=""img/pink-n.png"" border=""10"">","null","trial","null","","0.2,0.8","2:nogo_b","0",""
"null","","html-keyboard-response","218","1605656","0.0-4.0-2.59","","<div style=""font-size:60px;"">+</div>","null","","","","","","",""
"7040.179999999935","","instructions","219","1612698","0.0-5.0","[{""page_index"":0,""viewing_time"":7039.44000000041}]","","","","","","","","",""
"1293.5550000004005","","image-keyboard-response","220","1613995","0.0-6.0-0.0","","img/green.png","32","trial","null","false","0.2,0.8","2:nogo_b","",""
"null","","html-keyboard-response","221","1615001","0.0-6.0-1.0","","<img src=""img/green-n.png"" border=""10"">","null","trial","null","","0.2,0.8","2:nogo_b","0",""
"null","","html-keyboard-response","222","1616016","0.0-6.0-2.0","","<div style=""font-size:60px;"">+</div>","null","","","","","","",""
"680.9700000011362","","image-keyboard-response","223","1616699","0.0-6.0-0.1","","img/yellow.png","32","trial","32","true","0.8,0.2","1:go_a","",""
"null","","html-keyboard-response","224","1617708","0.0-6.0-1.1","","<img src=""img/yellow-r.png"" border=""10"">","null","trial","32","","0.8,0.2","1:go_a","1",""
"null","","html-keyboard-response","225","1618722","0.0-6.0-2.1","","<div style=""font-size:60px;"">+</div>","null","","","","","","",""
"null","","image-keyboard-response","226","1620235","0.0-6.0-0.2","","img/red.png","null","trial","32","false","1,0","3:go_c","",""
"null","","html-keyboard-response","227","1621243","0.0-6.0-1.2","","<img src=""img/red-n.png"">","null","trial","32","","1,0","3:go_c","0",""
"null","","html-keyboard-response","228","1622251","0.0-6.0-2.2","","<div style=""font-size:60px;"">+</div>","null","","","","","","",""
"null","","image-keyboard-response","229","1623765","0.0-6.0-0.3","","img/orange.png","null","trial","null","true","0,1","4:nogo_d","",""
"null","","html-keyboard-response","230","1624788","0.0-6.0-1.3","","<img src=""img/orange-r.png"">","null","trial","null","","0,1","4:nogo_d","1",""
"null","","html-keyboard-response","231","1625803","0.0-6.0-2.3","","<div style=""font-size:60px;"">+</div>","null","","","","","","",""
"606.3899999989662","","image-keyboard-response","232","1626411","0.0-6.0-0.4","","img/orange.png","32","trial","null","false","0,1","4:nogo_d","",""
"null","","html-keyboard-response","233","1627426","0.0-6.0-1.4","","<img src=""img/orange-n.png"" border=""10"">","null","trial","null","","0,1","4:nogo_d","0",""
"null","","html-keyboard-response","234","1628438","0.0-6.0-2.4","","<div style=""font-size:60px;"">+</div>","null","","","","","","",""
"1434.0799999991432","","image-keyboard-response","235","1629874","0.0-6.0-0.5","","img/red.png","32","trial","32","true","1,0","3:go_c","",""
"null","","html-keyboard-response","236","1630882","0.0-6.0-1.5","","<img src=""img/red-r.png"" border=""10"">","null","trial","32","","1,0","3:go_c","1",""
"null","","html-keyboard-response","237","1631897","0.0-6.0-2.5","","<div style=""font-size:60px;"">+</div>","null","","","","","","",""
"837.2049999998417","","image-keyboard-response","238","1632736","0.0-6.0-0.6","","img/yellow.png","32","trial","32","true","0.8,0.2","1:go_a","",""
"null","","html-keyboard-response","239","1633770","0.0-6.0-1.6","","<img src=""img/yellow-r.png"" border=""10"">","null","trial","32","","0.8,0.2","1:go_a","1",""
"null","","html-keyboard-response","240","1634787","0.0-6.0-2.6","","<div style=""font-size:60px;"">+</div>","null","","","","","","",""
"1109.1500000003725","","image-keyboard-response","241","1635899","0.0-6.0-0.7","","img/green.png","32","trial","null","false","0.2,0.8","2:nogo_b","",""
"null","","html-keyboard-response","242","1636913","0.0-6.0-1.7","","<img src=""img/green-r.png"" border=""10"">","null","trial","null","","0.2,0.8","2:nogo_b","1",""
"null","","html-keyboard-response","243","1637928","0.0-6.0-2.7","","<div style=""font-size:60px;"">+</div>","null","","","","","","",""
"812.7299999997485","","image-keyboard-response","244","1638743","0.0-6.0-0.8","","img/red.png","32","trial","32","true","1,0","3:go_c","",""
"null","","html-keyboard-response","245","1639749","0.0-6.0-1.8","","<img src=""img/red-r.png"" border=""10"">","null","trial","32","","1,0","3:go_c","1",""
"null","","html-keyboard-response","246","1640752","0.0-6.0-2.8","","<div style=""font-size:60px;"">+</div>","null","","","","","","",""
"1066.3450000011362","","image-keyboard-response","247","1641821","0.0-6.0-0.9","","img/yellow.png","32","trial","32","true","0.8,0.2","1:go_a","",""
"null","","html-keyboard-response","248","1642833","0.0-6.0-1.9","","<img src=""img/yellow-r.png"" border=""10"">","null","trial","32","","0.8,0.2","1:go_a","1",""
"null","","html-keyboard-response","249","1643849","0.0-6.0-2.9","","<div style=""font-size:60px;"">+</div>","null","","","","","","",""
"1223.9499999994878","","image-keyboard-response","250","1645075","0.0-6.0-0.10","","img/green.png","32","trial","null","false","0.2,0.8","2:nogo_b","",""
"null","","html-keyboard-response","251","1646094","0.0-6.0-1.10","","<img src=""img/green-n.png"" border=""10"">","null","trial","null","","0.2,0.8","2:nogo_b","0",""
"null","","html-keyboard-response","252","1647109","0.0-6.0-2.10","","<div style=""font-size:60px;"">+</div>","null","","","","","","",""
"695.7400000011548","","image-keyboard-response","253","1647807","0.0-6.0-0.11","","img/orange.png","32","trial","null","false","0,1","4:nogo_d","",""
"null","","html-keyboard-response","254","1648817","0.0-6.0-1.11","","<img src=""img/orange-n.png"" border=""10"">","null","trial","null","","0,1","4:nogo_d","0",""
"null","","html-keyboard-response","255","1649832","0.0-6.0-2.11","","<div style=""font-size:60px;"">+</div>","null","","","","","","",""
"1125.5450000008568","","image-keyboard-response","256","1650960","0.0-6.0-0.12","","img/orange.png","32","trial","null","false","0,1","4:nogo_d","",""
"null","","html-keyboard-response","257","1651970","0.0-6.0-1.12","","<img src=""img/orange-n.png"" border=""10"">","null","trial","null","","0,1","4:nogo_d","0",""
"null","","html-keyboard-response","258","1652985","0.0-6.0-2.12","","<div style=""font-size:60px;"">+</div>","null","","","","","","",""
"986.3249999999534","","image-keyboard-response","259","1653974","0.0-6.0-0.13","","img/green.png","32","trial","null","false","0.2,0.8","2:nogo_b","",""
"null","","html-keyboard-response","260","1654985","0.0-6.0-1.13","","<img src=""img/green-n.png"" border=""10"">","null","trial","null","","0.2,0.8","2:nogo_b","0",""
"null","","html-keyboard-response","261","1656000","0.0-6.0-2.13","","<div style=""font-size:60px;"">+</div>","null","","","","","","",""
"724.0849999997299","","image-keyboard-response","262","1656726","0.0-6.0-0.14","","img/yellow.png","32","trial","32","true","0.8,0.2","1:go_a","",""
"null","","html-keyboard-response","263","1657738","0.0-6.0-1.14","","<img src=""img/yellow-r.png"" border=""10"">","null","trial","32","","0.8,0.2","1:go_a","1",""
"null","","html-keyboard-response","264","1658748","0.0-6.0-2.14","","<div style=""font-size:60px;"">+</div>","null","","","","","","",""
"1097.6200000003446","","image-keyboard-response","265","1659847","0.0-6.0-0.15","","img/red.png","32","trial","32","true","1,0","3:go_c","",""
"null","","html-keyboard-response","266","1660871","0.0-6.0-1.15","","<img src=""img/red-r.png"" border=""10"">","null","trial","32","","1,0","3:go_c","1",""
"null","","html-keyboard-response","267","1661879","0.0-6.0-2.15","","<div style=""font-size:60px;"">+</div>","null","","","","","","",""
"854.339999999851","","image-keyboard-response","268","1662736","0.0-6.0-0.16","","img/yellow.png","32","trial","32","true","0.8,0.2","1:go_a","",""
"null","","html-keyboard-response","269","1663744","0.0-6.0-1.16","","<img src=""img/yellow-n.png"" border=""10"">","null","trial","32","","0.8,0.2","1:go_a","0",""
"null","","html-keyboard-response","270","1664751","0.0-6.0-2.16","","<div style=""font-size:60px;"">+</div>","null","","","","","","",""
"null","","image-keyboard-response","271","1666266","0.0-6.0-0.17","","img/green.png","null","trial","null","true","0.2,0.8","2:nogo_b","",""
"null","","html-keyboard-response","272","1667282","0.0-6.0-1.17","","<img src=""img/green-r.png"">","null","trial","null","","0.2,0.8","2:nogo_b","1",""
"null","","html-keyboard-response","273","1668296","0.0-6.0-2.17","","<div style=""font-size:60px;"">+</div>","null","","","","","","",""
"673.2850000006147","","image-keyboard-response","274","1668971","0.0-6.0-0.18","","img/orange.png","32","trial","null","false","0,1","4:nogo_d","",""
"null","","html-keyboard-response","275","1669984","0.0-6.0-1.18","","<img src=""img/orange-n.png"" border=""10"">","null","trial","null","","0,1","4:nogo_d","0",""
"null","","html-keyboard-response","276","1671000","0.0-6.0-2.18","","<div style=""font-size:60px;"">+</div>","null","","","","","","",""
"684.4600000004284","","image-keyboard-response","277","1671687","0.0-6.0-0.19","","img/red.png","32","trial","32","true","1,0","3:go_c","",""
"null","","html-keyboard-response","278","1672706","0.0-6.0-1.19","","<img src=""img/red-r.png"" border=""10"">","null","trial","32","","1,0","3:go_c","1",""
"null","","html-keyboard-response","279","1673717","0.0-6.0-2.19","","<div style=""font-size:60px;"">+</div>","null","","","","","","",""
"null","","image-keyboard-response","280","1675233","0.0-6.0-0.20","","img/green.png","null","trial","null","true","0.2,0.8","2:nogo_b","",""
"null","","html-keyboard-response","281","1676250","0.0-6.0-1.20","","<img src=""img/green-r.png"">","null","trial","null","","0.2,0.8","2:nogo_b","1",""
"null","","html-keyboard-response","282","1677267","0.0-6.0-2.20","","<div style=""font-size:60px;"">+</div>","null","","","","","","",""
"1372.7799999995623","","image-keyboard-response","283","1678642","0.0-6.0-0.21","","img/yellow.png","32","trial","32","true","0.8,0.2","1:go_a","",""
"null","","html-keyboard-response","284","1679658","0.0-6.0-1.21","","<img src=""img/yellow-r.png"" border=""10"">","null","trial","32","","0.8,0.2","1:go_a","1",""
"null","","html-keyboard-response","285","1680668","0.0-6.0-2.21","","<div style=""font-size:60px;"">+</div>","null","","","","","","",""
"1024.3850000007078","","image-keyboard-response","286","1681694","0.0-6.0-0.22","","img/orange.png","32","trial","null","false","0,1","4:nogo_d","",""
"null","","html-keyboard-response","287","1682706","0.0-6.0-1.22","","<img src=""img/orange-n.png"" border=""10"">","null","trial","null","","0,1","4:nogo_d","0",""
"null","","html-keyboard-response","288","1683711","0.0-6.0-2.22","","<div style=""font-size:60px;"">+</div>","null","","","","","","",""
"573.524999999674","","image-keyboard-response","289","1684287","0.0-6.0-0.23","","img/red.png","32","trial","32","true","1,0","3:go_c","",""
"null","","html-keyboard-response","290","1685296","0.0-6.0-1.23","","<img src=""img/red-r.png"" border=""10"">","null","trial","32","","1,0","3:go_c","1",""
"null","","html-keyboard-response","291","1686311","0.0-6.0-2.23","","<div style=""font-size:60px;"">+</div>","null","","","","","","",""
"823.8049999999348","","image-keyboard-response","292","1687137","0.0-6.0-0.24","","img/yellow.png","32","trial","32","true","0.8,0.2","1:go_a","",""
"null","","html-keyboard-response","293","1688155","0.0-6.0-1.24","","<img src=""img/yellow-r.png"" border=""10"">","null","trial","32","","0.8,0.2","1:go_a","1",""
"null","","html-keyboard-response","294","1689171","0.0-6.0-2.24","","<div style=""font-size:60px;"">+</div>","null","","","","","","",""
"819.4349999993574","","image-keyboard-response","295","1689993","0.0-6.0-0.25","","img/orange.png","32","trial","null","false","0,1","4:nogo_d","",""
"null","","html-keyboard-response","296","1691001","0.0-6.0-1.25","","<img src=""img/orange-n.png"" border=""10"">","null","trial","null","","0,1","4:nogo_d","0",""
"null","","html-keyboard-response","297","1692015","0.0-6.0-2.25","","<div style=""font-size:60px;"">+</div>","null","","","","","","",""
"1502.9100000010803","","image-keyboard-response","298","1693520","0.0-6.0-0.26","","img/green.png","32","trial","null","false","0.2,0.8","2:nogo_b","",""
"null","","html-keyboard-response","299","1694529","0.0-6.0-1.26","","<img src=""img/green-n.png"" border=""10"">","null","trial","null","","0.2,0.8","2:nogo_b","0",""
"null","","html-keyboard-response","300","1695540","0.0-6.0-2.26","","<div style=""font-size:60px;"">+</div>","null","","","","","","",""
"598.5899999996182","","image-keyboard-response","301","1696141","0.0-6.0-0.27","","img/red.png","32","trial","32","true","1,0","3:go_c","",""
"null","","html-keyboard-response","302","1697154","0.0-6.0-1.27","","<img src=""img/red-r.png"" border=""10"">","null","trial","32","","1,0","3:go_c","1",""
"null","","html-keyboard-response","303","1698170","0.0-6.0-2.27","","<div style=""font-size:60px;"">+</div>","null","","","","","","",""
"1233.589999999851","","image-keyboard-response","304","1699405","0.0-6.0-0.28","","img/orange.png","32","trial","null","false","0,1","4:nogo_d","",""
"null","","html-keyboard-response","305","1700419","0.0-6.0-1.28","","<img src=""img/orange-n.png"" border=""10"">","null","trial","null","","0,1","4:nogo_d","0",""
"null","","html-keyboard-response","306","1701435","0.0-6.0-2.28","","<div style=""font-size:60px;"">+</div>","null","","","","","","",""
"633.1549999995623","","image-keyboard-response","307","1702070","0.0-6.0-0.29","","img/yellow.png","32","trial","32","true","0.8,0.2","1:go_a","",""
"null","","html-keyboard-response","308","1703076","0.0-6.0-1.29","","<img src=""img/yellow-r.png"" border=""10"">","null","trial","32","","0.8,0.2","1:go_a","1",""
"null","","html-keyboard-response","309","1704092","0.0-6.0-2.29","","<div style=""font-size:60px;"">+</div>","null","","","","","","",""
"null","","image-keyboard-response","310","1705599","0.0-6.0-0.30","","img/green.png","null","trial","null","true","0.2,0.8","2:nogo_b","",""
"null","","html-keyboard-response","311","1706608","0.0-6.0-1.30","","<img src=""img/green-r.png"">","null","trial","null","","0.2,0.8","2:nogo_b","1",""
"null","","html-keyboard-response","312","1707617","0.0-6.0-2.30","","<div style=""font-size:60px;"">+</div>","null","","","","","","",""
"803.1549999995623","","image-keyboard-response","313","1708422","0.0-6.0-0.31","","img/red.png","32","trial","32","true","1,0","3:go_c","",""
"null","","html-keyboard-response","314","1709436","0.0-6.0-1.31","","<img src=""img/red-r.png"" border=""10"">","null","trial","32","","1,0","3:go_c","1",""
"null","","html-keyboard-response","315","1710451","0.0-6.0-2.31","","<div style=""font-size:60px;"">+</div>","null","","","","","","",""
"1101.8550000009127","","image-keyboard-response","316","1711555","0.0-6.0-0.32","","img/green.png","32","trial","null","false","0.2,0.8","2:nogo_b","",""
"null","","html-keyboard-response","317","1712561","0.0-6.0-1.32","","<img src=""img/green-n.png"" border=""10"">","null","trial","null","","0.2,0.8","2:nogo_b","0",""
"null","","html-keyboard-response","318","1713576","0.0-6.0-2.32","","<div style=""font-size:60px;"">+</div>","null","","","","","","",""
"809.0499999998137","","image-keyboard-response","319","1714387","0.0-6.0-0.33","","img/yellow.png","32","trial","32","true","0.8,0.2","1:go_a","",""
"null","","html-keyboard-response","320","1715392","0.0-6.0-1.33","","<img src=""img/yellow-r.png"" border=""10"">","null","trial","32","","0.8,0.2","1:go_a","1",""
"null","","html-keyboard-response","321","1716405","0.0-6.0-2.33","","<div style=""font-size:60px;"">+</div>","null","","","","","","",""
"665.7100000011269","","image-keyboard-response","322","1717073","0.0-6.0-0.34","","img/red.png","32","trial","32","true","1,0","3:go_c","",""
"null","","html-keyboard-response","323","1718092","0.0-6.0-1.34","","<img src=""img/red-r.png"" border=""10"">","null","trial","32","","1,0","3:go_c","1",""
"null","","html-keyboard-response","324","1719107","0.0-6.0-2.34","","<div style=""font-size:60px;"">+</div>","null","","","","","","",""
"null","","image-keyboard-response","325","1720622","0.0-6.0-0.35","","img/orange.png","null","trial","null","true","0,1","4:nogo_d","",""
"null","","html-keyboard-response","326","1721639","0.0-6.0-1.35","","<img src=""img/orange-r.png"">","null","trial","null","","0,1","4:nogo_d","1",""
"null","","html-keyboard-response","327","1722656","0.0-6.0-2.35","","<div style=""font-size:60px;"">+</div>","null","","","","","","",""
"975.3149999997113","","image-keyboard-response","328","1723633","0.0-6.0-0.36","","img/green.png","32","trial","null","false","0.2,0.8","2:nogo_b","",""
"null","","html-keyboard-response","329","1724653","0.0-6.0-1.36","","<img src=""img/green-n.png"" border=""10"">","null","trial","null","","0.2,0.8","2:nogo_b","0",""
"null","","html-keyboard-response","330","1725670","0.0-6.0-2.36","","<div style=""font-size:60px;"">+</div>","null","","","","","","",""
"669.0700000000652","","image-keyboard-response","331","1726341","0.0-6.0-0.37","","img/yellow.png","32","trial","32","true","0.8,0.2","1:go_a","",""
"null","","html-keyboard-response","332","1727355","0.0-6.0-1.37","","<img src=""img/yellow-r.png"" border=""10"">","null","trial","32","","0.8,0.2","1:go_a","1",""
"null","","html-keyboard-response","333","1728358","0.0-6.0-2.37","","<div style=""font-size:60px;"">+</div>","null","","","","","","",""
"508.61500000045635","","image-keyboard-response","334","1728868","0.0-6.0-0.38","","img/red.png","32","trial","32","true","1,0","3:go_c","",""
"null","","html-keyboard-response","335","1729876","0.0-6.0-1.38","","<img src=""img/red-r.png"" border=""10"">","null","trial","32","","1,0","3:go_c","1",""
"null","","html-keyboard-response","336","1730894","0.0-6.0-2.38","","<div style=""font-size:60px;"">+</div>","null","","","","","","",""
"null","","image-keyboard-response","337","1732402","0.0-6.0-0.39","","img/orange.png","null","trial","null","true","0,1","4:nogo_d","",""
"null","","html-keyboard-response","338","1733419","0.0-6.0-1.39","","<img src=""img/orange-r.png"">","null","trial","null","","0,1","4:nogo_d","1",""
"null","","html-keyboard-response","339","1734435","0.0-6.0-2.39","","<div style=""font-size:60px;"">+</div>","null","","","","","","",""
"598.454999999376","","image-keyboard-response","340","1735036","0.0-6.0-0.40","","img/red.png","32","trial","32","true","1,0","3:go_c","",""
"null","","html-keyboard-response","341","1736044","0.0-6.0-1.40","","<img src=""img/red-r.png"" border=""10"">","null","trial","32","","1,0","3:go_c","1",""
"null","","html-keyboard-response","342","1737059","0.0-6.0-2.40","","<div style=""font-size:60px;"">+</div>","null","","","","","","",""
"664.4500000001863","","image-keyboard-response","343","1737725","0.0-6.0-0.41","","img/yellow.png","32","trial","32","true","0.8,0.2","1:go_a","",""
"null","","html-keyboard-response","344","1738732","0.0-6.0-1.41","","<img src=""img/yellow-r.png"" border=""10"">","null","trial","32","","0.8,0.2","1:go_a","1",""
"null","","html-keyboard-response","345","1739746","0.0-6.0-2.41","","<div style=""font-size:60px;"">+</div>","null","","","","","","",""
"737.6800000001676","","image-keyboard-response","346","1740486","0.0-6.0-0.42","","img/green.png","32","trial","null","false","0.2,0.8","2:nogo_b","",""
"null","","html-keyboard-response","347","1741491","0.0-6.0-1.42","","<img src=""img/green-n.png"" border=""10"">","null","trial","null","","0.2,0.8","2:nogo_b","0",""
"null","","html-keyboard-response","348","1742496","0.0-6.0-2.42","","<div style=""font-size:60px;"">+</div>","null","","","","","","",""
"614.8400000000838","","image-keyboard-response","349","1743113","0.0-6.0-0.43","","img/orange.png","32","trial","null","false","0,1","4:nogo_d","",""
"null","","html-keyboard-response","350","1744121","0.0-6.0-1.43","","<img src=""img/orange-n.png"" border=""10"">","null","trial","null","","0,1","4:nogo_d","0",""
"null","","html-keyboard-response","351","1745137","0.0-6.0-2.43","","<div style=""font-size:60px;"">+</div>","null","","","","","","",""
"762.5549999992363","","image-keyboard-response","352","1745902","0.0-6.0-0.44","","img/orange.png","32","trial","null","false","0,1","4:nogo_d","",""
"null","","html-keyboard-response","353","1746911","0.0-6.0-1.44","","<img src=""img/orange-n.png"" border=""10"">","null","trial","null","","0,1","4:nogo_d","0",""
"null","","html-keyboard-response","354","1747923","0.0-6.0-2.44","","<div style=""font-size:60px;"">+</div>","null","","","","","","",""
"1121.3949999983888","","image-keyboard-response","355","1749046","0.0-6.0-0.45","","img/green.png","32","trial","null","false","0.2,0.8","2:nogo_b","",""
"null","","html-keyboard-response","356","1750058","0.0-6.0-1.45","","<img src=""img/green-n.png"" border=""10"">","null","trial","null","","0.2,0.8","2:nogo_b","0",""
"null","","html-keyboard-response","357","1751074","0.0-6.0-2.45","","<div style=""font-size:60px;"">+</div>","null","","","","","","",""
"610.0200000000186","","image-keyboard-response","358","1751686","0.0-6.0-0.46","","img/red.png","32","trial","32","true","1,0","3:go_c","",""
"null","","html-keyboard-response","359","1752697","0.0-6.0-1.46","","<img src=""img/red-r.png"" border=""10"">","null","trial","32","","1,0","3:go_c","1",""
"null","","html-keyboard-response","360","1753714","0.0-6.0-2.46","","<div style=""font-size:60px;"">+</div>","null","","","","","","",""
"609.5049999984913","","image-keyboard-response","361","1754325","0.0-6.0-0.47","","img/yellow.png","32","trial","32","true","0.8,0.2","1:go_a","",""
"null","","html-keyboard-response","362","1755339","0.0-6.0-1.47","","<img src=""img/yellow-r.png"" border=""10"">","null","trial","32","","0.8,0.2","1:go_a","1",""
"null","","html-keyboard-response","363","1756356","0.0-6.0-2.47","","<div style=""font-size:60px;"">+</div>","null","","","","","","",""
"null","","image-keyboard-response","364","1757860","0.0-6.0-0.48","","img/orange.png","null","trial","null","true","0,1","4:nogo_d","",""
"null","","html-keyboard-response","365","1758877","0.0-6.0-1.48","","<img src=""img/orange-r.png"">","null","trial","null","","0,1","4:nogo_d","1",""
"null","","html-keyboard-response","366","1759892","0.0-6.0-2.48","","<div style=""font-size:60px;"">+</div>","null","","","","","","",""
"608.9950000005774","","image-keyboard-response","367","1760503","0.0-6.0-0.49","","img/yellow.png","32","trial","32","true","0.8,0.2","1:go_a","",""
"null","","html-keyboard-response","368","1761510","0.0-6.0-1.49","","<img src=""img/yellow-n.png"" border=""10"">","null","trial","32","","0.8,0.2","1:go_a","0",""
"null","","html-keyboard-response","369","1762527","0.0-6.0-2.49","","<div style=""font-size:60px;"">+</div>","null","","","","","","",""
"887.6099999998696","","image-keyboard-response","370","1763416","0.0-6.0-0.50","","img/green.png","32","trial","null","false","0.2,0.8","2:nogo_b","",""
"null","","html-keyboard-response","371","1764432","0.0-6.0-1.50","","<img src=""img/green-n.png"" border=""10"">","null","trial","null","","0.2,0.8","2:nogo_b","0",""
"null","","html-keyboard-response","372","1765449","0.0-6.0-2.50","","<div style=""font-size:60px;"">+</div>","null","","","","","","",""
"567.7050000012387","","image-keyboard-response","373","1766019","0.0-6.0-0.51","","img/red.png","32","trial","32","true","1,0","3:go_c","",""
"null","","html-keyboard-response","374","1767028","0.0-6.0-1.51","","<img src=""img/red-r.png"" border=""10"">","null","trial","32","","1,0","3:go_c","1",""
"null","","html-keyboard-response","375","1768045","0.0-6.0-2.51","","<div style=""font-size:60px;"">+</div>","null","","","","","","",""
"578.7949999994598","","image-keyboard-response","376","1768626","0.0-6.0-0.52","","img/red.png","32","trial","32","true","1,0","3:go_c","",""
"null","","html-keyboard-response","377","1769635","0.0-6.0-1.52","","<img src=""img/red-r.png"" border=""10"">","null","trial","32","","1,0","3:go_c","1",""
"null","","html-keyboard-response","378","1770651","0.0-6.0-2.52","","<div style=""font-size:60px;"">+</div>","null","","","","","","",""
"1315.490000000922","","image-keyboard-response","379","1771969","0.0-6.0-0.53","","img/green.png","32","trial","null","false","0.2,0.8","2:nogo_b","",""
"null","","html-keyboard-response","380","1772979","0.0-6.0-1.53","","<img src=""img/green-n.png"" border=""10"">","null","trial","null","","0.2,0.8","2:nogo_b","0",""
"null","","html-keyboard-response","381","1773995","0.0-6.0-2.53","","<div style=""font-size:60px;"">+</div>","null","","","","","","",""
"null","","image-keyboard-response","382","1775504","0.0-6.0-0.54","","img/orange.png","null","trial","null","true","0,1","4:nogo_d","",""
"null","","html-keyboard-response","383","1776511","0.0-6.0-1.54","","<img src=""img/orange-r.png"">","null","trial","null","","0,1","4:nogo_d","1",""
"null","","html-keyboard-response","384","1777525","0.0-6.0-2.54","","<div style=""font-size:60px;"">+</div>","null","","","","","","",""
"687.5999999993946","","image-keyboard-response","385","1778215","0.0-6.0-0.55","","img/yellow.png","32","trial","32","true","0.8,0.2","1:go_a","",""
"null","","html-keyboard-response","386","1779227","0.0-6.0-1.55","","<img src=""img/yellow-r.png"" border=""10"">","null","trial","32","","0.8,0.2","1:go_a","1",""
"null","","html-keyboard-response","387","1780244","0.0-6.0-2.55","","<div style=""font-size:60px;"">+</div>","null","","","","","","",""
"607.4049999988638","","image-keyboard-response","388","1780853","0.0-6.0-0.56","","img/red.png","32","trial","32","true","1,0","3:go_c","",""
"null","","html-keyboard-response","389","1781861","0.0-6.0-1.56","","<img src=""img/red-r.png"" border=""10"">","null","trial","32","","1,0","3:go_c","1",""
"null","","html-keyboard-response","390","1782875","0.0-6.0-2.56","","<div style=""font-size:60px;"">+</div>","null","","","","","","",""
"1114.4700000004377","","image-keyboard-response","391","1783994","0.0-6.0-0.57","","img/green.png","32","trial","null","false","0.2,0.8","2:nogo_b","",""
"null","","html-keyboard-response","392","1785010","0.0-6.0-1.57","","<img src=""img/green-r.png"" border=""10"">","null","trial","null","","0.2,0.8","2:nogo_b","1",""
"null","","html-keyboard-response","393","1786026","0.0-6.0-2.57","","<div style=""font-size:60px;"">+</div>","null","","","","","","",""
"912.7899999984074","","image-keyboard-response","394","1786941","0.0-6.0-0.58","","img/yellow.png","32","trial","32","true","0.8,0.2","1:go_a","",""
"null","","html-keyboard-response","395","1787947","0.0-6.0-1.58","","<img src=""img/yellow-r.png"" border=""10"">","null","trial","32","","0.8,0.2","1:go_a","1",""
"null","","html-keyboard-response","396","1788964","0.0-6.0-2.58","","<div style=""font-size:60px;"">+</div>","null","","","","","","",""
"859.8600000003353","","image-keyboard-response","397","1789826","0.0-6.0-0.59","","img/orange.png","32","trial","null","false","0,1","4:nogo_d","",""
"null","","html-keyboard-response","398","1790842","0.0-6.0-1.59","","<img src=""img/orange-n.png"" border=""10"">","null","trial","null","","0,1","4:nogo_d","0",""
"null","","html-keyboard-response","399","1791859","0.0-6.0-2.59","","<div style=""font-size:60px;"">+</div>","null","","","","","","",""
"null","","image-keyboard-response","400","1793369","0.0-6.0-0.60","","img/orange.png","null","trial","null","true","0,1","4:nogo_d","",""
"null","","html-keyboard-response","401","1794386","0.0-6.0-1.60","","<img src=""img/orange-r.png"">","null","trial","null","","0,1","4:nogo_d","1",""
"null","","html-keyboard-response","402","1795401","0.0-6.0-2.60","","<div style=""font-size:60px;"">+</div>","null","","","","","","",""
"678.0299999990966","","image-keyboard-response","403","1796081","0.0-6.0-0.61","","img/yellow.png","32","trial","32","true","0.8,0.2","1:go_a","",""
"null","","html-keyboard-response","404","1797089","0.0-6.0-1.61","","<img src=""img/yellow-r.png"" border=""10"">","null","trial","32","","0.8,0.2","1:go_a","1",""
"null","","html-keyboard-response","405","1798103","0.0-6.0-2.61","","<div style=""font-size:60px;"">+</div>","null","","","","","","",""
"699.1500000003725","","image-keyboard-response","406","1798804","0.0-6.0-0.62","","img/red.png","32","trial","32","true","1,0","3:go_c","",""
"null","","html-keyboard-response","407","1799812","0.0-6.0-1.62","","<img src=""img/red-r.png"" border=""10"">","null","trial","32","","1,0","3:go_c","1",""
"null","","html-keyboard-response","408","1800828","0.0-6.0-2.62","","<div style=""font-size:60px;"">+</div>","null","","","","","","",""
"1129.1999999994878","","image-keyboard-response","409","1801959","0.0-6.0-0.63","","img/green.png","32","trial","null","false","0.2,0.8","2:nogo_b","",""
"null","","html-keyboard-response","410","1802964","0.0-6.0-1.63","","<img src=""img/green-n.png"" border=""10"">","null","trial","null","","0.2,0.8","2:nogo_b","0",""
"null","","html-keyboard-response","411","1803978","0.0-6.0-2.63","","<div style=""font-size:60px;"">+</div>","null","","","","","","",""
"1176.3300000000745","","image-keyboard-response","412","1805157","0.0-6.0-0.64","","img/orange.png","32","trial","null","false","0,1","4:nogo_d","",""
"null","","html-keyboard-response","413","1806166","0.0-6.0-1.64","","<img src=""img/orange-n.png"" border=""10"">","null","trial","null","","0,1","4:nogo_d","0",""
"null","","html-keyboard-response","414","1807182","0.0-6.0-2.64","","<div style=""font-size:60px;"">+</div>","null","","","","","","",""
"561.3549999997485","","image-keyboard-response","415","1807745","0.0-6.0-0.65","","img/red.png","32","trial","32","true","1,0","3:go_c","",""
"null","","html-keyboard-response","416","1808758","0.0-6.0-1.65","","<img src=""img/red-r.png"" border=""10"">","null","trial","32","","1,0","3:go_c","1",""
"null","","html-keyboard-response","417","1809780","0.0-6.0-2.65","","<div style=""font-size:60px;"">+</div>","null","","","","","","",""
"796.6849999991246","","image-keyboard-response","418","1810578","0.0-6.0-0.66","","img/green.png","32","trial","null","false","0.2,0.8","2:nogo_b","",""
"null","","html-keyboard-response","419","1811590","0.0-6.0-1.66","","<img src=""img/green-n.png"" border=""10"">","null","trial","null","","0.2,0.8","2:nogo_b","0",""
"null","","html-keyboard-response","420","1812601","0.0-6.0-2.66","","<div style=""font-size:60px;"">+</div>","null","","","","","","",""
"527.3399999989197","","image-keyboard-response","421","1813130","0.0-6.0-0.67","","img/yellow.png","32","trial","32","true","0.8,0.2","1:go_a","",""
"null","","html-keyboard-response","422","1814149","0.0-6.0-1.67","","<img src=""img/yellow-n.png"" border=""10"">","null","trial","32","","0.8,0.2","1:go_a","0",""
"null","","html-keyboard-response","423","1815165","0.0-6.0-2.67","","<div style=""font-size:60px;"">+</div>","null","","","","","","",""
"546.9699999995064","","image-keyboard-response","424","1815714","0.0-6.0-0.68","","img/orange.png","32","trial","null","false","0,1","4:nogo_d","",""
"null","","html-keyboard-response","425","1816728","0.0-6.0-1.68","","<img src=""img/orange-n.png"" border=""10"">","null","trial","null","","0,1","4:nogo_d","0",""
"null","","html-keyboard-response","426","1817743","0.0-6.0-2.68","","<div style=""font-size:60px;"">+</div>","null","","","","","","",""
"1100.0350000013132","","image-keyboard-response","427","1818844","0.0-6.0-0.69","","img/green.png","32","trial","null","false","0.2,0.8","2:nogo_b","",""
"null","","html-keyboard-response","428","1819858","0.0-6.0-1.69","","<img src=""img/green-n.png"" border=""10"">","null","trial","null","","0.2,0.8","2:nogo_b","0",""
"null","","html-keyboard-response","429","1820873","0.0-6.0-2.69","","<div style=""font-size:60px;"">+</div>","null","","","","","","",""
"755.9149999998044","","image-keyboard-response","430","1821631","0.0-6.0-0.70","","img/yellow.png","32","trial","32","true","0.8,0.2","1:go_a","",""
"null","","html-keyboard-response","431","1822649","0.0-6.0-1.70","","<img src=""img/yellow-n.png"" border=""10"">","null","trial","32","","0.8,0.2","1:go_a","0",""
"null","","html-keyboard-response","432","1823666","0.0-6.0-2.70","","<div style=""font-size:60px;"">+</div>","null","","","","","","",""
"617.2000000006519","","image-keyboard-response","433","1824285","0.0-6.0-0.71","","img/red.png","32","trial","32","true","1,0","3:go_c","",""
"null","","html-keyboard-response","434","1825304","0.0-6.0-1.71","","<img src=""img/red-r.png"" border=""10"">","null","trial","32","","1,0","3:go_c","1",""
"null","","html-keyboard-response","435","1826322","0.0-6.0-2.71","","<div style=""font-size:60px;"">+</div>","null","","","","","","",""
"1039.0650000008754","","image-keyboard-response","436","1827363","0.0-6.0-0.72","","img/green.png","32","trial","null","false","0.2,0.8","2:nogo_b","",""
"null","","html-keyboard-response","437","1828368","0.0-6.0-1.72","","<img src=""img/green-n.png"" border=""10"">","null","trial","null","","0.2,0.8","2:nogo_b","0",""
"null","","html-keyboard-response","438","1829383","0.0-6.0-2.72","","<div style=""font-size:60px;"">+</div>","null","","","","","","",""
"null","","image-keyboard-response","439","1830888","0.0-6.0-0.73","","img/orange.png","null","trial","null","true","0,1","4:nogo_d","",""
"null","","html-keyboard-response","440","1831903","0.0-6.0-1.73","","<img src=""img/orange-r.png"">","null","trial","null","","0,1","4:nogo_d","1",""
"null","","html-keyboard-response","441","1832905","0.0-6.0-2.73","","<div style=""font-size:60px;"">+</div>","null","","","","","","",""
"917.2049999998417","","image-keyboard-response","442","1833824","0.0-6.0-0.74","","img/yellow.png","32","trial","32","true","0.8,0.2","1:go_a","",""
"null","","html-keyboard-response","443","1834841","0.0-6.0-1.74","","<img src=""img/yellow-r.png"" border=""10"">","null","trial","32","","0.8,0.2","1:go_a","1",""
"null","","html-keyboard-response","444","1835857","0.0-6.0-2.74","","<div style=""font-size:60px;"">+</div>","null","","","","","","",""
"658.5050000012852","","image-keyboard-response","445","1836518","0.0-6.0-0.75","","img/red.png","32","trial","32","true","1,0","3:go_c","",""
"null","","html-keyboard-response","446","1837524","0.0-6.0-1.75","","<img src=""img/red-r.png"" border=""10"">","null","trial","32","","1,0","3:go_c","1",""
"null","","html-keyboard-response","447","1838540","0.0-6.0-2.75","","<div style=""font-size:60px;"">+</div>","null","","","","","","",""
"1028.6949999991339","","image-keyboard-response","448","1839571","0.0-6.0-0.76","","img/orange.png","32","trial","null","false","0,1","4:nogo_d","",""
"null","","html-keyboard-response","449","1840587","0.0-6.0-1.76","","<img src=""img/orange-n.png"" border=""10"">","null","trial","null","","0,1","4:nogo_d","0",""
"null","","html-keyboard-response","450","1841603","0.0-6.0-2.76","","<div style=""font-size:60px;"">+</div>","null","","","","","","",""
"904.7950000003912","","image-keyboard-response","451","1842510","0.0-6.0-0.77","","img/yellow.png","32","trial","32","true","0.8,0.2","1:go_a","",""
"null","","html-keyboard-response","452","1843529","0.0-6.0-1.77","","<img src=""img/yellow-n.png"" border=""10"">","null","trial","32","","0.8,0.2","1:go_a","0",""
"null","","html-keyboard-response","453","1844539","0.0-6.0-2.77","","<div style=""font-size:60px;"">+</div>","null","","","","","","",""
"1267.4900000002235","","image-keyboard-response","454","1845809","0.0-6.0-0.78","","img/green.png","32","trial","null","false","0.2,0.8","2:nogo_b","",""
"null","","html-keyboard-response","455","1846825","0.0-6.0-1.78","","<img src=""img/green-r.png"" border=""10"">","null","trial","null","","0.2,0.8","2:nogo_b","1",""
"null","","html-keyboard-response","456","1847842","0.0-6.0-2.78","","<div style=""font-size:60px;"">+</div>","null","","","","","","",""
"488.05000000004657","","image-keyboard-response","457","1848332","0.0-6.0-0.79","","img/red.png","32","trial","32","true","1,0","3:go_c","",""
"null","","html-keyboard-response","458","1849352","0.0-6.0-1.79","","<img src=""img/red-r.png"" border=""10"">","null","trial","32","","1,0","3:go_c","1",""
"null","","html-keyboard-response","459","1850367","0.0-6.0-2.79","","<div style=""font-size:60px;"">+</div>","null","","","","","","",""
"null","","image-keyboard-response","460","1851871","0.0-6.0-0.80","","img/orange.png","null","trial","null","true","0,1","4:nogo_d","",""
"null","","html-keyboard-response","461","1852876","0.0-6.0-1.80","","<img src=""img/orange-r.png"">","null","trial","null","","0,1","4:nogo_d","1",""
"null","","html-keyboard-response","462","1853888","0.0-6.0-2.80","","<div style=""font-size:60px;"">+</div>","null","","","","","","",""
"null","","image-keyboard-response","463","1855398","0.0-6.0-0.81","","img/green.png","null","trial","null","true","0.2,0.8","2:nogo_b","",""
"null","","html-keyboard-response","464","1856413","0.0-6.0-1.81","","<img src=""img/green-n.png"">","null","trial","null","","0.2,0.8","2:nogo_b","0",""
"null","","html-keyboard-response","465","1857429","0.0-6.0-2.81","","<div style=""font-size:60px;"">+</div>","null","","","","","","",""
"971.6250000002328","","image-keyboard-response","466","1858403","0.0-6.0-0.82","","img/yellow.png","32","trial","32","true","0.8,0.2","1:go_a","",""
"null","","html-keyboard-response","467","1859413","0.0-6.0-1.82","","<img src=""img/yellow-r.png"" border=""10"">","null","trial","32","","0.8,0.2","1:go_a","1",""
"null","","html-keyboard-response","468","1860430","0.0-6.0-2.82","","<div style=""font-size:60px;"">+</div>","null","","","","","","",""
"602.8900000001304","","image-keyboard-response","469","1861034","0.0-6.0-0.83","","img/red.png","32","trial","32","true","1,0","3:go_c","",""
"null","","html-keyboard-response","470","1862053","0.0-6.0-1.83","","<img src=""img/red-r.png"" border=""10"">","null","trial","32","","1,0","3:go_c","1",""
"null","","html-keyboard-response","471","1863064","0.0-6.0-2.83","","<div style=""font-size:60px;"">+</div>","null","","","","","","",""
"null","","image-keyboard-response","472","1864574","0.0-6.0-0.84","","img/green.png","null","trial","null","true","0.2,0.8","2:nogo_b","",""
"null","","html-keyboard-response","473","1865584","0.0-6.0-1.84","","<img src=""img/green-r.png"">","null","trial","null","","0.2,0.8","2:nogo_b","1",""
"null","","html-keyboard-response","474","1866599","0.0-6.0-2.84","","<div style=""font-size:60px;"">+</div>","null","","","","","","",""
"1007.760000000475","","image-keyboard-response","475","1867609","0.0-6.0-0.85","","img/orange.png","32","trial","null","false","0,1","4:nogo_d","",""
"null","","html-keyboard-response","476","1868616","0.0-6.0-1.85","","<img src=""img/orange-n.png"" border=""10"">","null","trial","null","","0,1","4:nogo_d","0",""
"null","","html-keyboard-response","477","1869631","0.0-6.0-2.85","","<div style=""font-size:60px;"">+</div>","null","","","","","","",""
"1091.3799999998882","","image-keyboard-response","478","1870725","0.0-6.0-0.86","","img/yellow.png","32","trial","32","true","0.8,0.2","1:go_a","",""
"null","","html-keyboard-response","479","1871734","0.0-6.0-1.86","","<img src=""img/yellow-n.png"" border=""10"">","null","trial","32","","0.8,0.2","1:go_a","0",""
"null","","html-keyboard-response","480","1872736","0.0-6.0-2.86","","<div style=""font-size:60px;"">+</div>","null","","","","","","",""
"624.850000000326","","image-keyboard-response","481","1873363","0.0-6.0-0.87","","img/red.png","32","trial","32","true","1,0","3:go_c","",""
"null","","html-keyboard-response","482","1874381","0.0-6.0-1.87","","<img src=""img/red-r.png"" border=""10"">","null","trial","32","","1,0","3:go_c","1",""
"null","","html-keyboard-response","483","1875398","0.0-6.0-2.87","","<div style=""font-size:60px;"">+</div>","null","","","","","","",""
"907.5599999995902","","image-keyboard-response","484","1876307","0.0-6.0-0.88","","img/green.png","32","trial","null","false","0.2,0.8","2:nogo_b","",""
"null","","html-keyboard-response","485","1877320","0.0-6.0-1.88","","<img src=""img/green-n.png"" border=""10"">","null","trial","null","","0.2,0.8","2:nogo_b","0",""
"null","","html-keyboard-response","486","1878334","0.0-6.0-2.88","","<div style=""font-size:60px;"">+</div>","null","","","","","","",""
"null","","image-keyboard-response","487","1879841","0.0-6.0-0.89","","img/orange.png","null","trial","null","true","0,1","4:nogo_d","",""
"null","","html-keyboard-response","488","1880860","0.0-6.0-1.89","","<img src=""img/orange-r.png"">","null","trial","null","","0,1","4:nogo_d","1",""
"null","","html-keyboard-response","489","1881871","0.0-6.0-2.89","","<div style=""font-size:60px;"">+</div>","null","","","","","","",""
"546.3049999999348","","image-keyboard-response","490","1882420","0.0-6.0-0.90","","img/red.png","32","trial","32","true","1,0","3:go_c","",""
"null","","html-keyboard-response","491","1883428","0.0-6.0-1.90","","<img src=""img/red-r.png"" border=""10"">","null","trial","32","","1,0","3:go_c","1",""
"null","","html-keyboard-response","492","1884444","0.0-6.0-2.90","","<div style=""font-size:60px;"">+</div>","null","","","","","","",""
"1009.409999998752","","image-keyboard-response","493","1885456","0.0-6.0-0.91","","img/yellow.png","32","trial","32","true","0.8,0.2","1:go_a","",""
"null","","html-keyboard-response","494","1886474","0.0-6.0-1.91","","<img src=""img/yellow-r.png"" border=""10"">","null","trial","32","","0.8,0.2","1:go_a","1",""
"null","","html-keyboard-response","495","1887493","0.0-6.0-2.91","","<div style=""font-size:60px;"">+</div>","null","","","","","","",""
"670.0299999993294","","image-keyboard-response","496","1888167","0.0-6.0-0.92","","img/yellow.png","32","trial","32","true","0.8,0.2","1:go_a","",""
"null","","html-keyboard-response","497","1889179","0.0-6.0-1.92","","<img src=""img/yellow-r.png"" border=""10"">","null","trial","32","","0.8,0.2","1:go_a","1",""
"null","","html-keyboard-response","498","1890193","0.0-6.0-2.92","","<div style=""font-size:60px;"">+</div>","null","","","","","","",""
"null","","image-keyboard-response","499","1891709","0.0-6.0-0.93","","img/green.png","null","trial","null","true","0.2,0.8","2:nogo_b","",""
"null","","html-keyboard-response","500","1892725","0.0-6.0-1.93","","<img src=""img/green-r.png"">","null","trial","null","","0.2,0.8","2:nogo_b","1",""
"null","","html-keyboard-response","501","1893728","0.0-6.0-2.93","","<div style=""font-size:60px;"">+</div>","null","","","","","","",""
"523.9600000004284","","image-keyboard-response","502","1894254","0.0-6.0-0.94","","img/red.png","32","trial","32","true","1,0","3:go_c","",""
"null","","html-keyboard-response","503","1895272","0.0-6.0-1.94","","<img src=""img/red-r.png"" border=""10"">","null","trial","32","","1,0","3:go_c","1",""
"null","","html-keyboard-response","504","1896287","0.0-6.0-2.94","","<div style=""font-size:60px;"">+</div>","null","","","","","","",""
"1007.6149999988265","","image-keyboard-response","505","1897297","0.0-6.0-0.95","","img/orange.png","32","trial","null","false","0,1","4:nogo_d","",""
"null","","html-keyboard-response","506","1898303","0.0-6.0-1.95","","<img src=""img/orange-n.png"" border=""10"">","null","trial","null","","0,1","4:nogo_d","0",""
"null","","html-keyboard-response","507","1899318","0.0-6.0-2.95","","<div style=""font-size:60px;"">+</div>","null","","","","","","",""
"566.2449999998789","","image-keyboard-response","508","1899886","0.0-6.0-0.96","","img/red.png","32","trial","32","true","1,0","3:go_c","",""
"null","","html-keyboard-response","509","1900903","0.0-6.0-1.96","","<img src=""img/red-r.png"" border=""10"">","null","trial","32","","1,0","3:go_c","1",""
"null","","html-keyboard-response","510","1901917","0.0-6.0-2.96","","<div style=""font-size:60px;"">+</div>","null","","","","","","",""
"762.775000001071","","image-keyboard-response","511","1902682","0.0-6.0-0.97","","img/yellow.png","32","trial","32","true","0.8,0.2","1:go_a","",""
"null","","html-keyboard-response","512","1903689","0.0-6.0-1.97","","<img src=""img/yellow-r.png"" border=""10"">","null","trial","32","","0.8,0.2","1:go_a","1",""
"null","","html-keyboard-response","513","1904707","0.0-6.0-2.97","","<div style=""font-size:60px;"">+</div>","null","","","","","","",""
"957.205000000773","","image-keyboard-response","514","1905667","0.0-6.0-0.98","","img/orange.png","32","trial","null","false","0,1","4:nogo_d","",""
"null","","html-keyboard-response","515","1906682","0.0-6.0-1.98","","<img src=""img/orange-n.png"" border=""10"">","null","trial","null","","0,1","4:nogo_d","0",""
"null","","html-keyboard-response","516","1907695","0.0-6.0-2.98","","<div style=""font-size:60px;"">+</div>","null","","","","","","",""
"807.0300000000279","","image-keyboard-response","517","1908504","0.0-6.0-0.99","","img/green.png","32","trial","null","false","0.2,0.8","2:nogo_b","",""
"null","","html-keyboard-response","518","1909521","0.0-6.0-1.99","","<img src=""img/green-n.png"" border=""10"">","null","trial","null","","0.2,0.8","2:nogo_b","0",""
"null","","html-keyboard-response","519","1910526","0.0-6.0-2.99","","<div style=""font-size:60px;"">+</div>","null","","","","","","",""
"1083.4200000008568","","image-keyboard-response","520","1911611","0.0-6.0-0.100","","img/yellow.png","32","trial","32","true","0.8,0.2","1:go_a","",""
"null","","html-keyboard-response","521","1912626","0.0-6.0-1.100","","<img src=""img/yellow-r.png"" border=""10"">","null","trial","32","","0.8,0.2","1:go_a","1",""
"null","","html-keyboard-response","522","1913630","0.0-6.0-2.100","","<div style=""font-size:60px;"">+</div>","null","","","","","","",""
"493.8349999994971","","image-keyboard-response","523","1914127","0.0-6.0-0.101","","img/red.png","32","trial","32","true","1,0","3:go_c","",""
"null","","html-keyboard-response","524","1915145","0.0-6.0-1.101","","<img src=""img/red-r.png"" border=""10"">","null","trial","32","","1,0","3:go_c","1",""
"null","","html-keyboard-response","525","1916162","0.0-6.0-2.101","","<div style=""font-size:60px;"">+</div>","null","","","","","","",""
"1001.9150000007357","","image-keyboard-response","526","1917166","0.0-6.0-0.102","","img/orange.png","32","trial","null","false","0,1","4:nogo_d","",""
"null","","html-keyboard-response","527","1918177","0.0-6.0-1.102","","<img src=""img/orange-n.png"" border=""10"">","null","trial","null","","0,1","4:nogo_d","0",""
"null","","html-keyboard-response","528","1919185","0.0-6.0-2.102","","<div style=""font-size:60px;"">+</div>","null","","","","","","",""
"1011.8600000005681","","image-keyboard-response","529","1920199","0.0-6.0-0.103","","img/green.png","32","trial","null","false","0.2,0.8","2:nogo_b","",""
"null","","html-keyboard-response","530","1921208","0.0-6.0-1.103","","<img src=""img/green-r.png"" border=""10"">","null","trial","null","","0.2,0.8","2:nogo_b","1",""
"null","","html-keyboard-response","531","1922211","0.0-6.0-2.103","","<div style=""font-size:60px;"">+</div>","null","","","","","","",""
"1150.5500000002794","","image-keyboard-response","532","1923364","0.0-6.0-0.104","","img/green.png","32","trial","null","false","0.2,0.8","2:nogo_b","",""
"null","","html-keyboard-response","533","1924380","0.0-6.0-1.104","","<img src=""img/green-n.png"" border=""10"">","null","trial","null","","0.2,0.8","2:nogo_b","0",""
"null","","html-keyboard-response","534","1925396","0.0-6.0-2.104","","<div style=""font-size:60px;"">+</div>","null","","","","","","",""
"943.4600000001956","","image-keyboard-response","535","1926341","0.0-6.0-0.105","","img/yellow.png","32","trial","32","true","0.8,0.2","1:go_a","",""
"null","","html-keyboard-response","536","1927350","0.0-6.0-1.105","","<img src=""img/yellow-n.png"" border=""10"">","null","trial","32","","0.8,0.2","1:go_a","0",""
"null","","html-keyboard-response","537","1928364","0.0-6.0-2.105","","<div style=""font-size:60px;"">+</div>","null","","","","","","",""
"1032.3550000011455","","image-keyboard-response","538","1929401","0.0-6.0-0.106","","img/orange.png","32","trial","null","false","0,1","4:nogo_d","",""
"null","","html-keyboard-response","539","1930411","0.0-6.0-1.106","","<img src=""img/orange-n.png"" border=""10"">","null","trial","null","","0,1","4:nogo_d","0",""
"null","","html-keyboard-response","540","1931428","0.0-6.0-2.106","","<div style=""font-size:60px;"">+</div>","null","","","","","","",""
"602.4999999990687","","image-keyboard-response","541","1932032","0.0-6.0-0.107","","img/red.png","32","trial","32","true","1,0","3:go_c","",""
"null","","html-keyboard-response","542","1933051","0.0-6.0-1.107","","<img src=""img/red-r.png"" border=""10"">","null","trial","32","","1,0","3:go_c","1",""
"null","","html-keyboard-response","543","1934067","0.0-6.0-2.107","","<div style=""font-size:60px;"">+</div>","null","","","","","","",""
"1218.7599999997765","","image-keyboard-response","544","1935287","0.0-6.0-0.108","","img/red.png","32","trial","32","true","1,0","3:go_c","",""
"null","","html-keyboard-response","545","1936302","0.0-6.0-1.108","","<img src=""img/red-r.png"" border=""10"">","null","trial","32","","1,0","3:go_c","1",""
"null","","html-keyboard-response","546","1937319","0.0-6.0-2.108","","<div style=""font-size:60px;"">+</div>","null","","","","","","",""
"null","","image-keyboard-response","547","1938822","0.0-6.0-0.109","","img/green.png","null","trial","null","true","0.2,0.8","2:nogo_b","",""
"null","","html-keyboard-response","548","1939838","0.0-6.0-1.109","","<img src=""img/green-r.png"">","null","trial","null","","0.2,0.8","2:nogo_b","1",""
"null","","html-keyboard-response","549","1940853","0.0-6.0-2.109","","<div style=""font-size:60px;"">+</div>","null","","","","","","",""
"1472.8799999994226","","image-keyboard-response","550","1942328","0.0-6.0-0.110","","img/orange.png","32","trial","null","false","0,1","4:nogo_d","",""
"null","","html-keyboard-response","551","1943332","0.0-6.0-1.110","","<img src=""img/orange-n.png"" border=""10"">","null","trial","null","","0,1","4:nogo_d","0",""
"null","","html-keyboard-response","552","1944347","0.0-6.0-2.110","","<div style=""font-size:60px;"">+</div>","null","","","","","","",""
"900.0149999991991","","image-keyboard-response","553","1945249","0.0-6.0-0.111","","img/yellow.png","32","trial","32","true","0.8,0.2","1:go_a","",""
"null","","html-keyboard-response","554","1946255","0.0-6.0-1.111","","<img src=""img/yellow-r.png"" border=""10"">","null","trial","32","","0.8,0.2","1:go_a","1",""
"null","","html-keyboard-response","555","1947269","0.0-6.0-2.111","","<div style=""font-size:60px;"">+</div>","null","","","","","","",""
"1148.2549999982584","","image-keyboard-response","556","1948419","0.0-6.0-0.112","","img/orange.png","32","trial","null","false","0,1","4:nogo_d","",""
"null","","html-keyboard-response","557","1949425","0.0-6.0-1.112","","<img src=""img/orange-n.png"" border=""10"">","null","trial","null","","0,1","4:nogo_d","0",""
"null","","html-keyboard-response","558","1950442","0.0-6.0-2.112","","<div style=""font-size:60px;"">+</div>","null","","","","","","",""
"909.8800000010524","","image-keyboard-response","559","1951354","0.0-6.0-0.113","","img/yellow.png","32","trial","32","true","0.8,0.2","1:go_a","",""
"null","","html-keyboard-response","560","1952363","0.0-6.0-1.113","","<img src=""img/yellow-r.png"" border=""10"">","null","trial","32","","0.8,0.2","1:go_a","1",""
"null","","html-keyboard-response","561","1953378","0.0-6.0-2.113","","<div style=""font-size:60px;"">+</div>","null","","","","","","",""
"683.8349999997299","","image-keyboard-response","562","1954064","0.0-6.0-0.114","","img/red.png","32","trial","32","true","1,0","3:go_c","",""
"null","","html-keyboard-response","563","1955079","0.0-6.0-1.114","","<img src=""img/red-r.png"" border=""10"">","null","trial","32","","1,0","3:go_c","1",""
"null","","html-keyboard-response","564","1956083","0.0-6.0-2.114","","<div style=""font-size:60px;"">+</div>","null","","","","","","",""
"1442.8449999995064","","image-keyboard-response","565","1957529","0.0-6.0-0.115","","img/green.png","32","trial","null","false","0.2,0.8","2:nogo_b","",""
"null","","html-keyboard-response","566","1958550","0.0-6.0-1.115","","<img src=""img/green-n.png"" border=""10"">","null","trial","null","","0.2,0.8","2:nogo_b","0",""
"null","","html-keyboard-response","567","1959567","0.0-6.0-2.115","","<div style=""font-size:60px;"">+</div>","null","","","","","","",""
"1241.1099999989383","","image-keyboard-response","568","1960810","0.0-6.0-0.116","","img/green.png","32","trial","null","false","0.2,0.8","2:nogo_b","",""
"null","","html-keyboard-response","569","1961822","0.0-6.0-1.116","","<img src=""img/green-r.png"" border=""10"">","null","trial","null","","0.2,0.8","2:nogo_b","1",""
"null","","html-keyboard-response","570","1962837","0.0-6.0-2.116","","<div style=""font-size:60px;"">+</div>","null","","","","","","",""
"833.6700000001583","","image-keyboard-response","571","1963673","0.0-6.0-0.117","","img/yellow.png","32","trial","32","true","0.8,0.2","1:go_a","",""
"null","","html-keyboard-response","572","1964691","0.0-6.0-1.117","","<img src=""img/yellow-n.png"" border=""10"">","null","trial","32","","0.8,0.2","1:go_a","0",""
"null","","html-keyboard-response","573","1965706","0.0-6.0-2.117","","<div style=""font-size:60px;"">+</div>","null","","","","","","",""
"639.6349999995437","","image-keyboard-response","574","1966348","0.0-6.0-0.118","","img/red.png","32","trial","32","true","1,0","3:go_c","",""
"null","","html-keyboard-response","575","1967362","0.0-6.0-1.118","","<img src=""img/red-r.png"" border=""10"">","null","trial","32","","1,0","3:go_c","1",""
"null","","html-keyboard-response","576","1968379","0.0-6.0-2.118","","<div style=""font-size:60px;"">+</div>","null","","","","","","",""
"1368.8750000002328","","image-keyboard-response","577","1969750","0.0-6.0-0.119","","img/orange.png","32","trial","null","false","0,1","4:nogo_d","",""
"null","","html-keyboard-response","578","1970773","0.0-6.0-1.119","","<img src=""img/orange-n.png"" border=""10"">","null","trial","null","","0,1","4:nogo_d","0",""
"null","","html-keyboard-response","579","1971789","0.0-6.0-2.119","","<div style=""font-size:60px;"">+</div>","null","","","","","","",""
"4162.699999998789","","instructions","580","1975952","0.0-7.0","[{""page_index"":0,""viewing_time"":4161.64000000013}]","","","","","","","","",""
"1371.800000000745","","image-keyboard-response","581","1977328","0.0-8.0-0.0","","img/green.png","32","trial","32","true","0.6,0.4","3:go_c","",""
"null","","html-keyboard-response","582","1978346","0.0-8.0-1.0","","<img src=""img/green-n.png"" border=""10"">","null","trial","32","","0.6,0.4","3:go_c","0",""
"null","","html-keyboard-response","583","1979362","0.0-8.0-2.0","","<div style=""font-size:60px;"">+</div>","null","","","","","","",""
"904.5200000000186","","image-keyboard-response","584","1980269","0.0-8.0-0.1","","img/red.png","32","trial","32","true","0.6,0.4","1:go_a","",""
"null","","html-keyboard-response","585","1981285","0.0-8.0-1.1","","<img src=""img/red-n.png"" border=""10"">","null","trial","32","","0.6,0.4","1:go_a","0",""
"null","","html-keyboard-response","586","1982301","0.0-8.0-2.1","","<div style=""font-size:60px;"">+</div>","null","","","","","","",""
"1058.1750000000466","","image-keyboard-response","587","1983361","0.0-8.0-0.2","","img/yellow.png","32","trial","null","false","0.4,0.6","2:nogo_b","",""
"null","","html-keyboard-response","588","1984366","0.0-8.0-1.2","","<img src=""img/yellow-r.png"" border=""10"">","null","trial","null","","0.4,0.6","2:nogo_b","1",""
"null","","html-keyboard-response","589","1985380","0.0-8.0-2.2","","<div style=""font-size:60px;"">+</div>","null","","","","","","",""
"1151.440000001574","","image-keyboard-response","590","1986533","0.0-8.0-0.3","","img/pink.png","32","trial","null","false","0.4,0.6","4:nogo_d","",""
"null","","html-keyboard-response","591","1987541","0.0-8.0-1.3","","<img src=""img/pink-n.png"" border=""10"">","null","trial","null","","0.4,0.6","4:nogo_d","0",""
"null","","html-keyboard-response","592","1988551","0.0-8.0-2.3","","<div style=""font-size:60px;"">+</div>","null","","","","","","",""
"null","","image-keyboard-response","593","1990064","0.0-8.0-0.4","","img/green.png","null","trial","32","false","0.6,0.4","3:go_c","",""
"null","","html-keyboard-response","594","1991081","0.0-8.0-1.4","","<img src=""img/green-n.png"">","null","trial","32","","0.6,0.4","3:go_c","0",""
"null","","html-keyboard-response","595","1992097","0.0-8.0-2.4","","<div style=""font-size:60px;"">+</div>","null","","","","","","",""
"null","","image-keyboard-response","596","1993612","0.0-8.0-0.5","","img/red.png","null","trial","32","false","0.6,0.4","1:go_a","",""
"null","","html-keyboard-response","597","1994626","0.0-8.0-1.5","","<img src=""img/red-n.png"">","null","trial","32","","0.6,0.4","1:go_a","0",""
"null","","html-keyboard-response","598","1995643","0.0-8.0-2.5","","<div style=""font-size:60px;"">+</div>","null","","","","","","",""
"816.6750000000466","","image-keyboard-response","599","1996462","0.0-8.0-0.6","","img/yellow.png","32","trial","null","false","0.4,0.6","2:nogo_b","",""
"null","","html-keyboard-response","600","1997471","0.0-8.0-1.6","","<img src=""img/yellow-n.png"" border=""10"">","null","trial","null","","0.4,0.6","2:nogo_b","0",""
"null","","html-keyboard-response","601","1998487","0.0-8.0-2.6","","<div style=""font-size:60px;"">+</div>","null","","","","","","",""
"null","","image-keyboard-response","602","2000001","0.0-8.0-0.7","","img/pink.png","null","trial","null","true","0.4,0.6","4:nogo_d","",""
"null","","html-keyboard-response","603","2001019","0.0-8.0-1.7","","<img src=""img/pink-n.png"">","null","trial","null","","0.4,0.6","4:nogo_d","0",""
"null","","html-keyboard-response","604","2002034","0.0-8.0-2.7","","<div style=""font-size:60px;"">+</div>","null","","","","","","",""
"null","","image-keyboard-response","605","2003550","0.0-8.0-0.8","","img/red.png","null","trial","32","false","0.6,0.4","1:go_a","",""
"null","","html-keyboard-response","606","2004566","0.0-8.0-1.8","","<img src=""img/red-n.png"">","null","trial","32","","0.6,0.4","1:go_a","0",""
"null","","html-keyboard-response","607","2005581","0.0-8.0-2.8","","<div style=""font-size:60px;"">+</div>","null","","","","","","",""
"null","","image-keyboard-response","608","2007094","0.0-8.0-0.9","","img/green.png","null","trial","32","false","0.6,0.4","3:go_c","",""
"null","","html-keyboard-response","609","2008110","0.0-8.0-1.9","","<img src=""img/green-r.png"">","null","trial","32","","0.6,0.4","3:go_c","1",""
"null","","html-keyboard-response","610","2009127","0.0-8.0-2.9","","<div style=""font-size:60px;"">+</div>","null","","","","","","",""
"661.4300000001676","","image-keyboard-response","611","2009791","0.0-8.0-0.10","","img/yellow.png","32","trial","null","false","0.4,0.6","2:nogo_b","",""
"null","","html-keyboard-response","612","2010802","0.0-8.0-1.10","","<img src=""img/yellow-r.png"" border=""10"">","null","trial","null","","0.4,0.6","2:nogo_b","1",""
"null","","html-keyboard-response","613","2011819","0.0-8.0-2.10","","<div style=""font-size:60px;"">+</div>","null","","","","","","",""
"null","","image-keyboard-response","614","2013345","0.0-8.0-0.11","","img/pink.png","null","trial","null","true","0.4,0.6","4:nogo_d","",""
"null","","html-keyboard-response","615","2014361","0.0-8.0-1.11","","<img src=""img/pink-n.png"">","null","trial","null","","0.4,0.6","4:nogo_d","0",""
"null","","html-keyboard-response","616","2015376","0.0-8.0-2.11","","<div style=""font-size:60px;"">+</div>","null","","","","","","",""
"744.8650000006892","","image-keyboard-response","617","2016122","0.0-8.0-0.12","","img/green.png","32","trial","32","true","0.6,0.4","3:go_c","",""
"null","","html-keyboard-response","618","2017141","0.0-8.0-1.12","","<img src=""img/green-r.png"" border=""10"">","null","trial","32","","0.6,0.4","3:go_c","1",""
"null","","html-keyboard-response","619","2018158","0.0-8.0-2.12","","<div style=""font-size:60px;"">+</div>","null","","","","","","",""
"null","","image-keyboard-response","620","2019672","0.0-8.0-0.13","","img/red.png","null","trial","32","false","0.6,0.4","1:go_a","",""
"null","","html-keyboard-response","621","2020690","0.0-8.0-1.13","","<img src=""img/red-n.png"">","null","trial","32","","0.6,0.4","1:go_a","0",""
"null","","html-keyboard-response","622","2021703","0.0-8.0-2.13","","<div style=""font-size:60px;"">+</div>","null","","","","","","",""
"672.9649999996182","","image-keyboard-response","623","2022378","0.0-8.0-0.14","","img/yellow.png","32","trial","null","false","0.4,0.6","2:nogo_b","",""
"null","","html-keyboard-response","624","2023390","0.0-8.0-1.14","","<img src=""img/yellow-n.png"" border=""10"">","null","trial","null","","0.4,0.6","2:nogo_b","0",""
"null","","html-keyboard-response","625","2024408","0.0-8.0-2.14","","<div style=""font-size:60px;"">+</div>","null","","","","","","",""
"null","","image-keyboard-response","626","2025938","0.0-8.0-0.15","","img/pink.png","null","trial","null","true","0.4,0.6","4:nogo_d","",""
"null","","html-keyboard-response","627","2026955","0.0-8.0-1.15","","<img src=""img/pink-n.png"">","null","trial","null","","0.4,0.6","4:nogo_d","0",""
"null","","html-keyboard-response","628","2027969","0.0-8.0-2.15","","<div style=""font-size:60px;"">+</div>","null","","","","","","",""
"691.0249999999069","","image-keyboard-response","629","2028662","0.0-8.0-0.16","","img/yellow.png","32","trial","null","false","0.4,0.6","2:nogo_b","",""
"null","","html-keyboard-response","630","2029673","0.0-8.0-1.16","","<img src=""img/yellow-n.png"" border=""10"">","null","trial","null","","0.4,0.6","2:nogo_b","0",""
"null","","html-keyboard-response","631","2030689","0.0-8.0-2.16","","<div style=""font-size:60px;"">+</div>","null","","","","","","",""
"null","","image-keyboard-response","632","2032204","0.0-8.0-0.17","","img/red.png","null","trial","32","false","0.6,0.4","1:go_a","",""
"null","","html-keyboard-response","633","2033219","0.0-8.0-1.17","","<img src=""img/red-n.png"">","null","trial","32","","0.6,0.4","1:go_a","0",""
"null","","html-keyboard-response","634","2034235","0.0-8.0-2.17","","<div style=""font-size:60px;"">+</div>","null","","","","","","",""
"769.7649999991991","","image-keyboard-response","635","2035006","0.0-8.0-0.18","","img/green.png","32","trial","32","true","0.6,0.4","3:go_c","",""
"null","","html-keyboard-response","636","2036016","0.0-8.0-1.18","","<img src=""img/green-n.png"" border=""10"">","null","trial","32","","0.6,0.4","3:go_c","0",""
"null","","html-keyboard-response","637","2037034","0.0-8.0-2.18","","<div style=""font-size:60px;"">+</div>","null","","","","","","",""
"null","","image-keyboard-response","638","2038548","0.0-8.0-0.19","","img/pink.png","null","trial","null","true","0.4,0.6","4:nogo_d","",""
"null","","html-keyboard-response","639","2039565","0.0-8.0-1.19","","<img src=""img/pink-r.png"">","null","trial","null","","0.4,0.6","4:nogo_d","1",""
"null","","html-keyboard-response","640","2040582","0.0-8.0-2.19","","<div style=""font-size:60px;"">+</div>","null","","","","","","",""
"1271.6700000001583","","image-keyboard-response","641","2041855","0.0-8.0-0.20","","img/pink.png","32","trial","null","false","0.4,0.6","4:nogo_d","",""
"null","","html-keyboard-response","642","2042865","0.0-8.0-1.20","","<img src=""img/pink-r.png"" border=""10"">","null","trial","null","","0.4,0.6","4:nogo_d","1",""
"null","","html-keyboard-response","643","2043881","0.0-8.0-2.20","","<div style=""font-size:60px;"">+</div>","null","","","","","","",""
"939.759999999078","","image-keyboard-response","644","2044823","0.0-8.0-0.21","","img/green.png","32","trial","32","true","0.6,0.4","3:go_c","",""
"null","","html-keyboard-response","645","2045834","0.0-8.0-1.21","","<img src=""img/green-r.png"" border=""10"">","null","trial","32","","0.6,0.4","3:go_c","1",""
"null","","html-keyboard-response","646","2046849","0.0-8.0-2.21","","<div style=""font-size:60px;"">+</div>","null","","","","","","",""
"654.1050000013784","","image-keyboard-response","647","2047506","0.0-8.0-0.22","","img/yellow.png","32","trial","null","false","0.4,0.6","2:nogo_b","",""
"null","","html-keyboard-response","648","2048516","0.0-8.0-1.22","","<img src=""img/yellow-r.png"" border=""10"">","null","trial","null","","0.4,0.6","2:nogo_b","1",""
"null","","html-keyboard-response","649","2049532","0.0-8.0-2.22","","<div style=""font-size:60px;"">+</div>","null","","","","","","",""
"null","","image-keyboard-response","650","2051038","0.0-8.0-0.23","","img/red.png","null","trial","32","false","0.6,0.4","1:go_a","",""
"null","","html-keyboard-response","651","2052047","0.0-8.0-1.23","","<img src=""img/red-n.png"">","null","trial","32","","0.6,0.4","1:go_a","0",""
"null","","html-keyboard-response","652","2053063","0.0-8.0-2.23","","<div style=""font-size:60px;"">+</div>","null","","","","","","",""
"769.6400000003632","","image-keyboard-response","653","2053834","0.0-8.0-0.24","","img/yellow.png","32","trial","null","false","0.4,0.6","2:nogo_b","",""
"null","","html-keyboard-response","654","2054848","0.0-8.0-1.24","","<img src=""img/yellow-n.png"" border=""10"">","null","trial","null","","0.4,0.6","2:nogo_b","0",""
"null","","html-keyboard-response","655","2055852","0.0-8.0-2.24","","<div style=""font-size:60px;"">+</div>","null","","","","","","",""
"728.1850000000559","","image-keyboard-response","656","2056585","0.0-8.0-0.25","","img/green.png","32","trial","32","true","0.6,0.4","3:go_c","",""
"null","","html-keyboard-response","657","2057594","0.0-8.0-1.25","","<img src=""img/green-r.png"" border=""10"">","null","trial","32","","0.6,0.4","3:go_c","1",""
"null","","html-keyboard-response","658","2058610","0.0-8.0-2.25","","<div style=""font-size:60px;"">+</div>","null","","","","","","",""
"587.7099999997299","","image-keyboard-response","659","2059200","0.0-8.0-0.26","","img/pink.png","32","trial","null","false","0.4,0.6","4:nogo_d","",""
"null","","html-keyboard-response","660","2060218","0.0-8.0-1.26","","<img src=""img/pink-r.png"" border=""10"">","null","trial","null","","0.4,0.6","4:nogo_d","1",""
"null","","html-keyboard-response","661","2061235","0.0-8.0-2.26","","<div style=""font-size:60px;"">+</div>","null","","","","","","",""
"null","","image-keyboard-response","662","2062752","0.0-8.0-0.27","","img/red.png","null","trial","32","false","0.6,0.4","1:go_a","",""
"null","","html-keyboard-response","663","2063757","0.0-8.0-1.27","","<img src=""img/red-n.png"">","null","trial","32","","0.6,0.4","1:go_a","0",""
"null","","html-keyboard-response","664","2064770","0.0-8.0-2.27","","<div style=""font-size:60px;"">+</div>","null","","","","","","",""
"null","","image-keyboard-response","665","2066281","0.0-8.0-0.28","","img/red.png","null","trial","32","false","0.6,0.4","1:go_a","",""
"null","","html-keyboard-response","666","2067297","0.0-8.0-1.28","","<img src=""img/red-r.png"">","null","trial","32","","0.6,0.4","1:go_a","1",""
"null","","html-keyboard-response","667","2068312","0.0-8.0-2.28","","<div style=""font-size:60px;"">+</div>","null","","","","","","",""
"868.4300000004005","","image-keyboard-response","668","2069183","0.0-8.0-0.29","","img/pink.png","32","trial","null","false","0.4,0.6","4:nogo_d","",""
"null","","html-keyboard-response","669","2070203","0.0-8.0-1.29","","<img src=""img/pink-n.png"" border=""10"">","null","trial","null","","0.4,0.6","4:nogo_d","0",""
