"rt","url","trial_type","trial_index","time_elapsed","internal_node_id","view_history","stimulus","key_press","test_part","correct_response","correct","use_rew","which_stim","reward","responses"
"2321.3049999903888","consent.html","external-html","0","2387","0.0-0.0","","","","","","","","","",""
"78152.82499999739","","instructions","1","80541","0.0-1.0","[{""page_index"":0,""viewing_time"":2656.5950000076555},{""page_index"":1,""viewing_time"":36883.88000003761},{""page_index"":2,""viewing_time"":4456.939999945462},{""page_index"":3,""viewing_time"":16798.120000050403},{""page_index"":4,""viewing_time"":7595.7849999540485},{""page_index"":5,""viewing_time"":3321.1149999988265},{""page_index"":6,""viewing_time"":6439.980000024661}]","","","","","","","","",""
"613.5549999889918","","image-keyboard-response","2","81156","0.0-2.0-0.0","","img/test1.PNG","32","practice","32","true","","","",""
"null","","html-keyboard-response","3","82157","0.0-2.0-1.0","","<img src=""img/test1-reward.PNG"" border=""10px; grey"">","null","","","","","","",""
"null","","html-keyboard-response","4","83159","0.0-2.0-2.0","","<div style=""font-size:60px;"">+</div>","null","","","","","","",""
"null","","image-keyboard-response","5","84661","0.0-2.0-0.1","","img/test2.PNG","null","practice","null","true","","","",""
"null","","html-keyboard-response","6","85662","0.0-2.0-1.1","","<img src=""img/test2-reward.PNG"">","null","","","","","","",""
"null","","html-keyboard-response","7","86663","0.0-2.0-2.1","","<div style=""font-size:60px;"">+</div>","null","","","","","","",""
"null","","image-keyboard-response","8","88165","0.0-2.0-0.2","","img/test3.PNG","null","practice","null","true","","","",""
"null","","html-keyboard-response","9","89166","0.0-2.0-1.2","","<img src=""img/test3-reward.PNG"">","null","","","","","","",""
"null","","html-keyboard-response","10","90167","0.0-2.0-2.2","","<div style=""font-size:60px;"">+</div>","null","","","","","","",""
"null","","image-keyboard-response","11","91668","0.0-2.0-0.3","","img/test3.PNG","null","practice","null","true","","","",""
"null","","html-keyboard-response","12","92670","0.0-2.0-1.3","","<img src=""img/test3-reward.PNG"">","null","","","","","","",""
"null","","html-keyboard-response","13","93671","0.0-2.0-2.3","","<div style=""font-size:60px;"">+</div>","null","","","","","","",""
"412.33000002102926","","image-keyboard-response","14","94084","0.0-2.0-0.4","","img/test1.PNG","32","practice","32","true","","","",""
"null","","html-keyboard-response","15","95085","0.0-2.0-1.4","","<img src=""img/test1-reward.PNG"" border=""10px; grey"">","null","","","","","","",""
"null","","html-keyboard-response","16","96086","0.0-2.0-2.4","","<div style=""font-size:60px;"">+</div>","null","","","","","","",""
"null","","image-keyboard-response","17","97588","0.0-2.0-0.5","","img/test2.PNG","null","practice","null","true","","","",""
"null","","html-keyboard-response","18","98589","0.0-2.0-1.5","","<img src=""img/test2-reward.PNG"">","null","","","","","","",""
"null","","html-keyboard-response","19","99590","0.0-2.0-2.5","","<div style=""font-size:60px;"">+</div>","null","","","","","","",""
"null","","image-keyboard-response","20","101091","0.0-2.0-0.6","","img/test3.PNG","null","practice","null","true","","","",""
"null","","html-keyboard-response","21","102093","0.0-2.0-1.6","","<img src=""img/test3-reward.PNG"">","null","","","","","","",""
"null","","html-keyboard-response","22","103094","0.0-2.0-2.6","","<div style=""font-size:60px;"">+</div>","null","","","","","","",""
"null","","image-keyboard-response","23","104595","0.0-2.0-0.7","","img/test2.PNG","null","practice","null","true","","","",""
"null","","html-keyboard-response","24","105595","0.0-2.0-1.7","","<img src=""img/test2-reward.PNG"">","null","","","","","","",""
"null","","html-keyboard-response","25","106596","0.0-2.0-2.7","","<div style=""font-size:60px;"">+</div>","null","","","","","","",""
"367.290000023786","","image-keyboard-response","26","106964","0.0-2.0-0.8","","img/test1.PNG","32","practice","32","true","","","",""
"null","","html-keyboard-response","27","107966","0.0-2.0-1.8","","<img src=""img/test1-reward.PNG"" border=""10px; grey"">","null","","","","","","",""
"null","","html-keyboard-response","28","108967","0.0-2.0-2.8","","<div style=""font-size:60px;"">+</div>","null","","","","","","",""
"null","","image-keyboard-response","29","110468","0.0-2.0-0.9","","img/test2.PNG","null","practice","null","true","","","",""
"null","","html-keyboard-response","30","111469","0.0-2.0-1.9","","<img src=""img/test2-reward.PNG"">","null","","","","","","",""
"null","","html-keyboard-response","31","112470","0.0-2.0-2.9","","<div style=""font-size:60px;"">+</div>","null","","","","","","",""
"429.0550000150688","","image-keyboard-response","32","112899","0.0-2.0-0.10","","img/test1.PNG","32","practice","32","true","","","",""
"null","","html-keyboard-response","33","113900","0.0-2.0-1.10","","<img src=""img/test1-reward.PNG"" border=""10px; grey"">","null","","","","","","",""
"null","","html-keyboard-response","34","114901","0.0-2.0-2.10","","<div style=""font-size:60px;"">+</div>","null","","","","","","",""
"null","","image-keyboard-response","35","116403","0.0-2.0-0.11","","img/test3.PNG","null","practice","null","true","","","",""
"null","","html-keyboard-response","36","117405","0.0-2.0-1.11","","<img src=""img/test3-reward.PNG"">","null","","","","","","",""
"null","","html-keyboard-response","37","118406","0.0-2.0-2.11","","<div style=""font-size:60px;"">+</div>","null","","","","","","",""
"2164.7000000230037","","instructions","38","120571","0.0-3.0","[{""page_index"":0,""viewing_time"":2164.5949999801815}]","","","","","","","","",""
"543.5300000244752","","image-keyboard-response","39","121115","0.0-4.0-0.0","","img/blue.png","32","trial","32","true","0.8,0.2","1:go_a","",""
"null","","html-keyboard-response","40","122126","0.0-4.0-1.0","","<img src=""img/blue-n.png"" border=""10"">","null","trial","32","","0.8,0.2","1:go_a","0",""
"null","","html-keyboard-response","41","123128","0.0-4.0-2.0","","<div style=""font-size:60px;"">+</div>","null","","","","","","",""
"514.740000013262","","image-keyboard-response","42","123644","0.0-4.0-0.1","","img/purple.png","32","trial","null","false","0.2,0.8","2:nogo_b","",""
"null","","html-keyboard-response","43","124645","0.0-4.0-1.1","","<img src=""img/purple-r.png"" border=""10"">","null","trial","null","","0.2,0.8","2:nogo_b","1",""
"null","","html-keyboard-response","44","125646","0.0-4.0-2.1","","<div style=""font-size:60px;"">+</div>","null","","","","","","",""
"573.1149999774061","","image-keyboard-response","45","126220","0.0-4.0-0.2","","img/blue.png","32","trial","32","true","0.8,0.2","1:go_a","",""
"null","","html-keyboard-response","46","127221","0.0-4.0-1.2","","<img src=""img/blue-n.png"" border=""10"">","null","trial","32","","0.8,0.2","1:go_a","0",""
"null","","html-keyboard-response","47","128222","0.0-4.0-2.2","","<div style=""font-size:60px;"">+</div>","null","","","","","","",""
"573.679999972228","","image-keyboard-response","48","128796","0.0-4.0-0.3","","img/purple.png","32","trial","null","false","0.2,0.8","2:nogo_b","",""
"null","","html-keyboard-response","49","129798","0.0-4.0-1.3","","<img src=""img/purple-n.png"" border=""10"">","null","trial","null","","0.2,0.8","2:nogo_b","0",""
"null","","html-keyboard-response","50","130799","0.0-4.0-2.3","","<div style=""font-size:60px;"">+</div>","null","","","","","","",""
"644.5999999996275","","image-keyboard-response","51","131444","0.0-4.0-0.4","","img/purple.png","32","trial","null","false","0.2,0.8","2:nogo_b","",""
"null","","html-keyboard-response","52","132446","0.0-4.0-1.4","","<img src=""img/purple-n.png"" border=""10"">","null","trial","null","","0.2,0.8","2:nogo_b","0",""
"null","","html-keyboard-response","53","133447","0.0-4.0-2.4","","<div style=""font-size:60px;"">+</div>","null","","","","","","",""
"null","","image-keyboard-response","54","134948","0.0-4.0-0.5","","img/blue.png","null","trial","32","false","0.8,0.2","1:go_a","",""
"null","","html-keyboard-response","55","135950","0.0-4.0-1.5","","<img src=""img/blue-n.png"">","null","trial","32","","0.8,0.2","1:go_a","0",""
"null","","html-keyboard-response","56","136951","0.0-4.0-2.5","","<div style=""font-size:60px;"">+</div>","null","","","","","","",""
"396.0300000035204","","image-keyboard-response","57","137348","0.0-4.0-0.6","","img/purple.png","32","trial","null","false","0.2,0.8","2:nogo_b","",""
"null","","html-keyboard-response","58","138350","0.0-4.0-1.6","","<img src=""img/purple-n.png"" border=""10"">","null","trial","null","","0.2,0.8","2:nogo_b","0",""
"null","","html-keyboard-response","59","139351","0.0-4.0-2.6","","<div style=""font-size:60px;"">+</div>","null","","","","","","",""
"null","","image-keyboard-response","60","140852","0.0-4.0-0.7","","img/blue.png","null","trial","32","false","0.8,0.2","1:go_a","",""
"null","","html-keyboard-response","61","141853","0.0-4.0-1.7","","<img src=""img/blue-r.png"">","null","trial","32","","0.8,0.2","1:go_a","1",""
"null","","html-keyboard-response","62","142854","0.0-4.0-2.7","","<div style=""font-size:60px;"">+</div>","null","","","","","","",""
"454.4400000013411","","image-keyboard-response","63","143308","0.0-4.0-0.8","","img/blue.png","32","trial","32","true","0.8,0.2","1:go_a","",""
"null","","html-keyboard-response","64","144310","0.0-4.0-1.8","","<img src=""img/blue-r.png"" border=""10"">","null","trial","32","","0.8,0.2","1:go_a","1",""
"null","","html-keyboard-response","65","145311","0.0-4.0-2.8","","<div style=""font-size:60px;"">+</div>","null","","","","","","",""
"804.1450000018813","","image-keyboard-response","66","146116","0.0-4.0-0.9","","img/purple.png","32","trial","null","false","0.2,0.8","2:nogo_b","",""
"null","","html-keyboard-response","67","147117","0.0-4.0-1.9","","<img src=""img/purple-n.png"" border=""10"">","null","trial","null","","0.2,0.8","2:nogo_b","0",""
"null","","html-keyboard-response","68","148118","0.0-4.0-2.9","","<div style=""font-size:60px;"">+</div>","null","","","","","","",""
"null","","image-keyboard-response","69","149619","0.0-4.0-0.10","","img/purple.png","null","trial","null","true","0.2,0.8","2:nogo_b","",""
"null","","html-keyboard-response","70","150621","0.0-4.0-1.10","","<img src=""img/purple-r.png"">","null","trial","null","","0.2,0.8","2:nogo_b","1",""
"null","","html-keyboard-response","71","151622","0.0-4.0-2.10","","<div style=""font-size:60px;"">+</div>","null","","","","","","",""
"493.7649999628775","","image-keyboard-response","72","152116","0.0-4.0-0.11","","img/blue.png","32","trial","32","true","0.8,0.2","1:go_a","",""
"null","","html-keyboard-response","73","153118","0.0-4.0-1.11","","<img src=""img/blue-r.png"" border=""10"">","null","trial","32","","0.8,0.2","1:go_a","1",""
"null","","html-keyboard-response","74","154120","0.0-4.0-2.11","","<div style=""font-size:60px;"">+</div>","null","","","","","","",""
"516.2600000039674","","image-keyboard-response","75","154636","0.0-4.0-0.12","","img/blue.png","32","trial","32","true","0.8,0.2","1:go_a","",""
"null","","html-keyboard-response","76","155638","0.0-4.0-1.12","","<img src=""img/blue-r.png"" border=""10"">","null","trial","32","","0.8,0.2","1:go_a","1",""
"null","","html-keyboard-response","77","156640","0.0-4.0-2.12","","<div style=""font-size:60px;"">+</div>","null","","","","","","",""
"379.0249999728985","","image-keyboard-response","78","157020","0.0-4.0-0.13","","img/purple.png","32","trial","null","false","0.2,0.8","2:nogo_b","",""
"null","","html-keyboard-response","79","158021","0.0-4.0-1.13","","<img src=""img/purple-n.png"" border=""10"">","null","trial","null","","0.2,0.8","2:nogo_b","0",""
"null","","html-keyboard-response","80","159023","0.0-4.0-2.13","","<div style=""font-size:60px;"">+</div>","null","","","","","","",""
"444.86499996855855","","image-keyboard-response","81","159468","0.0-4.0-0.14","","img/purple.png","32","trial","null","false","0.2,0.8","2:nogo_b","",""
"null","","html-keyboard-response","82","160469","0.0-4.0-1.14","","<img src=""img/purple-n.png"" border=""10"">","null","trial","null","","0.2,0.8","2:nogo_b","0",""
"null","","html-keyboard-response","83","161470","0.0-4.0-2.14","","<div style=""font-size:60px;"">+</div>","null","","","","","","",""
"436.85500003630295","","image-keyboard-response","84","161908","0.0-4.0-0.15","","img/blue.png","32","trial","32","true","0.8,0.2","1:go_a","",""
"null","","html-keyboard-response","85","162909","0.0-4.0-1.15","","<img src=""img/blue-r.png"" border=""10"">","null","trial","32","","0.8,0.2","1:go_a","1",""
"null","","html-keyboard-response","86","163910","0.0-4.0-2.15","","<div style=""font-size:60px;"">+</div>","null","","","","","","",""
"533.3700000192039","","image-keyboard-response","87","164444","0.0-4.0-0.16","","img/blue.png","32","trial","32","true","0.8,0.2","1:go_a","",""
"null","","html-keyboard-response","88","165445","0.0-4.0-1.16","","<img src=""img/blue-n.png"" border=""10"">","null","trial","32","","0.8,0.2","1:go_a","0",""
"null","","html-keyboard-response","89","166446","0.0-4.0-2.16","","<div style=""font-size:60px;"">+</div>","null","","","","","","",""
"406.5000000409782","","image-keyboard-response","90","166852","0.0-4.0-0.17","","img/purple.png","32","trial","null","false","0.2,0.8","2:nogo_b","",""
"null","","html-keyboard-response","91","167854","0.0-4.0-1.17","","<img src=""img/purple-n.png"" border=""10"">","null","trial","null","","0.2,0.8","2:nogo_b","0",""
"null","","html-keyboard-response","92","168855","0.0-4.0-2.17","","<div style=""font-size:60px;"">+</div>","null","","","","","","",""
"780.3350000176579","","image-keyboard-response","93","169636","0.0-4.0-0.18","","img/blue.png","32","trial","32","true","0.8,0.2","1:go_a","",""
"null","","html-keyboard-response","94","170638","0.0-4.0-1.18","","<img src=""img/blue-r.png"" border=""10"">","null","trial","32","","0.8,0.2","1:go_a","1",""
"null","","html-keyboard-response","95","171640","0.0-4.0-2.18","","<div style=""font-size:60px;"">+</div>","null","","","","","","",""
"null","","image-keyboard-response","96","173141","0.0-4.0-0.19","","img/purple.png","null","trial","null","true","0.2,0.8","2:nogo_b","",""
"null","","html-keyboard-response","97","174142","0.0-4.0-1.19","","<img src=""img/purple-r.png"">","null","trial","null","","0.2,0.8","2:nogo_b","1",""
"null","","html-keyboard-response","98","175143","0.0-4.0-2.19","","<div style=""font-size:60px;"">+</div>","null","","","","","","",""
"644.3599999765866","","image-keyboard-response","99","175788","0.0-4.0-0.20","","img/blue.png","32","trial","32","true","0.8,0.2","1:go_a","",""
"null","","html-keyboard-response","100","176788","0.0-4.0-1.20","","<img src=""img/blue-r.png"" border=""10"">","null","trial","32","","0.8,0.2","1:go_a","1",""
"null","","html-keyboard-response","101","177790","0.0-4.0-2.20","","<div style=""font-size:60px;"">+</div>","null","","","","","","",""
"470.5299999914132","","image-keyboard-response","102","178260","0.0-4.0-0.21","","img/purple.png","32","trial","null","false","0.2,0.8","2:nogo_b","",""
"null","","html-keyboard-response","103","179261","0.0-4.0-1.21","","<img src=""img/purple-n.png"" border=""10"">","null","trial","null","","0.2,0.8","2:nogo_b","0",""
"null","","html-keyboard-response","104","180263","0.0-4.0-2.21","","<div style=""font-size:60px;"">+</div>","null","","","","","","",""
"444.26999997813255","","image-keyboard-response","105","180708","0.0-4.0-0.22","","img/blue.png","32","trial","32","true","0.8,0.2","1:go_a","",""
"null","","html-keyboard-response","106","181709","0.0-4.0-1.22","","<img src=""img/blue-r.png"" border=""10"">","null","trial","32","","0.8,0.2","1:go_a","1",""
"null","","html-keyboard-response","107","182711","0.0-4.0-2.22","","<div style=""font-size:60px;"">+</div>","null","","","","","","",""
"396.889999974519","","image-keyboard-response","108","183108","0.0-4.0-0.23","","img/purple.png","32","trial","null","false","0.2,0.8","2:nogo_b","",""
"null","","html-keyboard-response","109","184110","0.0-4.0-1.23","","<img src=""img/purple-r.png"" border=""10"">","null","trial","null","","0.2,0.8","2:nogo_b","1",""
"null","","html-keyboard-response","110","185112","0.0-4.0-2.23","","<div style=""font-size:60px;"">+</div>","null","","","","","","",""
"731.789999990724","","image-keyboard-response","111","185844","0.0-4.0-0.24","","img/purple.png","32","trial","null","false","0.2,0.8","2:nogo_b","",""
"null","","html-keyboard-response","112","186845","0.0-4.0-1.24","","<img src=""img/purple-n.png"" border=""10"">","null","trial","null","","0.2,0.8","2:nogo_b","0",""
"null","","html-keyboard-response","113","187845","0.0-4.0-2.24","","<div style=""font-size:60px;"">+</div>","null","","","","","","",""
"430.5449999519624","","image-keyboard-response","114","188276","0.0-4.0-0.25","","img/blue.png","32","trial","32","true","0.8,0.2","1:go_a","",""
"null","","html-keyboard-response","115","189279","0.0-4.0-1.25","","<img src=""img/blue-r.png"" border=""10"">","null","trial","32","","0.8,0.2","1:go_a","1",""
"null","","html-keyboard-response","116","190279","0.0-4.0-2.25","","<div style=""font-size:60px;"">+</div>","null","","","","","","",""
"555.9949999442324","","image-keyboard-response","117","190836","0.0-4.0-0.26","","img/purple.png","32","trial","null","false","0.2,0.8","2:nogo_b","",""
"null","","html-keyboard-response","118","191837","0.0-4.0-1.26","","<img src=""img/purple-n.png"" border=""10"">","null","trial","null","","0.2,0.8","2:nogo_b","0",""
"null","","html-keyboard-response","119","192838","0.0-4.0-2.26","","<div style=""font-size:60px;"">+</div>","null","","","","","","",""
"669.6449999581091","","image-keyboard-response","120","193508","0.0-4.0-0.27","","img/blue.png","32","trial","32","true","0.8,0.2","1:go_a","",""
"null","","html-keyboard-response","121","194509","0.0-4.0-1.27","","<img src=""img/blue-r.png"" border=""10"">","null","trial","32","","0.8,0.2","1:go_a","1",""
"null","","html-keyboard-response","122","195510","0.0-4.0-2.27","","<div style=""font-size:60px;"">+</div>","null","","","","","","",""
"685.3349999873899","","image-keyboard-response","123","196196","0.0-4.0-0.28","","img/blue.png","32","trial","32","true","0.8,0.2","1:go_a","",""
"null","","html-keyboard-response","124","197197","0.0-4.0-1.28","","<img src=""img/blue-n.png"" border=""10"">","null","trial","32","","0.8,0.2","1:go_a","0",""
"null","","html-keyboard-response","125","198198","0.0-4.0-2.28","","<div style=""font-size:60px;"">+</div>","null","","","","","","",""
"382.4699999531731","","image-keyboard-response","126","198581","0.0-4.0-0.29","","img/purple.png","32","trial","null","false","0.2,0.8","2:nogo_b","",""
"null","","html-keyboard-response","127","199582","0.0-4.0-1.29","","<img src=""img/purple-n.png"" border=""10"">","null","trial","null","","0.2,0.8","2:nogo_b","0",""
"null","","html-keyboard-response","128","200583","0.0-4.0-2.29","","<div style=""font-size:60px;"">+</div>","null","","","","","","",""
"892.809999990277","","image-keyboard-response","129","201476","0.0-4.0-0.30","","img/purple.png","32","trial","null","false","0.2,0.8","2:nogo_b","",""
"null","","html-keyboard-response","130","202477","0.0-4.0-1.30","","<img src=""img/purple-n.png"" border=""10"">","null","trial","null","","0.2,0.8","2:nogo_b","0",""
"null","","html-keyboard-response","131","203478","0.0-4.0-2.30","","<div style=""font-size:60px;"">+</div>","null","","","","","","",""
"437.45500000659376","","image-keyboard-response","132","203916","0.0-4.0-0.31","","img/blue.png","32","trial","32","true","0.8,0.2","1:go_a","",""
"null","","html-keyboard-response","133","204917","0.0-4.0-1.31","","<img src=""img/blue-n.png"" border=""10"">","null","trial","32","","0.8,0.2","1:go_a","0",""
"null","","html-keyboard-response","134","205919","0.0-4.0-2.31","","<div style=""font-size:60px;"">+</div>","null","","","","","","",""
"null","","image-keyboard-response","135","207421","0.0-4.0-0.32","","img/purple.png","null","trial","null","true","0.2,0.8","2:nogo_b","",""
"null","","html-keyboard-response","136","208422","0.0-4.0-1.32","","<img src=""img/purple-r.png"">","null","trial","null","","0.2,0.8","2:nogo_b","1",""
"null","","html-keyboard-response","137","209423","0.0-4.0-2.32","","<div style=""font-size:60px;"">+</div>","null","","","","","","",""
"413.42999995686114","","image-keyboard-response","138","209836","0.0-4.0-0.33","","img/blue.png","32","trial","32","true","0.8,0.2","1:go_a","",""
"null","","html-keyboard-response","139","210838","0.0-4.0-1.33","","<img src=""img/blue-n.png"" border=""10"">","null","trial","32","","0.8,0.2","1:go_a","0",""
"null","","html-keyboard-response","140","211839","0.0-4.0-2.33","","<div style=""font-size:60px;"">+</div>","null","","","","","","",""
"572.455000015907","","image-keyboard-response","141","212412","0.0-4.0-0.34","","img/purple.png","32","trial","null","false","0.2,0.8","2:nogo_b","",""
"null","","html-keyboard-response","142","213412","0.0-4.0-1.34","","<img src=""img/purple-n.png"" border=""10"">","null","trial","null","","0.2,0.8","2:nogo_b","0",""
"null","","html-keyboard-response","143","214414","0.0-4.0-2.34","","<div style=""font-size:60px;"">+</div>","null","","","","","","",""
"469.7599999490194","","image-keyboard-response","144","214884","0.0-4.0-0.35","","img/blue.png","32","trial","32","true","0.8,0.2","1:go_a","",""
"null","","html-keyboard-response","145","215885","0.0-4.0-1.35","","<img src=""img/blue-r.png"" border=""10"">","null","trial","32","","0.8,0.2","1:go_a","1",""
"null","","html-keyboard-response","146","216886","0.0-4.0-2.35","","<div style=""font-size:60px;"">+</div>","null","","","","","","",""
"550.2200000337325","","image-keyboard-response","147","217437","0.0-4.0-0.36","","img/blue.png","32","trial","32","true","0.8,0.2","1:go_a","",""
"null","","html-keyboard-response","148","218439","0.0-4.0-1.36","","<img src=""img/blue-r.png"" border=""10"">","null","trial","32","","0.8,0.2","1:go_a","1",""
"null","","html-keyboard-response","149","219439","0.0-4.0-2.36","","<div style=""font-size:60px;"">+</div>","null","","","","","","",""
"null","","image-keyboard-response","150","220941","0.0-4.0-0.37","","img/purple.png","null","trial","null","true","0.2,0.8","2:nogo_b","",""
"null","","html-keyboard-response","151","221942","0.0-4.0-1.37","","<img src=""img/purple-r.png"">","null","trial","null","","0.2,0.8","2:nogo_b","1",""
"null","","html-keyboard-response","152","222943","0.0-4.0-2.37","","<div style=""font-size:60px;"">+</div>","null","","","","","","",""
"null","","image-keyboard-response","153","224445","0.0-4.0-0.38","","img/purple.png","null","trial","null","true","0.2,0.8","2:nogo_b","",""
"null","","html-keyboard-response","154","225446","0.0-4.0-1.38","","<img src=""img/purple-r.png"">","null","trial","null","","0.2,0.8","2:nogo_b","1",""
"null","","html-keyboard-response","155","226448","0.0-4.0-2.38","","<div style=""font-size:60px;"">+</div>","null","","","","","","",""
"492.18000000109896","","image-keyboard-response","156","226940","0.0-4.0-0.39","","img/blue.png","32","trial","32","true","0.8,0.2","1:go_a","",""
"null","","html-keyboard-response","157","227941","0.0-4.0-1.39","","<img src=""img/blue-r.png"" border=""10"">","null","trial","32","","0.8,0.2","1:go_a","1",""
"null","","html-keyboard-response","158","228942","0.0-4.0-2.39","","<div style=""font-size:60px;"">+</div>","null","","","","","","",""
"868.9449999947101","","image-keyboard-response","159","229812","0.0-4.0-0.40","","img/purple.png","32","trial","null","false","0.2,0.8","2:nogo_b","",""
"null","","html-keyboard-response","160","230813","0.0-4.0-1.40","","<img src=""img/purple-n.png"" border=""10"">","null","trial","null","","0.2,0.8","2:nogo_b","0",""
"null","","html-keyboard-response","161","231814","0.0-4.0-2.40","","<div style=""font-size:60px;"">+</div>","null","","","","","","",""
"453.7000000127591","","image-keyboard-response","162","232268","0.0-4.0-0.41","","img/blue.png","32","trial","32","true","0.8,0.2","1:go_a","",""
"null","","html-keyboard-response","163","233269","0.0-4.0-1.41","","<img src=""img/blue-r.png"" border=""10"">","null","trial","32","","0.8,0.2","1:go_a","1",""
"null","","html-keyboard-response","164","234270","0.0-4.0-2.41","","<div style=""font-size:60px;"">+</div>","null","","","","","","",""
"469.5549999596551","","image-keyboard-response","165","234740","0.0-4.0-0.42","","img/blue.png","32","trial","32","true","0.8,0.2","1:go_a","",""
"null","","html-keyboard-response","166","235741","0.0-4.0-1.42","","<img src=""img/blue-n.png"" border=""10"">","null","trial","32","","0.8,0.2","1:go_a","0",""
"null","","html-keyboard-response","167","236755","0.0-4.0-2.42","","<div style=""font-size:60px;"">+</div>","null","","","","","","",""
"849.1999999969266","","image-keyboard-response","168","237604","0.0-4.0-0.43","","img/purple.png","32","trial","null","false","0.2,0.8","2:nogo_b","",""
"null","","html-keyboard-response","169","238607","0.0-4.0-1.43","","<img src=""img/purple-r.png"" border=""10"">","null","trial","null","","0.2,0.8","2:nogo_b","1",""
"null","","html-keyboard-response","170","239608","0.0-4.0-2.43","","<div style=""font-size:60px;"">+</div>","null","","","","","","",""
"651.465000002645","","image-keyboard-response","171","240260","0.0-4.0-0.44","","img/blue.png","32","trial","32","true","0.8,0.2","1:go_a","",""
"null","","html-keyboard-response","172","241262","0.0-4.0-1.44","","<img src=""img/blue-n.png"" border=""10"">","null","trial","32","","0.8,0.2","1:go_a","0",""
"null","","html-keyboard-response","173","242263","0.0-4.0-2.44","","<div style=""font-size:60px;"">+</div>","null","","","","","","",""
"524.7100000269711","","image-keyboard-response","174","242788","0.0-4.0-0.45","","img/purple.png","32","trial","null","false","0.2,0.8","2:nogo_b","",""
"null","","html-keyboard-response","175","243789","0.0-4.0-1.45","","<img src=""img/purple-n.png"" border=""10"">","null","trial","null","","0.2,0.8","2:nogo_b","0",""
"null","","html-keyboard-response","176","244790","0.0-4.0-2.45","","<div style=""font-size:60px;"">+</div>","null","","","","","","",""
"949.6599999838509","","image-keyboard-response","177","245740","0.0-4.0-0.46","","img/blue.png","32","trial","32","true","0.8,0.2","1:go_a","",""
"null","","html-keyboard-response","178","246742","0.0-4.0-1.46","","<img src=""img/blue-r.png"" border=""10"">","null","trial","32","","0.8,0.2","1:go_a","1",""
"null","","html-keyboard-response","179","247743","0.0-4.0-2.46","","<div style=""font-size:60px;"">+</div>","null","","","","","","",""
"null","","image-keyboard-response","180","249251","0.0-4.0-0.47","","img/purple.png","null","trial","null","true","0.2,0.8","2:nogo_b","",""
"null","","html-keyboard-response","181","250252","0.0-4.0-1.47","","<img src=""img/purple-r.png"">","null","trial","null","","0.2,0.8","2:nogo_b","1",""
"null","","html-keyboard-response","182","251254","0.0-4.0-2.47","","<div style=""font-size:60px;"">+</div>","null","","","","","","",""
"462.44500001193956","","image-keyboard-response","183","251716","0.0-4.0-0.48","","img/blue.png","32","trial","32","true","0.8,0.2","1:go_a","",""
"null","","html-keyboard-response","184","252717","0.0-4.0-1.48","","<img src=""img/blue-r.png"" border=""10"">","null","trial","32","","0.8,0.2","1:go_a","1",""
"null","","html-keyboard-response","185","253718","0.0-4.0-2.48","","<div style=""font-size:60px;"">+</div>","null","","","","","","",""
"869.1349999862723","","image-keyboard-response","186","254588","0.0-4.0-0.49","","img/purple.png","32","trial","null","false","0.2,0.8","2:nogo_b","",""
"null","","html-keyboard-response","187","255590","0.0-4.0-1.49","","<img src=""img/purple-r.png"" border=""10"">","null","trial","null","","0.2,0.8","2:nogo_b","1",""
"null","","html-keyboard-response","188","256590","0.0-4.0-2.49","","<div style=""font-size:60px;"">+</div>","null","","","","","","",""
"549.0700000082143","","image-keyboard-response","189","257140","0.0-4.0-0.50","","img/purple.png","32","trial","null","false","0.2,0.8","2:nogo_b","",""
"null","","html-keyboard-response","190","258141","0.0-4.0-1.50","","<img src=""img/purple-n.png"" border=""10"">","null","trial","null","","0.2,0.8","2:nogo_b","0",""
"null","","html-keyboard-response","191","259141","0.0-4.0-2.50","","<div style=""font-size:60px;"">+</div>","null","","","","","","",""
"422.0750000094995","","image-keyboard-response","192","259564","0.0-4.0-0.51","","img/blue.png","32","trial","32","true","0.8,0.2","1:go_a","",""
"null","","html-keyboard-response","193","260565","0.0-4.0-1.51","","<img src=""img/blue-r.png"" border=""10"">","null","trial","32","","0.8,0.2","1:go_a","1",""
"null","","html-keyboard-response","194","261566","0.0-4.0-2.51","","<div style=""font-size:60px;"">+</div>","null","","","","","","",""
"470.2800000086427","","image-keyboard-response","195","262036","0.0-4.0-0.52","","img/blue.png","32","trial","32","true","0.8,0.2","1:go_a","",""
"null","","html-keyboard-response","196","263039","0.0-4.0-1.52","","<img src=""img/blue-r.png"" border=""10"">","null","trial","32","","0.8,0.2","1:go_a","1",""
"null","","html-keyboard-response","197","264039","0.0-4.0-2.52","","<div style=""font-size:60px;"">+</div>","null","","","","","","",""
"null","","image-keyboard-response","198","265541","0.0-4.0-0.53","","img/purple.png","null","trial","null","true","0.2,0.8","2:nogo_b","",""
"null","","html-keyboard-response","199","266543","0.0-4.0-1.53","","<img src=""img/purple-r.png"">","null","trial","null","","0.2,0.8","2:nogo_b","1",""
"null","","html-keyboard-response","200","267544","0.0-4.0-2.53","","<div style=""font-size:60px;"">+</div>","null","","","","","","",""
"627.6049999869429","","image-keyboard-response","201","268172","0.0-4.0-0.54","","img/purple.png","32","trial","null","false","0.2,0.8","2:nogo_b","",""
"null","","html-keyboard-response","202","269174","0.0-4.0-1.54","","<img src=""img/purple-n.png"" border=""10"">","null","trial","null","","0.2,0.8","2:nogo_b","0",""
"null","","html-keyboard-response","203","270174","0.0-4.0-2.54","","<div style=""font-size:60px;"">+</div>","null","","","","","","",""
"533.9849999872968","","image-keyboard-response","204","270709","0.0-4.0-0.55","","img/blue.png","32","trial","32","true","0.8,0.2","1:go_a","",""
"null","","html-keyboard-response","205","271710","0.0-4.0-1.55","","<img src=""img/blue-r.png"" border=""10"">","null","trial","32","","0.8,0.2","1:go_a","1",""
"null","","html-keyboard-response","206","272710","0.0-4.0-2.55","","<div style=""font-size:60px;"">+</div>","null","","","","","","",""
"413.7299999711104","","image-keyboard-response","207","273124","0.0-4.0-0.56","","img/blue.png","32","trial","32","true","0.8,0.2","1:go_a","",""
"null","","html-keyboard-response","208","274127","0.0-4.0-1.56","","<img src=""img/blue-r.png"" border=""10"">","null","trial","32","","0.8,0.2","1:go_a","1",""
"null","","html-keyboard-response","209","275128","0.0-4.0-2.56","","<div style=""font-size:60px;"">+</div>","null","","","","","","",""
"null","","image-keyboard-response","210","276629","0.0-4.0-0.57","","img/purple.png","null","trial","null","true","0.2,0.8","2:nogo_b","",""
"null","","html-keyboard-response","211","277631","0.0-4.0-1.57","","<img src=""img/purple-r.png"">","null","trial","null","","0.2,0.8","2:nogo_b","1",""
"null","","html-keyboard-response","212","278632","0.0-4.0-2.57","","<div style=""font-size:60px;"">+</div>","null","","","","","","",""
"346.7299999902025","","image-keyboard-response","213","278980","0.0-4.0-0.58","","img/blue.png","32","trial","32","true","0.8,0.2","1:go_a","",""
"null","","html-keyboard-response","214","279981","0.0-4.0-1.58","","<img src=""img/blue-r.png"" border=""10"">","null","trial","32","","0.8,0.2","1:go_a","1",""
"null","","html-keyboard-response","215","280982","0.0-4.0-2.58","","<div style=""font-size:60px;"">+</div>","null","","","","","","",""
"421.04500002460554","","image-keyboard-response","216","281404","0.0-4.0-0.59","","img/purple.png","32","trial","null","false","0.2,0.8","2:nogo_b","",""
"null","","html-keyboard-response","217","282405","0.0-4.0-1.59","","<img src=""img/purple-r.png"" border=""10"">","null","trial","null","","0.2,0.8","2:nogo_b","1",""
"null","","html-keyboard-response","218","283406","0.0-4.0-2.59","","<div style=""font-size:60px;"">+</div>","null","","","","","","",""
"2088.789999950677","","instructions","219","285495","0.0-5.0","[{""page_index"":0,""viewing_time"":2088.6499999905936}]","","","","","","","","",""
"1188.5400000028312","","image-keyboard-response","220","286684","0.0-6.0-0.0","","img/red.png","32","trial","null","false","0.2,0.8","2:nogo_b","",""
"null","","html-keyboard-response","221","287686","0.0-6.0-1.0","","<img src=""img/red-n.png"" border=""10"">","null","trial","null","","0.2,0.8","2:nogo_b","0",""
"null","","html-keyboard-response","222","288687","0.0-6.0-2.0","","<div style=""font-size:60px;"">+</div>","null","","","","","","",""
"364.93500001961365","","image-keyboard-response","223","289052","0.0-6.0-0.1","","img/yellow.png","32","trial","32","true","0.6,0.4","3:go_c","",""
"null","","html-keyboard-response","224","290053","0.0-6.0-1.1","","<img src=""img/yellow-r.png"" border=""10"">","null","trial","32","","0.6,0.4","3:go_c","1",""
"null","","html-keyboard-response","225","291055","0.0-6.0-2.1","","<div style=""font-size:60px;"">+</div>","null","","","","","","",""
"524.779999977909","","image-keyboard-response","226","291580","0.0-6.0-0.2","","img/orange.png","32","trial","null","false","0.4,0.6","4:nogo_d","",""
"null","","html-keyboard-response","227","292582","0.0-6.0-1.2","","<img src=""img/orange-r.png"" border=""10"">","null","trial","null","","0.4,0.6","4:nogo_d","1",""
"null","","html-keyboard-response","228","293583","0.0-6.0-2.2","","<div style=""font-size:60px;"">+</div>","null","","","","","","",""
"null","","image-keyboard-response","229","295084","0.0-6.0-0.3","","img/purple.png","null","trial","32","false","0.8,0.2","1:go_a","",""
"null","","html-keyboard-response","230","296085","0.0-6.0-1.3","","<img src=""img/purple-n.png"">","null","trial","32","","0.8,0.2","1:go_a","0",""
"null","","html-keyboard-response","231","297086","0.0-6.0-2.3","","<div style=""font-size:60px;"">+</div>","null","","","","","","",""
"null","","image-keyboard-response","232","298587","0.0-6.0-0.4","","img/purple.png","null","trial","32","false","0.8,0.2","1:go_a","",""
"null","","html-keyboard-response","233","299589","0.0-6.0-1.4","","<img src=""img/purple-n.png"">","null","trial","32","","0.8,0.2","1:go_a","0",""
"null","","html-keyboard-response","234","300595","0.0-6.0-2.4","","<div style=""font-size:60px;"">+</div>","null","","","","","","",""
"553.5800000070594","","image-keyboard-response","235","301149","0.0-6.0-0.5","","img/yellow.png","32","trial","32","true","0.6,0.4","3:go_c","",""
"null","","html-keyboard-response","236","302150","0.0-6.0-1.5","","<img src=""img/yellow-r.png"" border=""10"">","null","trial","32","","0.6,0.4","3:go_c","1",""
"null","","html-keyboard-response","237","303151","0.0-6.0-2.5","","<div style=""font-size:60px;"">+</div>","null","","","","","","",""
"null","","image-keyboard-response","238","304652","0.0-6.0-0.6","","img/red.png","null","trial","null","true","0.2,0.8","2:nogo_b","",""
"null","","html-keyboard-response","239","305654","0.0-6.0-1.6","","<img src=""img/red-r.png"">","null","trial","null","","0.2,0.8","2:nogo_b","1",""
"null","","html-keyboard-response","240","306664","0.0-6.0-2.6","","<div style=""font-size:60px;"">+</div>","null","","","","","","",""
"475.9449999546632","","image-keyboard-response","241","307140","0.0-6.0-0.7","","img/orange.png","32","trial","null","false","0.4,0.6","4:nogo_d","",""
"null","","html-keyboard-response","242","308141","0.0-6.0-1.7","","<img src=""img/orange-n.png"" border=""10"">","null","trial","null","","0.4,0.6","4:nogo_d","0",""
"null","","html-keyboard-response","243","309142","0.0-6.0-2.7","","<div style=""font-size:60px;"">+</div>","null","","","","","","",""
"453.81999999517575","","image-keyboard-response","244","309596","0.0-6.0-0.8","","img/yellow.png","32","trial","32","true","0.6,0.4","3:go_c","",""
"null","","html-keyboard-response","245","310597","0.0-6.0-1.8","","<img src=""img/yellow-r.png"" border=""10"">","null","trial","32","","0.6,0.4","3:go_c","1",""
"null","","html-keyboard-response","246","311598","0.0-6.0-2.8","","<div style=""font-size:60px;"">+</div>","null","","","","","","",""
"765.7349999644794","","image-keyboard-response","247","312365","0.0-6.0-0.9","","img/orange.png","32","trial","null","false","0.4,0.6","4:nogo_d","",""
"null","","html-keyboard-response","248","313366","0.0-6.0-1.9","","<img src=""img/orange-r.png"" border=""10"">","null","trial","null","","0.4,0.6","4:nogo_d","1",""
"null","","html-keyboard-response","249","314368","0.0-6.0-2.9","","<div style=""font-size:60px;"">+</div>","null","","","","","","",""
"null","","image-keyboard-response","250","315869","0.0-6.0-0.10","","img/red.png","null","trial","null","true","0.2,0.8","2:nogo_b","",""
"null","","html-keyboard-response","251","316870","0.0-6.0-1.10","","<img src=""img/red-r.png"">","null","trial","null","","0.2,0.8","2:nogo_b","1",""
"null","","html-keyboard-response","252","317871","0.0-6.0-2.10","","<div style=""font-size:60px;"">+</div>","null","","","","","","",""
"null","","image-keyboard-response","253","319372","0.0-6.0-0.11","","img/purple.png","null","trial","32","false","0.8,0.2","1:go_a","",""
"null","","html-keyboard-response","254","320373","0.0-6.0-1.11","","<img src=""img/purple-n.png"">","null","trial","32","","0.8,0.2","1:go_a","0",""
"null","","html-keyboard-response","255","321374","0.0-6.0-2.11","","<div style=""font-size:60px;"">+</div>","null","","","","","","",""
"null","","image-keyboard-response","256","322876","0.0-6.0-0.12","","img/purple.png","null","trial","32","false","0.8,0.2","1:go_a","",""
"null","","html-keyboard-response","257","323876","0.0-6.0-1.12","","<img src=""img/purple-n.png"">","null","trial","32","","0.8,0.2","1:go_a","0",""
"null","","html-keyboard-response","258","324877","0.0-6.0-2.12","","<div style=""font-size:60px;"">+</div>","null","","","","","","",""
"null","","image-keyboard-response","259","326378","0.0-6.0-0.13","","img/red.png","null","trial","null","true","0.2,0.8","2:nogo_b","",""
"null","","html-keyboard-response","260","327379","0.0-6.0-1.13","","<img src=""img/red-r.png"">","null","trial","null","","0.2,0.8","2:nogo_b","1",""
"null","","html-keyboard-response","261","328380","0.0-6.0-2.13","","<div style=""font-size:60px;"">+</div>","null","","","","","","",""
"495.9999999846332","","image-keyboard-response","262","328877","0.0-6.0-0.14","","img/orange.png","32","trial","null","false","0.4,0.6","4:nogo_d","",""
"null","","html-keyboard-response","263","329877","0.0-6.0-1.14","","<img src=""img/orange-n.png"" border=""10"">","null","trial","null","","0.4,0.6","4:nogo_d","0",""
"null","","html-keyboard-response","264","330879","0.0-6.0-2.14","","<div style=""font-size:60px;"">+</div>","null","","","","","","",""
"388.9150000177324","","image-keyboard-response","265","331268","0.0-6.0-0.15","","img/yellow.png","32","trial","32","true","0.6,0.4","3:go_c","",""
"null","","html-keyboard-response","266","332270","0.0-6.0-1.15","","<img src=""img/yellow-n.png"" border=""10"">","null","trial","32","","0.6,0.4","3:go_c","0",""
"null","","html-keyboard-response","267","333270","0.0-6.0-2.15","","<div style=""font-size:60px;"">+</div>","null","","","","","","",""
"null","","image-keyboard-response","268","334772","0.0-6.0-0.16","","img/red.png","null","trial","null","true","0.2,0.8","2:nogo_b","",""
"null","","html-keyboard-response","269","335774","0.0-6.0-1.16","","<img src=""img/red-n.png"">","null","trial","null","","0.2,0.8","2:nogo_b","0",""
"null","","html-keyboard-response","270","336775","0.0-6.0-2.16","","<div style=""font-size:60px;"">+</div>","null","","","","","","",""
"412.74499997962266","","image-keyboard-response","271","337188","0.0-6.0-0.17","","img/yellow.png","32","trial","32","true","0.6,0.4","3:go_c","",""
"null","","html-keyboard-response","272","338189","0.0-6.0-1.17","","<img src=""img/yellow-r.png"" border=""10"">","null","trial","32","","0.6,0.4","3:go_c","1",""
"null","","html-keyboard-response","273","339190","0.0-6.0-2.17","","<div style=""font-size:60px;"">+</div>","null","","","","","","",""
"null","","image-keyboard-response","274","340691","0.0-6.0-0.18","","img/purple.png","null","trial","32","false","0.8,0.2","1:go_a","",""
"null","","html-keyboard-response","275","341693","0.0-6.0-1.18","","<img src=""img/purple-n.png"">","null","trial","32","","0.8,0.2","1:go_a","0",""
"null","","html-keyboard-response","276","342693","0.0-6.0-2.18","","<div style=""font-size:60px;"">+</div>","null","","","","","","",""
"630.7549999910407","","image-keyboard-response","277","343324","0.0-6.0-0.19","","img/orange.png","32","trial","null","false","0.4,0.6","4:nogo_d","",""
"null","","html-keyboard-response","278","344325","0.0-6.0-1.19","","<img src=""img/orange-r.png"" border=""10"">","null","trial","null","","0.4,0.6","4:nogo_d","1",""
"null","","html-keyboard-response","279","345327","0.0-6.0-2.19","","<div style=""font-size:60px;"">+</div>","null","","","","","","",""
"644.7499999776483","","image-keyboard-response","280","345972","0.0-6.0-0.20","","img/orange.png","32","trial","null","false","0.4,0.6","4:nogo_d","",""
"null","","html-keyboard-response","281","346973","0.0-6.0-1.20","","<img src=""img/orange-n.png"" border=""10"">","null","trial","null","","0.4,0.6","4:nogo_d","0",""
"null","","html-keyboard-response","282","347974","0.0-6.0-2.20","","<div style=""font-size:60px;"">+</div>","null","","","","","","",""
"null","","image-keyboard-response","283","349477","0.0-6.0-0.21","","img/red.png","null","trial","null","true","0.2,0.8","2:nogo_b","",""
"null","","html-keyboard-response","284","350479","0.0-6.0-1.21","","<img src=""img/red-r.png"">","null","trial","null","","0.2,0.8","2:nogo_b","1",""
"null","","html-keyboard-response","285","351480","0.0-6.0-2.21","","<div style=""font-size:60px;"">+</div>","null","","","","","","",""
"null","","image-keyboard-response","286","352981","0.0-6.0-0.22","","img/purple.png","null","trial","32","false","0.8,0.2","1:go_a","",""
"null","","html-keyboard-response","287","353982","0.0-6.0-1.22","","<img src=""img/purple-n.png"">","null","trial","32","","0.8,0.2","1:go_a","0",""
"null","","html-keyboard-response","288","354983","0.0-6.0-2.22","","<div style=""font-size:60px;"">+</div>","null","","","","","","",""
"396.6800000052899","","image-keyboard-response","289","355380","0.0-6.0-0.23","","img/yellow.png","32","trial","32","true","0.6,0.4","3:go_c","",""
"null","","html-keyboard-response","290","356381","0.0-6.0-1.23","","<img src=""img/yellow-n.png"" border=""10"">","null","trial","32","","0.6,0.4","3:go_c","0",""
"null","","html-keyboard-response","291","357385","0.0-6.0-2.23","","<div style=""font-size:60px;"">+</div>","null","","","","","","",""
"506.2700000125915","","image-keyboard-response","292","357892","0.0-6.0-0.24","","img/yellow.png","32","trial","32","true","0.6,0.4","3:go_c","",""
"null","","html-keyboard-response","293","358893","0.0-6.0-1.24","","<img src=""img/yellow-n.png"" border=""10"">","null","trial","32","","0.6,0.4","3:go_c","0",""
"null","","html-keyboard-response","294","359894","0.0-6.0-2.24","","<div style=""font-size:60px;"">+</div>","null","","","","","","",""
"null","","image-keyboard-response","295","361394","0.0-6.0-0.25","","img/purple.png","null","trial","32","false","0.8,0.2","1:go_a","",""
"null","","html-keyboard-response","296","362396","0.0-6.0-1.25","","<img src=""img/purple-n.png"">","null","trial","32","","0.8,0.2","1:go_a","0",""
"null","","html-keyboard-response","297","363397","0.0-6.0-2.25","","<div style=""font-size:60px;"">+</div>","null","","","","","","",""
"null","","image-keyboard-response","298","364897","0.0-6.0-0.26","","img/red.png","null","trial","null","true","0.2,0.8","2:nogo_b","",""
"null","","html-keyboard-response","299","365899","0.0-6.0-1.26","","<img src=""img/red-r.png"">","null","trial","null","","0.2,0.8","2:nogo_b","1",""
"null","","html-keyboard-response","300","366900","0.0-6.0-2.26","","<div style=""font-size:60px;"">+</div>","null","","","","","","",""
"408.5600000107661","","image-keyboard-response","301","367308","0.0-6.0-0.27","","img/orange.png","32","trial","null","false","0.4,0.6","4:nogo_d","",""
"null","","html-keyboard-response","302","368311","0.0-6.0-1.27","","<img src=""img/orange-n.png"" border=""10"">","null","trial","null","","0.4,0.6","4:nogo_d","0",""
"null","","html-keyboard-response","303","369312","0.0-6.0-2.27","","<div style=""font-size:60px;"">+</div>","null","","","","","","",""
"null","","image-keyboard-response","304","370813","0.0-6.0-0.28","","img/purple.png","null","trial","32","false","0.8,0.2","1:go_a","",""
"null","","html-keyboard-response","305","371814","0.0-6.0-1.28","","<img src=""img/purple-n.png"">","null","trial","32","","0.8,0.2","1:go_a","0",""
"null","","html-keyboard-response","306","372815","0.0-6.0-2.28","","<div style=""font-size:60px;"">+</div>","null","","","","","","",""
"468.74499996192753","","image-keyboard-response","307","373284","0.0-6.0-0.29","","img/red.png","32","trial","null","false","0.2,0.8","2:nogo_b","",""
"null","","html-keyboard-response","308","374285","0.0-6.0-1.29","","<img src=""img/red-n.png"" border=""10"">","null","trial","null","","0.2,0.8","2:nogo_b","0",""
"null","","html-keyboard-response","309","375285","0.0-6.0-2.29","","<div style=""font-size:60px;"">+</div>","null","","","","","","",""
"445.9900000365451","","image-keyboard-response","310","375732","0.0-6.0-0.30","","img/orange.png","32","trial","null","false","0.4,0.6","4:nogo_d","",""
"null","","html-keyboard-response","311","376737","0.0-6.0-1.30","","<img src=""img/orange-n.png"" border=""10"">","null","trial","null","","0.4,0.6","4:nogo_d","0",""
"null","","html-keyboard-response","312","377738","0.0-6.0-2.30","","<div style=""font-size:60px;"">+</div>","null","","","","","","",""
"442.34999996842816","","image-keyboard-response","313","378180","0.0-6.0-0.31","","img/yellow.png","32","trial","32","true","0.6,0.4","3:go_c","",""
"null","","html-keyboard-response","314","379183","0.0-6.0-1.31","","<img src=""img/yellow-n.png"" border=""10"">","null","trial","32","","0.6,0.4","3:go_c","0",""
"null","","html-keyboard-response","315","380183","0.0-6.0-2.31","","<div style=""font-size:60px;"">+</div>","null","","","","","","",""
"1243.9599999925122","","image-keyboard-response","316","381428","0.0-6.0-0.32","","img/red.png","32","trial","null","false","0.2,0.8","2:nogo_b","",""
"null","","html-keyboard-response","317","382430","0.0-6.0-1.32","","<img src=""img/red-n.png"" border=""10"">","null","trial","null","","0.2,0.8","2:nogo_b","0",""
"null","","html-keyboard-response","318","383431","0.0-6.0-2.32","","<div style=""font-size:60px;"">+</div>","null","","","","","","",""
"null","","image-keyboard-response","319","384931","0.0-6.0-0.33","","img/purple.png","null","trial","32","false","0.8,0.2","1:go_a","",""
"null","","html-keyboard-response","320","385933","0.0-6.0-1.33","","<img src=""img/purple-n.png"">","null","trial","32","","0.8,0.2","1:go_a","0",""
"null","","html-keyboard-response","321","386934","0.0-6.0-2.33","","<div style=""font-size:60px;"">+</div>","null","","","","","","",""
"405.8599999989383","","image-keyboard-response","322","387340","0.0-6.0-0.34","","img/yellow.png","32","trial","32","true","0.6,0.4","3:go_c","",""
"null","","html-keyboard-response","323","388341","0.0-6.0-1.34","","<img src=""img/yellow-r.png"" border=""10"">","null","trial","32","","0.6,0.4","3:go_c","1",""
"null","","html-keyboard-response","324","389342","0.0-6.0-2.34","","<div style=""font-size:60px;"">+</div>","null","","","","","","",""
"597.6199999568053","","image-keyboard-response","325","389940","0.0-6.0-0.35","","img/orange.png","32","trial","null","false","0.4,0.6","4:nogo_d","",""
"null","","html-keyboard-response","326","390941","0.0-6.0-1.35","","<img src=""img/orange-n.png"" border=""10"">","null","trial","null","","0.4,0.6","4:nogo_d","0",""
"null","","html-keyboard-response","327","391942","0.0-6.0-2.35","","<div style=""font-size:60px;"">+</div>","null","","","","","","",""
"null","","image-keyboard-response","328","393443","0.0-6.0-0.36","","img/red.png","null","trial","null","true","0.2,0.8","2:nogo_b","",""
"null","","html-keyboard-response","329","394444","0.0-6.0-1.36","","<img src=""img/red-r.png"">","null","trial","null","","0.2,0.8","2:nogo_b","1",""
"null","","html-keyboard-response","330","395446","0.0-6.0-2.36","","<div style=""font-size:60px;"">+</div>","null","","","","","","",""
"485.9099999885075","","image-keyboard-response","331","395932","0.0-6.0-0.37","","img/yellow.png","32","trial","32","true","0.6,0.4","3:go_c","",""
"null","","html-keyboard-response","332","396933","0.0-6.0-1.37","","<img src=""img/yellow-n.png"" border=""10"">","null","trial","32","","0.6,0.4","3:go_c","0",""
"null","","html-keyboard-response","333","397933","0.0-6.0-2.37","","<div style=""font-size:60px;"">+</div>","null","","","","","","",""
"1190.0199999799952","","image-keyboard-response","334","399124","0.0-6.0-0.38","","img/orange.png","32","trial","null","false","0.4,0.6","4:nogo_d","",""
"null","","html-keyboard-response","335","400125","0.0-6.0-1.38","","<img src=""img/orange-n.png"" border=""10"">","null","trial","null","","0.4,0.6","4:nogo_d","0",""
"null","","html-keyboard-response","336","401126","0.0-6.0-2.38","","<div style=""font-size:60px;"">+</div>","null","","","","","","",""
"null","","image-keyboard-response","337","402627","0.0-6.0-0.39","","img/purple.png","null","trial","32","false","0.8,0.2","1:go_a","",""
"null","","html-keyboard-response","338","403629","0.0-6.0-1.39","","<img src=""img/purple-n.png"">","null","trial","32","","0.8,0.2","1:go_a","0",""
"null","","html-keyboard-response","339","404629","0.0-6.0-2.39","","<div style=""font-size:60px;"">+</div>","null","","","","","","",""
"342.6599999656901","","image-keyboard-response","340","404972","0.0-6.0-0.40","","img/yellow.png","32","trial","32","true","0.6,0.4","3:go_c","",""
"null","","html-keyboard-response","341","405973","0.0-6.0-1.40","","<img src=""img/yellow-r.png"" border=""10"">","null","trial","32","","0.6,0.4","3:go_c","1",""
"null","","html-keyboard-response","342","406975","0.0-6.0-2.40","","<div style=""font-size:60px;"">+</div>","null","","","","","","",""
"468.00999995321035","","image-keyboard-response","343","407444","0.0-6.0-0.41","","img/orange.png","32","trial","null","false","0.4,0.6","4:nogo_d","",""
"null","","html-keyboard-response","344","408446","0.0-6.0-1.41","","<img src=""img/orange-r.png"" border=""10"">","null","trial","null","","0.4,0.6","4:nogo_d","1",""
"null","","html-keyboard-response","345","409446","0.0-6.0-2.41","","<div style=""font-size:60px;"">+</div>","null","","","","","","",""
"null","","image-keyboard-response","346","410948","0.0-6.0-0.42","","img/purple.png","null","trial","32","false","0.8,0.2","1:go_a","",""
"null","","html-keyboard-response","347","411949","0.0-6.0-1.42","","<img src=""img/purple-n.png"">","null","trial","32","","0.8,0.2","1:go_a","0",""
"null","","html-keyboard-response","348","412950","0.0-6.0-2.42","","<div style=""font-size:60px;"">+</div>","null","","","","","","",""
"357.2500000009313","","image-keyboard-response","349","413308","0.0-6.0-0.43","","img/red.png","32","trial","null","false","0.2,0.8","2:nogo_b","",""
"null","","html-keyboard-response","350","414309","0.0-6.0-1.43","","<img src=""img/red-n.png"" border=""10"">","null","trial","null","","0.2,0.8","2:nogo_b","0",""
"null","","html-keyboard-response","351","415311","0.0-6.0-2.43","","<div style=""font-size:60px;"">+</div>","null","","","","","","",""
"null","","image-keyboard-response","352","416813","0.0-6.0-0.44","","img/purple.png","null","trial","32","false","0.8,0.2","1:go_a","",""
"null","","html-keyboard-response","353","417814","0.0-6.0-1.44","","<img src=""img/purple-r.png"">","null","trial","32","","0.8,0.2","1:go_a","1",""
"null","","html-keyboard-response","354","418816","0.0-6.0-2.44","","<div style=""font-size:60px;"">+</div>","null","","","","","","",""
"387.8149999654852","","image-keyboard-response","355","419204","0.0-6.0-0.45","","img/yellow.png","32","trial","32","true","0.6,0.4","3:go_c","",""
"null","","html-keyboard-response","356","420205","0.0-6.0-1.45","","<img src=""img/yellow-r.png"" border=""10"">","null","trial","32","","0.6,0.4","3:go_c","1",""
"null","","html-keyboard-response","357","421206","0.0-6.0-2.45","","<div style=""font-size:60px;"">+</div>","null","","","","","","",""
"669.5500000496395","","image-keyboard-response","358","421876","0.0-6.0-0.46","","img/red.png","32","trial","null","false","0.2,0.8","2:nogo_b","",""
"null","","html-keyboard-response","359","422877","0.0-6.0-1.46","","<img src=""img/red-n.png"" border=""10"">","null","trial","null","","0.2,0.8","2:nogo_b","0",""
"null","","html-keyboard-response","360","423878","0.0-6.0-2.46","","<div style=""font-size:60px;"">+</div>","null","","","","","","",""
"429.02999999932945","","image-keyboard-response","361","424308","0.0-6.0-0.47","","img/orange.png","32","trial","null","false","0.4,0.6","4:nogo_d","",""
"null","","html-keyboard-response","362","425308","0.0-6.0-1.47","","<img src=""img/orange-n.png"" border=""10"">","null","trial","null","","0.4,0.6","4:nogo_d","0",""
"null","","html-keyboard-response","363","426310","0.0-6.0-2.47","","<div style=""font-size:60px;"">+</div>","null","","","","","","",""
"645.844999991823","","image-keyboard-response","364","426956","0.0-6.0-0.48","","img/red.png","32","trial","null","false","0.2,0.8","2:nogo_b","",""
"null","","html-keyboard-response","365","427957","0.0-6.0-1.48","","<img src=""img/red-n.png"" border=""10"">","null","trial","null","","0.2,0.8","2:nogo_b","0",""
"null","","html-keyboard-response","366","428958","0.0-6.0-2.48","","<div style=""font-size:60px;"">+</div>","null","","","","","","",""
"422.3500000080094","","image-keyboard-response","367","429381","0.0-6.0-0.49","","img/yellow.png","32","trial","32","true","0.6,0.4","3:go_c","",""
"null","","html-keyboard-response","368","430381","0.0-6.0-1.49","","<img src=""img/yellow-n.png"" border=""10"">","null","trial","32","","0.6,0.4","3:go_c","0",""
"null","","html-keyboard-response","369","431382","0.0-6.0-2.49","","<div style=""font-size:60px;"">+</div>","null","","","","","","",""
"469.42999999737367","","image-keyboard-response","370","431852","0.0-6.0-0.50","","img/orange.png","32","trial","null","false","0.4,0.6","4:nogo_d","",""
"null","","html-keyboard-response","371","432853","0.0-6.0-1.50","","<img src=""img/orange-r.png"" border=""10"">","null","trial","null","","0.4,0.6","4:nogo_d","1",""
"null","","html-keyboard-response","372","433854","0.0-6.0-2.50","","<div style=""font-size:60px;"">+</div>","null","","","","","","",""
"null","","image-keyboard-response","373","435370","0.0-6.0-0.51","","img/purple.png","null","trial","32","false","0.8,0.2","1:go_a","",""
"null","","html-keyboard-response","374","436371","0.0-6.0-1.51","","<img src=""img/purple-n.png"">","null","trial","32","","0.8,0.2","1:go_a","0",""
"null","","html-keyboard-response","375","437373","0.0-6.0-2.51","","<div style=""font-size:60px;"">+</div>","null","","","","","","",""
"null","","image-keyboard-response","376","438874","0.0-6.0-0.52","","img/purple.png","null","trial","32","false","0.8,0.2","1:go_a","",""
"null","","html-keyboard-response","377","439875","0.0-6.0-1.52","","<img src=""img/purple-n.png"">","null","trial","32","","0.8,0.2","1:go_a","0",""
"null","","html-keyboard-response","378","440876","0.0-6.0-2.52","","<div style=""font-size:60px;"">+</div>","null","","","","","","",""
"416.04999999981374","","image-keyboard-response","379","441292","0.0-6.0-0.53","","img/orange.png","32","trial","null","false","0.4,0.6","4:nogo_d","",""
"null","","html-keyboard-response","380","442295","0.0-6.0-1.53","","<img src=""img/orange-r.png"" border=""10"">","null","trial","null","","0.4,0.6","4:nogo_d","1",""
"null","","html-keyboard-response","381","443295","0.0-6.0-2.53","","<div style=""font-size:60px;"">+</div>","null","","","","","","",""
"null","","image-keyboard-response","382","444796","0.0-6.0-0.54","","img/red.png","null","trial","null","true","0.2,0.8","2:nogo_b","",""
"null","","html-keyboard-response","383","445798","0.0-6.0-1.54","","<img src=""img/red-r.png"">","null","trial","null","","0.2,0.8","2:nogo_b","1",""
"null","","html-keyboard-response","384","446799","0.0-6.0-2.54","","<div style=""font-size:60px;"">+</div>","null","","","","","","",""
"348.93999999621883","","image-keyboard-response","385","447148","0.0-6.0-0.55","","img/yellow.png","32","trial","32","true","0.6,0.4","3:go_c","",""
"null","","html-keyboard-response","386","448149","0.0-6.0-1.55","","<img src=""img/yellow-r.png"" border=""10"">","null","trial","32","","0.6,0.4","3:go_c","1",""
"null","","html-keyboard-response","387","449150","0.0-6.0-2.55","","<div style=""font-size:60px;"">+</div>","null","","","","","","",""
"621.0000000428408","","image-keyboard-response","388","449772","0.0-6.0-0.56","","img/orange.png","32","trial","null","false","0.4,0.6","4:nogo_d","",""
"null","","html-keyboard-response","389","450774","0.0-6.0-1.56","","<img src=""img/orange-r.png"" border=""10"">","null","trial","null","","0.4,0.6","4:nogo_d","1",""
"null","","html-keyboard-response","390","451776","0.0-6.0-2.56","","<div style=""font-size:60px;"">+</div>","null","","","","","","",""
"null","","image-keyboard-response","391","453277","0.0-6.0-0.57","","img/red.png","null","trial","null","true","0.2,0.8","2:nogo_b","",""
"null","","html-keyboard-response","392","454278","0.0-6.0-1.57","","<img src=""img/red-r.png"">","null","trial","null","","0.2,0.8","2:nogo_b","1",""
"null","","html-keyboard-response","393","455280","0.0-6.0-2.57","","<div style=""font-size:60px;"">+</div>","null","","","","","","",""
"388.35999998264015","","image-keyboard-response","394","455668","0.0-6.0-0.58","","img/yellow.png","32","trial","32","true","0.6,0.4","3:go_c","",""
"null","","html-keyboard-response","395","456670","0.0-6.0-1.58","","<img src=""img/yellow-n.png"" border=""10"">","null","trial","32","","0.6,0.4","3:go_c","0",""
"null","","html-keyboard-response","396","457671","0.0-6.0-2.58","","<div style=""font-size:60px;"">+</div>","null","","","","","","",""
"null","","image-keyboard-response","397","459172","0.0-6.0-0.59","","img/purple.png","null","trial","32","false","0.8,0.2","1:go_a","",""
"null","","html-keyboard-response","398","460173","0.0-6.0-1.59","","<img src=""img/purple-n.png"">","null","trial","32","","0.8,0.2","1:go_a","0",""
"null","","html-keyboard-response","399","461175","0.0-6.0-2.59","","<div style=""font-size:60px;"">+</div>","null","","","","","","",""
"null","","image-keyboard-response","400","462690","0.0-6.0-0.60","","img/red.png","null","trial","null","true","0.2,0.8","2:nogo_b","",""
"null","","html-keyboard-response","401","463691","0.0-6.0-1.60","","<img src=""img/red-r.png"">","null","trial","null","","0.2,0.8","2:nogo_b","1",""
"null","","html-keyboard-response","402","464692","0.0-6.0-2.60","","<div style=""font-size:60px;"">+</div>","null","","","","","","",""
"567.8850000258535","","image-keyboard-response","403","465260","0.0-6.0-0.61","","img/orange.png","32","trial","null","false","0.4,0.6","4:nogo_d","",""
"null","","html-keyboard-response","404","466261","0.0-6.0-1.61","","<img src=""img/orange-n.png"" border=""10"">","null","trial","null","","0.4,0.6","4:nogo_d","0",""
"null","","html-keyboard-response","405","467263","0.0-6.0-2.61","","<div style=""font-size:60px;"">+</div>","null","","","","","","",""
"null","","image-keyboard-response","406","468764","0.0-6.0-0.62","","img/purple.png","null","trial","32","false","0.8,0.2","1:go_a","",""
"null","","html-keyboard-response","407","469764","0.0-6.0-1.62","","<img src=""img/purple-r.png"">","null","trial","32","","0.8,0.2","1:go_a","1",""
"null","","html-keyboard-response","408","470766","0.0-6.0-2.62","","<div style=""font-size:60px;"">+</div>","null","","","","","","",""
"341.6950000100769","","image-keyboard-response","409","471108","0.0-6.0-0.63","","img/yellow.png","32","trial","32","true","0.6,0.4","3:go_c","",""
"null","","html-keyboard-response","410","472110","0.0-6.0-1.63","","<img src=""img/yellow-r.png"" border=""10"">","null","trial","32","","0.6,0.4","3:go_c","1",""
"null","","html-keyboard-response","411","473110","0.0-6.0-2.63","","<div style=""font-size:60px;"">+</div>","null","","","","","","",""
"709.145000029821","","image-keyboard-response","412","473820","0.0-6.0-0.64","","img/orange.png","32","trial","null","false","0.4,0.6","4:nogo_d","",""
"null","","html-keyboard-response","413","474821","0.0-6.0-1.64","","<img src=""img/orange-n.png"" border=""10"">","null","trial","null","","0.4,0.6","4:nogo_d","0",""
"null","","html-keyboard-response","414","475823","0.0-6.0-2.64","","<div style=""font-size:60px;"">+</div>","null","","","","","","",""
"444.91000002017245","","image-keyboard-response","415","476268","0.0-6.0-0.65","","img/yellow.png","32","trial","32","true","0.6,0.4","3:go_c","",""
"null","","html-keyboard-response","416","477271","0.0-6.0-1.65","","<img src=""img/yellow-r.png"" border=""10"">","null","trial","32","","0.6,0.4","3:go_c","1",""
"null","","html-keyboard-response","417","478272","0.0-6.0-2.65","","<div style=""font-size:60px;"">+</div>","null","","","","","","",""
"null","","image-keyboard-response","418","479773","0.0-6.0-0.66","","img/red.png","null","trial","null","true","0.2,0.8","2:nogo_b","",""
"null","","html-keyboard-response","419","480774","0.0-6.0-1.66","","<img src=""img/red-n.png"">","null","trial","null","","0.2,0.8","2:nogo_b","0",""
"null","","html-keyboard-response","420","481776","0.0-6.0-2.66","","<div style=""font-size:60px;"">+</div>","null","","","","","","",""
"540.5400000163354","","image-keyboard-response","421","482316","0.0-6.0-0.67","","img/purple.png","32","trial","32","true","0.8,0.2","1:go_a","",""
"null","","html-keyboard-response","422","483319","0.0-6.0-1.67","","<img src=""img/purple-r.png"" border=""10"">","null","trial","32","","0.8,0.2","1:go_a","1",""
"null","","html-keyboard-response","423","484320","0.0-6.0-2.67","","<div style=""font-size:60px;"">+</div>","null","","","","","","",""
"931.6000000108033","","image-keyboard-response","424","485252","0.0-6.0-0.68","","img/red.png","32","trial","null","false","0.2,0.8","2:nogo_b","",""
"null","","html-keyboard-response","425","486253","0.0-6.0-1.68","","<img src=""img/red-n.png"" border=""10"">","null","trial","null","","0.2,0.8","2:nogo_b","0",""
"null","","html-keyboard-response","426","487255","0.0-6.0-2.68","","<div style=""font-size:60px;"">+</div>","null","","","","","","",""
"404.42000003531575","","image-keyboard-response","427","487660","0.0-6.0-0.69","","img/yellow.png","32","trial","32","true","0.6,0.4","3:go_c","",""
"null","","html-keyboard-response","428","488661","0.0-6.0-1.69","","<img src=""img/yellow-r.png"" border=""10"">","null","trial","32","","0.6,0.4","3:go_c","1",""
"null","","html-keyboard-response","429","489662","0.0-6.0-2.69","","<div style=""font-size:60px;"">+</div>","null","","","","","","",""
"637.3850000090897","","image-keyboard-response","430","490300","0.0-6.0-0.70","","img/orange.png","32","trial","null","false","0.4,0.6","4:nogo_d","",""
"null","","html-keyboard-response","431","491301","0.0-6.0-1.70","","<img src=""img/orange-r.png"" border=""10"">","null","trial","null","","0.4,0.6","4:nogo_d","1",""
"null","","html-keyboard-response","432","492302","0.0-6.0-2.70","","<div style=""font-size:60px;"">+</div>","null","","","","","","",""
"null","","image-keyboard-response","433","493803","0.0-6.0-0.71","","img/purple.png","null","trial","32","false","0.8,0.2","1:go_a","",""
"null","","html-keyboard-response","434","494804","0.0-6.0-1.71","","<img src=""img/purple-n.png"">","null","trial","32","","0.8,0.2","1:go_a","0",""
"null","","html-keyboard-response","435","495806","0.0-6.0-2.71","","<div style=""font-size:60px;"">+</div>","null","","","","","","",""
"382.9699999769218","","image-keyboard-response","436","496189","0.0-6.0-0.72","","img/yellow.png","32","trial","32","true","0.6,0.4","3:go_c","",""
"null","","html-keyboard-response","437","497191","0.0-6.0-1.72","","<img src=""img/yellow-r.png"" border=""10"">","null","trial","32","","0.6,0.4","3:go_c","1",""
"null","","html-keyboard-response","438","498192","0.0-6.0-2.72","","<div style=""font-size:60px;"">+</div>","null","","","","","","",""
"619.5750000188127","","image-keyboard-response","439","498812","0.0-6.0-0.73","","img/orange.png","32","trial","null","false","0.4,0.6","4:nogo_d","",""
"null","","html-keyboard-response","440","499814","0.0-6.0-1.73","","<img src=""img/orange-n.png"" border=""10"">","null","trial","null","","0.4,0.6","4:nogo_d","0",""
"null","","html-keyboard-response","441","500814","0.0-6.0-2.73","","<div style=""font-size:60px;"">+</div>","null","","","","","","",""
"null","","image-keyboard-response","442","502315","0.0-6.0-0.74","","img/red.png","null","trial","null","true","0.2,0.8","2:nogo_b","",""
"null","","html-keyboard-response","443","503323","0.0-6.0-1.74","","<img src=""img/red-r.png"">","null","trial","null","","0.2,0.8","2:nogo_b","1",""
"null","","html-keyboard-response","444","504324","0.0-6.0-2.74","","<div style=""font-size:60px;"">+</div>","null","","","","","","",""
"null","","image-keyboard-response","445","505825","0.0-6.0-0.75","","img/purple.png","null","trial","32","false","0.8,0.2","1:go_a","",""
"null","","html-keyboard-response","446","506826","0.0-6.0-1.75","","<img src=""img/purple-n.png"">","null","trial","32","","0.8,0.2","1:go_a","0",""
"null","","html-keyboard-response","447","507827","0.0-6.0-2.75","","<div style=""font-size:60px;"">+</div>","null","","","","","","",""
"null","","image-keyboard-response","448","509330","0.0-6.0-0.76","","img/purple.png","null","trial","32","false","0.8,0.2","1:go_a","",""
"null","","html-keyboard-response","449","510331","0.0-6.0-1.76","","<img src=""img/purple-n.png"">","null","trial","32","","0.8,0.2","1:go_a","0",""
"null","","html-keyboard-response","450","511333","0.0-6.0-2.76","","<div style=""font-size:60px;"">+</div>","null","","","","","","",""
"519.2950000055134","","image-keyboard-response","451","511852","0.0-6.0-0.77","","img/orange.png","32","trial","null","false","0.4,0.6","4:nogo_d","",""
"null","","html-keyboard-response","452","512853","0.0-6.0-1.77","","<img src=""img/orange-n.png"" border=""10"">","null","trial","null","","0.4,0.6","4:nogo_d","0",""
"null","","html-keyboard-response","453","513854","0.0-6.0-2.77","","<div style=""font-size:60px;"">+</div>","null","","","","","","",""
"348.9650000119582","","image-keyboard-response","454","514204","0.0-6.0-0.78","","img/yellow.png","32","trial","32","true","0.6,0.4","3:go_c","",""
"null","","html-keyboard-response","455","515205","0.0-6.0-1.78","","<img src=""img/yellow-r.png"" border=""10"">","null","trial","32","","0.6,0.4","3:go_c","1",""
"null","","html-keyboard-response","456","516206","0.0-6.0-2.78","","<div style=""font-size:60px;"">+</div>","null","","","","","","",""
"null","","image-keyboard-response","457","517708","0.0-6.0-0.79","","img/red.png","null","trial","null","true","0.2,0.8","2:nogo_b","",""
"null","","html-keyboard-response","458","518709","0.0-6.0-1.79","","<img src=""img/red-r.png"">","null","trial","null","","0.2,0.8","2:nogo_b","1",""
"null","","html-keyboard-response","459","519711","0.0-6.0-2.79","","<div style=""font-size:60px;"">+</div>","null","","","","","","",""
"428.83499996969476","","image-keyboard-response","460","520140","0.0-6.0-0.80","","img/red.png","32","trial","null","false","0.2,0.8","2:nogo_b","",""
"null","","html-keyboard-response","461","521142","0.0-6.0-1.80","","<img src=""img/red-n.png"" border=""10"">","null","trial","null","","0.2,0.8","2:nogo_b","0",""
"null","","html-keyboard-response","462","522142","0.0-6.0-2.80","","<div style=""font-size:60px;"">+</div>","null","","","","","","",""
"517.5099999760278","","image-keyboard-response","463","522660","0.0-6.0-0.81","","img/orange.png","32","trial","null","false","0.4,0.6","4:nogo_d","",""
"null","","html-keyboard-response","464","523662","0.0-6.0-1.81","","<img src=""img/orange-n.png"" border=""10"">","null","trial","null","","0.4,0.6","4:nogo_d","0",""
"null","","html-keyboard-response","465","524663","0.0-6.0-2.81","","<div style=""font-size:60px;"">+</div>","null","","","","","","",""
"null","","image-keyboard-response","466","526164","0.0-6.0-0.82","","img/purple.png","null","trial","32","false","0.8,0.2","1:go_a","",""
"null","","html-keyboard-response","467","527166","0.0-6.0-1.82","","<img src=""img/purple-n.png"">","null","trial","32","","0.8,0.2","1:go_a","0",""
"null","","html-keyboard-response","468","528166","0.0-6.0-2.82","","<div style=""font-size:60px;"">+</div>","null","","","","","","",""
"428.97000000812113","","image-keyboard-response","469","528596","0.0-6.0-0.83","","img/yellow.png","32","trial","32","true","0.6,0.4","3:go_c","",""
"null","","html-keyboard-response","470","529598","0.0-6.0-1.83","","<img src=""img/yellow-n.png"" border=""10"">","null","trial","32","","0.6,0.4","3:go_c","0",""
"null","","html-keyboard-response","471","530599","0.0-6.0-2.83","","<div style=""font-size:60px;"">+</div>","null","","","","","","",""
"420.18499999539927","","image-keyboard-response","472","531020","0.0-6.0-0.84","","img/yellow.png","32","trial","32","true","0.6,0.4","3:go_c","",""
"null","","html-keyboard-response","473","532020","0.0-6.0-1.84","","<img src=""img/yellow-n.png"" border=""10"">","null","trial","32","","0.6,0.4","3:go_c","0",""
"null","","html-keyboard-response","474","533022","0.0-6.0-2.84","","<div style=""font-size:60px;"">+</div>","null","","","","","","",""
"null","","image-keyboard-response","475","534523","0.0-6.0-0.85","","img/purple.png","null","trial","32","false","0.8,0.2","1:go_a","",""
"null","","html-keyboard-response","476","535524","0.0-6.0-1.85","","<img src=""img/purple-n.png"">","null","trial","32","","0.8,0.2","1:go_a","0",""
"null","","html-keyboard-response","477","536526","0.0-6.0-2.85","","<div style=""font-size:60px;"">+</div>","null","","","","","","",""
"685.9200000180863","","image-keyboard-response","478","537212","0.0-6.0-0.86","","img/red.png","32","trial","null","false","0.2,0.8","2:nogo_b","",""
"null","","html-keyboard-response","479","538215","0.0-6.0-1.86","","<img src=""img/red-n.png"" border=""10"">","null","trial","null","","0.2,0.8","2:nogo_b","0",""
"null","","html-keyboard-response","480","539230","0.0-6.0-2.86","","<div style=""font-size:60px;"">+</div>","null","","","","","","",""
"581.804999965243","","image-keyboard-response","481","539812","0.0-6.0-0.87","","img/orange.png","32","trial","null","false","0.4,0.6","4:nogo_d","",""
"null","","html-keyboard-response","482","540813","0.0-6.0-1.87","","<img src=""img/orange-n.png"" border=""10"">","null","trial","null","","0.4,0.6","4:nogo_d","0",""
"null","","html-keyboard-response","483","541814","0.0-6.0-2.87","","<div style=""font-size:60px;"">+</div>","null","","","","","","",""
"null","","image-keyboard-response","484","543315","0.0-6.0-0.88","","img/purple.png","null","trial","32","false","0.8,0.2","1:go_a","",""
"null","","html-keyboard-response","485","544317","0.0-6.0-1.88","","<img src=""img/purple-n.png"">","null","trial","32","","0.8,0.2","1:go_a","0",""
"null","","html-keyboard-response","486","545318","0.0-6.0-2.88","","<div style=""font-size:60px;"">+</div>","null","","","","","","",""
"null","","image-keyboard-response","487","546819","0.0-6.0-0.89","","img/red.png","null","trial","null","true","0.2,0.8","2:nogo_b","",""
"null","","html-keyboard-response","488","547820","0.0-6.0-1.89","","<img src=""img/red-r.png"">","null","trial","null","","0.2,0.8","2:nogo_b","1",""
"null","","html-keyboard-response","489","548822","0.0-6.0-2.89","","<div style=""font-size:60px;"">+</div>","null","","","","","","",""
"398.1999999959953","","image-keyboard-response","490","549221","0.0-6.0-0.90","","img/orange.png","32","trial","null","false","0.4,0.6","4:nogo_d","",""
"null","","html-keyboard-response","491","550221","0.0-6.0-1.90","","<img src=""img/orange-n.png"" border=""10"">","null","trial","null","","0.4,0.6","4:nogo_d","0",""
"null","","html-keyboard-response","492","551222","0.0-6.0-2.90","","<div style=""font-size:60px;"">+</div>","null","","","","","","",""
"453.1999999890104","","image-keyboard-response","493","551676","0.0-6.0-0.91","","img/yellow.png","32","trial","32","true","0.6,0.4","3:go_c","",""
"null","","html-keyboard-response","494","552677","0.0-6.0-1.91","","<img src=""img/yellow-n.png"" border=""10"">","null","trial","32","","0.6,0.4","3:go_c","0",""
"null","","html-keyboard-response","495","553678","0.0-6.0-2.91","","<div style=""font-size:60px;"">+</div>","null","","","","","","",""
"null","","image-keyboard-response","496","555179","0.0-6.0-0.92","","img/red.png","null","trial","null","true","0.2,0.8","2:nogo_b","",""
"null","","html-keyboard-response","497","556180","0.0-6.0-1.92","","<img src=""img/red-r.png"">","null","trial","null","","0.2,0.8","2:nogo_b","1",""
"null","","html-keyboard-response","498","557182","0.0-6.0-2.92","","<div style=""font-size:60px;"">+</div>","null","","","","","","",""
"null","","image-keyboard-response","499","558682","0.0-6.0-0.93","","img/purple.png","null","trial","32","false","0.8,0.2","1:go_a","",""
"null","","html-keyboard-response","500","559684","0.0-6.0-1.93","","<img src=""img/purple-n.png"">","null","trial","32","","0.8,0.2","1:go_a","0",""
"null","","html-keyboard-response","501","560685","0.0-6.0-2.93","","<div style=""font-size:60px;"">+</div>","null","","","","","","",""
"495.5900000059046","","image-keyboard-response","502","561181","0.0-6.0-0.94","","img/yellow.png","32","trial","32","true","0.6,0.4","3:go_c","",""
"null","","html-keyboard-response","503","562181","0.0-6.0-1.94","","<img src=""img/yellow-r.png"" border=""10"">","null","trial","32","","0.6,0.4","3:go_c","1",""
"null","","html-keyboard-response","504","563182","0.0-6.0-2.94","","<div style=""font-size:60px;"">+</div>","null","","","","","","",""
"604.9399999901652","","image-keyboard-response","505","563788","0.0-6.0-0.95","","img/orange.png","32","trial","null","false","0.4,0.6","4:nogo_d","",""
"null","","html-keyboard-response","506","564790","0.0-6.0-1.95","","<img src=""img/orange-n.png"" border=""10"">","null","trial","null","","0.4,0.6","4:nogo_d","0",""
"null","","html-keyboard-response","507","565791","0.0-6.0-2.95","","<div style=""font-size:60px;"">+</div>","null","","","","","","",""
"428.63500001840293","","image-keyboard-response","508","566220","0.0-6.0-0.96","","img/yellow.png","32","trial","32","true","0.6,0.4","3:go_c","",""
"null","","html-keyboard-response","509","567222","0.0-6.0-1.96","","<img src=""img/yellow-r.png"" border=""10"">","null","trial","32","","0.6,0.4","3:go_c","1",""
"null","","html-keyboard-response","510","568223","0.0-6.0-2.96","","<div style=""font-size:60px;"">+</div>","null","","","","","","",""
"null","","image-keyboard-response","511","569725","0.0-6.0-0.97","","img/red.png","null","trial","null","true","0.2,0.8","2:nogo_b","",""
"null","","html-keyboard-response","512","570727","0.0-6.0-1.97","","<img src=""img/red-r.png"">","null","trial","null","","0.2,0.8","2:nogo_b","1",""
"null","","html-keyboard-response","513","571728","0.0-6.0-2.97","","<div style=""font-size:60px;"">+</div>","null","","","","","","",""
"380.2600000053644","","image-keyboard-response","514","572108","0.0-6.0-0.98","","img/orange.png","32","trial","null","false","0.4,0.6","4:nogo_d","",""
"null","","html-keyboard-response","515","573112","0.0-6.0-1.98","","<img src=""img/orange-n.png"" border=""10"">","null","trial","null","","0.4,0.6","4:nogo_d","0",""
"null","","html-keyboard-response","516","574113","0.0-6.0-2.98","","<div style=""font-size:60px;"">+</div>","null","","","","","","",""
"null","","image-keyboard-response","517","575613","0.0-6.0-0.99","","img/purple.png","null","trial","32","false","0.8,0.2","1:go_a","",""
"null","","html-keyboard-response","518","576629","0.0-6.0-1.99","","<img src=""img/purple-n.png"">","null","trial","32","","0.8,0.2","1:go_a","0",""
"null","","html-keyboard-response","519","577630","0.0-6.0-2.99","","<div style=""font-size:60px;"">+</div>","null","","","","","","",""
"405.7899999897927","","image-keyboard-response","520","578036","0.0-6.0-0.100","","img/orange.png","32","trial","null","false","0.4,0.6","4:nogo_d","",""
"null","","html-keyboard-response","521","579037","0.0-6.0-1.100","","<img src=""img/orange-r.png"" border=""10"">","null","trial","null","","0.4,0.6","4:nogo_d","1",""
"null","","html-keyboard-response","522","580040","0.0-6.0-2.100","","<div style=""font-size:60px;"">+</div>","null","","","","","","",""
"483.7949999491684","","image-keyboard-response","523","580524","0.0-6.0-0.101","","img/yellow.png","32","trial","32","true","0.6,0.4","3:go_c","",""
"null","","html-keyboard-response","524","581525","0.0-6.0-1.101","","<img src=""img/yellow-r.png"" border=""10"">","null","trial","32","","0.6,0.4","3:go_c","1",""
"null","","html-keyboard-response","525","582526","0.0-6.0-2.101","","<div style=""font-size:60px;"">+</div>","null","","","","","","",""
"null","","image-keyboard-response","526","584026","0.0-6.0-0.102","","img/purple.png","null","trial","32","false","0.8,0.2","1:go_a","",""
"null","","html-keyboard-response","527","585027","0.0-6.0-1.102","","<img src=""img/purple-n.png"">","null","trial","32","","0.8,0.2","1:go_a","0",""
"null","","html-keyboard-response","528","586028","0.0-6.0-2.102","","<div style=""font-size:60px;"">+</div>","null","","","","","","",""
"624.1650000447407","","image-keyboard-response","529","586652","0.0-6.0-0.103","","img/red.png","32","trial","null","false","0.2,0.8","2:nogo_b","",""
"null","","html-keyboard-response","530","587654","0.0-6.0-1.103","","<img src=""img/red-n.png"" border=""10"">","null","trial","null","","0.2,0.8","2:nogo_b","0",""
"null","","html-keyboard-response","531","588656","0.0-6.0-2.103","","<div style=""font-size:60px;"">+</div>","null","","","","","","",""
"971.6599999810569","","image-keyboard-response","532","589628","0.0-6.0-0.104","","img/red.png","32","trial","null","false","0.2,0.8","2:nogo_b","",""
"null","","html-keyboard-response","533","590629","0.0-6.0-1.104","","<img src=""img/red-r.png"" border=""10"">","null","trial","null","","0.2,0.8","2:nogo_b","1",""
"null","","html-keyboard-response","534","591631","0.0-6.0-2.104","","<div style=""font-size:60px;"">+</div>","null","","","","","","",""
"412.2649999917485","","image-keyboard-response","535","592044","0.0-6.0-0.105","","img/yellow.png","32","trial","32","true","0.6,0.4","3:go_c","",""
"null","","html-keyboard-response","536","593045","0.0-6.0-1.105","","<img src=""img/yellow-r.png"" border=""10"">","null","trial","32","","0.6,0.4","3:go_c","1",""
"null","","html-keyboard-response","537","594047","0.0-6.0-2.105","","<div style=""font-size:60px;"">+</div>","null","","","","","","",""
"468.6600000131875","","image-keyboard-response","538","594516","0.0-6.0-0.106","","img/orange.png","32","trial","null","false","0.4,0.6","4:nogo_d","",""
"null","","html-keyboard-response","539","595518","0.0-6.0-1.106","","<img src=""img/orange-r.png"" border=""10"">","null","trial","null","","0.4,0.6","4:nogo_d","1",""
"null","","html-keyboard-response","540","596519","0.0-6.0-2.106","","<div style=""font-size:60px;"">+</div>","null","","","","","","",""
"null","","image-keyboard-response","541","598020","0.0-6.0-0.107","","img/purple.png","null","trial","32","false","0.8,0.2","1:go_a","",""
"null","","html-keyboard-response","542","599021","0.0-6.0-1.107","","<img src=""img/purple-n.png"">","null","trial","32","","0.8,0.2","1:go_a","0",""
"null","","html-keyboard-response","543","600022","0.0-6.0-2.107","","<div style=""font-size:60px;"">+</div>","null","","","","","","",""
"437.6850000116974","","image-keyboard-response","544","600460","0.0-6.0-0.108","","img/yellow.png","32","trial","32","true","0.6,0.4","3:go_c","",""
"null","","html-keyboard-response","545","601463","0.0-6.0-1.108","","<img src=""img/yellow-n.png"" border=""10"">","null","trial","32","","0.6,0.4","3:go_c","0",""
"null","","html-keyboard-response","546","602470","0.0-6.0-2.108","","<div style=""font-size:60px;"">+</div>","null","","","","","","",""
"573.644999996759","","image-keyboard-response","547","603044","0.0-6.0-0.109","","img/red.png","32","trial","null","false","0.2,0.8","2:nogo_b","",""
"null","","html-keyboard-response","548","604045","0.0-6.0-1.109","","<img src=""img/red-r.png"" border=""10"">","null","trial","null","","0.2,0.8","2:nogo_b","1",""
"null","","html-keyboard-response","549","605047","0.0-6.0-2.109","","<div style=""font-size:60px;"">+</div>","null","","","","","","",""
"412.1300000115298","","image-keyboard-response","550","605460","0.0-6.0-0.110","","img/orange.png","32","trial","null","false","0.4,0.6","4:nogo_d","",""
"null","","html-keyboard-response","551","606461","0.0-6.0-1.110","","<img src=""img/orange-r.png"" border=""10"">","null","trial","null","","0.4,0.6","4:nogo_d","1",""
"null","","html-keyboard-response","552","607463","0.0-6.0-2.110","","<div style=""font-size:60px;"">+</div>","null","","","","","","",""
"null","","image-keyboard-response","553","608964","0.0-6.0-0.111","","img/purple.png","null","trial","32","false","0.8,0.2","1:go_a","",""
"null","","html-keyboard-response","554","609966","0.0-6.0-1.111","","<img src=""img/purple-n.png"">","null","trial","32","","0.8,0.2","1:go_a","0",""
"null","","html-keyboard-response","555","610966","0.0-6.0-2.111","","<div style=""font-size:60px;"">+</div>","null","","","","","","",""
"null","","image-keyboard-response","556","612480","0.0-6.0-0.112","","img/purple.png","null","trial","32","false","0.8,0.2","1:go_a","",""
"null","","html-keyboard-response","557","613481","0.0-6.0-1.112","","<img src=""img/purple-r.png"">","null","trial","32","","0.8,0.2","1:go_a","1",""
"null","","html-keyboard-response","558","614483","0.0-6.0-2.112","","<div style=""font-size:60px;"">+</div>","null","","","","","","",""
"488.67500002961606","","image-keyboard-response","559","614972","0.0-6.0-0.113","","img/yellow.png","32","trial","32","true","0.6,0.4","3:go_c","",""
"null","","html-keyboard-response","560","615973","0.0-6.0-1.113","","<img src=""img/yellow-n.png"" border=""10"">","null","trial","32","","0.6,0.4","3:go_c","0",""
"null","","html-keyboard-response","561","616974","0.0-6.0-2.113","","<div style=""font-size:60px;"">+</div>","null","","","","","","",""
"717.5999999744818","","image-keyboard-response","562","617692","0.0-6.0-0.114","","img/orange.png","32","trial","null","false","0.4,0.6","4:nogo_d","",""
"null","","html-keyboard-response","563","618693","0.0-6.0-1.114","","<img src=""img/orange-n.png"" border=""10"">","null","trial","null","","0.4,0.6","4:nogo_d","0",""
"null","","html-keyboard-response","564","619694","0.0-6.0-2.114","","<div style=""font-size:60px;"">+</div>","null","","","","","","",""
"null","","image-keyboard-response","565","621195","0.0-6.0-0.115","","img/red.png","null","trial","null","true","0.2,0.8","2:nogo_b","",""
"null","","html-keyboard-response","566","622195","0.0-6.0-1.115","","<img src=""img/red-r.png"">","null","trial","null","","0.2,0.8","2:nogo_b","1",""
"null","","html-keyboard-response","567","623196","0.0-6.0-2.115","","<div style=""font-size:60px;"">+</div>","null","","","","","","",""
"null","","image-keyboard-response","568","624697","0.0-6.0-0.116","","img/purple.png","null","trial","32","false","0.8,0.2","1:go_a","",""
"null","","html-keyboard-response","569","625699","0.0-6.0-1.116","","<img src=""img/purple-n.png"">","null","trial","32","","0.8,0.2","1:go_a","0",""
"null","","html-keyboard-response","570","626700","0.0-6.0-2.116","","<div style=""font-size:60px;"">+</div>","null","","","","","","",""
"391.77000004565343","","image-keyboard-response","571","627093","0.0-6.0-0.117","","img/orange.png","32","trial","null","false","0.4,0.6","4:nogo_d","",""
"null","","html-keyboard-response","572","628094","0.0-6.0-1.117","","<img src=""img/orange-r.png"" border=""10"">","null","trial","null","","0.4,0.6","4:nogo_d","1",""
"null","","html-keyboard-response","573","629096","0.0-6.0-2.117","","<div style=""font-size:60px;"">+</div>","null","","","","","","",""
"419.1149999969639","","image-keyboard-response","574","629516","0.0-6.0-0.118","","img/yellow.png","32","trial","32","true","0.6,0.4","3:go_c","",""
"null","","html-keyboard-response","575","630517","0.0-6.0-1.118","","<img src=""img/yellow-r.png"" border=""10"">","null","trial","32","","0.6,0.4","3:go_c","1",""
"null","","html-keyboard-response","576","631518","0.0-6.0-2.118","","<div style=""font-size:60px;"">+</div>","null","","","","","","",""
"805.4150000098161","","image-keyboard-response","577","632324","0.0-6.0-0.119","","img/red.png","32","trial","null","false","0.2,0.8","2:nogo_b","",""
"null","","html-keyboard-response","578","633326","0.0-6.0-1.119","","<img src=""img/red-r.png"" border=""10"">","null","trial","null","","0.2,0.8","2:nogo_b","1",""
"null","","html-keyboard-response","579","634327","0.0-6.0-2.119","","<div style=""font-size:60px;"">+</div>","null","","","","","","",""
"2381.4349999884143","","instructions","580","636709","0.0-7.0","[{""page_index"":0,""viewing_time"":2381.2749999924563}]","","","","","","","","",""
"766.9650000170805","","image-keyboard-response","581","637476","0.0-8.0-0.0","","img/yellow.png","32","trial","32","true","0.6,0.4","3:go_c","",""
"null","","html-keyboard-response","582","638478","0.0-8.0-1.0","","<img src=""img/yellow-r.png"" border=""10"">","null","trial","32","","0.6,0.4","3:go_c","1",""
"null","","html-keyboard-response","583","639480","0.0-8.0-2.0","","<div style=""font-size:60px;"">+</div>","null","","","","","","",""
"1243.8400000100955","","image-keyboard-response","584","640724","0.0-8.0-0.1","","img/grey.png","32","trial","32","true","0.6,0.4","1:go_a","",""
"null","","html-keyboard-response","585","641725","0.0-8.0-1.1","","<img src=""img/grey-r.png"" border=""10"">","null","trial","32","","0.6,0.4","1:go_a","1",""
"null","","html-keyboard-response","586","642727","0.0-8.0-2.1","","<div style=""font-size:60px;"">+</div>","null","","","","","","",""
"580.7750000385568","","image-keyboard-response","587","643308","0.0-8.0-0.2","","img/pink.png","32","trial","null","false","0.4,0.6","2:nogo_b","",""
"null","","html-keyboard-response","588","644309","0.0-8.0-1.2","","<img src=""img/pink-r.png"" border=""10"">","null","trial","null","","0.4,0.6","2:nogo_b","1",""
"null","","html-keyboard-response","589","645310","0.0-8.0-2.2","","<div style=""font-size:60px;"">+</div>","null","","","","","","",""
"621.8750000116415","","image-keyboard-response","590","645932","0.0-8.0-0.3","","img/blue.png","32","trial","null","false","0.4,0.6","4:nogo_d","",""
"null","","html-keyboard-response","591","646933","0.0-8.0-1.3","","<img src=""img/blue-r.png"" border=""10"">","null","trial","null","","0.4,0.6","4:nogo_d","1",""
"null","","html-keyboard-response","592","647948","0.0-8.0-2.3","","<div style=""font-size:60px;"">+</div>","null","","","","","","",""
"423.56999998446554","","image-keyboard-response","593","648372","0.0-8.0-0.4","","img/pink.png","32","trial","null","false","0.4,0.6","2:nogo_b","",""
"null","","html-keyboard-response","594","649373","0.0-8.0-1.4","","<img src=""img/pink-r.png"" border=""10"">","null","trial","null","","0.4,0.6","2:nogo_b","1",""
"null","","html-keyboard-response","595","650374","0.0-8.0-2.4","","<div style=""font-size:60px;"">+</div>","null","","","","","","",""
"421.5599999879487","","image-keyboard-response","596","650796","0.0-8.0-0.5","","img/blue.png","32","trial","null","false","0.4,0.6","4:nogo_d","",""
"null","","html-keyboard-response","597","651797","0.0-8.0-1.5","","<img src=""img/blue-r.png"" border=""10"">","null","trial","null","","0.4,0.6","4:nogo_d","1",""
"null","","html-keyboard-response","598","652799","0.0-8.0-2.5","","<div style=""font-size:60px;"">+</div>","null","","","","","","",""
"388.9150000177324","","image-keyboard-response","599","653188","0.0-8.0-0.6","","img/grey.png","32","trial","32","true","0.6,0.4","1:go_a","",""
"null","","html-keyboard-response","600","654190","0.0-8.0-1.6","","<img src=""img/grey-r.png"" border=""10"">","null","trial","32","","0.6,0.4","1:go_a","1",""
"null","","html-keyboard-response","601","655190","0.0-8.0-2.6","","<div style=""font-size:60px;"">+</div>","null","","","","","","",""
"309.0000000083819","","image-keyboard-response","602","655500","0.0-8.0-0.7","","img/yellow.png","32","trial","32","true","0.6,0.4","3:go_c","",""
"null","","html-keyboard-response","603","656502","0.0-8.0-1.7","","<img src=""img/yellow-n.png"" border=""10"">","null","trial","32","","0.6,0.4","3:go_c","0",""
"null","","html-keyboard-response","604","657503","0.0-8.0-2.7","","<div style=""font-size:60px;"">+</div>","null","","","","","","",""
"348.57000003103167","","image-keyboard-response","605","657852","0.0-8.0-0.8","","img/blue.png","32","trial","null","false","0.4,0.6","4:nogo_d","",""
"null","","html-keyboard-response","606","658853","0.0-8.0-1.8","","<img src=""img/blue-r.png"" border=""10"">","null","trial","null","","0.4,0.6","4:nogo_d","1",""
"null","","html-keyboard-response","607","659854","0.0-8.0-2.8","","<div style=""font-size:60px;"">+</div>","null","","","","","","",""
"342.26000000489876","","image-keyboard-response","608","660196","0.0-8.0-0.9","","img/pink.png","32","trial","null","false","0.4,0.6","2:nogo_b","",""
"null","","html-keyboard-response","609","661197","0.0-8.0-1.9","","<img src=""img/pink-n.png"" border=""10"">","null","trial","null","","0.4,0.6","2:nogo_b","0",""
"null","","html-keyboard-response","610","662198","0.0-8.0-2.9","","<div style=""font-size:60px;"">+</div>","null","","","","","","",""
"396.92500000819564","","image-keyboard-response","611","662596","0.0-8.0-0.10","","img/yellow.png","32","trial","32","true","0.6,0.4","3:go_c","",""
"null","","html-keyboard-response","612","663598","0.0-8.0-1.10","","<img src=""img/yellow-r.png"" border=""10"">","null","trial","32","","0.6,0.4","3:go_c","1",""
"null","","html-keyboard-response","613","664599","0.0-8.0-2.10","","<div style=""font-size:60px;"">+</div>","null","","","","","","",""
"348.1150000006892","","image-keyboard-response","614","664948","0.0-8.0-0.11","","img/grey.png","32","trial","32","true","0.6,0.4","1:go_a","",""
"null","","html-keyboard-response","615","665949","0.0-8.0-1.11","","<img src=""img/grey-r.png"" border=""10"">","null","trial","32","","0.6,0.4","1:go_a","1",""
"null","","html-keyboard-response","616","666950","0.0-8.0-2.11","","<div style=""font-size:60px;"">+</div>","null","","","","","","",""
"333.3400000119582","","image-keyboard-response","617","667284","0.0-8.0-0.12","","img/pink.png","32","trial","null","false","0.4,0.6","2:nogo_b","",""
"null","","html-keyboard-response","618","668285","0.0-8.0-1.12","","<img src=""img/pink-n.png"" border=""10"">","null","trial","null","","0.4,0.6","2:nogo_b","0",""
"null","","html-keyboard-response","619","669286","0.0-8.0-2.12","","<div style=""font-size:60px;"">+</div>","null","","","","","","",""
"333.02499999990687","","image-keyboard-response","620","669620","0.0-8.0-0.13","","img/blue.png","32","trial","null","false","0.4,0.6","4:nogo_d","",""
"null","","html-keyboard-response","621","670620","0.0-8.0-1.13","","<img src=""img/blue-r.png"" border=""10"">","null","trial","null","","0.4,0.6","4:nogo_d","1",""
"null","","html-keyboard-response","622","671621","0.0-8.0-2.13","","<div style=""font-size:60px;"">+</div>","null","","","","","","",""
"406.7800000193529","","image-keyboard-response","623","672028","0.0-8.0-0.14","","img/yellow.png","32","trial","32","true","0.6,0.4","3:go_c","",""
"null","","html-keyboard-response","624","673029","0.0-8.0-1.14","","<img src=""img/yellow-r.png"" border=""10"">","null","trial","32","","0.6,0.4","3:go_c","1",""
"null","","html-keyboard-response","625","674031","0.0-8.0-2.14","","<div style=""font-size:60px;"">+</div>","null","","","","","","",""
"428.7400000030175","","image-keyboard-response","626","674460","0.0-8.0-0.15","","img/grey.png","32","trial","32","true","0.6,0.4","1:go_a","",""
"null","","html-keyboard-response","627","675461","0.0-8.0-1.15","","<img src=""img/grey-n.png"" border=""10"">","null","trial","32","","0.6,0.4","1:go_a","0",""
"null","","html-keyboard-response","628","676463","0.0-8.0-2.15","","<div style=""font-size:60px;"">+</div>","null","","","","","","",""
"452.3449999978766","","image-keyboard-response","629","676916","0.0-8.0-0.16","","img/blue.png","32","trial","null","false","0.4,0.6","4:nogo_d","",""
"null","","html-keyboard-response","630","677917","0.0-8.0-1.16","","<img src=""img/blue-n.png"" border=""10"">","null","trial","null","","0.4,0.6","4:nogo_d","0",""
"null","","html-keyboard-response","631","678918","0.0-8.0-2.16","","<div style=""font-size:60px;"">+</div>","null","","","","","","",""
"413.5699999751523","","image-keyboard-response","632","679332","0.0-8.0-0.17","","img/yellow.png","32","trial","32","true","0.6,0.4","3:go_c","",""
"null","","html-keyboard-response","633","680334","0.0-8.0-1.17","","<img src=""img/yellow-r.png"" border=""10"">","null","trial","32","","0.6,0.4","3:go_c","1",""
"null","","html-keyboard-response","634","681334","0.0-8.0-2.17","","<div style=""font-size:60px;"">+</div>","null","","","","","","",""
"420.97999999532476","","image-keyboard-response","635","681756","0.0-8.0-0.18","","img/grey.png","32","trial","32","true","0.6,0.4","1:go_a","",""
"null","","html-keyboard-response","636","682758","0.0-8.0-1.18","","<img src=""img/grey-r.png"" border=""10"">","null","trial","32","","0.6,0.4","1:go_a","1",""
"null","","html-keyboard-response","637","683759","0.0-8.0-2.18","","<div style=""font-size:60px;"">+</div>","null","","","","","","",""
"null","","image-keyboard-response","638","685260","0.0-8.0-0.19","","img/pink.png","null","trial","null","true","0.4,0.6","2:nogo_b","",""
"null","","html-keyboard-response","639","686262","0.0-8.0-1.19","","<img src=""img/pink-n.png"">","null","trial","null","","0.4,0.6","2:nogo_b","0",""
"null","","html-keyboard-response","640","687263","0.0-8.0-2.19","","<div style=""font-size:60px;"">+</div>","null","","","","","","",""
"429.30499999783933","","image-keyboard-response","641","687692","0.0-8.0-0.20","","img/blue.png","32","trial","null","false","0.4,0.6","4:nogo_d","",""
"null","","html-keyboard-response","642","688694","0.0-8.0-1.20","","<img src=""img/blue-r.png"" border=""10"">","null","trial","null","","0.4,0.6","4:nogo_d","1",""
"null","","html-keyboard-response","643","689695","0.0-8.0-2.20","","<div style=""font-size:60px;"">+</div>","null","","","","","","",""
"436.41500000376254","","image-keyboard-response","644","690132","0.0-8.0-0.21","","img/grey.png","32","trial","32","true","0.6,0.4","1:go_a","",""
"null","","html-keyboard-response","645","691133","0.0-8.0-1.21","","<img src=""img/grey-n.png"" border=""10"">","null","trial","32","","0.6,0.4","1:go_a","0",""
"null","","html-keyboard-response","646","692133","0.0-8.0-2.21","","<div style=""font-size:60px;"">+</div>","null","","","","","","",""
"405.9849999612197","","image-keyboard-response","647","692540","0.0-8.0-0.22","","img/yellow.png","32","trial","32","true","0.6,0.4","3:go_c","",""
"null","","html-keyboard-response","648","693541","0.0-8.0-1.22","","<img src=""img/yellow-n.png"" border=""10"">","null","trial","32","","0.6,0.4","3:go_c","0",""
"null","","html-keyboard-response","649","694543","0.0-8.0-2.22","","<div style=""font-size:60px;"">+</div>","null","","","","","","",""
"null","","image-keyboard-response","650","696046","0.0-8.0-0.23","","img/pink.png","null","trial","null","true","0.4,0.6","2:nogo_b","",""
"null","","html-keyboard-response","651","697047","0.0-8.0-1.23","","<img src=""img/pink-r.png"">","null","trial","null","","0.4,0.6","2:nogo_b","1",""
"null","","html-keyboard-response","652","698048","0.0-8.0-2.23","","<div style=""font-size:60px;"">+</div>","null","","","","","","",""
"null","","image-keyboard-response","653","699550","0.0-8.0-0.24","","img/grey.png","null","trial","32","false","0.6,0.4","1:go_a","",""
"null","","html-keyboard-response","654","700551","0.0-8.0-1.24","","<img src=""img/grey-n.png"">","null","trial","32","","0.6,0.4","1:go_a","0",""
"null","","html-keyboard-response","655","701553","0.0-8.0-2.24","","<div style=""font-size:60px;"">+</div>","null","","","","","","",""
"475.4650000249967","","image-keyboard-response","656","702028","0.0-8.0-0.25","","img/blue.png","32","trial","null","false","0.4,0.6","4:nogo_d","",""
"null","","html-keyboard-response","657","703031","0.0-8.0-1.25","","<img src=""img/blue-r.png"" border=""10"">","null","trial","null","","0.4,0.6","4:nogo_d","1",""
"null","","html-keyboard-response","658","704032","0.0-8.0-2.25","","<div style=""font-size:60px;"">+</div>","null","","","","","","",""
"603.270000021439","","image-keyboard-response","659","704636","0.0-8.0-0.26","","img/yellow.png","32","trial","32","true","0.6,0.4","3:go_c","",""
"null","","html-keyboard-response","660","705637","0.0-8.0-1.26","","<img src=""img/yellow-n.png"" border=""10"">","null","trial","32","","0.6,0.4","3:go_c","0",""
"null","","html-keyboard-response","661","706639","0.0-8.0-2.26","","<div style=""font-size:60px;"">+</div>","null","","","","","","",""
"972.3549999762326","","image-keyboard-response","662","707612","0.0-8.0-0.27","","img/pink.png","32","trial","null","false","0.4,0.6","2:nogo_b","",""
"null","","html-keyboard-response","663","708613","0.0-8.0-1.27","","<img src=""img/pink-r.png"" border=""10"">","null","trial","null","","0.4,0.6","2:nogo_b","1",""
"null","","html-keyboard-response","664","709615","0.0-8.0-2.27","","<div style=""font-size:60px;"">+</div>","null","","","","","","",""
"420.77500000596046","","image-keyboard-response","665","710036","0.0-8.0-0.28","","img/pink.png","32","trial","null","false","0.4,0.6","2:nogo_b","",""
"null","","html-keyboard-response","666","711036","0.0-8.0-1.28","","<img src=""img/pink-n.png"" border=""10"">","null","trial","null","","0.4,0.6","2:nogo_b","0",""
"null","","html-keyboard-response","667","712038","0.0-8.0-2.28","","<div style=""font-size:60px;"">+</div>","null","","","","","","",""
"null","","image-keyboard-response","668","713548","0.0-8.0-0.29","","img/grey.png","null","trial","32","false","0.6,0.4","1:go_a","",""
"null","","html-keyboard-response","669","714549","0.0-8.0-1.29","","<img src=""img/grey-n.png"">","null","trial","32","","0.6,0.4","1:go_a","0",""
"null","","html-keyboard-response","670","715549","0.0-8.0-2.29","","<div style=""font-size:60px;"">+</div>","null","","","","","","",""
"446.48500002222136","","image-keyboard-response","671","715996","0.0-8.0-0.30","","img/yellow.png","32","trial","32","true","0.6,0.4","3:go_c","",""
"null","","html-keyboard-response","672","716998","0.0-8.0-1.30","","<img src=""img/yellow-r.png"" border=""10"">","null","trial","32","","0.6,0.4","3:go_c","1",""
"null","","html-keyboard-response","673","717998","0.0-8.0-2.30","","<div style=""font-size:60px;"">+</div>","null","","","","","","",""
