"rt","url","trial_type","trial_index","time_elapsed","internal_node_id","view_history","stimulus","key_press","test_part","correct_response","correct","use_rew","which_stim","reward","responses"
"11655","consent.html","external-html","0","11729","0.0-0.0","","","","","","","","","",""
"151727","","instructions","1","163457","0.0-1.0","[{""page_index"":0,""viewing_time"":8855},{""page_index"":1,""viewing_time"":38984},{""page_index"":2,""viewing_time"":10983},{""page_index"":3,""viewing_time"":41512},{""page_index"":4,""viewing_time"":20953},{""page_index"":5,""viewing_time"":9640},{""page_index"":6,""viewing_time"":20800}]","","","","","","","","",""
"null","","image-keyboard-response","2","164977","0.0-2.0-0.0","","img/test2.PNG","null","practice","null","true","","","",""
"null","","html-keyboard-response","3","165998","0.0-2.0-1.0","","<img src=""img/test2-reward.PNG"">","null","","","","","","",""
"null","","html-keyboard-response","4","167016","0.0-2.0-2.0","","<div style=""font-size:60px;"">+</div>","null","","","","","","",""
"null","","image-keyboard-response","5","168537","0.0-2.0-0.1","","img/test3.PNG","null","practice","null","true","","","",""
"null","","html-keyboard-response","6","169556","0.0-2.0-1.1","","<img src=""img/test3-reward.PNG"">","null","","","","","","",""
"null","","html-keyboard-response","7","170577","0.0-2.0-2.1","","<div style=""font-size:60px;"">+</div>","null","","","","","","",""
"425","","image-keyboard-response","8","171002","0.0-2.0-0.2","","img/test1.PNG","32","practice","32","true","","","",""
"null","","html-keyboard-response","9","172007","0.0-2.0-1.2","","<img src=""img/test1-reward.PNG"" border=""10px; grey"">","null","","","","","","",""
"null","","html-keyboard-response","10","173027","0.0-2.0-2.2","","<div style=""font-size:60px;"">+</div>","null","","","","","","",""
"539","","image-keyboard-response","11","173568","0.0-2.0-0.3","","img/test1.PNG","32","practice","32","true","","","",""
"null","","html-keyboard-response","12","174587","0.0-2.0-1.3","","<img src=""img/test1-reward.PNG"" border=""10px; grey"">","null","","","","","","",""
"null","","html-keyboard-response","13","175607","0.0-2.0-2.3","","<div style=""font-size:60px;"">+</div>","null","","","","","","",""
"null","","image-keyboard-response","14","177127","0.0-2.0-0.4","","img/test2.PNG","null","practice","null","true","","","",""
"null","","html-keyboard-response","15","178147","0.0-2.0-1.4","","<img src=""img/test2-reward.PNG"">","null","","","","","","",""
"null","","html-keyboard-response","16","179146","0.0-2.0-2.4","","<div style=""font-size:60px;"">+</div>","null","","","","","","",""
"null","","image-keyboard-response","17","180667","0.0-2.0-0.5","","img/test3.PNG","null","practice","null","true","","","",""
"null","","html-keyboard-response","18","181687","0.0-2.0-1.5","","<img src=""img/test3-reward.PNG"">","null","","","","","","",""
"null","","html-keyboard-response","19","182687","0.0-2.0-2.5","","<div style=""font-size:60px;"">+</div>","null","","","","","","",""
"null","","image-keyboard-response","20","184207","0.0-2.0-0.6","","img/test2.PNG","null","practice","null","true","","","",""
"null","","html-keyboard-response","21","185226","0.0-2.0-1.6","","<img src=""img/test2-reward.PNG"">","null","","","","","","",""
"null","","html-keyboard-response","22","186227","0.0-2.0-2.6","","<div style=""font-size:60px;"">+</div>","null","","","","","","",""
"435","","image-keyboard-response","23","186661","0.0-2.0-0.7","","img/test1.PNG","32","practice","32","true","","","",""
"null","","html-keyboard-response","24","187661","0.0-2.0-1.7","","<img src=""img/test1-reward.PNG"" border=""10px; grey"">","null","","","","","","",""
"null","","html-keyboard-response","25","188666","0.0-2.0-2.7","","<div style=""font-size:60px;"">+</div>","null","","","","","","",""
"null","","image-keyboard-response","26","190183","0.0-2.0-0.8","","img/test3.PNG","null","practice","null","true","","","",""
"null","","html-keyboard-response","27","191187","0.0-2.0-1.8","","<img src=""img/test3-reward.PNG"">","null","","","","","","",""
"null","","html-keyboard-response","28","192204","0.0-2.0-2.8","","<div style=""font-size:60px;"">+</div>","null","","","","","","",""
"null","","image-keyboard-response","29","193727","0.0-2.0-0.9","","img/test2.PNG","null","practice","null","true","","","",""
"null","","html-keyboard-response","30","194746","0.0-2.0-1.9","","<img src=""img/test2-reward.PNG"">","null","","","","","","",""
"null","","html-keyboard-response","31","195766","0.0-2.0-2.9","","<div style=""font-size:60px;"">+</div>","null","","","","","","",""
"524","","image-keyboard-response","32","196292","0.0-2.0-0.10","","img/test1.PNG","32","practice","32","true","","","",""
"null","","html-keyboard-response","33","197307","0.0-2.0-1.10","","<img src=""img/test1-reward.PNG"" border=""10px; grey"">","null","","","","","","",""
"null","","html-keyboard-response","34","198307","0.0-2.0-2.10","","<div style=""font-size:60px;"">+</div>","null","","","","","","",""
"null","","image-keyboard-response","35","199826","0.0-2.0-0.11","","img/test3.PNG","null","practice","null","true","","","",""
"null","","html-keyboard-response","36","200846","0.0-2.0-1.11","","<img src=""img/test3-reward.PNG"">","null","","","","","","",""
"null","","html-keyboard-response","37","201866","0.0-2.0-2.11","","<div style=""font-size:60px;"">+</div>","null","","","","","","",""
"2573","","instructions","38","204440","0.0-3.0","[{""page_index"":0,""viewing_time"":2573}]","","","","","","","","",""
"650","","image-keyboard-response","39","205090","0.0-4.0-0.0","","img/blue.png","32","trial","null","false","0.2,0.8","2:nogo_b","",""
"null","","html-keyboard-response","40","206107","0.0-4.0-1.0","","<img src=""img/blue-n.png"" border=""10"">","null","trial","null","","0.2,0.8","2:nogo_b","0",""
"null","","html-keyboard-response","41","207127","0.0-4.0-2.0","","<div style=""font-size:60px;"">+</div>","null","","","","","","",""
"483","","image-keyboard-response","42","207610","0.0-4.0-0.1","","img/red.png","32","trial","32","true","0.8,0.2","1:go_a","",""
"null","","html-keyboard-response","43","208626","0.0-4.0-1.1","","<img src=""img/red-r.png"" border=""10"">","null","trial","32","","0.8,0.2","1:go_a","1",""
"null","","html-keyboard-response","44","209647","0.0-4.0-2.1","","<div style=""font-size:60px;"">+</div>","null","","","","","","",""
"664","","image-keyboard-response","45","210310","0.0-4.0-0.2","","img/red.png","32","trial","32","true","0.8,0.2","1:go_a","",""
"null","","html-keyboard-response","46","211326","0.0-4.0-1.2","","<img src=""img/red-r.png"" border=""10"">","null","trial","32","","0.8,0.2","1:go_a","1",""
"null","","html-keyboard-response","47","212347","0.0-4.0-2.2","","<div style=""font-size:60px;"">+</div>","null","","","","","","",""
"null","","image-keyboard-response","48","213866","0.0-4.0-0.3","","img/blue.png","null","trial","null","true","0.2,0.8","2:nogo_b","",""
"null","","html-keyboard-response","49","214887","0.0-4.0-1.3","","<img src=""img/blue-n.png"">","null","trial","null","","0.2,0.8","2:nogo_b","0",""
"null","","html-keyboard-response","50","215906","0.0-4.0-2.3","","<div style=""font-size:60px;"">+</div>","null","","","","","","",""
"null","","image-keyboard-response","51","217426","0.0-4.0-0.4","","img/blue.png","null","trial","null","true","0.2,0.8","2:nogo_b","",""
"null","","html-keyboard-response","52","218446","0.0-4.0-1.4","","<img src=""img/blue-r.png"">","null","trial","null","","0.2,0.8","2:nogo_b","1",""
"null","","html-keyboard-response","53","219447","0.0-4.0-2.4","","<div style=""font-size:60px;"">+</div>","null","","","","","","",""
"582","","image-keyboard-response","54","220029","0.0-4.0-0.5","","img/red.png","32","trial","32","true","0.8,0.2","1:go_a","",""
"null","","html-keyboard-response","55","221046","0.0-4.0-1.5","","<img src=""img/red-r.png"" border=""10"">","null","trial","32","","0.8,0.2","1:go_a","1",""
"null","","html-keyboard-response","56","222060","0.0-4.0-2.5","","<div style=""font-size:60px;"">+</div>","null","","","","","","",""
"444","","image-keyboard-response","57","222504","0.0-4.0-0.6","","img/red.png","32","trial","32","true","0.8,0.2","1:go_a","",""
"null","","html-keyboard-response","58","223516","0.0-4.0-1.6","","<img src=""img/red-r.png"" border=""10"">","null","trial","32","","0.8,0.2","1:go_a","1",""
"null","","html-keyboard-response","59","224517","0.0-4.0-2.6","","<div style=""font-size:60px;"">+</div>","null","","","","","","",""
"null","","image-keyboard-response","60","226036","0.0-4.0-0.7","","img/blue.png","null","trial","null","true","0.2,0.8","2:nogo_b","",""
"null","","html-keyboard-response","61","227057","0.0-4.0-1.7","","<img src=""img/blue-r.png"">","null","trial","null","","0.2,0.8","2:nogo_b","1",""
"null","","html-keyboard-response","62","228077","0.0-4.0-2.7","","<div style=""font-size:60px;"">+</div>","null","","","","","","",""
"524","","image-keyboard-response","63","228601","0.0-4.0-0.8","","img/red.png","32","trial","32","true","0.8,0.2","1:go_a","",""
"null","","html-keyboard-response","64","229616","0.0-4.0-1.8","","<img src=""img/red-r.png"" border=""10"">","null","trial","32","","0.8,0.2","1:go_a","1",""
"null","","html-keyboard-response","65","230616","0.0-4.0-2.8","","<div style=""font-size:60px;"">+</div>","null","","","","","","",""
"550","","image-keyboard-response","66","231167","0.0-4.0-0.9","","img/blue.png","32","trial","null","false","0.2,0.8","2:nogo_b","",""
"null","","html-keyboard-response","67","232186","0.0-4.0-1.9","","<img src=""img/blue-n.png"" border=""10"">","null","trial","null","","0.2,0.8","2:nogo_b","0",""
"null","","html-keyboard-response","68","233206","0.0-4.0-2.9","","<div style=""font-size:60px;"">+</div>","null","","","","","","",""
"661","","image-keyboard-response","69","233867","0.0-4.0-0.10","","img/blue.png","32","trial","null","false","0.2,0.8","2:nogo_b","",""
"null","","html-keyboard-response","70","234886","0.0-4.0-1.10","","<img src=""img/blue-n.png"" border=""10"">","null","trial","null","","0.2,0.8","2:nogo_b","0",""
"null","","html-keyboard-response","71","235886","0.0-4.0-2.10","","<div style=""font-size:60px;"">+</div>","null","","","","","","",""
"434","","image-keyboard-response","72","236321","0.0-4.0-0.11","","img/red.png","32","trial","32","true","0.8,0.2","1:go_a","",""
"null","","html-keyboard-response","73","237322","0.0-4.0-1.11","","<img src=""img/red-r.png"" border=""10"">","null","trial","32","","0.8,0.2","1:go_a","1",""
"null","","html-keyboard-response","74","238336","0.0-4.0-2.11","","<div style=""font-size:60px;"">+</div>","null","","","","","","",""
"502","","image-keyboard-response","75","238838","0.0-4.0-0.12","","img/red.png","32","trial","32","true","0.8,0.2","1:go_a","",""
"null","","html-keyboard-response","76","239856","0.0-4.0-1.12","","<img src=""img/red-r.png"" border=""10"">","null","trial","32","","0.8,0.2","1:go_a","1",""
"null","","html-keyboard-response","77","240876","0.0-4.0-2.12","","<div style=""font-size:60px;"">+</div>","null","","","","","","",""
"573","","image-keyboard-response","78","241450","0.0-4.0-0.13","","img/blue.png","32","trial","null","false","0.2,0.8","2:nogo_b","",""
"null","","html-keyboard-response","79","242456","0.0-4.0-1.13","","<img src=""img/blue-r.png"" border=""10"">","null","trial","null","","0.2,0.8","2:nogo_b","1",""
"null","","html-keyboard-response","80","243456","0.0-4.0-2.13","","<div style=""font-size:60px;"">+</div>","null","","","","","","",""
"490","","image-keyboard-response","81","243948","0.0-4.0-0.14","","img/red.png","32","trial","32","true","0.8,0.2","1:go_a","",""
"null","","html-keyboard-response","82","244956","0.0-4.0-1.14","","<img src=""img/red-r.png"" border=""10"">","null","trial","32","","0.8,0.2","1:go_a","1",""
"null","","html-keyboard-response","83","245976","0.0-4.0-2.14","","<div style=""font-size:60px;"">+</div>","null","","","","","","",""
"445","","image-keyboard-response","84","246421","0.0-4.0-0.15","","img/blue.png","32","trial","null","false","0.2,0.8","2:nogo_b","",""
"null","","html-keyboard-response","85","247436","0.0-4.0-1.15","","<img src=""img/blue-n.png"" border=""10"">","null","trial","null","","0.2,0.8","2:nogo_b","0",""
"null","","html-keyboard-response","86","248456","0.0-4.0-2.15","","<div style=""font-size:60px;"">+</div>","null","","","","","","",""
"441","","image-keyboard-response","87","248896","0.0-4.0-0.16","","img/blue.png","32","trial","null","false","0.2,0.8","2:nogo_b","",""
"null","","html-keyboard-response","88","249916","0.0-4.0-1.16","","<img src=""img/blue-n.png"" border=""10"">","null","trial","null","","0.2,0.8","2:nogo_b","0",""
"null","","html-keyboard-response","89","250916","0.0-4.0-2.16","","<div style=""font-size:60px;"">+</div>","null","","","","","","",""
"522","","image-keyboard-response","90","251438","0.0-4.0-0.17","","img/red.png","32","trial","32","true","0.8,0.2","1:go_a","",""
"null","","html-keyboard-response","91","252457","0.0-4.0-1.17","","<img src=""img/red-r.png"" border=""10"">","null","trial","32","","0.8,0.2","1:go_a","1",""
"null","","html-keyboard-response","92","253456","0.0-4.0-2.17","","<div style=""font-size:60px;"">+</div>","null","","","","","","",""
"546","","image-keyboard-response","93","254002","0.0-4.0-0.18","","img/red.png","32","trial","32","true","0.8,0.2","1:go_a","",""
"null","","html-keyboard-response","94","255016","0.0-4.0-1.18","","<img src=""img/red-r.png"" border=""10"">","null","trial","32","","0.8,0.2","1:go_a","1",""
"null","","html-keyboard-response","95","256036","0.0-4.0-2.18","","<div style=""font-size:60px;"">+</div>","null","","","","","","",""
"532","","image-keyboard-response","96","256568","0.0-4.0-0.19","","img/blue.png","32","trial","null","false","0.2,0.8","2:nogo_b","",""
"null","","html-keyboard-response","97","257576","0.0-4.0-1.19","","<img src=""img/blue-r.png"" border=""10"">","null","trial","null","","0.2,0.8","2:nogo_b","1",""
"null","","html-keyboard-response","98","258596","0.0-4.0-2.19","","<div style=""font-size:60px;"">+</div>","null","","","","","","",""
"402","","image-keyboard-response","99","258998","0.0-4.0-0.20","","img/red.png","32","trial","32","true","0.8,0.2","1:go_a","",""
"null","","html-keyboard-response","100","260016","0.0-4.0-1.20","","<img src=""img/red-r.png"" border=""10"">","null","trial","32","","0.8,0.2","1:go_a","1",""
"null","","html-keyboard-response","101","261025","0.0-4.0-2.20","","<div style=""font-size:60px;"">+</div>","null","","","","","","",""
"560","","image-keyboard-response","102","261585","0.0-4.0-0.21","","img/blue.png","32","trial","null","false","0.2,0.8","2:nogo_b","",""
"null","","html-keyboard-response","103","262606","0.0-4.0-1.21","","<img src=""img/blue-n.png"" border=""10"">","null","trial","null","","0.2,0.8","2:nogo_b","0",""
"null","","html-keyboard-response","104","263626","0.0-4.0-2.21","","<div style=""font-size:60px;"">+</div>","null","","","","","","",""
"null","","image-keyboard-response","105","265146","0.0-4.0-0.22","","img/blue.png","null","trial","null","true","0.2,0.8","2:nogo_b","",""
"null","","html-keyboard-response","106","266166","0.0-4.0-1.22","","<img src=""img/blue-r.png"">","null","trial","null","","0.2,0.8","2:nogo_b","1",""
"null","","html-keyboard-response","107","267185","0.0-4.0-2.22","","<div style=""font-size:60px;"">+</div>","null","","","","","","",""
"474","","image-keyboard-response","108","267660","0.0-4.0-0.23","","img/red.png","32","trial","32","true","0.8,0.2","1:go_a","",""
"null","","html-keyboard-response","109","268666","0.0-4.0-1.23","","<img src=""img/red-r.png"" border=""10"">","null","trial","32","","0.8,0.2","1:go_a","1",""
"null","","html-keyboard-response","110","269686","0.0-4.0-2.23","","<div style=""font-size:60px;"">+</div>","null","","","","","","",""
"697","","image-keyboard-response","111","270384","0.0-4.0-0.24","","img/blue.png","32","trial","null","false","0.2,0.8","2:nogo_b","",""
"null","","html-keyboard-response","112","271386","0.0-4.0-1.24","","<img src=""img/blue-n.png"" border=""10"">","null","trial","null","","0.2,0.8","2:nogo_b","0",""
"null","","html-keyboard-response","113","272405","0.0-4.0-2.24","","<div style=""font-size:60px;"">+</div>","null","","","","","","",""
"563","","image-keyboard-response","114","272969","0.0-4.0-0.25","","img/red.png","32","trial","32","true","0.8,0.2","1:go_a","",""
"null","","html-keyboard-response","115","273985","0.0-4.0-1.25","","<img src=""img/red-r.png"" border=""10"">","null","trial","32","","0.8,0.2","1:go_a","1",""
"null","","html-keyboard-response","116","274986","0.0-4.0-2.25","","<div style=""font-size:60px;"">+</div>","null","","","","","","",""
"572","","image-keyboard-response","117","275558","0.0-4.0-0.26","","img/red.png","32","trial","32","true","0.8,0.2","1:go_a","",""
"null","","html-keyboard-response","118","276566","0.0-4.0-1.26","","<img src=""img/red-r.png"" border=""10"">","null","trial","32","","0.8,0.2","1:go_a","1",""
"null","","html-keyboard-response","119","277576","0.0-4.0-2.26","","<div style=""font-size:60px;"">+</div>","null","","","","","","",""
"704","","image-keyboard-response","120","278280","0.0-4.0-0.27","","img/blue.png","32","trial","null","false","0.2,0.8","2:nogo_b","",""
"null","","html-keyboard-response","121","279295","0.0-4.0-1.27","","<img src=""img/blue-r.png"" border=""10"">","null","trial","null","","0.2,0.8","2:nogo_b","1",""
"null","","html-keyboard-response","122","280296","0.0-4.0-2.27","","<div style=""font-size:60px;"">+</div>","null","","","","","","",""
"639","","image-keyboard-response","123","280935","0.0-4.0-0.28","","img/red.png","32","trial","32","true","0.8,0.2","1:go_a","",""
"null","","html-keyboard-response","124","281956","0.0-4.0-1.28","","<img src=""img/red-r.png"" border=""10"">","null","trial","32","","0.8,0.2","1:go_a","1",""
"null","","html-keyboard-response","125","282976","0.0-4.0-2.28","","<div style=""font-size:60px;"">+</div>","null","","","","","","",""
"524","","image-keyboard-response","126","283500","0.0-4.0-0.29","","img/blue.png","32","trial","null","false","0.2,0.8","2:nogo_b","",""
"null","","html-keyboard-response","127","284516","0.0-4.0-1.29","","<img src=""img/blue-r.png"" border=""10"">","null","trial","null","","0.2,0.8","2:nogo_b","1",""
"null","","html-keyboard-response","128","285536","0.0-4.0-2.29","","<div style=""font-size:60px;"">+</div>","null","","","","","","",""
"552","","image-keyboard-response","129","286088","0.0-4.0-0.30","","img/red.png","32","trial","32","true","0.8,0.2","1:go_a","",""
"null","","html-keyboard-response","130","287096","0.0-4.0-1.30","","<img src=""img/red-r.png"" border=""10"">","null","trial","32","","0.8,0.2","1:go_a","1",""
"null","","html-keyboard-response","131","288096","0.0-4.0-2.30","","<div style=""font-size:60px;"">+</div>","null","","","","","","",""
"null","","image-keyboard-response","132","289612","0.0-4.0-0.31","","img/blue.png","null","trial","null","true","0.2,0.8","2:nogo_b","",""
"null","","html-keyboard-response","133","290613","0.0-4.0-1.31","","<img src=""img/blue-r.png"">","null","trial","null","","0.2,0.8","2:nogo_b","1",""
"null","","html-keyboard-response","134","291615","0.0-4.0-2.31","","<div style=""font-size:60px;"">+</div>","null","","","","","","",""
"570","","image-keyboard-response","135","292186","0.0-4.0-0.32","","img/blue.png","32","trial","null","false","0.2,0.8","2:nogo_b","",""
"null","","html-keyboard-response","136","293196","0.0-4.0-1.32","","<img src=""img/blue-n.png"" border=""10"">","null","trial","null","","0.2,0.8","2:nogo_b","0",""
"null","","html-keyboard-response","137","294216","0.0-4.0-2.32","","<div style=""font-size:60px;"">+</div>","null","","","","","","",""
"422","","image-keyboard-response","138","294639","0.0-4.0-0.33","","img/red.png","32","trial","32","true","0.8,0.2","1:go_a","",""
"null","","html-keyboard-response","139","295655","0.0-4.0-1.33","","<img src=""img/red-r.png"" border=""10"">","null","trial","32","","0.8,0.2","1:go_a","1",""
"null","","html-keyboard-response","140","296675","0.0-4.0-2.33","","<div style=""font-size:60px;"">+</div>","null","","","","","","",""
"550","","image-keyboard-response","141","297225","0.0-4.0-0.34","","img/red.png","32","trial","32","true","0.8,0.2","1:go_a","",""
"null","","html-keyboard-response","142","298236","0.0-4.0-1.34","","<img src=""img/red-r.png"" border=""10"">","null","trial","32","","0.8,0.2","1:go_a","1",""
"null","","html-keyboard-response","143","299251","0.0-4.0-2.34","","<div style=""font-size:60px;"">+</div>","null","","","","","","",""
"null","","image-keyboard-response","144","300766","0.0-4.0-0.35","","img/blue.png","null","trial","null","true","0.2,0.8","2:nogo_b","",""
"null","","html-keyboard-response","145","301785","0.0-4.0-1.35","","<img src=""img/blue-r.png"">","null","trial","null","","0.2,0.8","2:nogo_b","1",""
"null","","html-keyboard-response","146","302786","0.0-4.0-2.35","","<div style=""font-size:60px;"">+</div>","null","","","","","","",""
"717","","image-keyboard-response","147","303503","0.0-4.0-0.36","","img/blue.png","32","trial","null","false","0.2,0.8","2:nogo_b","",""
"null","","html-keyboard-response","148","304506","0.0-4.0-1.36","","<img src=""img/blue-n.png"" border=""10"">","null","trial","null","","0.2,0.8","2:nogo_b","0",""
"null","","html-keyboard-response","149","305525","0.0-4.0-2.36","","<div style=""font-size:60px;"">+</div>","null","","","","","","",""
"433","","image-keyboard-response","150","305960","0.0-4.0-0.37","","img/red.png","32","trial","32","true","0.8,0.2","1:go_a","",""
"null","","html-keyboard-response","151","306966","0.0-4.0-1.37","","<img src=""img/red-r.png"" border=""10"">","null","trial","32","","0.8,0.2","1:go_a","1",""
"null","","html-keyboard-response","152","307986","0.0-4.0-2.37","","<div style=""font-size:60px;"">+</div>","null","","","","","","",""
"467","","image-keyboard-response","153","308453","0.0-4.0-0.38","","img/red.png","32","trial","32","true","0.8,0.2","1:go_a","",""
"null","","html-keyboard-response","154","309466","0.0-4.0-1.38","","<img src=""img/red-n.png"" border=""10"">","null","trial","32","","0.8,0.2","1:go_a","0",""
"null","","html-keyboard-response","155","310486","0.0-4.0-2.38","","<div style=""font-size:60px;"">+</div>","null","","","","","","",""
"622","","image-keyboard-response","156","311108","0.0-4.0-0.39","","img/blue.png","32","trial","null","false","0.2,0.8","2:nogo_b","",""
"null","","html-keyboard-response","157","312126","0.0-4.0-1.39","","<img src=""img/blue-n.png"" border=""10"">","null","trial","null","","0.2,0.8","2:nogo_b","0",""
"null","","html-keyboard-response","158","313146","0.0-4.0-2.39","","<div style=""font-size:60px;"">+</div>","null","","","","","","",""
"774","","image-keyboard-response","159","313920","0.0-4.0-0.40","","img/blue.png","32","trial","null","false","0.2,0.8","2:nogo_b","",""
"null","","html-keyboard-response","160","314925","0.0-4.0-1.40","","<img src=""img/blue-n.png"" border=""10"">","null","trial","null","","0.2,0.8","2:nogo_b","0",""
"null","","html-keyboard-response","161","315926","0.0-4.0-2.40","","<div style=""font-size:60px;"">+</div>","null","","","","","","",""
"446","","image-keyboard-response","162","316373","0.0-4.0-0.41","","img/red.png","32","trial","32","true","0.8,0.2","1:go_a","",""
"null","","html-keyboard-response","163","317386","0.0-4.0-1.41","","<img src=""img/red-r.png"" border=""10"">","null","trial","32","","0.8,0.2","1:go_a","1",""
"null","","html-keyboard-response","164","318406","0.0-4.0-2.41","","<div style=""font-size:60px;"">+</div>","null","","","","","","",""
"667","","image-keyboard-response","165","319072","0.0-4.0-0.42","","img/blue.png","32","trial","null","false","0.2,0.8","2:nogo_b","",""
"null","","html-keyboard-response","166","320086","0.0-4.0-1.42","","<img src=""img/blue-n.png"" border=""10"">","null","trial","null","","0.2,0.8","2:nogo_b","0",""
"null","","html-keyboard-response","167","321105","0.0-4.0-2.42","","<div style=""font-size:60px;"">+</div>","null","","","","","","",""
"511","","image-keyboard-response","168","321615","0.0-4.0-0.43","","img/red.png","32","trial","32","true","0.8,0.2","1:go_a","",""
"null","","html-keyboard-response","169","322625","0.0-4.0-1.43","","<img src=""img/red-r.png"" border=""10"">","null","trial","32","","0.8,0.2","1:go_a","1",""
"null","","html-keyboard-response","170","323626","0.0-4.0-2.43","","<div style=""font-size:60px;"">+</div>","null","","","","","","",""
"418","","image-keyboard-response","171","324044","0.0-4.0-0.44","","img/blue.png","32","trial","null","false","0.2,0.8","2:nogo_b","",""
"null","","html-keyboard-response","172","325065","0.0-4.0-1.44","","<img src=""img/blue-n.png"" border=""10"">","null","trial","null","","0.2,0.8","2:nogo_b","0",""
"null","","html-keyboard-response","173","326085","0.0-4.0-2.44","","<div style=""font-size:60px;"">+</div>","null","","","","","","",""
"524","","image-keyboard-response","174","326609","0.0-4.0-0.45","","img/red.png","32","trial","32","true","0.8,0.2","1:go_a","",""
"null","","html-keyboard-response","175","327625","0.0-4.0-1.45","","<img src=""img/red-n.png"" border=""10"">","null","trial","32","","0.8,0.2","1:go_a","0",""
"null","","html-keyboard-response","176","328646","0.0-4.0-2.45","","<div style=""font-size:60px;"">+</div>","null","","","","","","",""
"664","","image-keyboard-response","177","329310","0.0-4.0-0.46","","img/red.png","32","trial","32","true","0.8,0.2","1:go_a","",""
"null","","html-keyboard-response","178","330325","0.0-4.0-1.46","","<img src=""img/red-r.png"" border=""10"">","null","trial","32","","0.8,0.2","1:go_a","1",""
"null","","html-keyboard-response","179","331345","0.0-4.0-2.46","","<div style=""font-size:60px;"">+</div>","null","","","","","","",""
"null","","image-keyboard-response","180","332866","0.0-4.0-0.47","","img/blue.png","null","trial","null","true","0.2,0.8","2:nogo_b","",""
"null","","html-keyboard-response","181","333885","0.0-4.0-1.47","","<img src=""img/blue-r.png"">","null","trial","null","","0.2,0.8","2:nogo_b","1",""
"null","","html-keyboard-response","182","334905","0.0-4.0-2.47","","<div style=""font-size:60px;"">+</div>","null","","","","","","",""
"440","","image-keyboard-response","183","335345","0.0-4.0-0.48","","img/red.png","32","trial","32","true","0.8,0.2","1:go_a","",""
"null","","html-keyboard-response","184","336346","0.0-4.0-1.48","","<img src=""img/red-r.png"" border=""10"">","null","trial","32","","0.8,0.2","1:go_a","1",""
"null","","html-keyboard-response","185","337346","0.0-4.0-2.48","","<div style=""font-size:60px;"">+</div>","null","","","","","","",""
"null","","image-keyboard-response","186","338866","0.0-4.0-0.49","","img/blue.png","null","trial","null","true","0.2,0.8","2:nogo_b","",""
"null","","html-keyboard-response","187","339885","0.0-4.0-1.49","","<img src=""img/blue-r.png"">","null","trial","null","","0.2,0.8","2:nogo_b","1",""
"null","","html-keyboard-response","188","340905","0.0-4.0-2.49","","<div style=""font-size:60px;"">+</div>","null","","","","","","",""
"576","","image-keyboard-response","189","341482","0.0-4.0-0.50","","img/red.png","32","trial","32","true","0.8,0.2","1:go_a","",""
"null","","html-keyboard-response","190","342486","0.0-4.0-1.50","","<img src=""img/red-n.png"" border=""10"">","null","trial","32","","0.8,0.2","1:go_a","0",""
"null","","html-keyboard-response","191","343505","0.0-4.0-2.50","","<div style=""font-size:60px;"">+</div>","null","","","","","","",""
"363","","image-keyboard-response","192","343867","0.0-4.0-0.51","","img/blue.png","32","trial","null","false","0.2,0.8","2:nogo_b","",""
"null","","html-keyboard-response","193","344885","0.0-4.0-1.51","","<img src=""img/blue-n.png"" border=""10"">","null","trial","null","","0.2,0.8","2:nogo_b","0",""
"null","","html-keyboard-response","194","345906","0.0-4.0-2.51","","<div style=""font-size:60px;"">+</div>","null","","","","","","",""
"526","","image-keyboard-response","195","346431","0.0-4.0-0.52","","img/blue.png","32","trial","null","false","0.2,0.8","2:nogo_b","",""
"null","","html-keyboard-response","196","347445","0.0-4.0-1.52","","<img src=""img/blue-n.png"" border=""10"">","null","trial","null","","0.2,0.8","2:nogo_b","0",""
"null","","html-keyboard-response","197","348445","0.0-4.0-2.52","","<div style=""font-size:60px;"">+</div>","null","","","","","","",""
"506","","image-keyboard-response","198","348952","0.0-4.0-0.53","","img/red.png","32","trial","32","true","0.8,0.2","1:go_a","",""
"null","","html-keyboard-response","199","349965","0.0-4.0-1.53","","<img src=""img/red-r.png"" border=""10"">","null","trial","32","","0.8,0.2","1:go_a","1",""
"null","","html-keyboard-response","200","350985","0.0-4.0-2.53","","<div style=""font-size:60px;"">+</div>","null","","","","","","",""
"1118","","image-keyboard-response","201","352102","0.0-4.0-0.54","","img/blue.png","32","trial","null","false","0.2,0.8","2:nogo_b","",""
"null","","html-keyboard-response","202","353105","0.0-4.0-1.54","","<img src=""img/blue-n.png"" border=""10"">","null","trial","null","","0.2,0.8","2:nogo_b","0",""
"null","","html-keyboard-response","203","354125","0.0-4.0-2.54","","<div style=""font-size:60px;"">+</div>","null","","","","","","",""
"540","","image-keyboard-response","204","354667","0.0-4.0-0.55","","img/red.png","32","trial","32","true","0.8,0.2","1:go_a","",""
"null","","html-keyboard-response","205","355685","0.0-4.0-1.55","","<img src=""img/red-n.png"" border=""10"">","null","trial","32","","0.8,0.2","1:go_a","0",""
"null","","html-keyboard-response","206","356685","0.0-4.0-2.55","","<div style=""font-size:60px;"">+</div>","null","","","","","","",""
"726","","image-keyboard-response","207","357412","0.0-4.0-0.56","","img/blue.png","32","trial","null","false","0.2,0.8","2:nogo_b","",""
"null","","html-keyboard-response","208","358426","0.0-4.0-1.56","","<img src=""img/blue-n.png"" border=""10"">","null","trial","null","","0.2,0.8","2:nogo_b","0",""
"null","","html-keyboard-response","209","359425","0.0-4.0-2.56","","<div style=""font-size:60px;"">+</div>","null","","","","","","",""
"414","","image-keyboard-response","210","359841","0.0-4.0-0.57","","img/red.png","32","trial","32","true","0.8,0.2","1:go_a","",""
"null","","html-keyboard-response","211","360846","0.0-4.0-1.57","","<img src=""img/red-r.png"" border=""10"">","null","trial","32","","0.8,0.2","1:go_a","1",""
"null","","html-keyboard-response","212","361865","0.0-4.0-2.57","","<div style=""font-size:60px;"">+</div>","null","","","","","","",""
"null","","image-keyboard-response","213","363385","0.0-4.0-0.58","","img/blue.png","null","trial","null","true","0.2,0.8","2:nogo_b","",""
"null","","html-keyboard-response","214","364405","0.0-4.0-1.58","","<img src=""img/blue-n.png"">","null","trial","null","","0.2,0.8","2:nogo_b","0",""
"null","","html-keyboard-response","215","365425","0.0-4.0-2.58","","<div style=""font-size:60px;"">+</div>","null","","","","","","",""
"586","","image-keyboard-response","216","366012","0.0-4.0-0.59","","img/red.png","32","trial","32","true","0.8,0.2","1:go_a","",""
"null","","html-keyboard-response","217","367025","0.0-4.0-1.59","","<img src=""img/red-n.png"" border=""10"">","null","trial","32","","0.8,0.2","1:go_a","0",""
"null","","html-keyboard-response","218","368045","0.0-4.0-2.59","","<div style=""font-size:60px;"">+</div>","null","","","","","","",""
"2553","","instructions","219","370599","0.0-5.0","[{""page_index"":0,""viewing_time"":2553}]","","","","","","","","",""
"1077","","image-keyboard-response","220","371677","0.0-6.0-0.0","","img/green.png","32","trial","32","true","0.8,0.2","3:go_c","",""
"null","","html-keyboard-response","221","372685","0.0-6.0-1.0","","<img src=""img/green-r.png"" border=""10"">","null","trial","32","","0.8,0.2","3:go_c","1",""
"null","","html-keyboard-response","222","373685","0.0-6.0-2.0","","<div style=""font-size:60px;"">+</div>","null","","","","","","",""
"null","","image-keyboard-response","223","375205","0.0-6.0-0.1","","img/red.png","null","trial","32","false","0.8,0.2","1:go_a","",""
"null","","html-keyboard-response","224","376225","0.0-6.0-1.1","","<img src=""img/red-r.png"">","null","trial","32","","0.8,0.2","1:go_a","1",""
"null","","html-keyboard-response","225","377225","0.0-6.0-2.1","","<div style=""font-size:60px;"">+</div>","null","","","","","","",""
"752","","image-keyboard-response","226","377977","0.0-6.0-0.2","","img/purple.png","32","trial","null","false","0.2,0.8","2:nogo_b","",""
"null","","html-keyboard-response","227","378985","0.0-6.0-1.2","","<img src=""img/purple-r.png"" border=""10"">","null","trial","null","","0.2,0.8","2:nogo_b","1",""
"null","","html-keyboard-response","228","380005","0.0-6.0-2.2","","<div style=""font-size:60px;"">+</div>","null","","","","","","",""
"null","","image-keyboard-response","229","381505","0.0-6.0-0.3","","img/grey.png","null","trial","null","true","0.2,0.8","4:nogo_d","",""
"null","","html-keyboard-response","230","382525","0.0-6.0-1.3","","<img src=""img/grey-r.png"">","null","trial","null","","0.2,0.8","4:nogo_d","1",""
"null","","html-keyboard-response","231","383545","0.0-6.0-2.3","","<div style=""font-size:60px;"">+</div>","null","","","","","","",""
"551","","image-keyboard-response","232","384097","0.0-6.0-0.4","","img/grey.png","32","trial","null","false","0.2,0.8","4:nogo_d","",""
"null","","html-keyboard-response","233","385105","0.0-6.0-1.4","","<img src=""img/grey-n.png"" border=""10"">","null","trial","null","","0.2,0.8","4:nogo_d","0",""
"null","","html-keyboard-response","234","386125","0.0-6.0-2.4","","<div style=""font-size:60px;"">+</div>","null","","","","","","",""
"626","","image-keyboard-response","235","386752","0.0-6.0-0.5","","img/green.png","32","trial","32","true","0.8,0.2","3:go_c","",""
"null","","html-keyboard-response","236","387765","0.0-6.0-1.5","","<img src=""img/green-r.png"" border=""10"">","null","trial","32","","0.8,0.2","3:go_c","1",""
"null","","html-keyboard-response","237","388774","0.0-6.0-2.5","","<div style=""font-size:60px;"">+</div>","null","","","","","","",""
"498","","image-keyboard-response","238","389272","0.0-6.0-0.6","","img/purple.png","32","trial","null","false","0.2,0.8","2:nogo_b","",""
"null","","html-keyboard-response","239","390274","0.0-6.0-1.6","","<img src=""img/purple-n.png"" border=""10"">","null","trial","null","","0.2,0.8","2:nogo_b","0",""
"null","","html-keyboard-response","240","391294","0.0-6.0-2.6","","<div style=""font-size:60px;"">+</div>","null","","","","","","",""
"340","","image-keyboard-response","241","391634","0.0-6.0-0.7","","img/red.png","32","trial","32","true","0.8,0.2","1:go_a","",""
"null","","html-keyboard-response","242","392636","0.0-6.0-1.7","","<img src=""img/red-r.png"" border=""10"">","null","trial","32","","0.8,0.2","1:go_a","1",""
"null","","html-keyboard-response","243","393655","0.0-6.0-2.7","","<div style=""font-size:60px;"">+</div>","null","","","","","","",""
"612","","image-keyboard-response","244","394267","0.0-6.0-0.8","","img/purple.png","32","trial","null","false","0.2,0.8","2:nogo_b","",""
"null","","html-keyboard-response","245","395275","0.0-6.0-1.8","","<img src=""img/purple-n.png"" border=""10"">","null","trial","null","","0.2,0.8","2:nogo_b","0",""
"null","","html-keyboard-response","246","396295","0.0-6.0-2.8","","<div style=""font-size:60px;"">+</div>","null","","","","","","",""
"582","","image-keyboard-response","247","396878","0.0-6.0-0.9","","img/green.png","32","trial","32","true","0.8,0.2","3:go_c","",""
"null","","html-keyboard-response","248","397895","0.0-6.0-1.9","","<img src=""img/green-r.png"" border=""10"">","null","trial","32","","0.8,0.2","3:go_c","1",""
"null","","html-keyboard-response","249","398895","0.0-6.0-2.9","","<div style=""font-size:60px;"">+</div>","null","","","","","","",""
"null","","image-keyboard-response","250","400405","0.0-6.0-0.10","","img/grey.png","null","trial","null","true","0.2,0.8","4:nogo_d","",""
"null","","html-keyboard-response","251","401424","0.0-6.0-1.10","","<img src=""img/grey-r.png"">","null","trial","null","","0.2,0.8","4:nogo_d","1",""
"null","","html-keyboard-response","252","402445","0.0-6.0-2.10","","<div style=""font-size:60px;"">+</div>","null","","","","","","",""
"888","","image-keyboard-response","253","403333","0.0-6.0-0.11","","img/red.png","32","trial","32","true","0.8,0.2","1:go_a","",""
"null","","html-keyboard-response","254","404345","0.0-6.0-1.11","","<img src=""img/red-r.png"" border=""10"">","null","trial","32","","0.8,0.2","1:go_a","1",""
"null","","html-keyboard-response","255","405365","0.0-6.0-2.11","","<div style=""font-size:60px;"">+</div>","null","","","","","","",""
"939","","image-keyboard-response","256","406304","0.0-6.0-0.12","","img/grey.png","32","trial","null","false","0.2,0.8","4:nogo_d","",""
"null","","html-keyboard-response","257","407325","0.0-6.0-1.12","","<img src=""img/grey-n.png"" border=""10"">","null","trial","null","","0.2,0.8","4:nogo_d","0",""
"null","","html-keyboard-response","258","408344","0.0-6.0-2.12","","<div style=""font-size:60px;"">+</div>","null","","","","","","",""
"569","","image-keyboard-response","259","408914","0.0-6.0-0.13","","img/red.png","32","trial","32","true","0.8,0.2","1:go_a","",""
"null","","html-keyboard-response","260","409925","0.0-6.0-1.13","","<img src=""img/red-n.png"" border=""10"">","null","trial","32","","0.8,0.2","1:go_a","0",""
"null","","html-keyboard-response","261","410945","0.0-6.0-2.13","","<div style=""font-size:60px;"">+</div>","null","","","","","","",""
"556","","image-keyboard-response","262","411501","0.0-6.0-0.14","","img/purple.png","32","trial","null","false","0.2,0.8","2:nogo_b","",""
"null","","html-keyboard-response","263","412505","0.0-6.0-1.14","","<img src=""img/purple-n.png"" border=""10"">","null","trial","null","","0.2,0.8","2:nogo_b","0",""
"null","","html-keyboard-response","264","413524","0.0-6.0-2.14","","<div style=""font-size:60px;"">+</div>","null","","","","","","",""
"563","","image-keyboard-response","265","414088","0.0-6.0-0.15","","img/green.png","32","trial","32","true","0.8,0.2","3:go_c","",""
"null","","html-keyboard-response","266","415095","0.0-6.0-1.15","","<img src=""img/green-r.png"" border=""10"">","null","trial","32","","0.8,0.2","3:go_c","1",""
"null","","html-keyboard-response","267","416101","0.0-6.0-2.15","","<div style=""font-size:60px;"">+</div>","null","","","","","","",""
"1093","","image-keyboard-response","268","417194","0.0-6.0-0.16","","img/purple.png","32","trial","null","false","0.2,0.8","2:nogo_b","",""
"null","","html-keyboard-response","269","418203","0.0-6.0-1.16","","<img src=""img/purple-n.png"" border=""10"">","null","trial","null","","0.2,0.8","2:nogo_b","0",""
"null","","html-keyboard-response","270","419204","0.0-6.0-2.16","","<div style=""font-size:60px;"">+</div>","null","","","","","","",""
"null","","image-keyboard-response","271","420705","0.0-6.0-0.17","","img/grey.png","null","trial","null","true","0.2,0.8","4:nogo_d","",""
"null","","html-keyboard-response","272","421725","0.0-6.0-1.17","","<img src=""img/grey-n.png"">","null","trial","null","","0.2,0.8","4:nogo_d","0",""
"null","","html-keyboard-response","273","422745","0.0-6.0-2.17","","<div style=""font-size:60px;"">+</div>","null","","","","","","",""
"658","","image-keyboard-response","274","423404","0.0-6.0-0.18","","img/red.png","32","trial","32","true","0.8,0.2","1:go_a","",""
"null","","html-keyboard-response","275","424404","0.0-6.0-1.18","","<img src=""img/red-r.png"" border=""10"">","null","trial","32","","0.8,0.2","1:go_a","1",""
"null","","html-keyboard-response","276","425425","0.0-6.0-2.18","","<div style=""font-size:60px;"">+</div>","null","","","","","","",""
"1130","","image-keyboard-response","277","426555","0.0-6.0-0.19","","img/green.png","32","trial","32","true","0.8,0.2","3:go_c","",""
"null","","html-keyboard-response","278","427564","0.0-6.0-1.19","","<img src=""img/green-r.png"" border=""10"">","null","trial","32","","0.8,0.2","3:go_c","1",""
"null","","html-keyboard-response","279","428585","0.0-6.0-2.19","","<div style=""font-size:60px;"">+</div>","null","","","","","","",""
"null","","image-keyboard-response","280","430104","0.0-6.0-0.20","","img/red.png","null","trial","32","false","0.8,0.2","1:go_a","",""
"null","","html-keyboard-response","281","431125","0.0-6.0-1.20","","<img src=""img/red-n.png"">","null","trial","32","","0.8,0.2","1:go_a","0",""
"null","","html-keyboard-response","282","432145","0.0-6.0-2.20","","<div style=""font-size:60px;"">+</div>","null","","","","","","",""
"911","","image-keyboard-response","283","433057","0.0-6.0-0.21","","img/green.png","32","trial","32","true","0.8,0.2","3:go_c","",""
"null","","html-keyboard-response","284","434064","0.0-6.0-1.21","","<img src=""img/green-r.png"" border=""10"">","null","trial","32","","0.8,0.2","3:go_c","1",""
"null","","html-keyboard-response","285","435084","0.0-6.0-2.21","","<div style=""font-size:60px;"">+</div>","null","","","","","","",""
"1076","","image-keyboard-response","286","436161","0.0-6.0-0.22","","img/grey.png","32","trial","null","false","0.2,0.8","4:nogo_d","",""
"null","","html-keyboard-response","287","437165","0.0-6.0-1.22","","<img src=""img/grey-r.png"" border=""10"">","null","trial","null","","0.2,0.8","4:nogo_d","1",""
"null","","html-keyboard-response","288","438165","0.0-6.0-2.22","","<div style=""font-size:60px;"">+</div>","null","","","","","","",""
"null","","image-keyboard-response","289","439685","0.0-6.0-0.23","","img/purple.png","null","trial","null","true","0.2,0.8","2:nogo_b","",""
"null","","html-keyboard-response","290","440705","0.0-6.0-1.23","","<img src=""img/purple-r.png"">","null","trial","null","","0.2,0.8","2:nogo_b","1",""
"null","","html-keyboard-response","291","441724","0.0-6.0-2.23","","<div style=""font-size:60px;"">+</div>","null","","","","","","",""
"601","","image-keyboard-response","292","442325","0.0-6.0-0.24","","img/purple.png","32","trial","null","false","0.2,0.8","2:nogo_b","",""
"null","","html-keyboard-response","293","443344","0.0-6.0-1.24","","<img src=""img/purple-n.png"" border=""10"">","null","trial","null","","0.2,0.8","2:nogo_b","0",""
"null","","html-keyboard-response","294","444355","0.0-6.0-2.24","","<div style=""font-size:60px;"">+</div>","null","","","","","","",""
"1255","","image-keyboard-response","295","445610","0.0-6.0-0.25","","img/grey.png","32","trial","null","false","0.2,0.8","4:nogo_d","",""
"null","","html-keyboard-response","296","446614","0.0-6.0-1.25","","<img src=""img/grey-n.png"" border=""10"">","null","trial","null","","0.2,0.8","4:nogo_d","0",""
"null","","html-keyboard-response","297","447634","0.0-6.0-2.25","","<div style=""font-size:60px;"">+</div>","null","","","","","","",""
"523","","image-keyboard-response","298","448158","0.0-6.0-0.26","","img/green.png","32","trial","32","true","0.8,0.2","3:go_c","",""
"null","","html-keyboard-response","299","449174","0.0-6.0-1.26","","<img src=""img/green-n.png"" border=""10"">","null","trial","32","","0.8,0.2","3:go_c","0",""
"null","","html-keyboard-response","300","450195","0.0-6.0-2.26","","<div style=""font-size:60px;"">+</div>","null","","","","","","",""
"455","","image-keyboard-response","301","450651","0.0-6.0-0.27","","img/red.png","32","trial","32","true","0.8,0.2","1:go_a","",""
"null","","html-keyboard-response","302","451654","0.0-6.0-1.27","","<img src=""img/red-r.png"" border=""10"">","null","trial","32","","0.8,0.2","1:go_a","1",""
"null","","html-keyboard-response","303","452655","0.0-6.0-2.27","","<div style=""font-size:60px;"">+</div>","null","","","","","","",""
"1460","","image-keyboard-response","304","454116","0.0-6.0-0.28","","img/grey.png","32","trial","null","false","0.2,0.8","4:nogo_d","",""
"null","","html-keyboard-response","305","455134","0.0-6.0-1.28","","<img src=""img/grey-n.png"" border=""10"">","null","trial","null","","0.2,0.8","4:nogo_d","0",""
"null","","html-keyboard-response","306","456134","0.0-6.0-2.28","","<div style=""font-size:60px;"">+</div>","null","","","","","","",""
"635","","image-keyboard-response","307","456770","0.0-6.0-0.29","","img/purple.png","32","trial","null","false","0.2,0.8","2:nogo_b","",""
"null","","html-keyboard-response","308","457774","0.0-6.0-1.29","","<img src=""img/purple-r.png"" border=""10"">","null","trial","null","","0.2,0.8","2:nogo_b","1",""
"null","","html-keyboard-response","309","458774","0.0-6.0-2.29","","<div style=""font-size:60px;"">+</div>","null","","","","","","",""
"674","","image-keyboard-response","310","459448","0.0-6.0-0.30","","img/green.png","32","trial","32","true","0.8,0.2","3:go_c","",""
"null","","html-keyboard-response","311","460464","0.0-6.0-1.30","","<img src=""img/green-r.png"" border=""10"">","null","trial","32","","0.8,0.2","3:go_c","1",""
"null","","html-keyboard-response","312","461484","0.0-6.0-2.30","","<div style=""font-size:60px;"">+</div>","null","","","","","","",""
"663","","image-keyboard-response","313","462147","0.0-6.0-0.31","","img/red.png","32","trial","32","true","0.8,0.2","1:go_a","",""
"null","","html-keyboard-response","314","463164","0.0-6.0-1.31","","<img src=""img/red-r.png"" border=""10"">","null","trial","32","","0.8,0.2","1:go_a","1",""
"null","","html-keyboard-response","315","464184","0.0-6.0-2.31","","<div style=""font-size:60px;"">+</div>","null","","","","","","",""
"null","","image-keyboard-response","316","465704","0.0-6.0-0.32","","img/grey.png","null","trial","null","true","0.2,0.8","4:nogo_d","",""
"null","","html-keyboard-response","317","466724","0.0-6.0-1.32","","<img src=""img/grey-r.png"">","null","trial","null","","0.2,0.8","4:nogo_d","1",""
"null","","html-keyboard-response","318","467744","0.0-6.0-2.32","","<div style=""font-size:60px;"">+</div>","null","","","","","","",""
"569","","image-keyboard-response","319","468313","0.0-6.0-0.33","","img/green.png","32","trial","32","true","0.8,0.2","3:go_c","",""
"null","","html-keyboard-response","320","469324","0.0-6.0-1.33","","<img src=""img/green-r.png"" border=""10"">","null","trial","32","","0.8,0.2","3:go_c","1",""
"null","","html-keyboard-response","321","470344","0.0-6.0-2.33","","<div style=""font-size:60px;"">+</div>","null","","","","","","",""
"578","","image-keyboard-response","322","470922","0.0-6.0-0.34","","img/purple.png","32","trial","null","false","0.2,0.8","2:nogo_b","",""
"null","","html-keyboard-response","323","471935","0.0-6.0-1.34","","<img src=""img/purple-n.png"" border=""10"">","null","trial","null","","0.2,0.8","2:nogo_b","0",""
"null","","html-keyboard-response","324","472954","0.0-6.0-2.34","","<div style=""font-size:60px;"">+</div>","null","","","","","","",""
"624","","image-keyboard-response","325","473579","0.0-6.0-0.35","","img/red.png","32","trial","32","true","0.8,0.2","1:go_a","",""
"null","","html-keyboard-response","326","474594","0.0-6.0-1.35","","<img src=""img/red-r.png"" border=""10"">","null","trial","32","","0.8,0.2","1:go_a","1",""
"null","","html-keyboard-response","327","475614","0.0-6.0-2.35","","<div style=""font-size:60px;"">+</div>","null","","","","","","",""
"618","","image-keyboard-response","328","476232","0.0-6.0-0.36","","img/green.png","32","trial","32","true","0.8,0.2","3:go_c","",""
"null","","html-keyboard-response","329","477234","0.0-6.0-1.36","","<img src=""img/green-n.png"" border=""10"">","null","trial","32","","0.8,0.2","3:go_c","0",""
"null","","html-keyboard-response","330","478235","0.0-6.0-2.36","","<div style=""font-size:60px;"">+</div>","null","","","","","","",""
"946","","image-keyboard-response","331","479181","0.0-6.0-0.37","","img/grey.png","32","trial","null","false","0.2,0.8","4:nogo_d","",""
"null","","html-keyboard-response","332","480194","0.0-6.0-1.37","","<img src=""img/grey-n.png"" border=""10"">","null","trial","null","","0.2,0.8","4:nogo_d","0",""
"null","","html-keyboard-response","333","481204","0.0-6.0-2.37","","<div style=""font-size:60px;"">+</div>","null","","","","","","",""
"609","","image-keyboard-response","334","481813","0.0-6.0-0.38","","img/purple.png","32","trial","null","false","0.2,0.8","2:nogo_b","",""
"null","","html-keyboard-response","335","482824","0.0-6.0-1.38","","<img src=""img/purple-n.png"" border=""10"">","null","trial","null","","0.2,0.8","2:nogo_b","0",""
"null","","html-keyboard-response","336","483844","0.0-6.0-2.38","","<div style=""font-size:60px;"">+</div>","null","","","","","","",""
"351","","image-keyboard-response","337","484197","0.0-6.0-0.39","","img/red.png","32","trial","32","true","0.8,0.2","1:go_a","",""
"null","","html-keyboard-response","338","485204","0.0-6.0-1.39","","<img src=""img/red-r.png"" border=""10"">","null","trial","32","","0.8,0.2","1:go_a","1",""
"null","","html-keyboard-response","339","486204","0.0-6.0-2.39","","<div style=""font-size:60px;"">+</div>","null","","","","","","",""
"535","","image-keyboard-response","340","486740","0.0-6.0-0.40","","img/red.png","32","trial","32","true","0.8,0.2","1:go_a","",""
"null","","html-keyboard-response","341","487744","0.0-6.0-1.40","","<img src=""img/red-r.png"" border=""10"">","null","trial","32","","0.8,0.2","1:go_a","1",""
"null","","html-keyboard-response","342","488764","0.0-6.0-2.40","","<div style=""font-size:60px;"">+</div>","null","","","","","","",""
"968","","image-keyboard-response","343","489732","0.0-6.0-0.41","","img/purple.png","32","trial","null","false","0.2,0.8","2:nogo_b","",""
"null","","html-keyboard-response","344","490744","0.0-6.0-1.41","","<img src=""img/purple-n.png"" border=""10"">","null","trial","null","","0.2,0.8","2:nogo_b","0",""
"null","","html-keyboard-response","345","491744","0.0-6.0-2.41","","<div style=""font-size:60px;"">+</div>","null","","","","","","",""
"530","","image-keyboard-response","346","492275","0.0-6.0-0.42","","img/green.png","32","trial","32","true","0.8,0.2","3:go_c","",""
"null","","html-keyboard-response","347","493284","0.0-6.0-1.42","","<img src=""img/green-r.png"" border=""10"">","null","trial","32","","0.8,0.2","3:go_c","1",""
"null","","html-keyboard-response","348","494304","0.0-6.0-2.42","","<div style=""font-size:60px;"">+</div>","null","","","","","","",""
"873","","image-keyboard-response","349","495177","0.0-6.0-0.43","","img/grey.png","32","trial","null","false","0.2,0.8","4:nogo_d","",""
"null","","html-keyboard-response","350","496184","0.0-6.0-1.43","","<img src=""img/grey-n.png"" border=""10"">","null","trial","null","","0.2,0.8","4:nogo_d","0",""
"null","","html-keyboard-response","351","497203","0.0-6.0-2.43","","<div style=""font-size:60px;"">+</div>","null","","","","","","",""
"605","","image-keyboard-response","352","497810","0.0-6.0-0.44","","img/green.png","32","trial","32","true","0.8,0.2","3:go_c","",""
"null","","html-keyboard-response","353","498824","0.0-6.0-1.44","","<img src=""img/green-n.png"" border=""10"">","null","trial","32","","0.8,0.2","3:go_c","0",""
"null","","html-keyboard-response","354","499834","0.0-6.0-2.44","","<div style=""font-size:60px;"">+</div>","null","","","","","","",""
"654","","image-keyboard-response","355","500488","0.0-6.0-0.45","","img/red.png","32","trial","32","true","0.8,0.2","1:go_a","",""
"null","","html-keyboard-response","356","501494","0.0-6.0-1.45","","<img src=""img/red-r.png"" border=""10"">","null","trial","32","","0.8,0.2","1:go_a","1",""
"null","","html-keyboard-response","357","502514","0.0-6.0-2.45","","<div style=""font-size:60px;"">+</div>","null","","","","","","",""
"1213","","image-keyboard-response","358","503727","0.0-6.0-0.46","","img/grey.png","32","trial","null","false","0.2,0.8","4:nogo_d","",""
"null","","html-keyboard-response","359","504734","0.0-6.0-1.46","","<img src=""img/grey-n.png"" border=""10"">","null","trial","null","","0.2,0.8","4:nogo_d","0",""
"null","","html-keyboard-response","360","505754","0.0-6.0-2.46","","<div style=""font-size:60px;"">+</div>","null","","","","","","",""
"628","","image-keyboard-response","361","506382","0.0-6.0-0.47","","img/purple.png","32","trial","null","false","0.2,0.8","2:nogo_b","",""
"null","","html-keyboard-response","362","507395","0.0-6.0-1.47","","<img src=""img/purple-n.png"" border=""10"">","null","trial","null","","0.2,0.8","2:nogo_b","0",""
"null","","html-keyboard-response","363","508414","0.0-6.0-2.47","","<div style=""font-size:60px;"">+</div>","null","","","","","","",""
"null","","image-keyboard-response","364","509914","0.0-6.0-0.48","","img/purple.png","null","trial","null","true","0.2,0.8","2:nogo_b","",""
"null","","html-keyboard-response","365","510934","0.0-6.0-1.48","","<img src=""img/purple-r.png"">","null","trial","null","","0.2,0.8","2:nogo_b","1",""
"null","","html-keyboard-response","366","511955","0.0-6.0-2.48","","<div style=""font-size:60px;"">+</div>","null","","","","","","",""
"661","","image-keyboard-response","367","512615","0.0-6.0-0.49","","img/green.png","32","trial","32","true","0.8,0.2","3:go_c","",""
"null","","html-keyboard-response","368","513624","0.0-6.0-1.49","","<img src=""img/green-r.png"" border=""10"">","null","trial","32","","0.8,0.2","3:go_c","1",""
"null","","html-keyboard-response","369","514644","0.0-6.0-2.49","","<div style=""font-size:60px;"">+</div>","null","","","","","","",""
"513","","image-keyboard-response","370","515158","0.0-6.0-0.50","","img/red.png","32","trial","32","true","0.8,0.2","1:go_a","",""
"null","","html-keyboard-response","371","516164","0.0-6.0-1.50","","<img src=""img/red-r.png"" border=""10"">","null","trial","32","","0.8,0.2","1:go_a","1",""
"null","","html-keyboard-response","372","517184","0.0-6.0-2.50","","<div style=""font-size:60px;"">+</div>","null","","","","","","",""
"null","","image-keyboard-response","373","518704","0.0-6.0-0.51","","img/grey.png","null","trial","null","true","0.2,0.8","4:nogo_d","",""
"null","","html-keyboard-response","374","519704","0.0-6.0-1.51","","<img src=""img/grey-r.png"">","null","trial","null","","0.2,0.8","4:nogo_d","1",""
"null","","html-keyboard-response","375","520724","0.0-6.0-2.51","","<div style=""font-size:60px;"">+</div>","null","","","","","","",""
"null","","image-keyboard-response","376","522244","0.0-6.0-0.52","","img/grey.png","null","trial","null","true","0.2,0.8","4:nogo_d","",""
"null","","html-keyboard-response","377","523264","0.0-6.0-1.52","","<img src=""img/grey-r.png"">","null","trial","null","","0.2,0.8","4:nogo_d","1",""
"null","","html-keyboard-response","378","524284","0.0-6.0-2.52","","<div style=""font-size:60px;"">+</div>","null","","","","","","",""
"683","","image-keyboard-response","379","524967","0.0-6.0-0.53","","img/green.png","32","trial","32","true","0.8,0.2","3:go_c","",""
"null","","html-keyboard-response","380","525983","0.0-6.0-1.53","","<img src=""img/green-r.png"" border=""10"">","null","trial","32","","0.8,0.2","3:go_c","1",""
"null","","html-keyboard-response","381","526984","0.0-6.0-2.53","","<div style=""font-size:60px;"">+</div>","null","","","","","","",""
"682","","image-keyboard-response","382","527667","0.0-6.0-0.54","","img/red.png","32","trial","32","true","0.8,0.2","1:go_a","",""
"null","","html-keyboard-response","383","528684","0.0-6.0-1.54","","<img src=""img/red-r.png"" border=""10"">","null","trial","32","","0.8,0.2","1:go_a","1",""
"null","","html-keyboard-response","384","529694","0.0-6.0-2.54","","<div style=""font-size:60px;"">+</div>","null","","","","","","",""
"null","","image-keyboard-response","385","531213","0.0-6.0-0.55","","img/purple.png","null","trial","null","true","0.2,0.8","2:nogo_b","",""
"null","","html-keyboard-response","386","532229","0.0-6.0-1.55","","<img src=""img/purple-r.png"">","null","trial","null","","0.2,0.8","2:nogo_b","1",""
"null","","html-keyboard-response","387","533234","0.0-6.0-2.55","","<div style=""font-size:60px;"">+</div>","null","","","","","","",""
"null","","image-keyboard-response","388","534752","0.0-6.0-0.56","","img/purple.png","null","trial","null","true","0.2,0.8","2:nogo_b","",""
"null","","html-keyboard-response","389","535754","0.0-6.0-1.56","","<img src=""img/purple-r.png"">","null","trial","null","","0.2,0.8","2:nogo_b","1",""
"null","","html-keyboard-response","390","536773","0.0-6.0-2.56","","<div style=""font-size:60px;"">+</div>","null","","","","","","",""
"1153","","image-keyboard-response","391","537927","0.0-6.0-0.57","","img/grey.png","32","trial","null","false","0.2,0.8","4:nogo_d","",""
"null","","html-keyboard-response","392","538934","0.0-6.0-1.57","","<img src=""img/grey-r.png"" border=""10"">","null","trial","null","","0.2,0.8","4:nogo_d","1",""
"null","","html-keyboard-response","393","539954","0.0-6.0-2.57","","<div style=""font-size:60px;"">+</div>","null","","","","","","",""
"562","","image-keyboard-response","394","540516","0.0-6.0-0.58","","img/red.png","32","trial","32","true","0.8,0.2","1:go_a","",""
"null","","html-keyboard-response","395","541534","0.0-6.0-1.58","","<img src=""img/red-n.png"" border=""10"">","null","trial","32","","0.8,0.2","1:go_a","0",""
"null","","html-keyboard-response","396","542554","0.0-6.0-2.58","","<div style=""font-size:60px;"">+</div>","null","","","","","","",""
"570","","image-keyboard-response","397","543124","0.0-6.0-0.59","","img/green.png","32","trial","32","true","0.8,0.2","3:go_c","",""
"null","","html-keyboard-response","398","544134","0.0-6.0-1.59","","<img src=""img/green-r.png"" border=""10"">","null","trial","32","","0.8,0.2","3:go_c","1",""
"null","","html-keyboard-response","399","545154","0.0-6.0-2.59","","<div style=""font-size:60px;"">+</div>","null","","","","","","",""
"692","","image-keyboard-response","400","545847","0.0-6.0-0.60","","img/grey.png","32","trial","null","false","0.2,0.8","4:nogo_d","",""
"null","","html-keyboard-response","401","546854","0.0-6.0-1.60","","<img src=""img/grey-n.png"" border=""10"">","null","trial","null","","0.2,0.8","4:nogo_d","0",""
"null","","html-keyboard-response","402","547874","0.0-6.0-2.60","","<div style=""font-size:60px;"">+</div>","null","","","","","","",""
"763","","image-keyboard-response","403","548637","0.0-6.0-0.61","","img/purple.png","32","trial","null","false","0.2,0.8","2:nogo_b","",""
"null","","html-keyboard-response","404","549654","0.0-6.0-1.61","","<img src=""img/purple-n.png"" border=""10"">","null","trial","null","","0.2,0.8","2:nogo_b","0",""
"null","","html-keyboard-response","405","550674","0.0-6.0-2.61","","<div style=""font-size:60px;"">+</div>","null","","","","","","",""
"685","","image-keyboard-response","406","551359","0.0-6.0-0.62","","img/green.png","32","trial","32","true","0.8,0.2","3:go_c","",""
"null","","html-keyboard-response","407","552373","0.0-6.0-1.62","","<img src=""img/green-r.png"" border=""10"">","null","trial","32","","0.8,0.2","3:go_c","1",""
"null","","html-keyboard-response","408","553393","0.0-6.0-2.62","","<div style=""font-size:60px;"">+</div>","null","","","","","","",""
"845","","image-keyboard-response","409","554238","0.0-6.0-0.63","","img/red.png","32","trial","32","true","0.8,0.2","1:go_a","",""
"null","","html-keyboard-response","410","555254","0.0-6.0-1.63","","<img src=""img/red-r.png"" border=""10"">","null","trial","32","","0.8,0.2","1:go_a","1",""
"null","","html-keyboard-response","411","556273","0.0-6.0-2.63","","<div style=""font-size:60px;"">+</div>","null","","","","","","",""
"418","","image-keyboard-response","412","556692","0.0-6.0-0.64","","img/green.png","32","trial","32","true","0.8,0.2","3:go_c","",""
"null","","html-keyboard-response","413","557693","0.0-6.0-1.64","","<img src=""img/green-r.png"" border=""10"">","null","trial","32","","0.8,0.2","3:go_c","1",""
"null","","html-keyboard-response","414","558694","0.0-6.0-2.64","","<div style=""font-size:60px;"">+</div>","null","","","","","","",""
"494","","image-keyboard-response","415","559188","0.0-6.0-0.65","","img/red.png","32","trial","32","true","0.8,0.2","1:go_a","",""
"null","","html-keyboard-response","416","560193","0.0-6.0-1.65","","<img src=""img/red-r.png"" border=""10"">","null","trial","32","","0.8,0.2","1:go_a","1",""
"null","","html-keyboard-response","417","561214","0.0-6.0-2.65","","<div style=""font-size:60px;"">+</div>","null","","","","","","",""
"495","","image-keyboard-response","418","561708","0.0-6.0-0.66","","img/purple.png","32","trial","null","false","0.2,0.8","2:nogo_b","",""
"null","","html-keyboard-response","419","562714","0.0-6.0-1.66","","<img src=""img/purple-n.png"" border=""10"">","null","trial","null","","0.2,0.8","2:nogo_b","0",""
"null","","html-keyboard-response","420","563714","0.0-6.0-2.66","","<div style=""font-size:60px;"">+</div>","null","","","","","","",""
"1033","","image-keyboard-response","421","564747","0.0-6.0-0.67","","img/grey.png","32","trial","null","false","0.2,0.8","4:nogo_d","",""
"null","","html-keyboard-response","422","565753","0.0-6.0-1.67","","<img src=""img/grey-n.png"" border=""10"">","null","trial","null","","0.2,0.8","4:nogo_d","0",""
"null","","html-keyboard-response","423","566754","0.0-6.0-2.67","","<div style=""font-size:60px;"">+</div>","null","","","","","","",""
"760","","image-keyboard-response","424","567514","0.0-6.0-0.68","","img/green.png","32","trial","32","true","0.8,0.2","3:go_c","",""
"null","","html-keyboard-response","425","568533","0.0-6.0-1.68","","<img src=""img/green-r.png"" border=""10"">","null","trial","32","","0.8,0.2","3:go_c","1",""
"null","","html-keyboard-response","426","569553","0.0-6.0-2.68","","<div style=""font-size:60px;"">+</div>","null","","","","","","",""
"570","","image-keyboard-response","427","570125","0.0-6.0-0.69","","img/red.png","32","trial","32","true","0.8,0.2","1:go_a","",""
"null","","html-keyboard-response","428","571144","0.0-6.0-1.69","","<img src=""img/red-r.png"" border=""10"">","null","trial","32","","0.8,0.2","1:go_a","1",""
"null","","html-keyboard-response","429","572164","0.0-6.0-2.69","","<div style=""font-size:60px;"">+</div>","null","","","","","","",""
"457","","image-keyboard-response","430","572622","0.0-6.0-0.70","","img/grey.png","32","trial","null","false","0.2,0.8","4:nogo_d","",""
"null","","html-keyboard-response","431","573623","0.0-6.0-1.70","","<img src=""img/grey-n.png"" border=""10"">","null","trial","null","","0.2,0.8","4:nogo_d","0",""
"null","","html-keyboard-response","432","574623","0.0-6.0-2.70","","<div style=""font-size:60px;"">+</div>","null","","","","","","",""
"562","","image-keyboard-response","433","575186","0.0-6.0-0.71","","img/purple.png","32","trial","null","false","0.2,0.8","2:nogo_b","",""
"null","","html-keyboard-response","434","576204","0.0-6.0-1.71","","<img src=""img/purple-n.png"" border=""10"">","null","trial","null","","0.2,0.8","2:nogo_b","0",""
"null","","html-keyboard-response","435","577223","0.0-6.0-2.71","","<div style=""font-size:60px;"">+</div>","null","","","","","","",""
"730","","image-keyboard-response","436","577954","0.0-6.0-0.72","","img/purple.png","32","trial","null","false","0.2,0.8","2:nogo_b","",""
"null","","html-keyboard-response","437","578963","0.0-6.0-1.72","","<img src=""img/purple-r.png"" border=""10"">","null","trial","null","","0.2,0.8","2:nogo_b","1",""
"null","","html-keyboard-response","438","579984","0.0-6.0-2.72","","<div style=""font-size:60px;"">+</div>","null","","","","","","",""
"579","","image-keyboard-response","439","580564","0.0-6.0-0.73","","img/green.png","32","trial","32","true","0.8,0.2","3:go_c","",""
"null","","html-keyboard-response","440","581583","0.0-6.0-1.73","","<img src=""img/green-r.png"" border=""10"">","null","trial","32","","0.8,0.2","3:go_c","1",""
"null","","html-keyboard-response","441","582604","0.0-6.0-2.73","","<div style=""font-size:60px;"">+</div>","null","","","","","","",""
"1424","","image-keyboard-response","442","584029","0.0-6.0-0.74","","img/grey.png","32","trial","null","false","0.2,0.8","4:nogo_d","",""
"null","","html-keyboard-response","443","585033","0.0-6.0-1.74","","<img src=""img/grey-n.png"" border=""10"">","null","trial","null","","0.2,0.8","4:nogo_d","0",""
"null","","html-keyboard-response","444","586053","0.0-6.0-2.74","","<div style=""font-size:60px;"">+</div>","null","","","","","","",""
"631","","image-keyboard-response","445","586684","0.0-6.0-0.75","","img/red.png","32","trial","32","true","0.8,0.2","1:go_a","",""
"null","","html-keyboard-response","446","587693","0.0-6.0-1.75","","<img src=""img/red-r.png"" border=""10"">","null","trial","32","","0.8,0.2","1:go_a","1",""
"null","","html-keyboard-response","447","588713","0.0-6.0-2.75","","<div style=""font-size:60px;"">+</div>","null","","","","","","",""
"1029","","image-keyboard-response","448","589744","0.0-6.0-0.76","","img/grey.png","32","trial","null","false","0.2,0.8","4:nogo_d","",""
"null","","html-keyboard-response","449","590754","0.0-6.0-1.76","","<img src=""img/grey-n.png"" border=""10"">","null","trial","null","","0.2,0.8","4:nogo_d","0",""
"null","","html-keyboard-response","450","591774","0.0-6.0-2.76","","<div style=""font-size:60px;"">+</div>","null","","","","","","",""
"513","","image-keyboard-response","451","592288","0.0-6.0-0.77","","img/red.png","32","trial","32","true","0.8,0.2","1:go_a","",""
"null","","html-keyboard-response","452","593294","0.0-6.0-1.77","","<img src=""img/red-r.png"" border=""10"">","null","trial","32","","0.8,0.2","1:go_a","1",""
"null","","html-keyboard-response","453","594313","0.0-6.0-2.77","","<div style=""font-size:60px;"">+</div>","null","","","","","","",""
"674","","image-keyboard-response","454","594986","0.0-6.0-0.78","","img/green.png","32","trial","32","true","0.8,0.2","3:go_c","",""
"null","","html-keyboard-response","455","595993","0.0-6.0-1.78","","<img src=""img/green-n.png"" border=""10"">","null","trial","32","","0.8,0.2","3:go_c","0",""
"null","","html-keyboard-response","456","597013","0.0-6.0-2.78","","<div style=""font-size:60px;"">+</div>","null","","","","","","",""
"536","","image-keyboard-response","457","597550","0.0-6.0-0.79","","img/purple.png","32","trial","null","false","0.2,0.8","2:nogo_b","",""
"null","","html-keyboard-response","458","598563","0.0-6.0-1.79","","<img src=""img/purple-r.png"" border=""10"">","null","trial","null","","0.2,0.8","2:nogo_b","1",""
"null","","html-keyboard-response","459","599563","0.0-6.0-2.79","","<div style=""font-size:60px;"">+</div>","null","","","","","","",""
"1023","","image-keyboard-response","460","600588","0.0-6.0-0.80","","img/grey.png","32","trial","null","false","0.2,0.8","4:nogo_d","",""
"null","","html-keyboard-response","461","601603","0.0-6.0-1.80","","<img src=""img/grey-r.png"" border=""10"">","null","trial","null","","0.2,0.8","4:nogo_d","1",""
"null","","html-keyboard-response","462","602623","0.0-6.0-2.80","","<div style=""font-size:60px;"">+</div>","null","","","","","","",""
"755","","image-keyboard-response","463","603378","0.0-6.0-0.81","","img/red.png","32","trial","32","true","0.8,0.2","1:go_a","",""
"null","","html-keyboard-response","464","604383","0.0-6.0-1.81","","<img src=""img/red-r.png"" border=""10"">","null","trial","32","","0.8,0.2","1:go_a","1",""
"null","","html-keyboard-response","465","605383","0.0-6.0-2.81","","<div style=""font-size:60px;"">+</div>","null","","","","","","",""
"583","","image-keyboard-response","466","605966","0.0-6.0-0.82","","img/green.png","32","trial","32","true","0.8,0.2","3:go_c","",""
"null","","html-keyboard-response","467","606983","0.0-6.0-1.82","","<img src=""img/green-r.png"" border=""10"">","null","trial","32","","0.8,0.2","3:go_c","1",""
"null","","html-keyboard-response","468","607983","0.0-6.0-2.82","","<div style=""font-size:60px;"">+</div>","null","","","","","","",""
"null","","image-keyboard-response","469","609503","0.0-6.0-0.83","","img/purple.png","null","trial","null","true","0.2,0.8","2:nogo_b","",""
"null","","html-keyboard-response","470","610522","0.0-6.0-1.83","","<img src=""img/purple-r.png"">","null","trial","null","","0.2,0.8","2:nogo_b","1",""
"null","","html-keyboard-response","471","611533","0.0-6.0-2.83","","<div style=""font-size:60px;"">+</div>","null","","","","","","",""
"663","","image-keyboard-response","472","612198","0.0-6.0-0.84","","img/red.png","32","trial","32","true","0.8,0.2","1:go_a","",""
"null","","html-keyboard-response","473","613213","0.0-6.0-1.84","","<img src=""img/red-n.png"" border=""10"">","null","trial","32","","0.8,0.2","1:go_a","0",""
"null","","html-keyboard-response","474","614233","0.0-6.0-2.84","","<div style=""font-size:60px;"">+</div>","null","","","","","","",""
"575","","image-keyboard-response","475","614808","0.0-6.0-0.85","","img/purple.png","32","trial","null","false","0.2,0.8","2:nogo_b","",""
"null","","html-keyboard-response","476","615813","0.0-6.0-1.85","","<img src=""img/purple-r.png"" border=""10"">","null","trial","null","","0.2,0.8","2:nogo_b","1",""
"null","","html-keyboard-response","477","616833","0.0-6.0-2.85","","<div style=""font-size:60px;"">+</div>","null","","","","","","",""
"null","","image-keyboard-response","478","618353","0.0-6.0-0.86","","img/grey.png","null","trial","null","true","0.2,0.8","4:nogo_d","",""
"null","","html-keyboard-response","479","619373","0.0-6.0-1.86","","<img src=""img/grey-r.png"">","null","trial","null","","0.2,0.8","4:nogo_d","1",""
"null","","html-keyboard-response","480","620393","0.0-6.0-2.86","","<div style=""font-size:60px;"">+</div>","null","","","","","","",""
"670","","image-keyboard-response","481","621064","0.0-6.0-0.87","","img/green.png","32","trial","32","true","0.8,0.2","3:go_c","",""
"null","","html-keyboard-response","482","622083","0.0-6.0-1.87","","<img src=""img/green-r.png"" border=""10"">","null","trial","32","","0.8,0.2","3:go_c","1",""
"null","","html-keyboard-response","483","623103","0.0-6.0-2.87","","<div style=""font-size:60px;"">+</div>","null","","","","","","",""
"525","","image-keyboard-response","484","623628","0.0-6.0-0.88","","img/green.png","32","trial","32","true","0.8,0.2","3:go_c","",""
"null","","html-keyboard-response","485","624643","0.0-6.0-1.88","","<img src=""img/green-r.png"" border=""10"">","null","trial","32","","0.8,0.2","3:go_c","1",""
"null","","html-keyboard-response","486","625664","0.0-6.0-2.88","","<div style=""font-size:60px;"">+</div>","null","","","","","","",""
"1271","","image-keyboard-response","487","626936","0.0-6.0-0.89","","img/red.png","32","trial","32","true","0.8,0.2","1:go_a","",""
"null","","html-keyboard-response","488","627943","0.0-6.0-1.89","","<img src=""img/red-r.png"" border=""10"">","null","trial","32","","0.8,0.2","1:go_a","1",""
"null","","html-keyboard-response","489","628963","0.0-6.0-2.89","","<div style=""font-size:60px;"">+</div>","null","","","","","","",""
"null","","image-keyboard-response","490","630483","0.0-6.0-0.90","","img/grey.png","null","trial","null","true","0.2,0.8","4:nogo_d","",""
"null","","html-keyboard-response","491","631503","0.0-6.0-1.90","","<img src=""img/grey-r.png"">","null","trial","null","","0.2,0.8","4:nogo_d","1",""
"null","","html-keyboard-response","492","632523","0.0-6.0-2.90","","<div style=""font-size:60px;"">+</div>","null","","","","","","",""
"757","","image-keyboard-response","493","633280","0.0-6.0-0.91","","img/purple.png","32","trial","null","false","0.2,0.8","2:nogo_b","",""
"null","","html-keyboard-response","494","634283","0.0-6.0-1.91","","<img src=""img/purple-n.png"" border=""10"">","null","trial","null","","0.2,0.8","2:nogo_b","0",""
"null","","html-keyboard-response","495","635303","0.0-6.0-2.91","","<div style=""font-size:60px;"">+</div>","null","","","","","","",""
"434","","image-keyboard-response","496","635737","0.0-6.0-0.92","","img/green.png","32","trial","32","true","0.8,0.2","3:go_c","",""
"null","","html-keyboard-response","497","636743","0.0-6.0-1.92","","<img src=""img/green-r.png"" border=""10"">","null","trial","32","","0.8,0.2","3:go_c","1",""
"null","","html-keyboard-response","498","637763","0.0-6.0-2.92","","<div style=""font-size:60px;"">+</div>","null","","","","","","",""
"963","","image-keyboard-response","499","638726","0.0-6.0-0.93","","img/purple.png","32","trial","null","false","0.2,0.8","2:nogo_b","",""
"null","","html-keyboard-response","500","639743","0.0-6.0-1.93","","<img src=""img/purple-r.png"" border=""10"">","null","trial","null","","0.2,0.8","2:nogo_b","1",""
"null","","html-keyboard-response","501","640763","0.0-6.0-2.93","","<div style=""font-size:60px;"">+</div>","null","","","","","","",""
"662","","image-keyboard-response","502","641425","0.0-6.0-0.94","","img/red.png","32","trial","32","true","0.8,0.2","1:go_a","",""
"null","","html-keyboard-response","503","642443","0.0-6.0-1.94","","<img src=""img/red-r.png"" border=""10"">","null","trial","32","","0.8,0.2","1:go_a","1",""
"null","","html-keyboard-response","504","643463","0.0-6.0-2.94","","<div style=""font-size:60px;"">+</div>","null","","","","","","",""
"null","","image-keyboard-response","505","644983","0.0-6.0-0.95","","img/grey.png","null","trial","null","true","0.2,0.8","4:nogo_d","",""
"null","","html-keyboard-response","506","646003","0.0-6.0-1.95","","<img src=""img/grey-r.png"">","null","trial","null","","0.2,0.8","4:nogo_d","1",""
"null","","html-keyboard-response","507","647022","0.0-6.0-2.95","","<div style=""font-size:60px;"">+</div>","null","","","","","","",""
"680","","image-keyboard-response","508","647703","0.0-6.0-0.96","","img/red.png","32","trial","32","true","0.8,0.2","1:go_a","",""
"null","","html-keyboard-response","509","648723","0.0-6.0-1.96","","<img src=""img/red-r.png"" border=""10"">","null","trial","32","","0.8,0.2","1:go_a","1",""
"null","","html-keyboard-response","510","649743","0.0-6.0-2.96","","<div style=""font-size:60px;"">+</div>","null","","","","","","",""
"524","","image-keyboard-response","511","650267","0.0-6.0-0.97","","img/purple.png","32","trial","null","false","0.2,0.8","2:nogo_b","",""
"null","","html-keyboard-response","512","651283","0.0-6.0-1.97","","<img src=""img/purple-n.png"" border=""10"">","null","trial","null","","0.2,0.8","2:nogo_b","0",""
"null","","html-keyboard-response","513","652303","0.0-6.0-2.97","","<div style=""font-size:60px;"">+</div>","null","","","","","","",""
"null","","image-keyboard-response","514","653822","0.0-6.0-0.98","","img/grey.png","null","trial","null","true","0.2,0.8","4:nogo_d","",""
"null","","html-keyboard-response","515","654843","0.0-6.0-1.98","","<img src=""img/grey-n.png"">","null","trial","null","","0.2,0.8","4:nogo_d","0",""
"null","","html-keyboard-response","516","655863","0.0-6.0-2.98","","<div style=""font-size:60px;"">+</div>","null","","","","","","",""
"1425","","image-keyboard-response","517","657288","0.0-6.0-0.99","","img/green.png","32","trial","32","true","0.8,0.2","3:go_c","",""
"null","","html-keyboard-response","518","658299","0.0-6.0-1.99","","<img src=""img/green-r.png"" border=""10"">","null","trial","32","","0.8,0.2","3:go_c","1",""
"null","","html-keyboard-response","519","659299","0.0-6.0-2.99","","<div style=""font-size:60px;"">+</div>","null","","","","","","",""
"777","","image-keyboard-response","520","660078","0.0-6.0-0.100","","img/green.png","32","trial","32","true","0.8,0.2","3:go_c","",""
"null","","html-keyboard-response","521","661083","0.0-6.0-1.100","","<img src=""img/green-r.png"" border=""10"">","null","trial","32","","0.8,0.2","3:go_c","1",""
"null","","html-keyboard-response","522","662102","0.0-6.0-2.100","","<div style=""font-size:60px;"">+</div>","null","","","","","","",""
"null","","image-keyboard-response","523","663623","0.0-6.0-0.101","","img/purple.png","null","trial","null","true","0.2,0.8","2:nogo_b","",""
"null","","html-keyboard-response","524","664643","0.0-6.0-1.101","","<img src=""img/purple-n.png"">","null","trial","null","","0.2,0.8","2:nogo_b","0",""
"null","","html-keyboard-response","525","665662","0.0-6.0-2.101","","<div style=""font-size:60px;"">+</div>","null","","","","","","",""
"null","","image-keyboard-response","526","667163","0.0-6.0-0.102","","img/grey.png","null","trial","null","true","0.2,0.8","4:nogo_d","",""
"null","","html-keyboard-response","527","668183","0.0-6.0-1.102","","<img src=""img/grey-r.png"">","null","trial","null","","0.2,0.8","4:nogo_d","1",""
"null","","html-keyboard-response","528","669203","0.0-6.0-2.102","","<div style=""font-size:60px;"">+</div>","null","","","","","","",""
"685","","image-keyboard-response","529","669888","0.0-6.0-0.103","","img/red.png","32","trial","32","true","0.8,0.2","1:go_a","",""
"null","","html-keyboard-response","530","670902","0.0-6.0-1.103","","<img src=""img/red-r.png"" border=""10"">","null","trial","32","","0.8,0.2","1:go_a","1",""
"null","","html-keyboard-response","531","671922","0.0-6.0-2.103","","<div style=""font-size:60px;"">+</div>","null","","","","","","",""
"619","","image-keyboard-response","532","672543","0.0-6.0-0.104","","img/purple.png","32","trial","null","false","0.2,0.8","2:nogo_b","",""
"null","","html-keyboard-response","533","673563","0.0-6.0-1.104","","<img src=""img/purple-r.png"" border=""10"">","null","trial","null","","0.2,0.8","2:nogo_b","1",""
"null","","html-keyboard-response","534","674582","0.0-6.0-2.104","","<div style=""font-size:60px;"">+</div>","null","","","","","","",""
"501","","image-keyboard-response","535","675085","0.0-6.0-0.105","","img/green.png","32","trial","32","true","0.8,0.2","3:go_c","",""
"null","","html-keyboard-response","536","676102","0.0-6.0-1.105","","<img src=""img/green-r.png"" border=""10"">","null","trial","32","","0.8,0.2","3:go_c","1",""
"null","","html-keyboard-response","537","677123","0.0-6.0-2.105","","<div style=""font-size:60px;"">+</div>","null","","","","","","",""
"1066","","image-keyboard-response","538","678190","0.0-6.0-0.106","","img/red.png","32","trial","32","true","0.8,0.2","1:go_a","",""
"null","","html-keyboard-response","539","679203","0.0-6.0-1.106","","<img src=""img/red-n.png"" border=""10"">","null","trial","32","","0.8,0.2","1:go_a","0",""
"null","","html-keyboard-response","540","680223","0.0-6.0-2.106","","<div style=""font-size:60px;"">+</div>","null","","","","","","",""
"null","","image-keyboard-response","541","681743","0.0-6.0-0.107","","img/grey.png","null","trial","null","true","0.2,0.8","4:nogo_d","",""
"null","","html-keyboard-response","542","682763","0.0-6.0-1.107","","<img src=""img/grey-r.png"">","null","trial","null","","0.2,0.8","4:nogo_d","1",""
"null","","html-keyboard-response","543","683763","0.0-6.0-2.107","","<div style=""font-size:60px;"">+</div>","null","","","","","","",""
"817","","image-keyboard-response","544","684580","0.0-6.0-0.108","","img/red.png","32","trial","32","true","0.8,0.2","1:go_a","",""
"null","","html-keyboard-response","545","685582","0.0-6.0-1.108","","<img src=""img/red-n.png"" border=""10"">","null","trial","32","","0.8,0.2","1:go_a","0",""
"null","","html-keyboard-response","546","686602","0.0-6.0-2.108","","<div style=""font-size:60px;"">+</div>","null","","","","","","",""
"835","","image-keyboard-response","547","687438","0.0-6.0-0.109","","img/grey.png","32","trial","null","false","0.2,0.8","4:nogo_d","",""
"null","","html-keyboard-response","548","688443","0.0-6.0-1.109","","<img src=""img/grey-r.png"" border=""10"">","null","trial","null","","0.2,0.8","4:nogo_d","1",""
"null","","html-keyboard-response","549","689463","0.0-6.0-2.109","","<div style=""font-size:60px;"">+</div>","null","","","","","","",""
"585","","image-keyboard-response","550","690047","0.0-6.0-0.110","","img/green.png","32","trial","32","true","0.8,0.2","3:go_c","",""
"null","","html-keyboard-response","551","691062","0.0-6.0-1.110","","<img src=""img/green-n.png"" border=""10"">","null","trial","32","","0.8,0.2","3:go_c","0",""
"null","","html-keyboard-response","552","692083","0.0-6.0-2.110","","<div style=""font-size:60px;"">+</div>","null","","","","","","",""
"934","","image-keyboard-response","553","693017","0.0-6.0-0.111","","img/purple.png","32","trial","null","false","0.2,0.8","2:nogo_b","",""
"null","","html-keyboard-response","554","694032","0.0-6.0-1.111","","<img src=""img/purple-n.png"" border=""10"">","null","trial","null","","0.2,0.8","2:nogo_b","0",""
"null","","html-keyboard-response","555","695033","0.0-6.0-2.111","","<div style=""font-size:60px;"">+</div>","null","","","","","","",""
"1134","","image-keyboard-response","556","696168","0.0-6.0-0.112","","img/grey.png","32","trial","null","false","0.2,0.8","4:nogo_d","",""
"null","","html-keyboard-response","557","697172","0.0-6.0-1.112","","<img src=""img/grey-n.png"" border=""10"">","null","trial","null","","0.2,0.8","4:nogo_d","0",""
"null","","html-keyboard-response","558","698192","0.0-6.0-2.112","","<div style=""font-size:60px;"">+</div>","null","","","","","","",""
"538","","image-keyboard-response","559","698732","0.0-6.0-0.113","","img/red.png","32","trial","32","true","0.8,0.2","1:go_a","",""
"null","","html-keyboard-response","560","699732","0.0-6.0-1.113","","<img src=""img/red-r.png"" border=""10"">","null","trial","32","","0.8,0.2","1:go_a","1",""
"null","","html-keyboard-response","561","700752","0.0-6.0-2.113","","<div style=""font-size:60px;"">+</div>","null","","","","","","",""
"658","","image-keyboard-response","562","701411","0.0-6.0-0.114","","img/purple.png","32","trial","null","false","0.2,0.8","2:nogo_b","",""
"null","","html-keyboard-response","563","702413","0.0-6.0-1.114","","<img src=""img/purple-n.png"" border=""10"">","null","trial","null","","0.2,0.8","2:nogo_b","0",""
"null","","html-keyboard-response","564","703432","0.0-6.0-2.114","","<div style=""font-size:60px;"">+</div>","null","","","","","","",""
"632","","image-keyboard-response","565","704065","0.0-6.0-0.115","","img/green.png","32","trial","32","true","0.8,0.2","3:go_c","",""
"null","","html-keyboard-response","566","705073","0.0-6.0-1.115","","<img src=""img/green-r.png"" border=""10"">","null","trial","32","","0.8,0.2","3:go_c","1",""
"null","","html-keyboard-response","567","706088","0.0-6.0-2.115","","<div style=""font-size:60px;"">+</div>","null","","","","","","",""
"474","","image-keyboard-response","568","706563","0.0-6.0-0.116","","img/red.png","32","trial","32","true","0.8,0.2","1:go_a","",""
"null","","html-keyboard-response","569","707582","0.0-6.0-1.116","","<img src=""img/red-r.png"" border=""10"">","null","trial","32","","0.8,0.2","1:go_a","1",""
"null","","html-keyboard-response","570","708603","0.0-6.0-2.116","","<div style=""font-size:60px;"">+</div>","null","","","","","","",""
"null","","image-keyboard-response","571","710122","0.0-6.0-0.117","","img/green.png","null","trial","32","false","0.8,0.2","3:go_c","",""
"null","","html-keyboard-response","572","711142","0.0-6.0-1.117","","<img src=""img/green-n.png"">","null","trial","32","","0.8,0.2","3:go_c","0",""
"null","","html-keyboard-response","573","712143","0.0-6.0-2.117","","<div style=""font-size:60px;"">+</div>","null","","","","","","",""
"null","","image-keyboard-response","574","713663","0.0-6.0-0.118","","img/purple.png","null","trial","null","true","0.2,0.8","2:nogo_b","",""
"null","","html-keyboard-response","575","714682","0.0-6.0-1.118","","<img src=""img/purple-r.png"">","null","trial","null","","0.2,0.8","2:nogo_b","1",""
"null","","html-keyboard-response","576","715702","0.0-6.0-2.118","","<div style=""font-size:60px;"">+</div>","null","","","","","","",""
"557","","image-keyboard-response","577","716260","0.0-6.0-0.119","","img/grey.png","32","trial","null","false","0.2,0.8","4:nogo_d","",""
"null","","html-keyboard-response","578","717263","0.0-6.0-1.119","","<img src=""img/grey-n.png"" border=""10"">","null","trial","null","","0.2,0.8","4:nogo_d","0",""
"null","","html-keyboard-response","579","718282","0.0-6.0-2.119","","<div style=""font-size:60px;"">+</div>","null","","","","","","",""
"23421","","instructions","580","741703","0.0-7.0","[{""page_index"":0,""viewing_time"":23421}]","","","","","","","","",""
"1196","","image-keyboard-response","581","742899","0.0-8.0-0.0","","img/blue.png","32","trial","null","false","0,1","4:nogo_d","",""
"null","","html-keyboard-response","582","743907","0.0-8.0-1.0","","<img src=""img/blue-n.png"" border=""10"">","null","trial","null","","0,1","4:nogo_d","0",""
"null","","html-keyboard-response","583","744909","0.0-8.0-2.0","","<div style=""font-size:60px;"">+</div>","null","","","","","","",""
"690","","image-keyboard-response","584","745599","0.0-8.0-0.1","","img/red.png","32","trial","32","true","1,0","3:go_c","",""
"null","","html-keyboard-response","585","746612","0.0-8.0-1.1","","<img src=""img/red-r.png"" border=""10"">","null","trial","32","","1,0","3:go_c","1",""
"null","","html-keyboard-response","586","747632","0.0-8.0-2.1","","<div style=""font-size:60px;"">+</div>","null","","","","","","",""
"847","","image-keyboard-response","587","748478","0.0-8.0-0.2","","img/yellow.png","32","trial","32","true","0.8,0.2","1:go_a","",""
"null","","html-keyboard-response","588","749492","0.0-8.0-1.2","","<img src=""img/yellow-r.png"" border=""10"">","null","trial","32","","0.8,0.2","1:go_a","1",""
"null","","html-keyboard-response","589","750511","0.0-8.0-2.2","","<div style=""font-size:60px;"">+</div>","null","","","","","","",""
"666","","image-keyboard-response","590","751178","0.0-8.0-0.3","","img/orange.png","32","trial","null","false","0.2,0.8","2:nogo_b","",""
"null","","html-keyboard-response","591","752192","0.0-8.0-1.3","","<img src=""img/orange-n.png"" border=""10"">","null","trial","null","","0.2,0.8","2:nogo_b","0",""
"null","","html-keyboard-response","592","753192","0.0-8.0-2.3","","<div style=""font-size:60px;"">+</div>","null","","","","","","",""
"978","","image-keyboard-response","593","754172","0.0-8.0-0.4","","img/yellow.png","32","trial","32","true","0.8,0.2","1:go_a","",""
"null","","html-keyboard-response","594","755172","0.0-8.0-1.4","","<img src=""img/yellow-r.png"" border=""10"">","null","trial","32","","0.8,0.2","1:go_a","1",""
"null","","html-keyboard-response","595","756192","0.0-8.0-2.4","","<div style=""font-size:60px;"">+</div>","null","","","","","","",""
"null","","image-keyboard-response","596","757712","0.0-8.0-0.5","","img/orange.png","null","trial","null","true","0.2,0.8","2:nogo_b","",""
"null","","html-keyboard-response","597","758731","0.0-8.0-1.5","","<img src=""img/orange-r.png"">","null","trial","null","","0.2,0.8","2:nogo_b","1",""
"null","","html-keyboard-response","598","759732","0.0-8.0-2.5","","<div style=""font-size:60px;"">+</div>","null","","","","","","",""
"null","","image-keyboard-response","599","761251","0.0-8.0-0.6","","img/blue.png","null","trial","null","true","0,1","4:nogo_d","",""
"null","","html-keyboard-response","600","762272","0.0-8.0-1.6","","<img src=""img/blue-r.png"">","null","trial","null","","0,1","4:nogo_d","1",""
"null","","html-keyboard-response","601","763292","0.0-8.0-2.6","","<div style=""font-size:60px;"">+</div>","null","","","","","","",""
"553","","image-keyboard-response","602","763846","0.0-8.0-0.7","","img/red.png","32","trial","32","true","1,0","3:go_c","",""
"null","","html-keyboard-response","603","764852","0.0-8.0-1.7","","<img src=""img/red-r.png"" border=""10"">","null","trial","32","","1,0","3:go_c","1",""
"null","","html-keyboard-response","604","765872","0.0-8.0-2.7","","<div style=""font-size:60px;"">+</div>","null","","","","","","",""
"null","","image-keyboard-response","605","767392","0.0-8.0-0.8","","img/blue.png","null","trial","null","true","0,1","4:nogo_d","",""
"null","","html-keyboard-response","606","768412","0.0-8.0-1.8","","<img src=""img/blue-r.png"">","null","trial","null","","0,1","4:nogo_d","1",""
"null","","html-keyboard-response","607","769432","0.0-8.0-2.8","","<div style=""font-size:60px;"">+</div>","null","","","","","","",""
"895","","image-keyboard-response","608","770327","0.0-8.0-0.9","","img/red.png","32","trial","32","true","1,0","3:go_c","",""
"null","","html-keyboard-response","609","771332","0.0-8.0-1.9","","<img src=""img/red-r.png"" border=""10"">","null","trial","32","","1,0","3:go_c","1",""
"null","","html-keyboard-response","610","772352","0.0-8.0-2.9","","<div style=""font-size:60px;"">+</div>","null","","","","","","",""
"1191","","image-keyboard-response","611","773544","0.0-8.0-0.10","","img/yellow.png","32","trial","32","true","0.8,0.2","1:go_a","",""
"null","","html-keyboard-response","612","774552","0.0-8.0-1.10","","<img src=""img/yellow-n.png"" border=""10"">","null","trial","32","","0.8,0.2","1:go_a","0",""
"null","","html-keyboard-response","613","775571","0.0-8.0-2.10","","<div style=""font-size:60px;"">+</div>","null","","","","","","",""
"582","","image-keyboard-response","614","776154","0.0-8.0-0.11","","img/orange.png","32","trial","null","false","0.2,0.8","2:nogo_b","",""
"null","","html-keyboard-response","615","777172","0.0-8.0-1.11","","<img src=""img/orange-n.png"" border=""10"">","null","trial","null","","0.2,0.8","2:nogo_b","0",""
"null","","html-keyboard-response","616","778192","0.0-8.0-2.11","","<div style=""font-size:60px;"">+</div>","null","","","","","","",""
"1133","","image-keyboard-response","617","779325","0.0-8.0-0.12","","img/orange.png","32","trial","null","false","0.2,0.8","2:nogo_b","",""
"null","","html-keyboard-response","618","780331","0.0-8.0-1.12","","<img src=""img/orange-n.png"" border=""10"">","null","trial","null","","0.2,0.8","2:nogo_b","0",""
"null","","html-keyboard-response","619","781332","0.0-8.0-2.12","","<div style=""font-size:60px;"">+</div>","null","","","","","","",""
"649","","image-keyboard-response","620","781982","0.0-8.0-0.13","","img/red.png","32","trial","32","true","1,0","3:go_c","",""
"null","","html-keyboard-response","621","782992","0.0-8.0-1.13","","<img src=""img/red-r.png"" border=""10"">","null","trial","32","","1,0","3:go_c","1",""
"null","","html-keyboard-response","622","784012","0.0-8.0-2.13","","<div style=""font-size:60px;"">+</div>","null","","","","","","",""
"null","","image-keyboard-response","623","785531","0.0-8.0-0.14","","img/yellow.png","null","trial","32","false","0.8,0.2","1:go_a","",""
"null","","html-keyboard-response","624","786547","0.0-8.0-1.14","","<img src=""img/yellow-n.png"">","null","trial","32","","0.8,0.2","1:go_a","0",""
"null","","html-keyboard-response","625","787572","0.0-8.0-2.14","","<div style=""font-size:60px;"">+</div>","null","","","","","","",""
"null","","image-keyboard-response","626","789088","0.0-8.0-0.15","","img/blue.png","null","trial","null","true","0,1","4:nogo_d","",""
"null","","html-keyboard-response","627","790091","0.0-8.0-1.15","","<img src=""img/blue-r.png"">","null","trial","null","","0,1","4:nogo_d","1",""
"null","","html-keyboard-response","628","791111","0.0-8.0-2.15","","<div style=""font-size:60px;"">+</div>","null","","","","","","",""
"613","","image-keyboard-response","629","791723","0.0-8.0-0.16","","img/blue.png","32","trial","null","false","0,1","4:nogo_d","",""
"null","","html-keyboard-response","630","792731","0.0-8.0-1.16","","<img src=""img/blue-n.png"" border=""10"">","null","trial","null","","0,1","4:nogo_d","0",""
"null","","html-keyboard-response","631","793751","0.0-8.0-2.16","","<div style=""font-size:60px;"">+</div>","null","","","","","","",""
"988","","image-keyboard-response","632","794739","0.0-8.0-0.17","","img/orange.png","32","trial","null","false","0.2,0.8","2:nogo_b","",""
"null","","html-keyboard-response","633","795751","0.0-8.0-1.17","","<img src=""img/orange-r.png"" border=""10"">","null","trial","null","","0.2,0.8","2:nogo_b","1",""
"null","","html-keyboard-response","634","796771","0.0-8.0-2.17","","<div style=""font-size:60px;"">+</div>","null","","","","","","",""
"803","","image-keyboard-response","635","797575","0.0-8.0-0.18","","img/yellow.png","32","trial","32","true","0.8,0.2","1:go_a","",""
"null","","html-keyboard-response","636","798591","0.0-8.0-1.18","","<img src=""img/yellow-r.png"" border=""10"">","null","trial","32","","0.8,0.2","1:go_a","1",""
"null","","html-keyboard-response","637","799591","0.0-8.0-2.18","","<div style=""font-size:60px;"">+</div>","null","","","","","","",""
"524","","image-keyboard-response","638","800116","0.0-8.0-0.19","","img/red.png","32","trial","32","true","1,0","3:go_c","",""
"null","","html-keyboard-response","639","801132","0.0-8.0-1.19","","<img src=""img/red-r.png"" border=""10"">","null","trial","32","","1,0","3:go_c","1",""
"null","","html-keyboard-response","640","802151","0.0-8.0-2.19","","<div style=""font-size:60px;"">+</div>","null","","","","","","",""
"1362","","image-keyboard-response","641","803514","0.0-8.0-0.20","","img/orange.png","32","trial","null","false","0.2,0.8","2:nogo_b","",""
"null","","html-keyboard-response","642","804532","0.0-8.0-1.20","","<img src=""img/orange-n.png"" border=""10"">","null","trial","null","","0.2,0.8","2:nogo_b","0",""
"null","","html-keyboard-response","643","805551","0.0-8.0-2.20","","<div style=""font-size:60px;"">+</div>","null","","","","","","",""
"683","","image-keyboard-response","644","806235","0.0-8.0-0.21","","img/yellow.png","32","trial","32","true","0.8,0.2","1:go_a","",""
"null","","html-keyboard-response","645","807251","0.0-8.0-1.21","","<img src=""img/yellow-r.png"" border=""10"">","null","trial","32","","0.8,0.2","1:go_a","1",""
"null","","html-keyboard-response","646","808251","0.0-8.0-2.21","","<div style=""font-size:60px;"">+</div>","null","","","","","","",""
"1156","","image-keyboard-response","647","809408","0.0-8.0-0.22","","img/blue.png","32","trial","null","false","0,1","4:nogo_d","",""
"null","","html-keyboard-response","648","810411","0.0-8.0-1.22","","<img src=""img/blue-n.png"" border=""10"">","null","trial","null","","0,1","4:nogo_d","0",""
"null","","html-keyboard-response","649","811432","0.0-8.0-2.22","","<div style=""font-size:60px;"">+</div>","null","","","","","","",""
"631","","image-keyboard-response","650","812063","0.0-8.0-0.23","","img/red.png","32","trial","32","true","1,0","3:go_c","",""
"null","","html-keyboard-response","651","813072","0.0-8.0-1.23","","<img src=""img/red-r.png"" border=""10"">","null","trial","32","","1,0","3:go_c","1",""
"null","","html-keyboard-response","652","814092","0.0-8.0-2.23","","<div style=""font-size:60px;"">+</div>","null","","","","","","",""
"987","","image-keyboard-response","653","815078","0.0-8.0-0.24","","img/red.png","32","trial","32","true","1,0","3:go_c","",""
"null","","html-keyboard-response","654","816092","0.0-8.0-1.24","","<img src=""img/red-r.png"" border=""10"">","null","trial","32","","1,0","3:go_c","1",""
"null","","html-keyboard-response","655","817111","0.0-8.0-2.24","","<div style=""font-size:60px;"">+</div>","null","","","","","","",""
"null","","image-keyboard-response","656","818632","0.0-8.0-0.25","","img/orange.png","null","trial","null","true","0.2,0.8","2:nogo_b","",""
"null","","html-keyboard-response","657","819651","0.0-8.0-1.25","","<img src=""img/orange-r.png"">","null","trial","null","","0.2,0.8","2:nogo_b","1",""
"null","","html-keyboard-response","658","820672","0.0-8.0-2.25","","<div style=""font-size:60px;"">+</div>","null","","","","","","",""
"null","","image-keyboard-response","659","822181","0.0-8.0-0.26","","img/blue.png","null","trial","null","true","0,1","4:nogo_d","",""
"null","","html-keyboard-response","660","823202","0.0-8.0-1.26","","<img src=""img/blue-r.png"">","null","trial","null","","0,1","4:nogo_d","1",""
"null","","html-keyboard-response","661","824221","0.0-8.0-2.26","","<div style=""font-size:60px;"">+</div>","null","","","","","","",""
"847","","image-keyboard-response","662","825069","0.0-8.0-0.27","","img/yellow.png","32","trial","32","true","0.8,0.2","1:go_a","",""
"null","","html-keyboard-response","663","826081","0.0-8.0-1.27","","<img src=""img/yellow-r.png"" border=""10"">","null","trial","32","","0.8,0.2","1:go_a","1",""
"null","","html-keyboard-response","664","827082","0.0-8.0-2.27","","<div style=""font-size:60px;"">+</div>","null","","","","","","",""
"799","","image-keyboard-response","665","827880","0.0-8.0-0.28","","img/red.png","32","trial","32","true","1,0","3:go_c","",""
"null","","html-keyboard-response","666","828891","0.0-8.0-1.28","","<img src=""img/red-r.png"" border=""10"">","null","trial","32","","1,0","3:go_c","1",""
"null","","html-keyboard-response","667","829911","0.0-8.0-2.28","","<div style=""font-size:60px;"">+</div>","null","","","","","","",""
"1297","","image-keyboard-response","668","831210","0.0-8.0-0.29","","img/yellow.png","32","trial","32","true","0.8,0.2","1:go_a","",""
"null","","html-keyboard-response","669","832212","0.0-8.0-1.29","","<img src=""img/yellow-n.png"" border=""10"">","null","trial","32","","0.8,0.2","1:go_a","0",""
"null","","html-keyboard-response","670","833232","0.0-8.0-2.29","","<div style=""font-size:60px;"">+</div>","null","","","","","","",""
"null","","image-keyboard-response","671","834751","0.0-8.0-0.30","","img/orange.png","null","trial","null","true","0.2,0.8","2:nogo_b","",""
"null","","html-keyboard-response","672","835771","0.0-8.0-1.30","","<img src=""img/orange-r.png"">","null","trial","null","","0.2,0.8","2:nogo_b","1",""
"null","","html-keyboard-response","673","836792","0.0-8.0-2.30","","<div style=""font-size:60px;"">+</div>","null","","","","","","",""
"651","","image-keyboard-response","674","837443","0.0-8.0-0.31","","img/blue.png","32","trial","null","false","0,1","4:nogo_d","",""
"null","","html-keyboard-response","675","838451","0.0-8.0-1.31","","<img src=""img/blue-n.png"" border=""10"">","null","trial","null","","0,1","4:nogo_d","0",""
"null","","html-keyboard-response","676","839472","0.0-8.0-2.31","","<div style=""font-size:60px;"">+</div>","null","","","","","","",""
"761","","image-keyboard-response","677","840233","0.0-8.0-0.32","","img/red.png","32","trial","32","true","1,0","3:go_c","",""
"null","","html-keyboard-response","678","841251","0.0-8.0-1.32","","<img src=""img/red-r.png"" border=""10"">","null","trial","32","","1,0","3:go_c","1",""
"null","","html-keyboard-response","679","842252","0.0-8.0-2.32","","<div style=""font-size:60px;"">+</div>","null","","","","","","",""
"1333","","image-keyboard-response","680","843584","0.0-8.0-0.33","","img/blue.png","32","trial","null","false","0,1","4:nogo_d","",""
"null","","html-keyboard-response","681","844591","0.0-8.0-1.33","","<img src=""img/blue-n.png"" border=""10"">","null","trial","null","","0,1","4:nogo_d","0",""
"null","","html-keyboard-response","682","845611","0.0-8.0-2.33","","<div style=""font-size:60px;"">+</div>","null","","","","","","",""
"1259","","image-keyboard-response","683","846870","0.0-8.0-0.34","","img/orange.png","32","trial","null","false","0.2,0.8","2:nogo_b","",""
"null","","html-keyboard-response","684","847871","0.0-8.0-1.34","","<img src=""img/orange-n.png"" border=""10"">","null","trial","null","","0.2,0.8","2:nogo_b","0",""
"null","","html-keyboard-response","685","848892","0.0-8.0-2.34","","<div style=""font-size:60px;"">+</div>","null","","","","","","",""
"948","","image-keyboard-response","686","849840","0.0-8.0-0.35","","img/yellow.png","32","trial","32","true","0.8,0.2","1:go_a","",""
"null","","html-keyboard-response","687","850851","0.0-8.0-1.35","","<img src=""img/yellow-r.png"" border=""10"">","null","trial","32","","0.8,0.2","1:go_a","1",""
"null","","html-keyboard-response","688","851871","0.0-8.0-2.35","","<div style=""font-size:60px;"">+</div>","null","","","","","","",""
"null","","image-keyboard-response","689","853391","0.0-8.0-0.36","","img/blue.png","null","trial","null","true","0,1","4:nogo_d","",""
"null","","html-keyboard-response","690","854411","0.0-8.0-1.36","","<img src=""img/blue-r.png"">","null","trial","null","","0,1","4:nogo_d","1",""
"null","","html-keyboard-response","691","855432","0.0-8.0-2.36","","<div style=""font-size:60px;"">+</div>","null","","","","","","",""
