"rt","url","trial_type","trial_index","time_elapsed","internal_node_id","view_history","stimulus","key_press","test_part","correct_response","correct","use_rew","which_stim","reward","responses"
"34489.19999998808","consent.html","external-html","0","34628","0.0-0.0","","","","","","","","","",""
"166525.69999998808","","instructions","1","201157","0.0-1.0","[{""page_index"":0,""viewing_time"":2801.300000011921},{""page_index"":1,""viewing_time"":24482},{""page_index"":2,""viewing_time"":3873.7999999821186},{""page_index"":3,""viewing_time"":23623.90000000596},{""page_index"":4,""viewing_time"":11220.09999999404},{""page_index"":5,""viewing_time"":90290},{""page_index"":6,""viewing_time"":10234}]","","","","","","","","",""
"null","","image-keyboard-response","2","202670","0.0-2.0-0.0","","img/test3.PNG","null","practice","null","true","","","",""
"null","","html-keyboard-response","3","203673","0.0-2.0-1.0","","<img src=""img/test3-reward.PNG"">","null","","","","","","",""
"null","","html-keyboard-response","4","204682","0.0-2.0-2.0","","<div style=""font-size:60px;"">+</div>","null","","","","","","",""
"null","","image-keyboard-response","5","206195","0.0-2.0-0.1","","img/test2.PNG","null","practice","null","true","","","",""
"null","","html-keyboard-response","6","207197","0.0-2.0-1.1","","<img src=""img/test2-reward.PNG"">","null","","","","","","",""
"null","","html-keyboard-response","7","208198","0.0-2.0-2.1","","<div style=""font-size:60px;"">+</div>","null","","","","","","",""
"430.19999998807907","","image-keyboard-response","8","208630","0.0-2.0-0.2","","img/test1.PNG","32","practice","32","true","","","",""
"null","","html-keyboard-response","9","209641","0.0-2.0-1.2","","<img src=""img/test1-reward.PNG"" border=""10px; grey"">","null","","","","","","",""
"null","","html-keyboard-response","10","210647","0.0-2.0-2.2","","<div style=""font-size:60px;"">+</div>","null","","","","","","",""
"null","","image-keyboard-response","11","212151","0.0-2.0-0.3","","img/test3.PNG","null","practice","null","true","","","",""
"null","","html-keyboard-response","12","213160","0.0-2.0-1.3","","<img src=""img/test3-reward.PNG"">","null","","","","","","",""
"null","","html-keyboard-response","13","214168","0.0-2.0-2.3","","<div style=""font-size:60px;"">+</div>","null","","","","","","",""
"null","","image-keyboard-response","14","215686","0.0-2.0-0.4","","img/test2.PNG","null","practice","null","true","","","",""
"null","","html-keyboard-response","15","216699","0.0-2.0-1.4","","<img src=""img/test2-reward.PNG"">","null","","","","","","",""
"null","","html-keyboard-response","16","217707","0.0-2.0-2.4","","<div style=""font-size:60px;"">+</div>","null","","","","","","",""
"351.09999999403954","","image-keyboard-response","17","218060","0.0-2.0-0.5","","img/test1.PNG","32","practice","32","true","","","",""
"null","","html-keyboard-response","18","219069","0.0-2.0-1.5","","<img src=""img/test1-reward.PNG"" border=""10px; grey"">","null","","","","","","",""
"null","","html-keyboard-response","19","220073","0.0-2.0-2.5","","<div style=""font-size:60px;"">+</div>","null","","","","","","",""
"null","","image-keyboard-response","20","221579","0.0-2.0-0.6","","img/test2.PNG","null","practice","null","true","","","",""
"null","","html-keyboard-response","21","222590","0.0-2.0-1.6","","<img src=""img/test2-reward.PNG"">","null","","","","","","",""
"null","","html-keyboard-response","22","223597","0.0-2.0-2.6","","<div style=""font-size:60px;"">+</div>","null","","","","","","",""
"341.69999998807907","","image-keyboard-response","23","223939","0.0-2.0-0.7","","img/test1.PNG","32","practice","32","true","","","",""
"null","","html-keyboard-response","24","224947","0.0-2.0-1.7","","<img src=""img/test1-reward.PNG"" border=""10px; grey"">","null","","","","","","",""
"null","","html-keyboard-response","25","225960","0.0-2.0-2.7","","<div style=""font-size:60px;"">+</div>","null","","","","","","",""
"null","","image-keyboard-response","26","227462","0.0-2.0-0.8","","img/test3.PNG","null","practice","null","true","","","",""
"null","","html-keyboard-response","27","228465","0.0-2.0-1.8","","<img src=""img/test3-reward.PNG"">","null","","","","","","",""
"null","","html-keyboard-response","28","229478","0.0-2.0-2.8","","<div style=""font-size:60px;"">+</div>","null","","","","","","",""
"388.80000001192093","","image-keyboard-response","29","229869","0.0-2.0-0.9","","img/test1.PNG","32","practice","32","true","","","",""
"null","","html-keyboard-response","30","230871","0.0-2.0-1.9","","<img src=""img/test1-reward.PNG"" border=""10px; grey"">","null","","","","","","",""
"null","","html-keyboard-response","31","231873","0.0-2.0-2.9","","<div style=""font-size:60px;"">+</div>","null","","","","","","",""
"null","","image-keyboard-response","32","233375","0.0-2.0-0.10","","img/test2.PNG","null","practice","null","true","","","",""
"null","","html-keyboard-response","33","234388","0.0-2.0-1.10","","<img src=""img/test2-reward.PNG"">","null","","","","","","",""
"null","","html-keyboard-response","34","235398","0.0-2.0-2.10","","<div style=""font-size:60px;"">+</div>","null","","","","","","",""
"null","","image-keyboard-response","35","236908","0.0-2.0-0.11","","img/test3.PNG","null","practice","null","true","","","",""
"null","","html-keyboard-response","36","237928","0.0-2.0-1.11","","<img src=""img/test3-reward.PNG"">","null","","","","","","",""
"null","","html-keyboard-response","37","238944","0.0-2.0-2.11","","<div style=""font-size:60px;"">+</div>","null","","","","","","",""
"3570.5","","instructions","38","242515","0.0-3.0","[{""page_index"":0,""viewing_time"":3570.199999988079}]","","","","","","","","",""
"1390.9000000059605","","image-keyboard-response","39","243907","0.0-4.0-0.0","","img/orange.png","32","trial","null","false","0.2,0.8","2:nogo_b","",""
"null","","html-keyboard-response","40","244915","0.0-4.0-1.0","","<img src=""img/orange-n.png"" border=""10"">","null","trial","null","","0.2,0.8","2:nogo_b","0",""
"null","","html-keyboard-response","41","245926","0.0-4.0-2.0","","<div style=""font-size:60px;"">+</div>","null","","","","","","",""
"388.69999998807907","","image-keyboard-response","42","246316","0.0-4.0-0.1","","img/blue.png","32","trial","32","true","0.8,0.2","1:go_a","",""
"null","","html-keyboard-response","43","247326","0.0-4.0-1.1","","<img src=""img/blue-r.png"" border=""10"">","null","trial","32","","0.8,0.2","1:go_a","1",""
"null","","html-keyboard-response","44","248328","0.0-4.0-2.1","","<div style=""font-size:60px;"">+</div>","null","","","","","","",""
"402.09999999403954","","image-keyboard-response","45","248732","0.0-4.0-0.2","","img/blue.png","32","trial","32","true","0.8,0.2","1:go_a","",""
"null","","html-keyboard-response","46","249744","0.0-4.0-1.2","","<img src=""img/blue-n.png"" border=""10"">","null","trial","32","","0.8,0.2","1:go_a","0",""
"null","","html-keyboard-response","47","250748","0.0-4.0-2.2","","<div style=""font-size:60px;"">+</div>","null","","","","","","",""
"646.1999999880791","","image-keyboard-response","48","251396","0.0-4.0-0.3","","img/orange.png","32","trial","null","false","0.2,0.8","2:nogo_b","",""
"null","","html-keyboard-response","49","252402","0.0-4.0-1.3","","<img src=""img/orange-n.png"" border=""10"">","null","trial","null","","0.2,0.8","2:nogo_b","0",""
"null","","html-keyboard-response","50","253407","0.0-4.0-2.3","","<div style=""font-size:60px;"">+</div>","null","","","","","","",""
"772","","image-keyboard-response","51","254180","0.0-4.0-0.4","","img/blue.png","32","trial","32","true","0.8,0.2","1:go_a","",""
"null","","html-keyboard-response","52","255197","0.0-4.0-1.4","","<img src=""img/blue-n.png"" border=""10"">","null","trial","32","","0.8,0.2","1:go_a","0",""
"null","","html-keyboard-response","53","256208","0.0-4.0-2.4","","<div style=""font-size:60px;"">+</div>","null","","","","","","",""
"null","","image-keyboard-response","54","257710","0.0-4.0-0.5","","img/orange.png","null","trial","null","true","0.2,0.8","2:nogo_b","",""
"null","","html-keyboard-response","55","258712","0.0-4.0-1.5","","<img src=""img/orange-r.png"">","null","trial","null","","0.2,0.8","2:nogo_b","1",""
"null","","html-keyboard-response","56","259722","0.0-4.0-2.5","","<div style=""font-size:60px;"">+</div>","null","","","","","","",""
"null","","image-keyboard-response","57","261229","0.0-4.0-0.6","","img/blue.png","null","trial","32","false","0.8,0.2","1:go_a","",""
"null","","html-keyboard-response","58","262236","0.0-4.0-1.6","","<img src=""img/blue-r.png"">","null","trial","32","","0.8,0.2","1:go_a","1",""
"null","","html-keyboard-response","59","263247","0.0-4.0-2.6","","<div style=""font-size:60px;"">+</div>","null","","","","","","",""
"null","","image-keyboard-response","60","264758","0.0-4.0-0.7","","img/orange.png","null","trial","null","true","0.2,0.8","2:nogo_b","",""
"null","","html-keyboard-response","61","265768","0.0-4.0-1.7","","<img src=""img/orange-r.png"">","null","trial","null","","0.2,0.8","2:nogo_b","1",""
"null","","html-keyboard-response","62","266778","0.0-4.0-2.7","","<div style=""font-size:60px;"">+</div>","null","","","","","","",""
"null","","image-keyboard-response","63","268286","0.0-4.0-0.8","","img/orange.png","null","trial","null","true","0.2,0.8","2:nogo_b","",""
"null","","html-keyboard-response","64","269289","0.0-4.0-1.8","","<img src=""img/orange-r.png"">","null","trial","null","","0.2,0.8","2:nogo_b","1",""
"null","","html-keyboard-response","65","270296","0.0-4.0-2.8","","<div style=""font-size:60px;"">+</div>","null","","","","","","",""
"null","","image-keyboard-response","66","271806","0.0-4.0-0.9","","img/blue.png","null","trial","32","false","0.8,0.2","1:go_a","",""
"null","","html-keyboard-response","67","272811","0.0-4.0-1.9","","<img src=""img/blue-n.png"">","null","trial","32","","0.8,0.2","1:go_a","0",""
"null","","html-keyboard-response","68","273832","0.0-4.0-2.9","","<div style=""font-size:60px;"">+</div>","null","","","","","","",""
"null","","image-keyboard-response","69","275349","0.0-4.0-0.10","","img/blue.png","null","trial","32","false","0.8,0.2","1:go_a","",""
"null","","html-keyboard-response","70","276361","0.0-4.0-1.10","","<img src=""img/blue-n.png"">","null","trial","32","","0.8,0.2","1:go_a","0",""
"null","","html-keyboard-response","71","277365","0.0-4.0-2.10","","<div style=""font-size:60px;"">+</div>","null","","","","","","",""
"405.90000000596046","","image-keyboard-response","72","277772","0.0-4.0-0.11","","img/orange.png","32","trial","null","false","0.2,0.8","2:nogo_b","",""
"null","","html-keyboard-response","73","278778","0.0-4.0-1.11","","<img src=""img/orange-n.png"" border=""10"">","null","trial","null","","0.2,0.8","2:nogo_b","0",""
"null","","html-keyboard-response","74","279781","0.0-4.0-2.11","","<div style=""font-size:60px;"">+</div>","null","","","","","","",""
"404.80000001192093","","image-keyboard-response","75","280187","0.0-4.0-0.12","","img/orange.png","32","trial","null","false","0.2,0.8","2:nogo_b","",""
"null","","html-keyboard-response","76","281201","0.0-4.0-1.12","","<img src=""img/orange-n.png"" border=""10"">","null","trial","null","","0.2,0.8","2:nogo_b","0",""
"null","","html-keyboard-response","77","282211","0.0-4.0-2.12","","<div style=""font-size:60px;"">+</div>","null","","","","","","",""
"null","","image-keyboard-response","78","283720","0.0-4.0-0.13","","img/blue.png","null","trial","32","false","0.8,0.2","1:go_a","",""
"null","","html-keyboard-response","79","284724","0.0-4.0-1.13","","<img src=""img/blue-n.png"">","null","trial","32","","0.8,0.2","1:go_a","0",""
"null","","html-keyboard-response","80","285739","0.0-4.0-2.13","","<div style=""font-size:60px;"">+</div>","null","","","","","","",""
"343.2999999821186","","image-keyboard-response","81","286084","0.0-4.0-0.14","","img/orange.png","32","trial","null","false","0.2,0.8","2:nogo_b","",""
"null","","html-keyboard-response","82","287093","0.0-4.0-1.14","","<img src=""img/orange-n.png"" border=""10"">","null","trial","null","","0.2,0.8","2:nogo_b","0",""
"null","","html-keyboard-response","83","288109","0.0-4.0-2.14","","<div style=""font-size:60px;"">+</div>","null","","","","","","",""
"null","","image-keyboard-response","84","289613","0.0-4.0-0.15","","img/blue.png","null","trial","32","false","0.8,0.2","1:go_a","",""
"null","","html-keyboard-response","85","290631","0.0-4.0-1.15","","<img src=""img/blue-n.png"">","null","trial","32","","0.8,0.2","1:go_a","0",""
"null","","html-keyboard-response","86","291639","0.0-4.0-2.15","","<div style=""font-size:60px;"">+</div>","null","","","","","","",""
"null","","image-keyboard-response","87","293148","0.0-4.0-0.16","","img/blue.png","null","trial","32","false","0.8,0.2","1:go_a","",""
"null","","html-keyboard-response","88","294155","0.0-4.0-1.16","","<img src=""img/blue-n.png"">","null","trial","32","","0.8,0.2","1:go_a","0",""
"null","","html-keyboard-response","89","295157","0.0-4.0-2.16","","<div style=""font-size:60px;"">+</div>","null","","","","","","",""
"309.30000001192093","","image-keyboard-response","90","295468","0.0-4.0-0.17","","img/orange.png","32","trial","null","false","0.2,0.8","2:nogo_b","",""
"null","","html-keyboard-response","91","296477","0.0-4.0-1.17","","<img src=""img/orange-n.png"" border=""10"">","null","trial","null","","0.2,0.8","2:nogo_b","0",""
"null","","html-keyboard-response","92","297480","0.0-4.0-2.17","","<div style=""font-size:60px;"">+</div>","null","","","","","","",""
"null","","image-keyboard-response","93","298984","0.0-4.0-0.18","","img/blue.png","null","trial","32","false","0.8,0.2","1:go_a","",""
"null","","html-keyboard-response","94","299987","0.0-4.0-1.18","","<img src=""img/blue-n.png"">","null","trial","32","","0.8,0.2","1:go_a","0",""
"null","","html-keyboard-response","95","300990","0.0-4.0-2.18","","<div style=""font-size:60px;"">+</div>","null","","","","","","",""
"356.40000000596046","","image-keyboard-response","96","301348","0.0-4.0-0.19","","img/orange.png","32","trial","null","false","0.2,0.8","2:nogo_b","",""
"null","","html-keyboard-response","97","302356","0.0-4.0-1.19","","<img src=""img/orange-n.png"" border=""10"">","null","trial","null","","0.2,0.8","2:nogo_b","0",""
"null","","html-keyboard-response","98","303359","0.0-4.0-2.19","","<div style=""font-size:60px;"">+</div>","null","","","","","","",""
"1427.4000000059605","","image-keyboard-response","99","304788","0.0-4.0-0.20","","img/orange.png","32","trial","null","false","0.2,0.8","2:nogo_b","",""
"null","","html-keyboard-response","100","305804","0.0-4.0-1.20","","<img src=""img/orange-r.png"" border=""10"">","null","trial","null","","0.2,0.8","2:nogo_b","1",""
"null","","html-keyboard-response","101","306807","0.0-4.0-2.20","","<div style=""font-size:60px;"">+</div>","null","","","","","","",""
"null","","image-keyboard-response","102","308311","0.0-4.0-0.21","","img/blue.png","null","trial","32","false","0.8,0.2","1:go_a","",""
"null","","html-keyboard-response","103","309314","0.0-4.0-1.21","","<img src=""img/blue-n.png"">","null","trial","32","","0.8,0.2","1:go_a","0",""
"null","","html-keyboard-response","104","310317","0.0-4.0-2.21","","<div style=""font-size:60px;"">+</div>","null","","","","","","",""
"null","","image-keyboard-response","105","311821","0.0-4.0-0.22","","img/blue.png","null","trial","32","false","0.8,0.2","1:go_a","",""
"null","","html-keyboard-response","106","312824","0.0-4.0-1.22","","<img src=""img/blue-r.png"">","null","trial","32","","0.8,0.2","1:go_a","1",""
"null","","html-keyboard-response","107","313827","0.0-4.0-2.22","","<div style=""font-size:60px;"">+</div>","null","","","","","","",""
"431.90000000596046","","image-keyboard-response","108","314260","0.0-4.0-0.23","","img/orange.png","32","trial","null","false","0.2,0.8","2:nogo_b","",""
"null","","html-keyboard-response","109","315262","0.0-4.0-1.23","","<img src=""img/orange-n.png"" border=""10"">","null","trial","null","","0.2,0.8","2:nogo_b","0",""
"null","","html-keyboard-response","110","316264","0.0-4.0-2.23","","<div style=""font-size:60px;"">+</div>","null","","","","","","",""
"null","","image-keyboard-response","111","317768","0.0-4.0-0.24","","img/blue.png","null","trial","32","false","0.8,0.2","1:go_a","",""
"null","","html-keyboard-response","112","318771","0.0-4.0-1.24","","<img src=""img/blue-n.png"">","null","trial","32","","0.8,0.2","1:go_a","0",""
"null","","html-keyboard-response","113","319773","0.0-4.0-2.24","","<div style=""font-size:60px;"">+</div>","null","","","","","","",""
"341","","image-keyboard-response","114","320115","0.0-4.0-0.25","","img/orange.png","32","trial","null","false","0.2,0.8","2:nogo_b","",""
"null","","html-keyboard-response","115","321127","0.0-4.0-1.25","","<img src=""img/orange-r.png"" border=""10"">","null","trial","null","","0.2,0.8","2:nogo_b","1",""
"null","","html-keyboard-response","116","322131","0.0-4.0-2.25","","<div style=""font-size:60px;"">+</div>","null","","","","","","",""
"null","","image-keyboard-response","117","323635","0.0-4.0-0.26","","img/blue.png","null","trial","32","false","0.8,0.2","1:go_a","",""
"null","","html-keyboard-response","118","324638","0.0-4.0-1.26","","<img src=""img/blue-r.png"">","null","trial","32","","0.8,0.2","1:go_a","1",""
"null","","html-keyboard-response","119","325641","0.0-4.0-2.26","","<div style=""font-size:60px;"">+</div>","null","","","","","","",""
"369.60000002384186","","image-keyboard-response","120","326012","0.0-4.0-0.27","","img/orange.png","32","trial","null","false","0.2,0.8","2:nogo_b","",""
"null","","html-keyboard-response","121","327023","0.0-4.0-1.27","","<img src=""img/orange-n.png"" border=""10"">","null","trial","null","","0.2,0.8","2:nogo_b","0",""
"null","","html-keyboard-response","122","328026","0.0-4.0-2.27","","<div style=""font-size:60px;"">+</div>","null","","","","","","",""
"408.5","","image-keyboard-response","123","328435","0.0-4.0-0.28","","img/orange.png","32","trial","null","false","0.2,0.8","2:nogo_b","",""
"null","","html-keyboard-response","124","329452","0.0-4.0-1.28","","<img src=""img/orange-n.png"" border=""10"">","null","trial","null","","0.2,0.8","2:nogo_b","0",""
"null","","html-keyboard-response","125","330455","0.0-4.0-2.28","","<div style=""font-size:60px;"">+</div>","null","","","","","","",""
"null","","image-keyboard-response","126","331959","0.0-4.0-0.29","","img/blue.png","null","trial","32","false","0.8,0.2","1:go_a","",""
"null","","html-keyboard-response","127","332962","0.0-4.0-1.29","","<img src=""img/blue-n.png"">","null","trial","32","","0.8,0.2","1:go_a","0",""
"null","","html-keyboard-response","128","333965","0.0-4.0-2.29","","<div style=""font-size:60px;"">+</div>","null","","","","","","",""
"null","","image-keyboard-response","129","335470","0.0-4.0-0.30","","img/blue.png","null","trial","32","false","0.8,0.2","1:go_a","",""
"null","","html-keyboard-response","130","336473","0.0-4.0-1.30","","<img src=""img/blue-n.png"">","null","trial","32","","0.8,0.2","1:go_a","0",""
"null","","html-keyboard-response","131","337475","0.0-4.0-2.30","","<div style=""font-size:60px;"">+</div>","null","","","","","","",""
"351.30000001192093","","image-keyboard-response","132","337828","0.0-4.0-0.31","","img/orange.png","32","trial","null","false","0.2,0.8","2:nogo_b","",""
"null","","html-keyboard-response","133","338841","0.0-4.0-1.31","","<img src=""img/orange-n.png"" border=""10"">","null","trial","null","","0.2,0.8","2:nogo_b","0",""
"null","","html-keyboard-response","134","339844","0.0-4.0-2.31","","<div style=""font-size:60px;"">+</div>","null","","","","","","",""
"494.2000000178814","","image-keyboard-response","135","340339","0.0-4.0-0.32","","img/orange.png","32","trial","null","false","0.2,0.8","2:nogo_b","",""
"null","","html-keyboard-response","136","341347","0.0-4.0-1.32","","<img src=""img/orange-n.png"" border=""10"">","null","trial","null","","0.2,0.8","2:nogo_b","0",""
"null","","html-keyboard-response","137","342350","0.0-4.0-2.32","","<div style=""font-size:60px;"">+</div>","null","","","","","","",""
"null","","image-keyboard-response","138","343854","0.0-4.0-0.33","","img/blue.png","null","trial","32","false","0.8,0.2","1:go_a","",""
"null","","html-keyboard-response","139","344856","0.0-4.0-1.33","","<img src=""img/blue-n.png"">","null","trial","32","","0.8,0.2","1:go_a","0",""
"null","","html-keyboard-response","140","345858","0.0-4.0-2.33","","<div style=""font-size:60px;"">+</div>","null","","","","","","",""
"295.80000001192093","","image-keyboard-response","141","346155","0.0-4.0-0.34","","img/orange.png","32","trial","null","false","0.2,0.8","2:nogo_b","",""
"null","","html-keyboard-response","142","347161","0.0-4.0-1.34","","<img src=""img/orange-n.png"" border=""10"">","null","trial","null","","0.2,0.8","2:nogo_b","0",""
"null","","html-keyboard-response","143","348164","0.0-4.0-2.34","","<div style=""font-size:60px;"">+</div>","null","","","","","","",""
"null","","image-keyboard-response","144","349669","0.0-4.0-0.35","","img/blue.png","null","trial","32","false","0.8,0.2","1:go_a","",""
"null","","html-keyboard-response","145","350687","0.0-4.0-1.35","","<img src=""img/blue-n.png"">","null","trial","32","","0.8,0.2","1:go_a","0",""
"null","","html-keyboard-response","146","351690","0.0-4.0-2.35","","<div style=""font-size:60px;"">+</div>","null","","","","","","",""
"336.10000002384186","","image-keyboard-response","147","352027","0.0-4.0-0.36","","img/orange.png","32","trial","null","false","0.2,0.8","2:nogo_b","",""
"null","","html-keyboard-response","148","353032","0.0-4.0-1.36","","<img src=""img/orange-n.png"" border=""10"">","null","trial","null","","0.2,0.8","2:nogo_b","0",""
"null","","html-keyboard-response","149","354034","0.0-4.0-2.36","","<div style=""font-size:60px;"">+</div>","null","","","","","","",""
"null","","image-keyboard-response","150","355539","0.0-4.0-0.37","","img/blue.png","null","trial","32","false","0.8,0.2","1:go_a","",""
"null","","html-keyboard-response","151","356543","0.0-4.0-1.37","","<img src=""img/blue-n.png"">","null","trial","32","","0.8,0.2","1:go_a","0",""
"null","","html-keyboard-response","152","357545","0.0-4.0-2.37","","<div style=""font-size:60px;"">+</div>","null","","","","","","",""
"384.90000000596046","","image-keyboard-response","153","357931","0.0-4.0-0.38","","img/orange.png","32","trial","null","false","0.2,0.8","2:nogo_b","",""
"null","","html-keyboard-response","154","358949","0.0-4.0-1.38","","<img src=""img/orange-r.png"" border=""10"">","null","trial","null","","0.2,0.8","2:nogo_b","1",""
"null","","html-keyboard-response","155","359971","0.0-4.0-2.38","","<div style=""font-size:60px;"">+</div>","null","","","","","","",""
"null","","image-keyboard-response","156","361491","0.0-4.0-0.39","","img/blue.png","null","trial","32","false","0.8,0.2","1:go_a","",""
"null","","html-keyboard-response","157","362496","0.0-4.0-1.39","","<img src=""img/blue-r.png"">","null","trial","32","","0.8,0.2","1:go_a","1",""
"null","","html-keyboard-response","158","363511","0.0-4.0-2.39","","<div style=""font-size:60px;"">+</div>","null","","","","","","",""
"340.89999997615814","","image-keyboard-response","159","363853","0.0-4.0-0.40","","img/orange.png","32","trial","null","false","0.2,0.8","2:nogo_b","",""
"null","","html-keyboard-response","160","364856","0.0-4.0-1.40","","<img src=""img/orange-n.png"" border=""10"">","null","trial","null","","0.2,0.8","2:nogo_b","0",""
"null","","html-keyboard-response","161","365861","0.0-4.0-2.40","","<div style=""font-size:60px;"">+</div>","null","","","","","","",""
"null","","image-keyboard-response","162","367381","0.0-4.0-0.41","","img/blue.png","null","trial","32","false","0.8,0.2","1:go_a","",""
"null","","html-keyboard-response","163","368396","0.0-4.0-1.41","","<img src=""img/blue-r.png"">","null","trial","32","","0.8,0.2","1:go_a","1",""
"null","","html-keyboard-response","164","369401","0.0-4.0-2.41","","<div style=""font-size:60px;"">+</div>","null","","","","","","",""
"null","","image-keyboard-response","165","370904","0.0-4.0-0.42","","img/blue.png","null","trial","32","false","0.8,0.2","1:go_a","",""
"null","","html-keyboard-response","166","371907","0.0-4.0-1.42","","<img src=""img/blue-n.png"">","null","trial","32","","0.8,0.2","1:go_a","0",""
"null","","html-keyboard-response","167","372910","0.0-4.0-2.42","","<div style=""font-size:60px;"">+</div>","null","","","","","","",""
"372.09999999403954","","image-keyboard-response","168","373283","0.0-4.0-0.43","","img/orange.png","32","trial","null","false","0.2,0.8","2:nogo_b","",""
"null","","html-keyboard-response","169","374298","0.0-4.0-1.43","","<img src=""img/orange-n.png"" border=""10"">","null","trial","null","","0.2,0.8","2:nogo_b","0",""
"null","","html-keyboard-response","170","375301","0.0-4.0-2.43","","<div style=""font-size:60px;"">+</div>","null","","","","","","",""
"null","","image-keyboard-response","171","376805","0.0-4.0-0.44","","img/blue.png","null","trial","32","false","0.8,0.2","1:go_a","",""
"null","","html-keyboard-response","172","377819","0.0-4.0-1.44","","<img src=""img/blue-n.png"">","null","trial","32","","0.8,0.2","1:go_a","0",""
"null","","html-keyboard-response","173","378829","0.0-4.0-2.44","","<div style=""font-size:60px;"">+</div>","null","","","","","","",""
"354.90000000596046","","image-keyboard-response","174","379188","0.0-4.0-0.45","","img/orange.png","32","trial","null","false","0.2,0.8","2:nogo_b","",""
"null","","html-keyboard-response","175","380194","0.0-4.0-1.45","","<img src=""img/orange-n.png"" border=""10"">","null","trial","null","","0.2,0.8","2:nogo_b","0",""
"null","","html-keyboard-response","176","381199","0.0-4.0-2.45","","<div style=""font-size:60px;"">+</div>","null","","","","","","",""
"null","","image-keyboard-response","177","382709","0.0-4.0-0.46","","img/blue.png","null","trial","32","false","0.8,0.2","1:go_a","",""
"null","","html-keyboard-response","178","383714","0.0-4.0-1.46","","<img src=""img/blue-n.png"">","null","trial","32","","0.8,0.2","1:go_a","0",""
"null","","html-keyboard-response","179","384730","0.0-4.0-2.46","","<div style=""font-size:60px;"">+</div>","null","","","","","","",""
"336.69999998807907","","image-keyboard-response","180","385068","0.0-4.0-0.47","","img/orange.png","32","trial","null","false","0.2,0.8","2:nogo_b","",""
"null","","html-keyboard-response","181","386089","0.0-4.0-1.47","","<img src=""img/orange-n.png"" border=""10"">","null","trial","null","","0.2,0.8","2:nogo_b","0",""
"null","","html-keyboard-response","182","387099","0.0-4.0-2.47","","<div style=""font-size:60px;"">+</div>","null","","","","","","",""
"null","","image-keyboard-response","183","388604","0.0-4.0-0.48","","img/blue.png","null","trial","32","false","0.8,0.2","1:go_a","",""
"null","","html-keyboard-response","184","389606","0.0-4.0-1.48","","<img src=""img/blue-n.png"">","null","trial","32","","0.8,0.2","1:go_a","0",""
"null","","html-keyboard-response","185","390609","0.0-4.0-2.48","","<div style=""font-size:60px;"">+</div>","null","","","","","","",""
"394.2000000178814","","image-keyboard-response","186","391004","0.0-4.0-0.49","","img/orange.png","32","trial","null","false","0.2,0.8","2:nogo_b","",""
"null","","html-keyboard-response","187","392013","0.0-4.0-1.49","","<img src=""img/orange-r.png"" border=""10"">","null","trial","null","","0.2,0.8","2:nogo_b","1",""
"null","","html-keyboard-response","188","393016","0.0-4.0-2.49","","<div style=""font-size:60px;"">+</div>","null","","","","","","",""
"410.7999999821186","","image-keyboard-response","189","393428","0.0-4.0-0.50","","img/orange.png","32","trial","null","false","0.2,0.8","2:nogo_b","",""
"null","","html-keyboard-response","190","394434","0.0-4.0-1.50","","<img src=""img/orange-n.png"" border=""10"">","null","trial","null","","0.2,0.8","2:nogo_b","0",""
"null","","html-keyboard-response","191","395436","0.0-4.0-2.50","","<div style=""font-size:60px;"">+</div>","null","","","","","","",""
"null","","image-keyboard-response","192","396941","0.0-4.0-0.51","","img/blue.png","null","trial","32","false","0.8,0.2","1:go_a","",""
"null","","html-keyboard-response","193","397944","0.0-4.0-1.51","","<img src=""img/blue-n.png"">","null","trial","32","","0.8,0.2","1:go_a","0",""
"null","","html-keyboard-response","194","398946","0.0-4.0-2.51","","<div style=""font-size:60px;"">+</div>","null","","","","","","",""
"null","","image-keyboard-response","195","400449","0.0-4.0-0.52","","img/blue.png","null","trial","32","false","0.8,0.2","1:go_a","",""
"null","","html-keyboard-response","196","401452","0.0-4.0-1.52","","<img src=""img/blue-n.png"">","null","trial","32","","0.8,0.2","1:go_a","0",""
"null","","html-keyboard-response","197","402455","0.0-4.0-2.52","","<div style=""font-size:60px;"">+</div>","null","","","","","","",""
"307","","image-keyboard-response","198","402764","0.0-4.0-0.53","","img/orange.png","32","trial","null","false","0.2,0.8","2:nogo_b","",""
"null","","html-keyboard-response","199","403773","0.0-4.0-1.53","","<img src=""img/orange-n.png"" border=""10"">","null","trial","null","","0.2,0.8","2:nogo_b","0",""
"null","","html-keyboard-response","200","404798","0.0-4.0-2.53","","<div style=""font-size:60px;"">+</div>","null","","","","","","",""
"524","","image-keyboard-response","201","405323","0.0-4.0-0.54","","img/orange.png","32","trial","null","false","0.2,0.8","2:nogo_b","",""
"null","","html-keyboard-response","202","406333","0.0-4.0-1.54","","<img src=""img/orange-n.png"" border=""10"">","null","trial","null","","0.2,0.8","2:nogo_b","0",""
"null","","html-keyboard-response","203","407336","0.0-4.0-2.54","","<div style=""font-size:60px;"">+</div>","null","","","","","","",""
"null","","image-keyboard-response","204","408840","0.0-4.0-0.55","","img/blue.png","null","trial","32","false","0.8,0.2","1:go_a","",""
"null","","html-keyboard-response","205","409842","0.0-4.0-1.55","","<img src=""img/blue-n.png"">","null","trial","32","","0.8,0.2","1:go_a","0",""
"null","","html-keyboard-response","206","410846","0.0-4.0-2.55","","<div style=""font-size:60px;"">+</div>","null","","","","","","",""
"null","","image-keyboard-response","207","412349","0.0-4.0-0.56","","img/blue.png","null","trial","32","false","0.8,0.2","1:go_a","",""
"null","","html-keyboard-response","208","413352","0.0-4.0-1.56","","<img src=""img/blue-n.png"">","null","trial","32","","0.8,0.2","1:go_a","0",""
"null","","html-keyboard-response","209","414355","0.0-4.0-2.56","","<div style=""font-size:60px;"">+</div>","null","","","","","","",""
"311.5","","image-keyboard-response","210","414668","0.0-4.0-0.57","","img/orange.png","32","trial","null","false","0.2,0.8","2:nogo_b","",""
"null","","html-keyboard-response","211","415674","0.0-4.0-1.57","","<img src=""img/orange-n.png"" border=""10"">","null","trial","null","","0.2,0.8","2:nogo_b","0",""
"null","","html-keyboard-response","212","416676","0.0-4.0-2.57","","<div style=""font-size:60px;"">+</div>","null","","","","","","",""
"null","","image-keyboard-response","213","418180","0.0-4.0-0.58","","img/blue.png","null","trial","32","false","0.8,0.2","1:go_a","",""
"null","","html-keyboard-response","214","419183","0.0-4.0-1.58","","<img src=""img/blue-r.png"">","null","trial","32","","0.8,0.2","1:go_a","1",""
"null","","html-keyboard-response","215","420186","0.0-4.0-2.58","","<div style=""font-size:60px;"">+</div>","null","","","","","","",""
"328.5","","image-keyboard-response","216","420515","0.0-4.0-0.59","","img/orange.png","32","trial","null","false","0.2,0.8","2:nogo_b","",""
"null","","html-keyboard-response","217","421520","0.0-4.0-1.59","","<img src=""img/orange-r.png"" border=""10"">","null","trial","null","","0.2,0.8","2:nogo_b","1",""
"null","","html-keyboard-response","218","422523","0.0-4.0-2.59","","<div style=""font-size:60px;"">+</div>","null","","","","","","",""
"3339.9000000059605","","instructions","219","425863","0.0-5.0","[{""page_index"":0,""viewing_time"":3339.7000000178814}]","","","","","","","","",""
"1115.300000011921","","image-keyboard-response","220","426980","0.0-6.0-0.0","","img/purple.png","32","trial","32","true","0.6,0.4","1:go_a","",""
"null","","html-keyboard-response","221","427991","0.0-6.0-1.0","","<img src=""img/purple-r.png"" border=""10"">","null","trial","32","","0.6,0.4","1:go_a","1",""
"null","","html-keyboard-response","222","428994","0.0-6.0-2.0","","<div style=""font-size:60px;"">+</div>","null","","","","","","",""
"536.3000000119209","","image-keyboard-response","223","429531","0.0-6.0-0.1","","img/red.png","32","trial","32","true","0.6,0.4","3:go_c","",""
"null","","html-keyboard-response","224","430545","0.0-6.0-1.1","","<img src=""img/red-r.png"" border=""10"">","null","trial","32","","0.6,0.4","3:go_c","1",""
"null","","html-keyboard-response","225","431548","0.0-6.0-2.1","","<div style=""font-size:60px;"">+</div>","null","","","","","","",""
"574.0999999940395","","image-keyboard-response","226","432123","0.0-6.0-0.2","","img/green.png","32","trial","null","false","0.4,0.6","4:nogo_d","",""
"null","","html-keyboard-response","227","433136","0.0-6.0-1.2","","<img src=""img/green-r.png"" border=""10"">","null","trial","null","","0.4,0.6","4:nogo_d","1",""
"null","","html-keyboard-response","228","434149","0.0-6.0-2.2","","<div style=""font-size:60px;"">+</div>","null","","","","","","",""
"748.5999999940395","","image-keyboard-response","229","434899","0.0-6.0-0.3","","img/grey.png","32","trial","null","false","0.4,0.6","2:nogo_b","",""
"null","","html-keyboard-response","230","435905","0.0-6.0-1.3","","<img src=""img/grey-n.png"" border=""10"">","null","trial","null","","0.4,0.6","2:nogo_b","0",""
"null","","html-keyboard-response","231","436908","0.0-6.0-2.3","","<div style=""font-size:60px;"">+</div>","null","","","","","","",""
"478.89999997615814","","image-keyboard-response","232","437388","0.0-6.0-0.4","","img/red.png","32","trial","32","true","0.6,0.4","3:go_c","",""
"null","","html-keyboard-response","233","438409","0.0-6.0-1.4","","<img src=""img/red-n.png"" border=""10"">","null","trial","32","","0.6,0.4","3:go_c","0",""
"null","","html-keyboard-response","234","439425","0.0-6.0-2.4","","<div style=""font-size:60px;"">+</div>","null","","","","","","",""
"344.2999999821186","","image-keyboard-response","235","439771","0.0-6.0-0.5","","img/purple.png","32","trial","32","true","0.6,0.4","1:go_a","",""
"null","","html-keyboard-response","236","440782","0.0-6.0-1.5","","<img src=""img/purple-n.png"" border=""10"">","null","trial","32","","0.6,0.4","1:go_a","0",""
"null","","html-keyboard-response","237","441790","0.0-6.0-2.5","","<div style=""font-size:60px;"">+</div>","null","","","","","","",""
"388.39999997615814","","image-keyboard-response","238","442179","0.0-6.0-0.6","","img/green.png","32","trial","null","false","0.4,0.6","4:nogo_d","",""
"null","","html-keyboard-response","239","443184","0.0-6.0-1.6","","<img src=""img/green-n.png"" border=""10"">","null","trial","null","","0.4,0.6","4:nogo_d","0",""
"null","","html-keyboard-response","240","444200","0.0-6.0-2.6","","<div style=""font-size:60px;"">+</div>","null","","","","","","",""
"354","","image-keyboard-response","241","444556","0.0-6.0-0.7","","img/grey.png","32","trial","null","false","0.4,0.6","2:nogo_b","",""
"null","","html-keyboard-response","242","445558","0.0-6.0-1.7","","<img src=""img/grey-n.png"" border=""10"">","null","trial","null","","0.4,0.6","2:nogo_b","0",""
"null","","html-keyboard-response","243","446561","0.0-6.0-2.7","","<div style=""font-size:60px;"">+</div>","null","","","","","","",""
"560.9000000059605","","image-keyboard-response","244","447124","0.0-6.0-0.8","","img/red.png","32","trial","32","true","0.6,0.4","3:go_c","",""
"null","","html-keyboard-response","245","448128","0.0-6.0-1.8","","<img src=""img/red-r.png"" border=""10"">","null","trial","32","","0.6,0.4","3:go_c","1",""
"null","","html-keyboard-response","246","449131","0.0-6.0-2.8","","<div style=""font-size:60px;"">+</div>","null","","","","","","",""
"527","","image-keyboard-response","247","449660","0.0-6.0-0.9","","img/green.png","32","trial","null","false","0.4,0.6","4:nogo_d","",""
"null","","html-keyboard-response","248","450673","0.0-6.0-1.9","","<img src=""img/green-r.png"" border=""10"">","null","trial","null","","0.4,0.6","4:nogo_d","1",""
"null","","html-keyboard-response","249","451676","0.0-6.0-2.9","","<div style=""font-size:60px;"">+</div>","null","","","","","","",""
"533.7000000178814","","image-keyboard-response","250","452211","0.0-6.0-0.10","","img/purple.png","32","trial","32","true","0.6,0.4","1:go_a","",""
"null","","html-keyboard-response","251","453228","0.0-6.0-1.10","","<img src=""img/purple-r.png"" border=""10"">","null","trial","32","","0.6,0.4","1:go_a","1",""
"null","","html-keyboard-response","252","454230","0.0-6.0-2.10","","<div style=""font-size:60px;"">+</div>","null","","","","","","",""
"null","","image-keyboard-response","253","455734","0.0-6.0-0.11","","img/grey.png","null","trial","null","true","0.4,0.6","2:nogo_b","",""
"null","","html-keyboard-response","254","456737","0.0-6.0-1.11","","<img src=""img/grey-r.png"">","null","trial","null","","0.4,0.6","2:nogo_b","1",""
"null","","html-keyboard-response","255","457740","0.0-6.0-2.11","","<div style=""font-size:60px;"">+</div>","null","","","","","","",""
"518.5","","image-keyboard-response","256","458259","0.0-6.0-0.12","","img/green.png","32","trial","null","false","0.4,0.6","4:nogo_d","",""
"null","","html-keyboard-response","257","459282","0.0-6.0-1.12","","<img src=""img/green-r.png"" border=""10"">","null","trial","null","","0.4,0.6","4:nogo_d","1",""
"null","","html-keyboard-response","258","460285","0.0-6.0-2.12","","<div style=""font-size:60px;"">+</div>","null","","","","","","",""
"349.30000001192093","","image-keyboard-response","259","460636","0.0-6.0-0.13","","img/red.png","32","trial","32","true","0.6,0.4","3:go_c","",""
"null","","html-keyboard-response","260","461650","0.0-6.0-1.13","","<img src=""img/red-n.png"" border=""10"">","null","trial","32","","0.6,0.4","3:go_c","0",""
"null","","html-keyboard-response","261","462653","0.0-6.0-2.13","","<div style=""font-size:60px;"">+</div>","null","","","","","","",""
"493.40000000596046","","image-keyboard-response","262","463147","0.0-6.0-0.14","","img/purple.png","32","trial","32","true","0.6,0.4","1:go_a","",""
"null","","html-keyboard-response","263","464156","0.0-6.0-1.14","","<img src=""img/purple-r.png"" border=""10"">","null","trial","32","","0.6,0.4","1:go_a","1",""
"null","","html-keyboard-response","264","465159","0.0-6.0-2.14","","<div style=""font-size:60px;"">+</div>","null","","","","","","",""
"null","","image-keyboard-response","265","466662","0.0-6.0-0.15","","img/grey.png","null","trial","null","true","0.4,0.6","2:nogo_b","",""
"null","","html-keyboard-response","266","467664","0.0-6.0-1.15","","<img src=""img/grey-r.png"">","null","trial","null","","0.4,0.6","2:nogo_b","1",""
"null","","html-keyboard-response","267","468667","0.0-6.0-2.15","","<div style=""font-size:60px;"">+</div>","null","","","","","","",""
"519","","image-keyboard-response","268","469187","0.0-6.0-0.16","","img/red.png","32","trial","32","true","0.6,0.4","3:go_c","",""
"null","","html-keyboard-response","269","470209","0.0-6.0-1.16","","<img src=""img/red-r.png"" border=""10"">","null","trial","32","","0.6,0.4","3:go_c","1",""
"null","","html-keyboard-response","270","471212","0.0-6.0-2.16","","<div style=""font-size:60px;"">+</div>","null","","","","","","",""
"414.7999999821186","","image-keyboard-response","271","471628","0.0-6.0-0.17","","img/green.png","32","trial","null","false","0.4,0.6","4:nogo_d","",""
"null","","html-keyboard-response","272","472632","0.0-6.0-1.17","","<img src=""img/green-r.png"" border=""10"">","null","trial","null","","0.4,0.6","4:nogo_d","1",""
"null","","html-keyboard-response","273","473634","0.0-6.0-2.17","","<div style=""font-size:60px;"">+</div>","null","","","","","","",""
"335.90000000596046","","image-keyboard-response","274","473971","0.0-6.0-0.18","","img/purple.png","32","trial","32","true","0.6,0.4","1:go_a","",""
"null","","html-keyboard-response","275","474984","0.0-6.0-1.18","","<img src=""img/purple-n.png"" border=""10"">","null","trial","32","","0.6,0.4","1:go_a","0",""
"null","","html-keyboard-response","276","475987","0.0-6.0-2.18","","<div style=""font-size:60px;"">+</div>","null","","","","","","",""
"null","","image-keyboard-response","277","477490","0.0-6.0-0.19","","img/grey.png","null","trial","null","true","0.4,0.6","2:nogo_b","",""
"null","","html-keyboard-response","278","478493","0.0-6.0-1.19","","<img src=""img/grey-n.png"">","null","trial","null","","0.4,0.6","2:nogo_b","0",""
"null","","html-keyboard-response","279","479496","0.0-6.0-2.19","","<div style=""font-size:60px;"">+</div>","null","","","","","","",""
"410.5","","image-keyboard-response","280","479907","0.0-6.0-0.20","","img/red.png","32","trial","32","true","0.6,0.4","3:go_c","",""
"null","","html-keyboard-response","281","480914","0.0-6.0-1.20","","<img src=""img/red-r.png"" border=""10"">","null","trial","32","","0.6,0.4","3:go_c","1",""
"null","","html-keyboard-response","282","481917","0.0-6.0-2.20","","<div style=""font-size:60px;"">+</div>","null","","","","","","",""
"365","","image-keyboard-response","283","482284","0.0-6.0-0.21","","img/purple.png","32","trial","32","true","0.6,0.4","1:go_a","",""
"null","","html-keyboard-response","284","483290","0.0-6.0-1.21","","<img src=""img/purple-n.png"" border=""10"">","null","trial","32","","0.6,0.4","1:go_a","0",""
"null","","html-keyboard-response","285","484292","0.0-6.0-2.21","","<div style=""font-size:60px;"">+</div>","null","","","","","","",""
"429.5","","image-keyboard-response","286","484723","0.0-6.0-0.22","","img/green.png","32","trial","null","false","0.4,0.6","4:nogo_d","",""
"null","","html-keyboard-response","287","485727","0.0-6.0-1.22","","<img src=""img/green-r.png"" border=""10"">","null","trial","null","","0.4,0.6","4:nogo_d","1",""
"null","","html-keyboard-response","288","486730","0.0-6.0-2.22","","<div style=""font-size:60px;"">+</div>","null","","","","","","",""
"null","","image-keyboard-response","289","488235","0.0-6.0-0.23","","img/grey.png","null","trial","null","true","0.4,0.6","2:nogo_b","",""
"null","","html-keyboard-response","290","489238","0.0-6.0-1.23","","<img src=""img/grey-r.png"">","null","trial","null","","0.4,0.6","2:nogo_b","1",""
"null","","html-keyboard-response","291","490246","0.0-6.0-2.23","","<div style=""font-size:60px;"">+</div>","null","","","","","","",""
"324","","image-keyboard-response","292","490571","0.0-6.0-0.24","","img/red.png","32","trial","32","true","0.6,0.4","3:go_c","",""
"null","","html-keyboard-response","293","491581","0.0-6.0-1.24","","<img src=""img/red-n.png"" border=""10"">","null","trial","32","","0.6,0.4","3:go_c","0",""
"null","","html-keyboard-response","294","492584","0.0-6.0-2.24","","<div style=""font-size:60px;"">+</div>","null","","","","","","",""
"394.09999999403954","","image-keyboard-response","295","492980","0.0-6.0-0.25","","img/purple.png","32","trial","32","true","0.6,0.4","1:go_a","",""
"null","","html-keyboard-response","296","493987","0.0-6.0-1.25","","<img src=""img/purple-n.png"" border=""10"">","null","trial","32","","0.6,0.4","1:go_a","0",""
"null","","html-keyboard-response","297","494990","0.0-6.0-2.25","","<div style=""font-size:60px;"">+</div>","null","","","","","","",""
"371.7000000178814","","image-keyboard-response","298","495363","0.0-6.0-0.26","","img/green.png","32","trial","null","false","0.4,0.6","4:nogo_d","",""
"null","","html-keyboard-response","299","496379","0.0-6.0-1.26","","<img src=""img/green-n.png"" border=""10"">","null","trial","null","","0.4,0.6","4:nogo_d","0",""
"null","","html-keyboard-response","300","497382","0.0-6.0-2.26","","<div style=""font-size:60px;"">+</div>","null","","","","","","",""
"null","","image-keyboard-response","301","498886","0.0-6.0-0.27","","img/grey.png","null","trial","null","true","0.4,0.6","2:nogo_b","",""
"null","","html-keyboard-response","302","499890","0.0-6.0-1.27","","<img src=""img/grey-n.png"">","null","trial","null","","0.4,0.6","2:nogo_b","0",""
"null","","html-keyboard-response","303","500894","0.0-6.0-2.27","","<div style=""font-size:60px;"">+</div>","null","","","","","","",""
"556.4000000059605","","image-keyboard-response","304","501451","0.0-6.0-0.28","","img/red.png","32","trial","32","true","0.6,0.4","3:go_c","",""
"null","","html-keyboard-response","305","502455","0.0-6.0-1.28","","<img src=""img/red-r.png"" border=""10"">","null","trial","32","","0.6,0.4","3:go_c","1",""
"null","","html-keyboard-response","306","503458","0.0-6.0-2.28","","<div style=""font-size:60px;"">+</div>","null","","","","","","",""
"328.5","","image-keyboard-response","307","503788","0.0-6.0-0.29","","img/purple.png","32","trial","32","true","0.6,0.4","1:go_a","",""
"null","","html-keyboard-response","308","504799","0.0-6.0-1.29","","<img src=""img/purple-n.png"" border=""10"">","null","trial","32","","0.6,0.4","1:go_a","0",""
"null","","html-keyboard-response","309","505802","0.0-6.0-2.29","","<div style=""font-size:60px;"">+</div>","null","","","","","","",""
"null","","image-keyboard-response","310","507306","0.0-6.0-0.30","","img/grey.png","null","trial","null","true","0.4,0.6","2:nogo_b","",""
"null","","html-keyboard-response","311","508309","0.0-6.0-1.30","","<img src=""img/grey-r.png"">","null","trial","null","","0.4,0.6","2:nogo_b","1",""
"null","","html-keyboard-response","312","509311","0.0-6.0-2.30","","<div style=""font-size:60px;"">+</div>","null","","","","","","",""
"378","","image-keyboard-response","313","509691","0.0-6.0-0.31","","img/green.png","32","trial","null","false","0.4,0.6","4:nogo_d","",""
"null","","html-keyboard-response","314","510695","0.0-6.0-1.31","","<img src=""img/green-r.png"" border=""10"">","null","trial","null","","0.4,0.6","4:nogo_d","1",""
"null","","html-keyboard-response","315","511718","0.0-6.0-2.31","","<div style=""font-size:60px;"">+</div>","null","","","","","","",""
"524.5999999940395","","image-keyboard-response","316","512243","0.0-6.0-0.32","","img/red.png","32","trial","32","true","0.6,0.4","3:go_c","",""
"null","","html-keyboard-response","317","513253","0.0-6.0-1.32","","<img src=""img/red-r.png"" border=""10"">","null","trial","32","","0.6,0.4","3:go_c","1",""
"null","","html-keyboard-response","318","514256","0.0-6.0-2.32","","<div style=""font-size:60px;"">+</div>","null","","","","","","",""
"746.1999999880791","","image-keyboard-response","319","515003","0.0-6.0-0.33","","img/green.png","32","trial","null","false","0.4,0.6","4:nogo_d","",""
"null","","html-keyboard-response","320","516007","0.0-6.0-1.33","","<img src=""img/green-r.png"" border=""10"">","null","trial","null","","0.4,0.6","4:nogo_d","1",""
"null","","html-keyboard-response","321","517010","0.0-6.0-2.33","","<div style=""font-size:60px;"">+</div>","null","","","","","","",""
"null","","image-keyboard-response","322","518514","0.0-6.0-0.34","","img/grey.png","null","trial","null","true","0.4,0.6","2:nogo_b","",""
"null","","html-keyboard-response","323","519516","0.0-6.0-1.34","","<img src=""img/grey-n.png"">","null","trial","null","","0.4,0.6","2:nogo_b","0",""
"null","","html-keyboard-response","324","520518","0.0-6.0-2.34","","<div style=""font-size:60px;"">+</div>","null","","","","","","",""
"475.80000001192093","","image-keyboard-response","325","520995","0.0-6.0-0.35","","img/purple.png","32","trial","32","true","0.6,0.4","1:go_a","",""
"null","","html-keyboard-response","326","522012","0.0-6.0-1.35","","<img src=""img/purple-r.png"" border=""10"">","null","trial","32","","0.6,0.4","1:go_a","1",""
"null","","html-keyboard-response","327","523023","0.0-6.0-2.35","","<div style=""font-size:60px;"">+</div>","null","","","","","","",""
"null","","image-keyboard-response","328","524526","0.0-6.0-0.36","","img/grey.png","null","trial","null","true","0.4,0.6","2:nogo_b","",""
"null","","html-keyboard-response","329","525538","0.0-6.0-1.36","","<img src=""img/grey-n.png"">","null","trial","null","","0.4,0.6","2:nogo_b","0",""
"null","","html-keyboard-response","330","526543","0.0-6.0-2.36","","<div style=""font-size:60px;"">+</div>","null","","","","","","",""
"null","","image-keyboard-response","331","528062","0.0-6.0-0.37","","img/green.png","null","trial","null","true","0.4,0.6","4:nogo_d","",""
"null","","html-keyboard-response","332","529072","0.0-6.0-1.37","","<img src=""img/green-n.png"">","null","trial","null","","0.4,0.6","4:nogo_d","0",""
"null","","html-keyboard-response","333","530082","0.0-6.0-2.37","","<div style=""font-size:60px;"">+</div>","null","","","","","","",""
"null","","image-keyboard-response","334","531593","0.0-6.0-0.38","","img/red.png","null","trial","32","false","0.6,0.4","3:go_c","",""
"null","","html-keyboard-response","335","532595","0.0-6.0-1.38","","<img src=""img/red-n.png"">","null","trial","32","","0.6,0.4","3:go_c","0",""
"null","","html-keyboard-response","336","533597","0.0-6.0-2.38","","<div style=""font-size:60px;"">+</div>","null","","","","","","",""
"1085","","image-keyboard-response","337","534683","0.0-6.0-0.39","","img/purple.png","32","trial","32","true","0.6,0.4","1:go_a","",""
"null","","html-keyboard-response","338","535687","0.0-6.0-1.39","","<img src=""img/purple-n.png"" border=""10"">","null","trial","32","","0.6,0.4","1:go_a","0",""
"null","","html-keyboard-response","339","536690","0.0-6.0-2.39","","<div style=""font-size:60px;"">+</div>","null","","","","","","",""
"null","","image-keyboard-response","340","538193","0.0-6.0-0.40","","img/grey.png","null","trial","null","true","0.4,0.6","2:nogo_b","",""
"null","","html-keyboard-response","341","539196","0.0-6.0-1.40","","<img src=""img/grey-r.png"">","null","trial","null","","0.4,0.6","2:nogo_b","1",""
"null","","html-keyboard-response","342","540198","0.0-6.0-2.40","","<div style=""font-size:60px;"">+</div>","null","","","","","","",""
"540.4000000059605","","image-keyboard-response","343","540740","0.0-6.0-0.41","","img/green.png","32","trial","null","false","0.4,0.6","4:nogo_d","",""
"null","","html-keyboard-response","344","541755","0.0-6.0-1.41","","<img src=""img/green-n.png"" border=""10"">","null","trial","null","","0.4,0.6","4:nogo_d","0",""
"null","","html-keyboard-response","345","542759","0.0-6.0-2.41","","<div style=""font-size:60px;"">+</div>","null","","","","","","",""
"691.5","","image-keyboard-response","346","543452","0.0-6.0-0.42","","img/purple.png","32","trial","32","true","0.6,0.4","1:go_a","",""
"null","","html-keyboard-response","347","544464","0.0-6.0-1.42","","<img src=""img/purple-r.png"" border=""10"">","null","trial","32","","0.6,0.4","1:go_a","1",""
"null","","html-keyboard-response","348","545466","0.0-6.0-2.42","","<div style=""font-size:60px;"">+</div>","null","","","","","","",""
"383.59999999403954","","image-keyboard-response","349","545851","0.0-6.0-0.43","","img/red.png","32","trial","32","true","0.6,0.4","3:go_c","",""
"null","","html-keyboard-response","350","546871","0.0-6.0-1.43","","<img src=""img/red-r.png"" border=""10"">","null","trial","32","","0.6,0.4","3:go_c","1",""
"null","","html-keyboard-response","351","547874","0.0-6.0-2.43","","<div style=""font-size:60px;"">+</div>","null","","","","","","",""
"null","","image-keyboard-response","352","549378","0.0-6.0-0.44","","img/grey.png","null","trial","null","true","0.4,0.6","2:nogo_b","",""
"null","","html-keyboard-response","353","550381","0.0-6.0-1.44","","<img src=""img/grey-r.png"">","null","trial","null","","0.4,0.6","2:nogo_b","1",""
"null","","html-keyboard-response","354","551384","0.0-6.0-2.44","","<div style=""font-size:60px;"">+</div>","null","","","","","","",""
"498.10000002384186","","image-keyboard-response","355","551883","0.0-6.0-0.45","","img/purple.png","32","trial","32","true","0.6,0.4","1:go_a","",""
"null","","html-keyboard-response","356","552889","0.0-6.0-1.45","","<img src=""img/purple-n.png"" border=""10"">","null","trial","32","","0.6,0.4","1:go_a","0",""
"null","","html-keyboard-response","357","553891","0.0-6.0-2.45","","<div style=""font-size:60px;"">+</div>","null","","","","","","",""
"783.3999999761581","","image-keyboard-response","358","554676","0.0-6.0-0.46","","img/green.png","32","trial","null","false","0.4,0.6","4:nogo_d","",""
"null","","html-keyboard-response","359","555689","0.0-6.0-1.46","","<img src=""img/green-r.png"" border=""10"">","null","trial","null","","0.4,0.6","4:nogo_d","1",""
"null","","html-keyboard-response","360","556700","0.0-6.0-2.46","","<div style=""font-size:60px;"">+</div>","null","","","","","","",""
"894.1999999880791","","image-keyboard-response","361","557595","0.0-6.0-0.47","","img/red.png","32","trial","32","true","0.6,0.4","3:go_c","",""
"null","","html-keyboard-response","362","558605","0.0-6.0-1.47","","<img src=""img/red-r.png"" border=""10"">","null","trial","32","","0.6,0.4","3:go_c","1",""
"null","","html-keyboard-response","363","559608","0.0-6.0-2.47","","<div style=""font-size:60px;"">+</div>","null","","","","","","",""
"null","","image-keyboard-response","364","561126","0.0-6.0-0.48","","img/grey.png","null","trial","null","true","0.4,0.6","2:nogo_b","",""
"null","","html-keyboard-response","365","562128","0.0-6.0-1.48","","<img src=""img/grey-r.png"">","null","trial","null","","0.4,0.6","2:nogo_b","1",""
"null","","html-keyboard-response","366","563130","0.0-6.0-2.48","","<div style=""font-size:60px;"">+</div>","null","","","","","","",""
"393.80000001192093","","image-keyboard-response","367","563525","0.0-6.0-0.49","","img/green.png","32","trial","null","false","0.4,0.6","4:nogo_d","",""
"null","","html-keyboard-response","368","564534","0.0-6.0-1.49","","<img src=""img/green-n.png"" border=""10"">","null","trial","null","","0.4,0.6","4:nogo_d","0",""
"null","","html-keyboard-response","369","565536","0.0-6.0-2.49","","<div style=""font-size:60px;"">+</div>","null","","","","","","",""
"466.10000002384186","","image-keyboard-response","370","566004","0.0-6.0-0.50","","img/red.png","32","trial","32","true","0.6,0.4","3:go_c","",""
"null","","html-keyboard-response","371","567024","0.0-6.0-1.50","","<img src=""img/red-r.png"" border=""10"">","null","trial","32","","0.6,0.4","3:go_c","1",""
"null","","html-keyboard-response","372","568027","0.0-6.0-2.50","","<div style=""font-size:60px;"">+</div>","null","","","","","","",""
"null","","image-keyboard-response","373","569531","0.0-6.0-0.51","","img/purple.png","null","trial","32","false","0.6,0.4","1:go_a","",""
"null","","html-keyboard-response","374","570534","0.0-6.0-1.51","","<img src=""img/purple-r.png"">","null","trial","32","","0.6,0.4","1:go_a","1",""
"null","","html-keyboard-response","375","571537","0.0-6.0-2.51","","<div style=""font-size:60px;"">+</div>","null","","","","","","",""
"961.2000000178814","","image-keyboard-response","376","572499","0.0-6.0-0.52","","img/purple.png","32","trial","32","true","0.6,0.4","1:go_a","",""
"null","","html-keyboard-response","377","573505","0.0-6.0-1.52","","<img src=""img/purple-n.png"" border=""10"">","null","trial","32","","0.6,0.4","1:go_a","0",""
"null","","html-keyboard-response","378","574508","0.0-6.0-2.52","","<div style=""font-size:60px;"">+</div>","null","","","","","","",""
"582.2000000178814","","image-keyboard-response","379","575091","0.0-6.0-0.53","","img/green.png","32","trial","null","false","0.4,0.6","4:nogo_d","",""
"null","","html-keyboard-response","380","576096","0.0-6.0-1.53","","<img src=""img/green-n.png"" border=""10"">","null","trial","null","","0.4,0.6","4:nogo_d","0",""
"null","","html-keyboard-response","381","577099","0.0-6.0-2.53","","<div style=""font-size:60px;"">+</div>","null","","","","","","",""
"632.6999999880791","","image-keyboard-response","382","577733","0.0-6.0-0.54","","img/red.png","32","trial","32","true","0.6,0.4","3:go_c","",""
"null","","html-keyboard-response","383","578757","0.0-6.0-1.54","","<img src=""img/red-n.png"" border=""10"">","null","trial","32","","0.6,0.4","3:go_c","0",""
"null","","html-keyboard-response","384","579760","0.0-6.0-2.54","","<div style=""font-size:60px;"">+</div>","null","","","","","","",""
"null","","image-keyboard-response","385","581264","0.0-6.0-0.55","","img/grey.png","null","trial","null","true","0.4,0.6","2:nogo_b","",""
"null","","html-keyboard-response","386","582267","0.0-6.0-1.55","","<img src=""img/grey-r.png"">","null","trial","null","","0.4,0.6","2:nogo_b","1",""
"null","","html-keyboard-response","387","583271","0.0-6.0-2.55","","<div style=""font-size:60px;"">+</div>","null","","","","","","",""
"372.10000002384186","","image-keyboard-response","388","583644","0.0-6.0-0.56","","img/red.png","32","trial","32","true","0.6,0.4","3:go_c","",""
"null","","html-keyboard-response","389","584652","0.0-6.0-1.56","","<img src=""img/red-n.png"" border=""10"">","null","trial","32","","0.6,0.4","3:go_c","0",""
"null","","html-keyboard-response","390","585654","0.0-6.0-2.56","","<div style=""font-size:60px;"">+</div>","null","","","","","","",""
"669.1999999880791","","image-keyboard-response","391","586324","0.0-6.0-0.57","","img/purple.png","32","trial","32","true","0.6,0.4","1:go_a","",""
"null","","html-keyboard-response","392","587326","0.0-6.0-1.57","","<img src=""img/purple-n.png"" border=""10"">","null","trial","32","","0.6,0.4","1:go_a","0",""
"null","","html-keyboard-response","393","588345","0.0-6.0-2.57","","<div style=""font-size:60px;"">+</div>","null","","","","","","",""
"null","","image-keyboard-response","394","589849","0.0-6.0-0.58","","img/grey.png","null","trial","null","true","0.4,0.6","2:nogo_b","",""
"null","","html-keyboard-response","395","590852","0.0-6.0-1.58","","<img src=""img/grey-r.png"">","null","trial","null","","0.4,0.6","2:nogo_b","1",""
"null","","html-keyboard-response","396","591854","0.0-6.0-2.58","","<div style=""font-size:60px;"">+</div>","null","","","","","","",""
"548.6999999880791","","image-keyboard-response","397","592403","0.0-6.0-0.59","","img/green.png","32","trial","null","false","0.4,0.6","4:nogo_d","",""
"null","","html-keyboard-response","398","593410","0.0-6.0-1.59","","<img src=""img/green-n.png"" border=""10"">","null","trial","null","","0.4,0.6","4:nogo_d","0",""
"null","","html-keyboard-response","399","594414","0.0-6.0-2.59","","<div style=""font-size:60px;"">+</div>","null","","","","","","",""
"564.5","","image-keyboard-response","400","594979","0.0-6.0-0.60","","img/red.png","32","trial","32","true","0.6,0.4","3:go_c","",""
"null","","html-keyboard-response","401","596002","0.0-6.0-1.60","","<img src=""img/red-r.png"" border=""10"">","null","trial","32","","0.6,0.4","3:go_c","1",""
"null","","html-keyboard-response","402","597005","0.0-6.0-2.60","","<div style=""font-size:60px;"">+</div>","null","","","","","","",""
"null","","image-keyboard-response","403","598509","0.0-6.0-0.61","","img/grey.png","null","trial","null","true","0.4,0.6","2:nogo_b","",""
"null","","html-keyboard-response","404","599512","0.0-6.0-1.61","","<img src=""img/grey-n.png"">","null","trial","null","","0.4,0.6","2:nogo_b","0",""
"null","","html-keyboard-response","405","600515","0.0-6.0-2.61","","<div style=""font-size:60px;"">+</div>","null","","","","","","",""
"471.19999998807907","","image-keyboard-response","406","600988","0.0-6.0-0.62","","img/green.png","32","trial","null","false","0.4,0.6","4:nogo_d","",""
"null","","html-keyboard-response","407","601997","0.0-6.0-1.62","","<img src=""img/green-r.png"" border=""10"">","null","trial","null","","0.4,0.6","4:nogo_d","1",""
"null","","html-keyboard-response","408","602999","0.0-6.0-2.62","","<div style=""font-size:60px;"">+</div>","null","","","","","","",""
"null","","image-keyboard-response","409","604505","0.0-6.0-0.63","","img/purple.png","null","trial","32","false","0.6,0.4","1:go_a","",""
"null","","html-keyboard-response","410","605508","0.0-6.0-1.63","","<img src=""img/purple-r.png"">","null","trial","32","","0.6,0.4","1:go_a","1",""
"null","","html-keyboard-response","411","606510","0.0-6.0-2.63","","<div style=""font-size:60px;"">+</div>","null","","","","","","",""
"939.7000000178814","","image-keyboard-response","412","607451","0.0-6.0-0.64","","img/red.png","32","trial","32","true","0.6,0.4","3:go_c","",""
"null","","html-keyboard-response","413","608469","0.0-6.0-1.64","","<img src=""img/red-r.png"" border=""10"">","null","trial","32","","0.6,0.4","3:go_c","1",""
"null","","html-keyboard-response","414","609472","0.0-6.0-2.64","","<div style=""font-size:60px;"">+</div>","null","","","","","","",""
"null","","image-keyboard-response","415","610977","0.0-6.0-0.65","","img/green.png","null","trial","null","true","0.4,0.6","4:nogo_d","",""
"null","","html-keyboard-response","416","611994","0.0-6.0-1.65","","<img src=""img/green-r.png"">","null","trial","null","","0.4,0.6","4:nogo_d","1",""
"null","","html-keyboard-response","417","612997","0.0-6.0-2.65","","<div style=""font-size:60px;"">+</div>","null","","","","","","",""
"null","","image-keyboard-response","418","614501","0.0-6.0-0.66","","img/grey.png","null","trial","null","true","0.4,0.6","2:nogo_b","",""
"null","","html-keyboard-response","419","615503","0.0-6.0-1.66","","<img src=""img/grey-n.png"">","null","trial","null","","0.4,0.6","2:nogo_b","0",""
"null","","html-keyboard-response","420","616505","0.0-6.0-2.66","","<div style=""font-size:60px;"">+</div>","null","","","","","","",""
"513","","image-keyboard-response","421","617020","0.0-6.0-0.67","","img/purple.png","32","trial","32","true","0.6,0.4","1:go_a","",""
"null","","html-keyboard-response","422","618025","0.0-6.0-1.67","","<img src=""img/purple-n.png"" border=""10"">","null","trial","32","","0.6,0.4","1:go_a","0",""
"null","","html-keyboard-response","423","619028","0.0-6.0-2.67","","<div style=""font-size:60px;"">+</div>","null","","","","","","",""
"502.39999997615814","","image-keyboard-response","424","619531","0.0-6.0-0.68","","img/green.png","32","trial","null","false","0.4,0.6","4:nogo_d","",""
"null","","html-keyboard-response","425","620544","0.0-6.0-1.68","","<img src=""img/green-n.png"" border=""10"">","null","trial","null","","0.4,0.6","4:nogo_d","0",""
"null","","html-keyboard-response","426","621568","0.0-6.0-2.68","","<div style=""font-size:60px;"">+</div>","null","","","","","","",""
"null","","image-keyboard-response","427","623073","0.0-6.0-0.69","","img/purple.png","null","trial","32","false","0.6,0.4","1:go_a","",""
"null","","html-keyboard-response","428","624075","0.0-6.0-1.69","","<img src=""img/purple-n.png"">","null","trial","32","","0.6,0.4","1:go_a","0",""
"null","","html-keyboard-response","429","625078","0.0-6.0-2.69","","<div style=""font-size:60px;"">+</div>","null","","","","","","",""
"356","","image-keyboard-response","430","625435","0.0-6.0-0.70","","img/red.png","32","trial","32","true","0.6,0.4","3:go_c","",""
"null","","html-keyboard-response","431","626444","0.0-6.0-1.70","","<img src=""img/red-r.png"" border=""10"">","null","trial","32","","0.6,0.4","3:go_c","1",""
"null","","html-keyboard-response","432","627447","0.0-6.0-2.70","","<div style=""font-size:60px;"">+</div>","null","","","","","","",""
"null","","image-keyboard-response","433","628951","0.0-6.0-0.71","","img/grey.png","null","trial","null","true","0.4,0.6","2:nogo_b","",""
"null","","html-keyboard-response","434","629954","0.0-6.0-1.71","","<img src=""img/grey-r.png"">","null","trial","null","","0.4,0.6","2:nogo_b","1",""
"null","","html-keyboard-response","435","630956","0.0-6.0-2.71","","<div style=""font-size:60px;"">+</div>","null","","","","","","",""
"null","","image-keyboard-response","436","632460","0.0-6.0-0.72","","img/green.png","null","trial","null","true","0.4,0.6","4:nogo_d","",""
"null","","html-keyboard-response","437","633463","0.0-6.0-1.72","","<img src=""img/green-n.png"">","null","trial","null","","0.4,0.6","4:nogo_d","0",""
"null","","html-keyboard-response","438","634466","0.0-6.0-2.72","","<div style=""font-size:60px;"">+</div>","null","","","","","","",""
"null","","image-keyboard-response","439","635969","0.0-6.0-0.73","","img/grey.png","null","trial","null","true","0.4,0.6","2:nogo_b","",""
"null","","html-keyboard-response","440","636972","0.0-6.0-1.73","","<img src=""img/grey-n.png"">","null","trial","null","","0.4,0.6","2:nogo_b","0",""
"null","","html-keyboard-response","441","637975","0.0-6.0-2.73","","<div style=""font-size:60px;"">+</div>","null","","","","","","",""
"906.1000000238419","","image-keyboard-response","442","638883","0.0-6.0-0.74","","img/purple.png","32","trial","32","true","0.6,0.4","1:go_a","",""
"null","","html-keyboard-response","443","639895","0.0-6.0-1.74","","<img src=""img/purple-r.png"" border=""10"">","null","trial","32","","0.6,0.4","1:go_a","1",""
"null","","html-keyboard-response","444","640897","0.0-6.0-2.74","","<div style=""font-size:60px;"">+</div>","null","","","","","","",""
"1168.4000000059605","","image-keyboard-response","445","642066","0.0-6.0-0.75","","img/red.png","32","trial","32","true","0.6,0.4","3:go_c","",""
"null","","html-keyboard-response","446","643072","0.0-6.0-1.75","","<img src=""img/red-r.png"" border=""10"">","null","trial","32","","0.6,0.4","3:go_c","1",""
"null","","html-keyboard-response","447","644075","0.0-6.0-2.75","","<div style=""font-size:60px;"">+</div>","null","","","","","","",""
"null","","image-keyboard-response","448","645578","0.0-6.0-0.76","","img/purple.png","null","trial","32","false","0.6,0.4","1:go_a","",""
"null","","html-keyboard-response","449","646582","0.0-6.0-1.76","","<img src=""img/purple-n.png"">","null","trial","32","","0.6,0.4","1:go_a","0",""
"null","","html-keyboard-response","450","647584","0.0-6.0-2.76","","<div style=""font-size:60px;"">+</div>","null","","","","","","",""
"null","","image-keyboard-response","451","649088","0.0-6.0-0.77","","img/grey.png","null","trial","null","true","0.4,0.6","2:nogo_b","",""
"null","","html-keyboard-response","452","650095","0.0-6.0-1.77","","<img src=""img/grey-n.png"">","null","trial","null","","0.4,0.6","2:nogo_b","0",""
"null","","html-keyboard-response","453","651109","0.0-6.0-2.77","","<div style=""font-size:60px;"">+</div>","null","","","","","","",""
"917.5","","image-keyboard-response","454","652028","0.0-6.0-0.78","","img/green.png","32","trial","null","false","0.4,0.6","4:nogo_d","",""
"null","","html-keyboard-response","455","653030","0.0-6.0-1.78","","<img src=""img/green-r.png"" border=""10"">","null","trial","null","","0.4,0.6","4:nogo_d","1",""
"null","","html-keyboard-response","456","654034","0.0-6.0-2.78","","<div style=""font-size:60px;"">+</div>","null","","","","","","",""
"464.09999999403954","","image-keyboard-response","457","654499","0.0-6.0-0.79","","img/red.png","32","trial","32","true","0.6,0.4","3:go_c","",""
"null","","html-keyboard-response","458","655506","0.0-6.0-1.79","","<img src=""img/red-n.png"" border=""10"">","null","trial","32","","0.6,0.4","3:go_c","0",""
"null","","html-keyboard-response","459","656509","0.0-6.0-2.79","","<div style=""font-size:60px;"">+</div>","null","","","","","","",""
"468.89999997615814","","image-keyboard-response","460","656979","0.0-6.0-0.80","","img/green.png","32","trial","null","false","0.4,0.6","4:nogo_d","",""
"null","","html-keyboard-response","461","657982","0.0-6.0-1.80","","<img src=""img/green-n.png"" border=""10"">","null","trial","null","","0.4,0.6","4:nogo_d","0",""
"null","","html-keyboard-response","462","658985","0.0-6.0-2.80","","<div style=""font-size:60px;"">+</div>","null","","","","","","",""
"null","","image-keyboard-response","463","660489","0.0-6.0-0.81","","img/grey.png","null","trial","null","true","0.4,0.6","2:nogo_b","",""
"null","","html-keyboard-response","464","661492","0.0-6.0-1.81","","<img src=""img/grey-n.png"">","null","trial","null","","0.4,0.6","2:nogo_b","0",""
"null","","html-keyboard-response","465","662495","0.0-6.0-2.81","","<div style=""font-size:60px;"">+</div>","null","","","","","","",""
"null","","image-keyboard-response","466","663999","0.0-6.0-0.82","","img/purple.png","null","trial","32","false","0.6,0.4","1:go_a","",""
"null","","html-keyboard-response","467","665002","0.0-6.0-1.82","","<img src=""img/purple-r.png"">","null","trial","32","","0.6,0.4","1:go_a","1",""
"null","","html-keyboard-response","468","666005","0.0-6.0-2.82","","<div style=""font-size:60px;"">+</div>","null","","","","","","",""
"381.40000000596046","","image-keyboard-response","469","666387","0.0-6.0-0.83","","img/red.png","32","trial","32","true","0.6,0.4","3:go_c","",""
"null","","html-keyboard-response","470","667393","0.0-6.0-1.83","","<img src=""img/red-r.png"" border=""10"">","null","trial","32","","0.6,0.4","3:go_c","1",""
"null","","html-keyboard-response","471","668395","0.0-6.0-2.83","","<div style=""font-size:60px;"">+</div>","null","","","","","","",""
"517.6999999880791","","image-keyboard-response","472","668914","0.0-6.0-0.84","","img/green.png","32","trial","null","false","0.4,0.6","4:nogo_d","",""
"null","","html-keyboard-response","473","669931","0.0-6.0-1.84","","<img src=""img/green-r.png"" border=""10"">","null","trial","null","","0.4,0.6","4:nogo_d","1",""
"null","","html-keyboard-response","474","670934","0.0-6.0-2.84","","<div style=""font-size:60px;"">+</div>","null","","","","","","",""
"380.59999999403954","","image-keyboard-response","475","671315","0.0-6.0-0.85","","img/red.png","32","trial","32","true","0.6,0.4","3:go_c","",""
"null","","html-keyboard-response","476","672322","0.0-6.0-1.85","","<img src=""img/red-r.png"" border=""10"">","null","trial","32","","0.6,0.4","3:go_c","1",""
"null","","html-keyboard-response","477","673339","0.0-6.0-2.85","","<div style=""font-size:60px;"">+</div>","null","","","","","","",""
"503.09999999403954","","image-keyboard-response","478","673843","0.0-6.0-0.86","","img/purple.png","32","trial","32","true","0.6,0.4","1:go_a","",""
"null","","html-keyboard-response","479","674857","0.0-6.0-1.86","","<img src=""img/purple-n.png"" border=""10"">","null","trial","32","","0.6,0.4","1:go_a","0",""
"null","","html-keyboard-response","480","675860","0.0-6.0-2.86","","<div style=""font-size:60px;"">+</div>","null","","","","","","",""
"null","","image-keyboard-response","481","677365","0.0-6.0-0.87","","img/grey.png","null","trial","null","true","0.4,0.6","2:nogo_b","",""
"null","","html-keyboard-response","482","678368","0.0-6.0-1.87","","<img src=""img/grey-r.png"">","null","trial","null","","0.4,0.6","2:nogo_b","1",""
"null","","html-keyboard-response","483","679371","0.0-6.0-2.87","","<div style=""font-size:60px;"">+</div>","null","","","","","","",""
"null","","image-keyboard-response","484","680875","0.0-6.0-0.88","","img/grey.png","null","trial","null","true","0.4,0.6","2:nogo_b","",""
"null","","html-keyboard-response","485","681890","0.0-6.0-1.88","","<img src=""img/grey-n.png"">","null","trial","null","","0.4,0.6","2:nogo_b","0",""
"null","","html-keyboard-response","486","682893","0.0-6.0-2.88","","<div style=""font-size:60px;"">+</div>","null","","","","","","",""
"589.4000000059605","","image-keyboard-response","487","683483","0.0-6.0-0.89","","img/purple.png","32","trial","32","true","0.6,0.4","1:go_a","",""
"null","","html-keyboard-response","488","684497","0.0-6.0-1.89","","<img src=""img/purple-n.png"" border=""10"">","null","trial","32","","0.6,0.4","1:go_a","0",""
"null","","html-keyboard-response","489","685499","0.0-6.0-2.89","","<div style=""font-size:60px;"">+</div>","null","","","","","","",""
"598.3000000119209","","image-keyboard-response","490","686099","0.0-6.0-0.90","","img/green.png","32","trial","null","false","0.4,0.6","4:nogo_d","",""
"null","","html-keyboard-response","491","687104","0.0-6.0-1.90","","<img src=""img/green-n.png"" border=""10"">","null","trial","null","","0.4,0.6","4:nogo_d","0",""
"null","","html-keyboard-response","492","688107","0.0-6.0-2.90","","<div style=""font-size:60px;"">+</div>","null","","","","","","",""
"416","","image-keyboard-response","493","688524","0.0-6.0-0.91","","img/red.png","32","trial","32","true","0.6,0.4","3:go_c","",""
"null","","html-keyboard-response","494","689548","0.0-6.0-1.91","","<img src=""img/red-n.png"" border=""10"">","null","trial","32","","0.6,0.4","3:go_c","0",""
"null","","html-keyboard-response","495","690551","0.0-6.0-2.91","","<div style=""font-size:60px;"">+</div>","null","","","","","","",""
"null","","image-keyboard-response","496","692055","0.0-6.0-0.92","","img/grey.png","null","trial","null","true","0.4,0.6","2:nogo_b","",""
"null","","html-keyboard-response","497","693058","0.0-6.0-1.92","","<img src=""img/grey-n.png"">","null","trial","null","","0.4,0.6","2:nogo_b","0",""
"null","","html-keyboard-response","498","694061","0.0-6.0-2.92","","<div style=""font-size:60px;"">+</div>","null","","","","","","",""
"797.1999999880791","","image-keyboard-response","499","694859","0.0-6.0-0.93","","img/purple.png","32","trial","32","true","0.6,0.4","1:go_a","",""
"null","","html-keyboard-response","500","695866","0.0-6.0-1.93","","<img src=""img/purple-r.png"" border=""10"">","null","trial","32","","0.6,0.4","1:go_a","1",""
"null","","html-keyboard-response","501","696884","0.0-6.0-2.93","","<div style=""font-size:60px;"">+</div>","null","","","","","","",""
"453.2999999821186","","image-keyboard-response","502","697339","0.0-6.0-0.94","","img/red.png","32","trial","32","true","0.6,0.4","3:go_c","",""
"null","","html-keyboard-response","503","698360","0.0-6.0-1.94","","<img src=""img/red-r.png"" border=""10"">","null","trial","32","","0.6,0.4","3:go_c","1",""
"null","","html-keyboard-response","504","699375","0.0-6.0-2.94","","<div style=""font-size:60px;"">+</div>","null","","","","","","",""
"635","","image-keyboard-response","505","700011","0.0-6.0-0.95","","img/green.png","32","trial","null","false","0.4,0.6","4:nogo_d","",""
"null","","html-keyboard-response","506","701014","0.0-6.0-1.95","","<img src=""img/green-r.png"" border=""10"">","null","trial","null","","0.4,0.6","4:nogo_d","1",""
"null","","html-keyboard-response","507","702020","0.0-6.0-2.95","","<div style=""font-size:60px;"">+</div>","null","","","","","","",""
"null","","image-keyboard-response","508","703524","0.0-6.0-0.96","","img/grey.png","null","trial","null","true","0.4,0.6","2:nogo_b","",""
"null","","html-keyboard-response","509","704545","0.0-6.0-1.96","","<img src=""img/grey-n.png"">","null","trial","null","","0.4,0.6","2:nogo_b","0",""
"null","","html-keyboard-response","510","705564","0.0-6.0-2.96","","<div style=""font-size:60px;"">+</div>","null","","","","","","",""
"309.59999999403954","","image-keyboard-response","511","705876","0.0-6.0-0.97","","img/red.png","32","trial","32","true","0.6,0.4","3:go_c","",""
"null","","html-keyboard-response","512","706895","0.0-6.0-1.97","","<img src=""img/red-r.png"" border=""10"">","null","trial","32","","0.6,0.4","3:go_c","1",""
"null","","html-keyboard-response","513","707915","0.0-6.0-2.97","","<div style=""font-size:60px;"">+</div>","null","","","","","","",""
"423.5","","image-keyboard-response","514","708339","0.0-6.0-0.98","","img/purple.png","32","trial","32","true","0.6,0.4","1:go_a","",""
"null","","html-keyboard-response","515","709355","0.0-6.0-1.98","","<img src=""img/purple-r.png"" border=""10"">","null","trial","32","","0.6,0.4","1:go_a","1",""
"null","","html-keyboard-response","516","710358","0.0-6.0-2.98","","<div style=""font-size:60px;"">+</div>","null","","","","","","",""
"507.89999997615814","","image-keyboard-response","517","710867","0.0-6.0-0.99","","img/green.png","32","trial","null","false","0.4,0.6","4:nogo_d","",""
"null","","html-keyboard-response","518","711884","0.0-6.0-1.99","","<img src=""img/green-r.png"" border=""10"">","null","trial","null","","0.4,0.6","4:nogo_d","1",""
"null","","html-keyboard-response","519","712887","0.0-6.0-2.99","","<div style=""font-size:60px;"">+</div>","null","","","","","","",""
"457.59999999403954","","image-keyboard-response","520","713347","0.0-6.0-0.100","","img/purple.png","32","trial","32","true","0.6,0.4","1:go_a","",""
"null","","html-keyboard-response","521","714353","0.0-6.0-1.100","","<img src=""img/purple-n.png"" border=""10"">","null","trial","32","","0.6,0.4","1:go_a","0",""
"null","","html-keyboard-response","522","715355","0.0-6.0-2.100","","<div style=""font-size:60px;"">+</div>","null","","","","","","",""
"null","","image-keyboard-response","523","716859","0.0-6.0-0.101","","img/grey.png","null","trial","null","true","0.4,0.6","2:nogo_b","",""
"null","","html-keyboard-response","524","717877","0.0-6.0-1.101","","<img src=""img/grey-n.png"">","null","trial","null","","0.4,0.6","2:nogo_b","0",""
"null","","html-keyboard-response","525","718880","0.0-6.0-2.101","","<div style=""font-size:60px;"">+</div>","null","","","","","","",""
"472.69999998807907","","image-keyboard-response","526","719354","0.0-6.0-0.102","","img/green.png","32","trial","null","false","0.4,0.6","4:nogo_d","",""
"null","","html-keyboard-response","527","720370","0.0-6.0-1.102","","<img src=""img/green-n.png"" border=""10"">","null","trial","null","","0.4,0.6","4:nogo_d","0",""
"null","","html-keyboard-response","528","721372","0.0-6.0-2.102","","<div style=""font-size:60px;"">+</div>","null","","","","","","",""
"477.40000000596046","","image-keyboard-response","529","721851","0.0-6.0-0.103","","img/red.png","32","trial","32","true","0.6,0.4","3:go_c","",""
"null","","html-keyboard-response","530","722860","0.0-6.0-1.103","","<img src=""img/red-r.png"" border=""10"">","null","trial","32","","0.6,0.4","3:go_c","1",""
"null","","html-keyboard-response","531","723863","0.0-6.0-2.103","","<div style=""font-size:60px;"">+</div>","null","","","","","","",""
"547","","image-keyboard-response","532","724412","0.0-6.0-0.104","","img/purple.png","32","trial","32","true","0.6,0.4","1:go_a","",""
"null","","html-keyboard-response","533","725420","0.0-6.0-1.104","","<img src=""img/purple-r.png"" border=""10"">","null","trial","32","","0.6,0.4","1:go_a","1",""
"null","","html-keyboard-response","534","726423","0.0-6.0-2.104","","<div style=""font-size:60px;"">+</div>","null","","","","","","",""
"410.09999999403954","","image-keyboard-response","535","726835","0.0-6.0-0.105","","img/red.png","32","trial","32","true","0.6,0.4","3:go_c","",""
"null","","html-keyboard-response","536","727843","0.0-6.0-1.105","","<img src=""img/red-r.png"" border=""10"">","null","trial","32","","0.6,0.4","3:go_c","1",""
"null","","html-keyboard-response","537","728846","0.0-6.0-2.105","","<div style=""font-size:60px;"">+</div>","null","","","","","","",""
"659.5999999940395","","image-keyboard-response","538","729507","0.0-6.0-0.106","","img/green.png","32","trial","null","false","0.4,0.6","4:nogo_d","",""
"null","","html-keyboard-response","539","730514","0.0-6.0-1.106","","<img src=""img/green-r.png"" border=""10"">","null","trial","null","","0.4,0.6","4:nogo_d","1",""
"null","","html-keyboard-response","540","731516","0.0-6.0-2.106","","<div style=""font-size:60px;"">+</div>","null","","","","","","",""
"null","","image-keyboard-response","541","733020","0.0-6.0-0.107","","img/grey.png","null","trial","null","true","0.4,0.6","2:nogo_b","",""
"null","","html-keyboard-response","542","734023","0.0-6.0-1.107","","<img src=""img/grey-r.png"">","null","trial","null","","0.4,0.6","2:nogo_b","1",""
"null","","html-keyboard-response","543","735026","0.0-6.0-2.107","","<div style=""font-size:60px;"">+</div>","null","","","","","","",""
"null","","image-keyboard-response","544","736531","0.0-6.0-0.108","","img/grey.png","null","trial","null","true","0.4,0.6","2:nogo_b","",""
"null","","html-keyboard-response","545","737534","0.0-6.0-1.108","","<img src=""img/grey-n.png"">","null","trial","null","","0.4,0.6","2:nogo_b","0",""
"null","","html-keyboard-response","546","738537","0.0-6.0-2.108","","<div style=""font-size:60px;"">+</div>","null","","","","","","",""
"416.7999999821186","","image-keyboard-response","547","738955","0.0-6.0-0.109","","img/green.png","32","trial","null","false","0.4,0.6","4:nogo_d","",""
"null","","html-keyboard-response","548","739970","0.0-6.0-1.109","","<img src=""img/green-n.png"" border=""10"">","null","trial","null","","0.4,0.6","4:nogo_d","0",""
"null","","html-keyboard-response","549","740978","0.0-6.0-2.109","","<div style=""font-size:60px;"">+</div>","null","","","","","","",""
"568.5","","image-keyboard-response","550","741548","0.0-6.0-0.110","","img/purple.png","32","trial","32","true","0.6,0.4","1:go_a","",""
"null","","html-keyboard-response","551","742567","0.0-6.0-1.110","","<img src=""img/purple-r.png"" border=""10"">","null","trial","32","","0.6,0.4","1:go_a","1",""
"null","","html-keyboard-response","552","743570","0.0-6.0-2.110","","<div style=""font-size:60px;"">+</div>","null","","","","","","",""
"359.7000000178814","","image-keyboard-response","553","743931","0.0-6.0-0.111","","img/red.png","32","trial","32","true","0.6,0.4","3:go_c","",""
"null","","html-keyboard-response","554","744935","0.0-6.0-1.111","","<img src=""img/red-r.png"" border=""10"">","null","trial","32","","0.6,0.4","3:go_c","1",""
"null","","html-keyboard-response","555","745938","0.0-6.0-2.111","","<div style=""font-size:60px;"">+</div>","null","","","","","","",""
"423.19999998807907","","image-keyboard-response","556","746363","0.0-6.0-0.112","","img/green.png","32","trial","null","false","0.4,0.6","4:nogo_d","",""
"null","","html-keyboard-response","557","747379","0.0-6.0-1.112","","<img src=""img/green-r.png"" border=""10"">","null","trial","null","","0.4,0.6","4:nogo_d","1",""
"null","","html-keyboard-response","558","748382","0.0-6.0-2.112","","<div style=""font-size:60px;"">+</div>","null","","","","","","",""
"538.8000000119209","","image-keyboard-response","559","748922","0.0-6.0-0.113","","img/red.png","32","trial","32","true","0.6,0.4","3:go_c","",""
"null","","html-keyboard-response","560","749932","0.0-6.0-1.113","","<img src=""img/red-r.png"" border=""10"">","null","trial","32","","0.6,0.4","3:go_c","1",""
"null","","html-keyboard-response","561","750936","0.0-6.0-2.113","","<div style=""font-size:60px;"">+</div>","null","","","","","","",""
"null","","image-keyboard-response","562","752440","0.0-6.0-0.114","","img/grey.png","null","trial","null","true","0.4,0.6","2:nogo_b","",""
"null","","html-keyboard-response","563","753458","0.0-6.0-1.114","","<img src=""img/grey-r.png"">","null","trial","null","","0.4,0.6","2:nogo_b","1",""
"null","","html-keyboard-response","564","754461","0.0-6.0-2.114","","<div style=""font-size:60px;"">+</div>","null","","","","","","",""
"693.5","","image-keyboard-response","565","755156","0.0-6.0-0.115","","img/purple.png","32","trial","32","true","0.6,0.4","1:go_a","",""
"null","","html-keyboard-response","566","756165","0.0-6.0-1.115","","<img src=""img/purple-n.png"" border=""10"">","null","trial","32","","0.6,0.4","1:go_a","0",""
"null","","html-keyboard-response","567","757184","0.0-6.0-2.115","","<div style=""font-size:60px;"">+</div>","null","","","","","","",""
"786","","image-keyboard-response","568","757971","0.0-6.0-0.116","","img/purple.png","32","trial","32","true","0.6,0.4","1:go_a","",""
"null","","html-keyboard-response","569","758988","0.0-6.0-1.116","","<img src=""img/purple-r.png"" border=""10"">","null","trial","32","","0.6,0.4","1:go_a","1",""
"null","","html-keyboard-response","570","759990","0.0-6.0-2.116","","<div style=""font-size:60px;"">+</div>","null","","","","","","",""
"null","","image-keyboard-response","571","761494","0.0-6.0-0.117","","img/grey.png","null","trial","null","true","0.4,0.6","2:nogo_b","",""
"null","","html-keyboard-response","572","762497","0.0-6.0-1.117","","<img src=""img/grey-r.png"">","null","trial","null","","0.4,0.6","2:nogo_b","1",""
"null","","html-keyboard-response","573","763500","0.0-6.0-2.117","","<div style=""font-size:60px;"">+</div>","null","","","","","","",""
"318.19999998807907","","image-keyboard-response","574","763819","0.0-6.0-0.118","","img/red.png","32","trial","32","true","0.6,0.4","3:go_c","",""
"null","","html-keyboard-response","575","764825","0.0-6.0-1.118","","<img src=""img/red-n.png"" border=""10"">","null","trial","32","","0.6,0.4","3:go_c","0",""
"null","","html-keyboard-response","576","765828","0.0-6.0-2.118","","<div style=""font-size:60px;"">+</div>","null","","","","","","",""
"397.90000000596046","","image-keyboard-response","577","766228","0.0-6.0-0.119","","img/green.png","32","trial","null","false","0.4,0.6","4:nogo_d","",""
"null","","html-keyboard-response","578","767233","0.0-6.0-1.119","","<img src=""img/green-n.png"" border=""10"">","null","trial","null","","0.4,0.6","4:nogo_d","0",""
"null","","html-keyboard-response","579","768236","0.0-6.0-2.119","","<div style=""font-size:60px;"">+</div>","null","","","","","","",""
"3702.5","","instructions","580","771939","0.0-7.0","[{""page_index"":0,""viewing_time"":3702.199999988079}]","","","","","","","","",""
"1191.7000000178814","","image-keyboard-response","581","773131","0.0-8.0-0.0","","img/yellow.png","32","trial","null","false","0.2,0.8","4:nogo_d","",""
"null","","html-keyboard-response","582","774148","0.0-8.0-1.0","","<img src=""img/yellow-n.png"" border=""10"">","null","trial","null","","0.2,0.8","4:nogo_d","0",""
"null","","html-keyboard-response","583","775150","0.0-8.0-2.0","","<div style=""font-size:60px;"">+</div>","null","","","","","","",""
"323.69999998807907","","image-keyboard-response","584","775475","0.0-8.0-0.1","","img/green.png","32","trial","32","true","0.8,0.2","1:go_a","",""
"null","","html-keyboard-response","585","776485","0.0-8.0-1.1","","<img src=""img/green-r.png"" border=""10"">","null","trial","32","","0.8,0.2","1:go_a","1",""
"null","","html-keyboard-response","586","777489","0.0-8.0-2.1","","<div style=""font-size:60px;"">+</div>","null","","","","","","",""
"393.59999999403954","","image-keyboard-response","587","777884","0.0-8.0-0.2","","img/purple.png","32","trial","32","true","0.8,0.2","3:go_c","",""
"null","","html-keyboard-response","588","778892","0.0-8.0-1.2","","<img src=""img/purple-r.png"" border=""10"">","null","trial","32","","0.8,0.2","3:go_c","1",""
"null","","html-keyboard-response","589","779895","0.0-8.0-2.2","","<div style=""font-size:60px;"">+</div>","null","","","","","","",""
"1033.5999999940395","","image-keyboard-response","590","780931","0.0-8.0-0.3","","img/grey.png","32","trial","null","false","0.2,0.8","2:nogo_b","",""
"null","","html-keyboard-response","591","781947","0.0-8.0-1.3","","<img src=""img/grey-n.png"" border=""10"">","null","trial","null","","0.2,0.8","2:nogo_b","0",""
"null","","html-keyboard-response","592","782950","0.0-8.0-2.3","","<div style=""font-size:60px;"">+</div>","null","","","","","","",""
"null","","image-keyboard-response","593","784455","0.0-8.0-0.4","","img/grey.png","null","trial","null","true","0.2,0.8","2:nogo_b","",""
"null","","html-keyboard-response","594","785458","0.0-8.0-1.4","","<img src=""img/grey-r.png"">","null","trial","null","","0.2,0.8","2:nogo_b","1",""
"null","","html-keyboard-response","595","786461","0.0-8.0-2.4","","<div style=""font-size:60px;"">+</div>","null","","","","","","",""
"796.9000000059605","","image-keyboard-response","596","787259","0.0-8.0-0.5","","img/yellow.png","32","trial","null","false","0.2,0.8","4:nogo_d","",""
"null","","html-keyboard-response","597","788266","0.0-8.0-1.5","","<img src=""img/yellow-n.png"" border=""10"">","null","trial","null","","0.2,0.8","4:nogo_d","0",""
"null","","html-keyboard-response","598","789268","0.0-8.0-2.5","","<div style=""font-size:60px;"">+</div>","null","","","","","","",""
"541.9000000059605","","image-keyboard-response","599","789812","0.0-8.0-0.6","","img/purple.png","32","trial","32","true","0.8,0.2","3:go_c","",""
"null","","html-keyboard-response","600","790826","0.0-8.0-1.6","","<img src=""img/purple-r.png"" border=""10"">","null","trial","32","","0.8,0.2","3:go_c","1",""
"null","","html-keyboard-response","601","791829","0.0-8.0-2.6","","<div style=""font-size:60px;"">+</div>","null","","","","","","",""
"612.6999999880791","","image-keyboard-response","602","792443","0.0-8.0-0.7","","img/green.png","32","trial","32","true","0.8,0.2","1:go_a","",""
"null","","html-keyboard-response","603","793449","0.0-8.0-1.7","","<img src=""img/green-r.png"" border=""10"">","null","trial","32","","0.8,0.2","1:go_a","1",""
"null","","html-keyboard-response","604","794452","0.0-8.0-2.7","","<div style=""font-size:60px;"">+</div>","null","","","","","","",""
"445.90000000596046","","image-keyboard-response","605","794899","0.0-8.0-0.8","","img/green.png","32","trial","32","true","0.8,0.2","1:go_a","",""
"null","","html-keyboard-response","606","795909","0.0-8.0-1.8","","<img src=""img/green-n.png"" border=""10"">","null","trial","32","","0.8,0.2","1:go_a","0",""
"null","","html-keyboard-response","607","796912","0.0-8.0-2.8","","<div style=""font-size:60px;"">+</div>","null","","","","","","",""
"450.09999999403954","","image-keyboard-response","608","797363","0.0-8.0-0.9","","img/purple.png","32","trial","32","true","0.8,0.2","3:go_c","",""
"null","","html-keyboard-response","609","798378","0.0-8.0-1.9","","<img src=""img/purple-n.png"" border=""10"">","null","trial","32","","0.8,0.2","3:go_c","0",""
"null","","html-keyboard-response","610","799380","0.0-8.0-2.9","","<div style=""font-size:60px;"">+</div>","null","","","","","","",""
"null","","image-keyboard-response","611","800894","0.0-8.0-0.10","","img/grey.png","null","trial","null","true","0.2,0.8","2:nogo_b","",""
"null","","html-keyboard-response","612","801902","0.0-8.0-1.10","","<img src=""img/grey-r.png"">","null","trial","null","","0.2,0.8","2:nogo_b","1",""
"null","","html-keyboard-response","613","802905","0.0-8.0-2.10","","<div style=""font-size:60px;"">+</div>","null","","","","","","",""
"481.30000001192093","","image-keyboard-response","614","803388","0.0-8.0-0.11","","img/yellow.png","32","trial","null","false","0.2,0.8","4:nogo_d","",""
"null","","html-keyboard-response","615","804394","0.0-8.0-1.11","","<img src=""img/yellow-r.png"" border=""10"">","null","trial","null","","0.2,0.8","4:nogo_d","1",""
"null","","html-keyboard-response","616","805396","0.0-8.0-2.11","","<div style=""font-size:60px;"">+</div>","null","","","","","","",""
"886.0999999940395","","image-keyboard-response","617","806283","0.0-8.0-0.12","","img/purple.png","32","trial","32","true","0.8,0.2","3:go_c","",""
"null","","html-keyboard-response","618","807285","0.0-8.0-1.12","","<img src=""img/purple-r.png"" border=""10"">","null","trial","32","","0.8,0.2","3:go_c","1",""
"null","","html-keyboard-response","619","808287","0.0-8.0-2.12","","<div style=""font-size:60px;"">+</div>","null","","","","","","",""
"null","","image-keyboard-response","620","809791","0.0-8.0-0.13","","img/grey.png","null","trial","null","true","0.2,0.8","2:nogo_b","",""
"null","","html-keyboard-response","621","810809","0.0-8.0-1.13","","<img src=""img/grey-n.png"">","null","trial","null","","0.2,0.8","2:nogo_b","0",""
"null","","html-keyboard-response","622","811812","0.0-8.0-2.13","","<div style=""font-size:60px;"">+</div>","null","","","","","","",""
"478.09999999403954","","image-keyboard-response","623","812291","0.0-8.0-0.14","","img/yellow.png","32","trial","null","false","0.2,0.8","4:nogo_d","",""
"null","","html-keyboard-response","624","813300","0.0-8.0-1.14","","<img src=""img/yellow-r.png"" border=""10"">","null","trial","null","","0.2,0.8","4:nogo_d","1",""
"null","","html-keyboard-response","625","814303","0.0-8.0-2.14","","<div style=""font-size:60px;"">+</div>","null","","","","","","",""
"850.8999999761581","","image-keyboard-response","626","815155","0.0-8.0-0.15","","img/green.png","32","trial","32","true","0.8,0.2","1:go_a","",""
"null","","html-keyboard-response","627","816161","0.0-8.0-1.15","","<img src=""img/green-n.png"" border=""10"">","null","trial","32","","0.8,0.2","1:go_a","0",""
"null","","html-keyboard-response","628","817164","0.0-8.0-2.15","","<div style=""font-size:60px;"">+</div>","null","","","","","","",""
"null","","image-keyboard-response","629","818668","0.0-8.0-0.16","","img/grey.png","null","trial","null","true","0.2,0.8","2:nogo_b","",""
"null","","html-keyboard-response","630","819672","0.0-8.0-1.16","","<img src=""img/grey-r.png"">","null","trial","null","","0.2,0.8","2:nogo_b","1",""
"null","","html-keyboard-response","631","820675","0.0-8.0-2.16","","<div style=""font-size:60px;"">+</div>","null","","","","","","",""
"583.1999999880791","","image-keyboard-response","632","821259","0.0-8.0-0.17","","img/green.png","32","trial","32","true","0.8,0.2","1:go_a","",""
"null","","html-keyboard-response","633","822279","0.0-8.0-1.17","","<img src=""img/green-r.png"" border=""10"">","null","trial","32","","0.8,0.2","1:go_a","1",""
"null","","html-keyboard-response","634","823282","0.0-8.0-2.17","","<div style=""font-size:60px;"">+</div>","null","","","","","","",""
"975.5","","image-keyboard-response","635","824259","0.0-8.0-0.18","","img/purple.png","32","trial","32","true","0.8,0.2","3:go_c","",""
"null","","html-keyboard-response","636","825266","0.0-8.0-1.18","","<img src=""img/purple-r.png"" border=""10"">","null","trial","32","","0.8,0.2","3:go_c","1",""
"null","","html-keyboard-response","637","826269","0.0-8.0-2.18","","<div style=""font-size:60px;"">+</div>","null","","","","","","",""
"677.7000000178814","","image-keyboard-response","638","826948","0.0-8.0-0.19","","img/yellow.png","32","trial","null","false","0.2,0.8","4:nogo_d","",""
"null","","html-keyboard-response","639","827958","0.0-8.0-1.19","","<img src=""img/yellow-n.png"" border=""10"">","null","trial","null","","0.2,0.8","4:nogo_d","0",""
"null","","html-keyboard-response","640","828962","0.0-8.0-2.19","","<div style=""font-size:60px;"">+</div>","null","","","","","","",""
"null","","image-keyboard-response","641","830466","0.0-8.0-0.20","","img/purple.png","null","trial","32","false","0.8,0.2","3:go_c","",""
"null","","html-keyboard-response","642","831484","0.0-8.0-1.20","","<img src=""img/purple-r.png"">","null","trial","32","","0.8,0.2","3:go_c","1",""
"null","","html-keyboard-response","643","832487","0.0-8.0-2.20","","<div style=""font-size:60px;"">+</div>","null","","","","","","",""
"939.5","","image-keyboard-response","644","833427","0.0-8.0-0.21","","img/green.png","32","trial","32","true","0.8,0.2","1:go_a","",""
"null","","html-keyboard-response","645","834430","0.0-8.0-1.21","","<img src=""img/green-r.png"" border=""10"">","null","trial","32","","0.8,0.2","1:go_a","1",""
"null","","html-keyboard-response","646","835432","0.0-8.0-2.21","","<div style=""font-size:60px;"">+</div>","null","","","","","","",""
"null","","image-keyboard-response","647","836937","0.0-8.0-0.22","","img/grey.png","null","trial","null","true","0.2,0.8","2:nogo_b","",""
"null","","html-keyboard-response","648","837940","0.0-8.0-1.22","","<img src=""img/grey-n.png"">","null","trial","null","","0.2,0.8","2:nogo_b","0",""
"null","","html-keyboard-response","649","838942","0.0-8.0-2.22","","<div style=""font-size:60px;"">+</div>","null","","","","","","",""
"475.7000000178814","","image-keyboard-response","650","839419","0.0-8.0-0.23","","img/yellow.png","32","trial","null","false","0.2,0.8","4:nogo_d","",""
"null","","html-keyboard-response","651","840431","0.0-8.0-1.23","","<img src=""img/yellow-r.png"" border=""10"">","null","trial","null","","0.2,0.8","4:nogo_d","1",""
"null","","html-keyboard-response","652","841434","0.0-8.0-2.23","","<div style=""font-size:60px;"">+</div>","null","","","","","","",""
"440.40000000596046","","image-keyboard-response","653","841875","0.0-8.0-0.24","","img/yellow.png","32","trial","null","false","0.2,0.8","4:nogo_d","",""
"null","","html-keyboard-response","654","842884","0.0-8.0-1.24","","<img src=""img/yellow-n.png"" border=""10"">","null","trial","null","","0.2,0.8","4:nogo_d","0",""
"null","","html-keyboard-response","655","843887","0.0-8.0-2.24","","<div style=""font-size:60px;"">+</div>","null","","","","","","",""
"null","","image-keyboard-response","656","845390","0.0-8.0-0.25","","img/grey.png","null","trial","null","true","0.2,0.8","2:nogo_b","",""
"null","","html-keyboard-response","657","846393","0.0-8.0-1.25","","<img src=""img/grey-n.png"">","null","trial","null","","0.2,0.8","2:nogo_b","0",""
"null","","html-keyboard-response","658","847395","0.0-8.0-2.25","","<div style=""font-size:60px;"">+</div>","null","","","","","","",""
"431.69999998807907","","image-keyboard-response","659","847827","0.0-8.0-0.26","","img/purple.png","32","trial","32","true","0.8,0.2","3:go_c","",""
"null","","html-keyboard-response","660","848830","0.0-8.0-1.26","","<img src=""img/purple-r.png"" border=""10"">","null","trial","32","","0.8,0.2","3:go_c","1",""
"null","","html-keyboard-response","661","849833","0.0-8.0-2.26","","<div style=""font-size:60px;"">+</div>","null","","","","","","",""
"433.5","","image-keyboard-response","662","850267","0.0-8.0-0.27","","img/green.png","32","trial","32","true","0.8,0.2","1:go_a","",""
"null","","html-keyboard-response","663","851274","0.0-8.0-1.27","","<img src=""img/green-r.png"" border=""10"">","null","trial","32","","0.8,0.2","1:go_a","1",""
"null","","html-keyboard-response","664","852277","0.0-8.0-2.27","","<div style=""font-size:60px;"">+</div>","null","","","","","","",""
"421.2999999821186","","image-keyboard-response","665","852699","0.0-8.0-0.28","","img/green.png","32","trial","32","true","0.8,0.2","1:go_a","",""
"null","","html-keyboard-response","666","853712","0.0-8.0-1.28","","<img src=""img/green-r.png"" border=""10"">","null","trial","32","","0.8,0.2","1:go_a","1",""
"null","","html-keyboard-response","667","854714","0.0-8.0-2.28","","<div style=""font-size:60px;"">+</div>","null","","","","","","",""
"null","","image-keyboard-response","668","856217","0.0-8.0-0.29","","img/grey.png","null","trial","null","true","0.2,0.8","2:nogo_b","",""
"null","","html-keyboard-response","669","857220","0.0-8.0-1.29","","<img src=""img/grey-r.png"">","null","trial","null","","0.2,0.8","2:nogo_b","1",""
"null","","html-keyboard-response","670","858222","0.0-8.0-2.29","","<div style=""font-size:60px;"">+</div>","null","","","","","","",""
"651.5999999940395","","image-keyboard-response","671","858875","0.0-8.0-0.30","","img/yellow.png","32","trial","null","false","0.2,0.8","4:nogo_d","",""
"null","","html-keyboard-response","672","859880","0.0-8.0-1.30","","<img src=""img/yellow-n.png"" border=""10"">","null","trial","null","","0.2,0.8","4:nogo_d","0",""
"null","","html-keyboard-response","673","860894","0.0-8.0-2.30","","<div style=""font-size:60px;"">+</div>","null","","","","","","",""
"1172.800000011921","","image-keyboard-response","674","862067","0.0-8.0-0.31","","img/purple.png","32","trial","32","true","0.8,0.2","3:go_c","",""
"null","","html-keyboard-response","675","863087","0.0-8.0-1.31","","<img src=""img/purple-r.png"" border=""10"">","null","trial","32","","0.8,0.2","3:go_c","1",""
"null","","html-keyboard-response","676","864090","0.0-8.0-2.31","","<div style=""font-size:60px;"">+</div>","null","","","","","","",""
"null","","image-keyboard-response","677","865595","0.0-8.0-0.32","","img/grey.png","null","trial","null","true","0.2,0.8","2:nogo_b","",""
"null","","html-keyboard-response","678","866597","0.0-8.0-1.32","","<img src=""img/grey-r.png"">","null","trial","null","","0.2,0.8","2:nogo_b","1",""
"null","","html-keyboard-response","679","867601","0.0-8.0-2.32","","<div style=""font-size:60px;"">+</div>","null","","","","","","",""
